#time,accel_x,accel_y,accel_z
413.244606,6513.812290,-10140.821405,2374.896044
413.244930,4293.194464,-11177.109724,-689.485948
413.245255,1924.535449,-11843.295072,-1302.362347
413.245579,592.164754,-12953.603985,995.924147
413.245903,0.000000,-14137.933492,1915.238745
413.246228,-1258.350101,-11991.336260,1455.581446
413.246552,-1850.514855,-8438.347739,306.438199
413.246876,-2072.576638,-6809.894666,229.828649
413.247201,-740.205942,-8142.265362,383.047749
413.247525,148.041188,-8142.265362,459.657299
413.247849,-222.061783,-6513.812290,1608.800546
413.248174,-296.082377,-5625.565159,1532.190996
413.248498,1332.370696,-6587.832884,0.000000
413.248822,2146.597232,-9030.512492,0.000000
413.249147,2664.741391,-11769.274478,0.000000
413.249471,2960.823768,-12805.562797,-1378.971896
413.249795,2146.597232,-12953.603985,-1225.752797
413.250120,1258.350101,-12213.398043,-383.047749
413.250444,740.205942,-11917.315666,-689.485948
413.250768,444.123565,-12139.377449,-995.924147
413.251093,370.102971,-11547.212695,-383.047749
413.251417,1184.329507,-10955.047942,459.657299
413.251741,1924.535449,-10881.027347,612.876398
413.252066,1258.350101,-9770.718434,1302.362347
413.252390,962.267725,-9474.636058,842.705048
413.252714,1258.350101,-10214.842000,689.485948
413.253039,222.061783,-10881.027347,153.219100
413.253363,1332.370696,-11177.109724,-383.047749
413.253687,2368.659014,-9770.718434,536.266849
413.254011,3627.009116,-9844.739029,306.438199
413.254336,3923.091493,-10510.924376,76.609550
413.254660,3552.988522,-10214.842000,689.485948
413.254984,3923.091493,-9844.739029,1378.971896
413.255309,4663.297435,-9400.615463,1302.362347
413.255633,5477.523971,-8808.450710,2834.553343
413.255957,5181.441594,-8586.388927,3600.648841
413.256282,5033.400406,-9400.615463,3753.867940
413.256606,4367.215058,-10510.924376,3907.087040
413.256930,3256.906145,-10584.944971,3830.477490
413.257255,2368.659014,-9918.759623,3677.258390
413.257579,1628.453072,-9030.512492,3524.039291
413.257903,74.020594,-8586.388927,3600.648841
413.258228,0.000000,-7920.203579,3294.210641
413.258552,-740.205942,-7994.224174,2911.162892
413.258876,-592.164754,-7476.080014,2757.943793
413.259201,74.020594,-7031.956449,2757.943793
413.259525,1702.473667,-6291.750507,3600.648841
413.259849,3552.988522,-5699.585753,3983.696590
413.260174,4885.359217,-5921.647536,3524.039291
413.260498,4145.153275,-6883.915261,3677.258390
413.260822,2368.659014,-8068.244768,4136.915689
413.261147,0.000000,-10510.924376,3907.087040
413.261471,-1850.514855,-11177.109724,3140.991542
413.261795,-3182.885551,-10510.924376,2987.772442
413.262120,-4441.235652,-10140.821405,2528.115143
413.262444,-4663.297435,-9474.636058,3370.820191
413.262768,-3775.050304,-9548.656652,3064.381992
413.263093,-1110.308913,-8956.491898,3907.087040
413.263417,1480.411884,-7698.141797,3294.210641
413.263741,3552.988522,-7402.059420,2834.553343
413.264066,4737.318029,-7550.100608,2451.505594
413.264390,5625.565159,-7550.100608,1225.752797
413.264714,5033.400406,-7920.203579,229.828649
413.265039,2220.617826,-10214.842000,229.828649
413.265363,-222.061783,-12731.542202,0.000000
413.265687,-2072.576638,-13397.727550,-229.828649
413.266011,-4219.173869,-12657.521608,0.000000
413.266336,-5329.482782,-11917.315666,-536.266849
413.266660,-4811.338623,-12213.398043,-766.095498
413.266984,-3552.988522,-11399.171507,-229.828649
413.267309,-888.247130,-9548.656652,536.266849
413.267633,1258.350101,-9178.553681,1378.971896
413.267957,2516.700203,-9918.759623,842.705048
413.268282,2886.803174,-10362.883188,-612.876398
413.268606,2146.597232,-9770.718434,-1762.019645
413.268930,370.102971,-10066.800811,-2834.553343
413.269255,-962.267725,-11547.212695,-3830.477490
413.269579,-1184.329507,-11843.295072,-3907.087040
413.269903,-592.164754,-10881.027347,-3983.696590
413.270228,74.020594,-10214.842000,-2451.505594
413.270552,1776.494261,-9992.780217,-2451.505594
413.270876,2294.638420,-9178.553681,-2145.067394
413.271201,2072.576638,-8660.409521,-1532.190996
413.271525,1258.350101,-8512.368333,-1072.533697
413.271849,-740.205942,-8364.327145,0.000000
413.272174,-2294.638420,-8956.491898,-842.705048
413.272498,-4145.153275,-8882.471304,-1378.971896
413.272822,-4663.297435,-8734.430116,-3140.991542
413.273147,-3256.906145,-8734.430116,-3753.867940
413.273471,-1110.308913,-8956.491898,-3830.477490
413.273795,592.164754,-9474.636058,-3983.696590
413.274117,1480.411884,-9326.594869,-3983.696590
413.274441,1998.556043,-9252.574275,-3524.039291
413.274766,1628.453072,-9326.594869,-3524.039291
413.275090,1702.473667,-10362.883188,-2834.553343
413.275414,1110.308913,-10584.944971,-1685.410096
413.275738,888.247130,-10066.800811,-383.047749
413.276062,370.102971,-10288.862594,0.000000
413.276386,148.041188,-10807.006753,536.266849
413.276710,0.000000,-11029.068536,383.047749
413.277035,0.000000,-10214.842000,153.219100
413.277359,0.000000,-9104.533087,-689.485948
413.277683,-962.267725,-8364.327145,-919.314598
413.278007,-1258.350101,-8808.450710,-1838.629195
413.278331,-962.267725,-9252.574275,-2068.457845
413.278655,-1554.432478,-9474.636058,-2298.286494
413.278980,-1924.535449,-9104.533087,-1991.848295
413.279304,-962.267725,-9326.594869,-1225.752797
413.279628,592.164754,-9474.636058,-842.705048
413.279952,2664.741391,-10362.883188,842.705048
413.280276,3627.009116,-10584.944971,1685.410096
413.280600,3256.906145,-11251.130318,2145.067394
413.280924,2146.597232,-11991.336260,2221.676944
413.281249,0.000000,-11917.315666,1991.848295
413.281573,-2516.700203,-11695.253884,1608.800546
413.281897,-4737.318029,-11029.068536,1302.362347
413.282221,-5625.565159,-10362.883188,459.657299
413.282545,-5477.523971,-9548.656652,459.657299
413.282869,-3034.844362,-8734.430116,612.876398
413.283193,-888.247130,-7846.182985,1378.971896
413.283518,1924.535449,-7846.182985,1608.800546
413.283842,3478.967927,-7698.141797,1762.019645
413.284166,3627.009116,-8216.285956,2068.457845
413.284490,2146.597232,-8364.327145,1302.362347
413.284814,518.144159,-9622.677246,1072.533697
413.285138,-1184.329507,-10732.986159,995.924147
413.285463,-2442.679609,-10510.924376,2068.457845
413.285787,-2738.761985,-10140.821405,1378.971896
413.286111,-1850.514855,-9844.739029,2145.067394
413.286435,-148.041188,-9474.636058,2451.505594
413.286759,1184.329507,-8882.471304,2451.505594
413.287083,2146.597232,-8068.244768,2681.334243
413.287407,2442.679609,-7698.141797,2451.505594
413.287732,2072.576638,-8290.306550,1302.362347
413.288056,1110.308913,-8586.388927,1302.362347
413.288380,-370.102971,-9622.677246,995.924147
413.288704,-1480.411884,-9918.759623,536.266849
413.289028,-1850.514855,-9992.780217,0.000000
413.289352,-962.267725,-10140.821405,76.609550
413.289676,0.000000,-9696.697840,0.000000
413.290001,2146.597232,-9770.718434,766.095498
413.290325,2516.700203,-9178.553681,1149.143247
413.290649,2294.638420,-8956.491898,995.924147
413.290973,1480.411884,-8882.471304,842.705048
413.291297,444.123565,-8808.450710,689.485948
413.291621,-518.144159,-8660.409521,459.657299
413.291946,-1184.329507,-8586.388927,459.657299
413.292270,-962.267725,-9178.553681,-229.828649
413.292594,444.123565,-9622.677246,-459.657299
413.292918,1554.432478,-9844.739029,-536.266849
413.293242,2664.741391,-10436.903782,-459.657299
413.293566,2590.720797,-10436.903782,-1149.143247
413.293890,2072.576638,-10732.986159,-1072.533697
413.294215,1406.391290,-11621.233289,-766.095498
413.294539,-148.041188,-11177.109724,-1378.971896
413.294863,-1850.514855,-10955.047942,-1225.752797
413.295187,-2960.823768,-10214.842000,-1225.752797
413.295511,-2220.617826,-9918.759623,-766.095498
413.295835,-1110.308913,-9696.697840,-612.876398
413.296159,444.123565,-9400.615463,-536.266849
413.296484,1776.494261,-9252.574275,-229.828649
413.296808,2146.597232,-9030.512492,-612.876398
413.297132,1628.453072,-8956.491898,-1378.971896
413.297456,296.082377,-9252.574275,-1225.752797
413.297780,-1184.329507,-10214.842000,-1915.238745
413.298104,-2664.741391,-11251.130318,-1915.238745
413.298429,-3108.864956,-10881.027347,-2298.286494
413.298753,-2664.741391,-10510.924376,-1762.019645
413.299077,-1406.391290,-10214.842000,-1915.238745
413.299401,296.082377,-9844.739029,-995.924147
413.299725,1480.411884,-9696.697840,-766.095498
413.300049,1480.411884,-9474.636058,-383.047749
413.300373,1036.288319,-9918.759623,-383.047749
413.300698,0.000000,-9770.718434,-536.266849
413.301022,-1110.308913,-9548.656652,-459.657299
413.301346,-2146.597232,-9474.636058,-919.314598
413.301670,-2368.659014,-9326.594869,-1149.143247
413.301994,-1702.473667,-9770.718434,-1225.752797
413.302318,-370.102971,-9548.656652,-1149.143247
413.302642,814.226536,-9474.636058,-1225.752797
413.302967,1036.288319,-9178.553681,-766.095498
413.303291,888.247130,-9252.574275,-919.314598
413.303615,0.000000,-9770.718434,-995.924147
413.303939,-1184.329507,-10066.800811,-995.924147
413.304263,-2220.617826,-9992.780217,-536.266849
413.304587,-2516.700203,-9770.718434,-383.047749
413.304912,-2146.597232,-9992.780217,-536.266849
413.305236,-1850.514855,-9548.656652,-306.438199
413.305560,0.000000,-9918.759623,0.000000
413.305884,1480.411884,-9622.677246,-153.219100
413.306208,2368.659014,-9622.677246,0.000000
413.306532,3330.926739,-9696.697840,153.219100
413.306856,2590.720797,-9770.718434,0.000000
413.307181,1850.514855,-10436.903782,-306.438199
413.307505,0.000000,-11251.130318,-536.266849
413.307829,-1554.432478,-10807.006753,0.000000
413.308153,-2442.679609,-10288.862594,0.000000
413.308477,-2146.597232,-9992.780217,229.828649
413.308801,-962.267725,-9400.615463,612.876398
413.309125,592.164754,-9252.574275,612.876398
413.309450,1776.494261,-8586.388927,1378.971896
413.309774,2220.617826,-8142.265362,1302.362347
413.310098,1776.494261,-8290.306550,919.314598
413.310422,592.164754,-8364.327145,995.924147
413.310746,-592.164754,-8956.491898,766.095498
413.311070,-1776.494261,-9252.574275,383.047749
413.311395,-2516.700203,-9548.656652,-306.438199
413.311719,-1998.556043,-10066.800811,153.219100
413.312043,-444.123565,-10140.821405,459.657299
413.312367,1332.370696,-9696.697840,1378.971896
413.312691,2368.659014,-10140.821405,1532.190996
413.313015,2368.659014,-9770.718434,1378.971896
413.313339,1850.514855,-9622.677246,1455.581446
413.313664,666.185348,-9770.718434,1455.581446
413.313988,-444.123565,-9400.615463,1455.581446
413.314312,-1110.308913,-9474.636058,1149.143247
413.314636,-1332.370696,-8808.450710,1302.362347
413.314960,-962.267725,-8956.491898,1225.752797
413.315284,0.000000,-9030.512492,919.314598
413.315609,888.247130,-8882.471304,919.314598
413.315933,1406.391290,-8734.430116,459.657299
413.316257,1036.288319,-8660.409521,536.266849
413.316581,296.082377,-8956.491898,306.438199
413.316905,-666.185348,-8956.491898,-229.828649
413.317229,-1776.494261,-10066.800811,153.219100
413.317553,-2368.659014,-9770.718434,-229.828649
413.317878,-2146.597232,-9326.594869,-306.438199
413.318202,-1332.370696,-9252.574275,0.000000
413.318526,222.061783,-9400.615463,306.438199
413.318850,1850.514855,-9918.759623,1072.533697
413.319174,2590.720797,-10214.842000,229.828649
413.319498,2368.659014,-10362.883188,689.485948
413.319822,1406.391290,-10732.986159,76.609550
413.320147,-222.061783,-10955.047942,-459.657299
413.320471,-1554.432478,-11251.130318,-612.876398
413.320795,-2812.782580,-11325.150913,-842.705048
413.321119,-3108.864956,-10807.006753,-1072.533697
413.321443,-1480.411884,-10436.903782,-842.705048
413.321767,-148.041188,-9252.574275,-612.876398
413.322092,1850.514855,-9104.533087,-689.485948
413.322416,2516.700203,-9030.512492,-459.657299
413.322740,2442.679609,-8956.491898,-459.657299
413.323064,1702.473667,-9104.533087,-612.876398
413.323388,592.164754,-9326.594869,-766.095498
413.323712,-1332.370696,-9474.636058,-536.266849
413.324036,-2442.679609,-10066.800811,-612.876398
413.324361,-2368.659014,-9918.759623,-1072.533697
413.324685,-2220.617826,-9844.739029,-1378.971896
413.325009,-592.164754,-10140.821405,-1072.533697
413.325333,740.205942,-9992.780217,-995.924147
413.325657,1332.370696,-9770.718434,-842.705048
413.325981,888.247130,-9474.636058,-766.095498
413.326305,518.144159,-9474.636058,-229.828649
413.326630,0.000000,-9696.697840,-995.924147
413.326954,-444.123565,-9696.697840,-612.876398
413.327278,-962.267725,-9474.636058,-842.705048
413.327602,-888.247130,-9326.594869,-766.095498
413.327926,0.000000,-9400.615463,-689.485948
413.328250,1184.329507,-9622.677246,-536.266849
413.328575,1924.535449,-9326.594869,-919.314598
413.328899,1924.535449,-9030.512492,0.000000
413.329223,1406.391290,-9474.636058,-536.266849
413.329547,444.123565,-9622.677246,-306.438199
413.329871,-1036.288319,-9844.739029,-689.485948
413.330195,-1924.535449,-9548.656652,-612.876398
413.330519,-2368.659014,-9474.636058,-612.876398
413.330844,-2146.597232,-9326.594869,-689.485948
413.331168,-444.123565,-9548.656652,153.219100
413.331492,1406.391290,-9400.615463,536.266849
413.331816,2960.823768,-9696.697840,76.609550
413.332140,2590.720797,-9844.739029,153.219100
413.332464,1850.514855,-10288.862594,0.000000
413.332788,740.205942,-10658.965565,0.000000
413.333113,-592.164754,-11103.089130,0.000000
413.333437,-1850.514855,-11251.130318,229.828649
413.333761,-3108.864956,-10881.027347,-153.219100
413.334085,-2516.700203,-10436.903782,766.095498
413.334409,-1850.514855,-9844.739029,689.485948
413.334733,-148.041188,-9400.615463,919.314598
413.335058,1480.411884,-9030.512492,1149.143247
413.335382,1850.514855,-8512.368333,1608.800546
413.335706,1998.556043,-8068.244768,1378.971896
413.336030,1332.370696,-8216.285956,1225.752797
413.336354,-444.123565,-8734.430116,1225.752797
413.336678,-1924.535449,-9918.759623,612.876398
413.337002,-2738.761985,-9918.759623,76.609550
413.337327,-2886.803174,-9918.759623,0.000000
413.337651,-2072.576638,-9622.677246,229.828649
413.337975,-296.082377,-9696.697840,383.047749
413.338299,1480.411884,-9622.677246,1072.533697
413.338623,1998.556043,-9474.636058,995.924147
413.338947,1332.370696,-8660.409521,1532.190996
413.339271,1110.308913,-9326.594869,1072.533697
413.339596,-222.061783,-9474.636058,1072.533697
413.339920,-814.226536,-9770.718434,842.705048
413.340244,-1332.370696,-9770.718434,536.266849
413.340568,-1628.453072,-9548.656652,153.219100
413.340892,-592.164754,-9696.697840,766.095498
413.341216,888.247130,-9326.594869,689.485948
413.341541,1554.432478,-9030.512492,76.609550
413.341865,1702.473667,-9030.512492,153.219100
413.342189,1110.308913,-9178.553681,0.000000
413.342513,148.041188,-9548.656652,-229.828649
413.342837,-666.185348,-9474.636058,0.000000
413.343161,-1554.432478,-9474.636058,-306.438199
413.343485,-1850.514855,-9474.636058,-536.266849
413.343810,-1480.411884,-9252.574275,-612.876398
413.344134,148.041188,-9548.656652,-229.828649
413.344458,1776.494261,-9770.718434,0.000000
413.344782,2960.823768,-9992.780217,0.000000
413.345106,3330.926739,-10140.821405,-229.828649
413.345430,2294.638420,-9770.718434,-306.438199
413.345754,1406.391290,-10658.965565,0.000000
413.346079,-296.082377,-11251.130318,-766.095498
413.346403,-1554.432478,-11399.171507,-536.266849
413.346727,-2738.761985,-10658.965565,-995.924147
413.347051,-2368.659014,-9992.780217,-995.924147
413.347375,-888.247130,-9770.718434,-689.485948
413.347699,1258.350101,-9474.636058,-612.876398
413.348024,2442.679609,-8882.471304,0.000000
413.348348,2516.700203,-8586.388927,-229.828649
413.348672,1850.514855,-8882.471304,0.000000
413.348996,444.123565,-9474.636058,-383.047749
413.349320,-666.185348,-10140.821405,-689.485948
413.349644,-2368.659014,-10066.800811,-919.314598
413.349968,-3330.926739,-10066.800811,-1072.533697
413.350293,-2812.782580,-9770.718434,-842.705048
413.350617,-1406.391290,-10362.883188,-383.047749
413.350941,222.061783,-9622.677246,76.609550
413.351265,1924.535449,-9252.574275,0.000000
413.351589,1924.535449,-9474.636058,306.438199
413.351913,1332.370696,-9548.656652,383.047749
413.352238,148.041188,-9400.615463,153.219100
413.352562,-1110.308913,-9474.636058,306.438199
413.352886,-1702.473667,-9770.718434,76.609550
413.353210,-2146.597232,-9548.656652,-153.219100
413.353534,-1406.391290,-9622.677246,-306.438199
413.353858,-148.041188,-9252.574275,76.609550
413.354182,814.226536,-8882.471304,306.438199
413.354507,1702.473667,-8808.450710,0.000000
413.354831,1036.288319,-8956.491898,0.000000
413.355155,222.061783,-9104.533087,0.000000
413.355479,-518.144159,-9548.656652,0.000000
413.355803,-1850.514855,-9770.718434,-612.876398
413.356127,-2812.782580,-9178.553681,-536.266849
413.356451,-2960.823768,-9178.553681,-766.095498
413.356776,-1554.432478,-9696.697840,-612.876398
413.357100,0.000000,-9770.718434,-459.657299
413.357424,1628.453072,-9622.677246,229.828649
413.357748,2812.782580,-9992.780217,306.438199
413.358072,2590.720797,-10436.903782,76.609550
413.358396,2072.576638,-10584.944971,229.828649
413.358721,370.102971,-10955.047942,-536.266849
413.359045,-1110.308913,-11029.068536,-306.438199
413.359369,-2590.720797,-10510.924376,-1149.143247
413.359693,-2442.679609,-10436.903782,-766.095498
413.360017,-1702.473667,-10066.800811,-459.657299
413.360341,0.000000,-10066.800811,0.000000
413.360665,1998.556043,-9548.656652,0.000000
413.360990,3404.947333,-8882.471304,459.657299
413.361314,3108.864956,-8882.471304,383.047749
413.361638,2738.761985,-9104.533087,383.047749
413.361962,1110.308913,-9474.636058,0.000000
413.362286,-740.205942,-9992.780217,0.000000
413.362610,-2146.597232,-10214.842000,-536.266849
413.362934,-2738.761985,-10140.821405,-766.095498
413.363259,-1850.514855,-9770.718434,-153.219100
413.363583,0.000000,-9844.739029,306.438199
413.363907,1258.350101,-9622.677246,306.438199
413.364231,2220.617826,-9622.677246,1149.143247
413.364555,1998.556043,-9770.718434,995.924147
413.364879,1480.411884,-9548.656652,766.095498
413.365204,370.102971,-10140.821405,1072.533697
413.365528,-444.123565,-10066.800811,842.705048
413.365852,-1480.411884,-9474.636058,919.314598
413.366176,-1406.391290,-9400.615463,689.485948
413.366500,-1184.329507,-8808.450710,229.828649
413.366824,148.041188,-8956.491898,766.095498
413.367148,740.205942,-8660.409521,766.095498
413.367473,1036.288319,-8216.285956,995.924147
413.367797,814.226536,-7994.224174,612.876398
413.368121,74.020594,-7994.224174,459.657299
413.368445,-666.185348,-8438.347739,459.657299
413.368769,-2294.638420,-9030.512492,689.485948
413.369093,-2368.659014,-9178.553681,536.266849
413.369417,-2738.761985,-8734.430116,383.047749
413.369742,-1628.453072,-8956.491898,383.047749
413.370066,148.041188,-9104.533087,612.876398
413.370390,2146.597232,-9400.615463,842.705048
413.370714,2812.782580,-9770.718434,1378.971896
413.371038,2442.679609,-9992.780217,1685.410096
413.371362,1332.370696,-10658.965565,306.438199
413.371687,0.000000,-10732.986159,0.000000
413.372011,-1850.514855,-11325.150913,-306.438199
413.372335,-3034.844362,-10881.027347,-536.266849
413.372659,-3182.885551,-10362.883188,-612.876398
413.372983,-2146.597232,-9770.718434,-612.876398
413.373307,-148.041188,-9474.636058,-383.047749
413.373631,1776.494261,-9400.615463,-229.828649
413.373956,2516.700203,-9400.615463,153.219100
413.374280,2368.659014,-9178.553681,-306.438199
413.374604,1406.391290,-9252.574275,-612.876398
413.374928,0.000000,-10066.800811,-689.485948
413.375252,-1776.494261,-9992.780217,-689.485948
413.375577,-2738.761985,-10510.924376,-1302.362347
413.375901,-2812.782580,-10807.006753,-1149.143247
413.376225,-1332.370696,-10584.944971,-612.876398
413.376549,740.205942,-10436.903782,-689.485948
413.376874,1702.473667,-10066.800811,-689.485948
413.377198,2368.659014,-9918.759623,-459.657299
413.377522,2072.576638,-9992.780217,-842.705048
413.377846,1406.391290,-9622.677246,-689.485948
413.378171,74.020594,-9770.718434,-1608.800546
413.378495,-666.185348,-10214.842000,-842.705048
413.378819,-888.247130,-9696.697840,-689.485948
413.379143,-1036.288319,-9770.718434,-919.314598
413.379468,-518.144159,-9918.759623,-766.095498
413.379792,666.185348,-9696.697840,-612.876398
413.380116,1480.411884,-9178.553681,-919.314598
413.380440,1628.453072,-8586.388927,-536.266849
413.380765,1258.350101,-8882.471304,-153.219100
413.381089,-370.102971,-9178.553681,-1225.752797
413.381413,-1776.494261,-9474.636058,-1149.143247
413.381737,-2886.803174,-9400.615463,-1072.533697
413.382062,-3182.885551,-8956.491898,-1149.143247
413.382386,-2590.720797,-9104.533087,-919.314598
413.382710,-1184.329507,-8882.471304,-612.876398
413.383034,740.205942,-9252.574275,-229.828649
413.383358,1998.556043,-9326.594869,153.219100
413.383683,2368.659014,-9548.656652,0.000000
413.384007,1628.453072,-9844.739029,-153.219100
413.384331,518.144159,-10140.821405,-383.047749
413.384655,-1258.350101,-10658.965565,-229.828649
413.384980,-2368.659014,-10807.006753,-229.828649
413.385304,-3108.864956,-10436.903782,0.000000
413.385628,-2664.741391,-10066.800811,0.000000
413.385952,-444.123565,-9326.594869,306.438199
413.386277,1332.370696,-9030.512492,689.485948
413.386601,3034.844362,-9030.512492,842.705048
413.386925,3404.947333,-8956.491898,1149.143247
413.387249,2960.823768,-9030.512492,842.705048
413.387574,1850.514855,-9400.615463,766.095498
413.387898,0.000000,-10066.800811,536.266849
413.388222,-1332.370696,-10362.883188,383.047749
413.388546,-2220.617826,-10214.842000,76.609550
413.388871,-2368.659014,-10658.965565,0.000000
413.389195,-1258.350101,-10732.986159,76.609550
413.389519,222.061783,-10510.924376,842.705048
413.389843,1554.432478,-10288.862594,1072.533697
413.390168,1998.556043,-9548.656652,1225.752797
413.390492,1554.432478,-9474.636058,1072.533697
413.390816,740.205942,-9696.697840,1072.533697
413.391140,0.000000,-10066.800811,995.924147
413.391465,-740.205942,-10140.821405,689.485948
413.391789,-1332.370696,-10066.800811,766.095498
413.392113,-1184.329507,-9548.656652,689.485948
413.392437,-444.123565,-9548.656652,229.828649
413.392761,222.061783,-9252.574275,766.095498
413.393086,1480.411884,-8808.450710,459.657299
413.393410,1554.432478,-8660.409521,842.705048
413.393734,962.267725,-8956.491898,536.266849
413.394058,0.000000,-9030.512492,383.047749
413.394383,-962.267725,-9030.512492,612.876398
413.394707,-1628.453072,-8734.430116,459.657299
413.395031,-1406.391290,-8660.409521,306.438199
413.395355,-1110.308913,-8660.409521,306.438199
413.395680,1036.288319,-8734.430116,1149.143247
413.396004,2072.576638,-9178.553681,536.266849
413.396328,2738.761985,-9400.615463,536.266849
413.396652,2516.700203,-9622.677246,229.828649
413.396977,1554.432478,-10140.821405,0.000000
413.397301,0.000000,-10955.047942,0.000000
413.397625,-1924.535449,-10732.986159,-536.266849
413.397949,-3034.844362,-10066.800811,-383.047749
413.398274,-3478.967927,-9696.697840,-1072.533697
413.398598,-2072.576638,-9622.677246,-919.314598
413.398922,0.000000,-9252.574275,-306.438199
413.399246,1924.535449,-8882.471304,-153.219100
413.399571,2812.782580,-8364.327145,0.000000
413.399895,2886.803174,-8438.347739,-536.266849
413.400219,2368.659014,-8512.368333,0.000000
413.400543,444.123565,-9474.636058,-459.657299
413.400868,-1480.411884,-10510.924376,-1378.971896
413.401192,-2886.803174,-10807.006753,-1608.800546
413.401516,-3330.926739,-10807.006753,-1685.410096
413.401840,-2664.741391,-10807.006753,-1608.800546
413.402164,-962.267725,-10214.842000,-1225.752797
413.402489,814.226536,-9548.656652,-1149.143247
413.402813,2072.576638,-10140.821405,-383.047749
413.403137,1850.514855,-10140.821405,0.000000
413.403461,1702.473667,-10140.821405,-383.047749
413.403786,814.226536,-10214.842000,-383.047749
413.404110,-296.082377,-10584.944971,-306.438199
413.404434,-1258.350101,-10288.862594,-383.047749
413.404758,-1850.514855,-10362.883188,-995.924147
413.405083,-1184.329507,-10214.842000,-612.876398
413.405407,-296.082377,-9548.656652,-153.219100
413.405731,444.123565,-9326.594869,-306.438199
413.406055,1184.329507,-9104.533087,76.609550
413.406380,814.226536,-9104.533087,0.000000
413.406704,0.000000,-8956.491898,-153.219100
413.407028,-888.247130,-8512.368333,0.000000
413.407352,-2294.638420,-8586.388927,-459.657299
413.407677,-2738.761985,-8586.388927,-383.047749
413.408001,-2368.659014,-8438.347739,0.000000
413.408325,-1184.329507,-8586.388927,-306.438199
413.408649,518.144159,-8956.491898,0.000000
413.408974,1850.514855,-9400.615463,153.219100
413.409298,1998.556043,-9474.636058,689.485948
413.409622,1702.473667,-9474.636058,536.266849
413.409946,740.205942,-10140.821405,0.000000
413.410271,-740.205942,-10584.944971,0.000000
413.410595,-2368.659014,-10807.006753,0.000000
413.410919,-3034.844362,-10584.944971,-306.438199
413.411243,-2738.761985,-10066.800811,-383.047749
413.411567,-1480.411884,-9474.636058,0.000000
413.411892,666.185348,-8882.471304,76.609550
413.412216,2368.659014,-8808.450710,306.438199
413.412540,3552.988522,-8660.409521,0.000000
413.412864,2886.803174,-8882.471304,76.609550
413.413189,2294.638420,-9548.656652,-229.828649
413.413513,740.205942,-10214.842000,-229.828649
413.413837,-962.267725,-10584.944971,-612.876398
413.414161,-2146.597232,-10584.944971,-1149.143247
413.414486,-2516.700203,-10584.944971,-766.095498
413.414810,-1628.453072,-10436.903782,-229.828649
413.415134,0.000000,-10362.883188,-383.047749
413.415458,1554.432478,-9918.759623,153.219100
413.415783,2442.679609,-10066.800811,76.609550
413.416107,2368.659014,-9770.718434,0.000000
413.416431,1776.494261,-10140.821405,306.438199
413.416755,1110.308913,-10288.862594,0.000000
413.417080,-222.061783,-10140.821405,536.266849
413.417404,-1258.350101,-10510.924376,76.609550
413.417728,-1924.535449,-9992.780217,-229.828649
413.418052,-1184.329507,-10066.800811,0.000000
413.418377,0.000000,-9992.780217,0.000000
413.418701,1332.370696,-9622.677246,229.828649
413.419025,1702.473667,-9178.553681,842.705048
413.419349,1406.391290,-8512.368333,383.047749
413.419674,296.082377,-9030.512492,995.924147
413.419998,-962.267725,-9104.533087,995.924147
413.420322,-2220.617826,-8882.471304,229.828649
413.420646,-2516.700203,-8808.450710,0.000000
413.420970,-2368.659014,-8512.368333,153.219100
413.421295,-962.267725,-8882.471304,536.266849
413.421619,1110.308913,-9474.636058,612.876398
413.421943,1924.535449,-9030.512492,919.314598
413.422267,2738.761985,-9326.594869,459.657299
413.422592,1850.514855,-9400.615463,229.828649
413.422916,740.205942,-10214.842000,612.876398
413.423240,-518.144159,-10214.842000,459.657299
413.423564,-1924.535449,-10362.883188,383.047749
413.423889,-2516.700203,-9918.759623,153.219100
413.424213,-1702.473667,-9474.636058,612.876398
413.424537,-296.082377,-9400.615463,1149.143247
413.424861,1332.370696,-8512.368333,1072.533697
413.425186,1998.556043,-8512.368333,919.314598
413.425510,2146.597232,-8512.368333,536.266849
413.425834,1332.370696,-8586.388927,229.828649
413.426158,74.020594,-9178.553681,0.000000
413.426483,-1184.329507,-9770.718434,0.000000
413.426807,-2220.617826,-10436.903782,-536.266849
413.427131,-2738.761985,-10066.800811,-766.095498
413.427455,-2146.597232,-9770.718434,-536.266849
413.427780,-740.205942,-10362.883188,-536.266849
413.428104,1258.350101,-10288.862594,-229.828649
413.428428,2664.741391,-10140.821405,0.000000
413.428752,3256.906145,-10362.883188,306.438199
413.429076,2960.823768,-10140.821405,306.438199
413.429401,1702.473667,-9844.739029,-459.657299
413.429725,888.247130,-10436.903782,76.609550
413.430049,-370.102971,-10584.944971,-383.047749
413.430373,-1332.370696,-10436.903782,-766.095498
413.430698,-1110.308913,-10362.883188,-612.876398
413.431022,-592.164754,-10214.842000,-536.266849
413.431346,444.123565,-9696.697840,-536.266849
413.431670,1036.288319,-9400.615463,0.000000
413.431995,888.247130,-9400.615463,-536.266849
413.432319,0.000000,-9474.636058,-842.705048
413.432643,-888.247130,-9696.697840,-842.705048
413.432967,-1850.514855,-9696.697840,-842.705048
413.433292,-2516.700203,-9844.739029,-842.705048
413.433616,-2368.659014,-9770.718434,-1149.143247
413.433940,-1924.535449,-9400.615463,-766.095498
413.434264,-148.041188,-9326.594869,-536.266849
413.434589,1850.514855,-9770.718434,0.000000
413.434913,2220.617826,-9770.718434,-229.828649
413.435237,2220.617826,-9770.718434,0.000000
413.435561,1480.411884,-9844.739029,-306.438199
413.435886,222.061783,-10362.883188,-306.438199
413.436210,-1332.370696,-10066.800811,-536.266849
413.436534,-1924.535449,-9918.759623,-153.219100
413.436858,-2812.782580,-9474.636058,-1149.143247
413.437183,-1998.556043,-9178.553681,-536.266849
413.437507,-592.164754,-9178.553681,0.000000
413.437831,1110.308913,-8660.409521,0.000000
413.438155,1924.535449,-8364.327145,229.828649
413.438479,1702.473667,-8882.471304,0.000000
413.438804,1110.308913,-8734.430116,0.000000
413.439128,-148.041188,-9326.594869,76.609550
413.439452,-1628.453072,-9622.677246,0.000000
413.439776,-2960.823768,-9844.739029,-1072.533697
413.440101,-3330.926739,-10066.800811,-1149.143247
413.440425,-2442.679609,-10066.800811,-995.924147
413.440749,-666.185348,-10436.903782,0.000000
413.441073,740.205942,-10362.883188,383.047749
413.441398,2220.617826,-10140.821405,0.000000
413.441722,2072.576638,-10436.903782,1072.533697
413.442046,1850.514855,-10288.862594,459.657299
413.442370,518.144159,-10807.006753,459.657299
413.442695,-296.082377,-10807.006753,76.609550
413.443019,-1110.308913,-10584.944971,0.000000
413.443343,-1998.556043,-9992.780217,-153.219100
413.443667,-888.247130,-9622.677246,0.000000
413.443992,370.102971,-9770.718434,153.219100
413.444316,1554.432478,-9400.615463,0.000000
413.444640,2072.576638,-8956.491898,383.047749
413.444964,1776.494261,-8808.450710,153.219100
413.445289,740.205942,-8956.491898,0.000000
413.445613,-296.082377,-9326.594869,-76.609550
413.445937,-1850.514855,-9696.697840,0.000000
413.446261,-2294.638420,-9770.718434,0.000000
413.446586,-1850.514855,-9474.636058,-76.609550
413.446910,-740.205942,-9178.553681,0.000000
413.447234,1110.308913,-9474.636058,383.047749
413.447558,1924.535449,-9474.636058,919.314598
413.447882,2516.700203,-9696.697840,229.828649
413.448207,2220.617826,-9770.718434,76.609550
413.448531,1258.350101,-10140.821405,153.219100
413.448855,0.000000,-10362.883188,0.000000
413.449179,-962.267725,-10510.924376,459.657299
413.449504,-1776.494261,-10288.862594,-1225.752797
413.449828,-1924.535449,-9770.718434,-612.876398
413.450152,-1332.370696,-9178.553681,-306.438199
413.450476,296.082377,-9104.533087,153.219100
413.450801,1628.453072,-8660.409521,229.828649
413.451125,2072.576638,-8660.409521,229.828649
413.451449,1110.308913,-7994.224174,0.000000
413.451773,444.123565,-8364.327145,-459.657299
413.452098,-740.205942,-8956.491898,-536.266849
413.452422,-2294.638420,-9400.615463,-612.876398
413.452746,-3478.967927,-9474.636058,-1072.533697
413.453070,-3182.885551,-9548.656652,-766.095498
413.453395,-1554.432478,-9622.677246,-919.314598
413.453719,444.123565,-9918.759623,-383.047749
413.454043,2294.638420,-10362.883188,0.000000
413.454367,2812.782580,-10066.800811,459.657299
413.454692,2590.720797,-10066.800811,306.438199
413.455016,1850.514855,-10436.903782,-536.266849
413.455340,444.123565,-10584.944971,-229.828649
413.455664,-666.185348,-10807.006753,0.000000
413.455989,-1258.350101,-10658.965565,-306.438199
413.456313,-1036.288319,-10584.944971,-536.266849
413.456637,-222.061783,-10288.862594,536.266849
413.456961,814.226536,-9844.739029,229.828649
413.457285,1702.473667,-9918.759623,153.219100
413.457610,1332.370696,-9326.594869,153.219100
413.457934,666.185348,-9030.512492,0.000000
413.458258,-222.061783,-9400.615463,-383.047749
413.458582,-1184.329507,-9622.677246,-229.828649
413.458907,-1332.370696,-9622.677246,229.828649
413.459231,-1998.556043,-9400.615463,0.000000
413.459555,-1332.370696,-9400.615463,0.000000
413.459879,-444.123565,-9104.533087,229.828649
413.460204,1184.329507,-9548.656652,76.609550
413.460528,2146.597232,-9548.656652,306.438199
413.460852,2442.679609,-9918.759623,612.876398
413.461176,1850.514855,-9770.718434,766.095498
413.461501,444.123565,-10140.821405,76.609550
413.461825,-814.226536,-10510.924376,229.828649
413.462149,-2516.700203,-9992.780217,-229.828649
413.462473,-2960.823768,-9770.718434,-229.828649
413.462798,-2738.761985,-9400.615463,0.000000
413.463122,-1036.288319,-9400.615463,76.609550
413.463446,444.123565,-8808.450710,0.000000
413.463770,1702.473667,-8364.327145,229.828649
413.464095,1776.494261,-8068.244768,229.828649
413.464419,1480.411884,-8660.409521,-153.219100
413.464743,148.041188,-9252.574275,229.828649
413.465067,-1332.370696,-9770.718434,-459.657299
413.465392,-2664.741391,-9844.739029,-842.705048
413.465716,-3404.947333,-10066.800811,-842.705048
413.466040,-2590.720797,-9474.636058,-842.705048
413.466364,-1036.288319,-9474.636058,-153.219100
413.466688,1406.391290,-9622.677246,-383.047749
413.467013,2516.700203,-9400.615463,153.219100
413.467337,2590.720797,-9622.677246,229.828649
413.467661,2220.617826,-9770.718434,0.000000
413.467985,1776.494261,-10214.842000,-306.438199
413.468310,296.082377,-10584.944971,-229.828649
413.468634,-592.164754,-10436.903782,-766.095498
413.468958,-1406.391290,-10510.924376,-459.657299
413.469282,-1406.391290,-10288.862594,0.000000
413.469607,-222.061783,-10066.800811,-383.047749
413.469931,592.164754,-9844.739029,-383.047749
413.470255,1480.411884,-9548.656652,-459.657299
413.470579,1110.308913,-9252.574275,-459.657299
413.470904,740.205942,-8956.491898,-536.266849
413.471228,-222.061783,-9400.615463,0.000000
413.471552,-1184.329507,-9622.677246,-459.657299
413.471876,-2368.659014,-9178.553681,-306.438199
413.472201,-2294.638420,-9474.636058,-536.266849
413.472525,-1480.411884,-9474.636058,-383.047749
413.472849,74.020594,-9918.759623,0.000000
413.473173,1258.350101,-10140.821405,536.266849
413.473498,2072.576638,-9992.780217,459.657299
413.473822,1924.535449,-9992.780217,306.438199
413.474146,740.205942,-9844.739029,-536.266849
413.474470,0.000000,-10732.986159,0.000000
413.474795,-1480.411884,-10288.862594,-383.047749
413.475119,-2368.659014,-9622.677246,-306.438199
413.475443,-2368.659014,-9326.594869,-383.047749
413.475767,-1628.453072,-8956.491898,0.000000
413.476091,0.000000,-8586.388927,153.219100
413.476416,1406.391290,-8512.368333,536.266849
413.476740,2072.576638,-8290.306550,229.828649
413.477064,1702.473667,-8216.285956,153.219100
413.477388,814.226536,-8660.409521,0.000000
413.477713,-814.226536,-9104.533087,0.000000
413.478037,-2368.659014,-9474.636058,-459.657299
413.478361,-3552.988522,-9770.718434,-766.095498
413.478685,-3256.906145,-9030.512492,-612.876398
413.479010,-2294.638420,-9622.677246,-306.438199
413.479334,74.020594,-9844.739029,-229.828649
413.479658,1924.535449,-9548.656652,76.609550
413.479982,2738.761985,-9844.739029,306.438199
413.480307,2886.803174,-10066.800811,306.438199
413.480631,2368.659014,-10362.883188,-229.828649
413.480955,1406.391290,-10140.821405,306.438199
413.481279,-296.082377,-10362.883188,-306.438199
413.481604,-962.267725,-10658.965565,-612.876398
413.481928,-1628.453072,-10732.986159,-612.876398
413.482252,-962.267725,-10510.924376,-612.876398
413.482576,0.000000,-9992.780217,-306.438199
413.482901,1110.308913,-10140.821405,-459.657299
413.483225,1628.453072,-9030.512492,-536.266849
413.483549,1628.453072,-9104.533087,0.000000
413.483873,1184.329507,-9030.512492,0.000000
413.484198,-148.041188,-9326.594869,-229.828649
413.484522,-1184.329507,-9622.677246,-536.266849
413.484846,-1924.535449,-9104.533087,-306.438199
413.485170,-1998.556043,-9474.636058,-689.485948
413.485495,-1110.308913,-9622.677246,-536.266849
413.485819,444.123565,-10066.800811,-153.219100
413.486143,1850.514855,-9992.780217,76.609550
413.486467,2368.659014,-10214.842000,153.219100
413.486792,1332.370696,-9992.780217,0.000000
413.487116,444.123565,-10510.924376,-306.438199
413.487440,-444.123565,-10436.903782,0.000000
413.487764,-2072.576638,-10584.944971,0.000000
413.488089,-2516.700203,-10066.800811,0.000000
413.488413,-2146.597232,-9474.636058,76.609550
413.488737,-1406.391290,-8882.471304,536.266849
413.489061,518.144159,-8808.450710,383.047749
413.489386,1628.453072,-8586.388927,919.314598
413.489710,1406.391290,-8512.368333,459.657299
413.490034,1332.370696,-8290.306550,0.000000
413.490358,370.102971,-8734.430116,0.000000
413.490682,-962.267725,-9252.574275,0.000000
413.491007,-2368.659014,-9548.656652,-229.828649
413.491331,-3330.926739,-9696.697840,-383.047749
413.491655,-2664.741391,-9622.677246,-229.828649
413.491979,-1332.370696,-9474.636058,536.266849
413.492304,888.247130,-9770.718434,306.438199
413.492628,2368.659014,-9474.636058,919.314598
413.492952,3182.885551,-9622.677246,1149.143247
413.493276,2960.823768,-9696.697840,919.314598
413.493601,2516.700203,-10066.800811,689.485948
413.493925,1184.329507,-10066.800811,689.485948
413.494249,222.061783,-10658.965565,0.000000
413.494573,-1110.308913,-10807.006753,-306.438199
413.494898,-2146.597232,-10214.842000,-383.047749
413.495222,-1850.514855,-10066.800811,-459.657299
413.495546,-444.123565,-9770.718434,-306.438199
413.495870,444.123565,-9474.636058,0.000000
413.496195,740.205942,-8660.409521,0.000000
413.496519,888.247130,-8586.388927,-153.219100
413.496843,444.123565,-8364.327145,229.828649
413.497167,-296.082377,-8882.471304,0.000000
413.497492,-1406.391290,-9252.574275,0.000000
413.497816,-1924.535449,-9474.636058,0.000000
413.498140,-1258.350101,-9770.718434,-153.219100
413.498464,0.000000,-9474.636058,306.438199
413.498789,2072.576638,-9770.718434,383.047749
413.499113,2812.782580,-9844.739029,383.047749
413.499437,3108.864956,-10140.821405,536.266849
413.499761,1776.494261,-10510.924376,229.828649
413.500086,740.205942,-10955.047942,0.000000
413.500410,-1184.329507,-10510.924376,-459.657299
413.500734,-2738.761985,-10140.821405,-612.876398
413.501058,-3923.091493,-9548.656652,-919.314598
413.501383,-2590.720797,-9770.718434,-919.314598
413.501707,-1776.494261,-8660.409521,-229.828649
413.502031,0.000000,-8586.388927,-153.219100
413.502355,666.185348,-8290.306550,0.000000
413.502680,814.226536,-8142.265362,-459.657299
413.503004,74.020594,-8512.368333,-995.924147
413.503328,-814.226536,-9030.512492,-1149.143247
413.503652,-1998.556043,-9548.656652,-1225.752797
413.503976,-3330.926739,-9770.718434,-1532.190996
413.504301,-3108.864956,-10066.800811,-1149.143247
413.504625,-2294.638420,-10066.800811,-1302.362347
413.504949,-222.061783,-10214.842000,-766.095498
413.505273,1110.308913,-10066.800811,-153.219100
413.505598,3034.844362,-10066.800811,0.000000
413.505922,3552.988522,-10436.903782,612.876398
413.506246,3478.967927,-10584.944971,229.828649
413.506570,2220.617826,-10288.862594,-536.266849
413.506895,1258.350101,-10362.883188,-383.047749
413.507219,-148.041188,-10362.883188,-612.876398
413.507543,-1036.288319,-10288.862594,-1149.143247
413.507867,-962.267725,-9992.780217,-919.314598
413.508192,-222.061783,-9844.739029,-612.876398
413.508516,740.205942,-9474.636058,-536.266849
413.508840,1554.432478,-8882.471304,-306.438199
413.509164,1406.391290,-9030.512492,-766.095498
413.509489,444.123565,-9104.533087,-612.876398
413.509813,-740.205942,-9474.636058,-689.485948
413.510137,-1702.473667,-9770.718434,-459.657299
413.510461,-2590.720797,-9770.718434,-612.876398
413.510786,-3108.864956,-9622.677246,0.000000
413.511110,-1776.494261,-9696.697840,-306.438199
413.511434,0.000000,-9770.718434,766.095498
413.511758,1998.556043,-9992.780217,459.657299
413.512083,2960.823768,-9918.759623,536.266849
413.512407,2886.803174,-9992.780217,459.657299
413.512731,2072.576638,-10066.800811,459.657299
413.513055,1110.308913,-10584.944971,76.609550
413.513380,-296.082377,-10732.986159,689.485948
413.513704,-1850.514855,-10288.862594,612.876398
413.514028,-2590.720797,-9474.636058,306.438199
413.514352,-2368.659014,-8956.491898,459.657299
413.514677,-888.247130,-8512.368333,842.705048
413.515001,222.061783,-8068.244768,766.095498
413.515325,1110.308913,-8216.285956,689.485948
413.515649,1110.308913,-7772.162391,1149.143247
413.515974,444.123565,-7772.162391,383.047749
413.516298,-888.247130,-8586.388927,766.095498
413.516622,-1998.556043,-9178.553681,153.219100
413.516946,-3330.926739,-9474.636058,0.000000
413.517271,-3108.864956,-9992.780217,-229.828649
413.517595,-1998.556043,-10584.944971,76.609550
413.517919,0.000000,-10658.965565,306.438199
413.518243,2294.638420,-10362.883188,1149.143247
413.518567,2812.782580,-10288.862594,1378.971896
413.518892,3108.864956,-10510.924376,1072.533697
413.519216,2368.659014,-10658.965565,536.266849
413.519540,1406.391290,-10658.965565,689.485948
413.519864,370.102971,-10732.986159,766.095498
413.520189,-370.102971,-10436.903782,459.657299
413.520513,-814.226536,-9992.780217,0.000000
413.520837,-592.164754,-9844.739029,-229.828649
413.521161,148.041188,-9474.636058,229.828649
413.521486,1258.350101,-9400.615463,0.000000
413.521810,1702.473667,-8882.471304,0.000000
413.522134,1554.432478,-8808.450710,0.000000
413.522458,888.247130,-8956.491898,-229.828649
413.522783,148.041188,-9400.615463,-306.438199
413.523107,-666.185348,-9844.739029,-306.438199
413.523431,-1480.411884,-9696.697840,-153.219100
413.523755,-1184.329507,-9474.636058,-383.047749
413.524080,0.000000,-9992.780217,229.828649
413.524404,1406.391290,-10214.842000,536.266849
413.524728,2590.720797,-10288.862594,995.924147
413.525052,2960.823768,-10436.903782,459.657299
413.525377,2442.679609,-10066.800811,153.219100
413.525701,1036.288319,-9918.759623,0.000000
413.526025,-222.061783,-10732.986159,0.000000
413.526349,-2368.659014,-10288.862594,-612.876398
413.526674,-3552.988522,-9548.656652,-766.095498
413.526998,-3627.009116,-8882.471304,-766.095498
413.527322,-2146.597232,-8586.388927,-689.485948
413.527646,148.041188,-8512.368333,-229.828649
413.527971,1406.391290,-8142.265362,0.000000
413.528295,1776.494261,-7624.121203,536.266849
413.528619,888.247130,-7698.141797,0.000000
413.528943,0.000000,-8216.285956,-536.266849
413.529268,-1924.535449,-9326.594869,-383.047749
413.529592,-3404.947333,-9844.739029,-1149.143247
413.529916,-3849.070898,-9770.718434,-1225.752797
413.530240,-3034.844362,-10140.821405,-1302.362347
413.530565,-2146.597232,-9770.718434,-995.924147
413.530889,-222.061783,-9992.780217,-766.095498
413.531213,1628.453072,-9770.718434,0.000000
413.531537,1924.535449,-10436.903782,-459.657299
413.531861,2146.597232,-10658.965565,-306.438199
413.532186,1702.473667,-10658.965565,-459.657299
413.532510,666.185348,-10807.006753,-689.485948
413.532834,-222.061783,-11251.130318,-689.485948
413.533158,-1036.288319,-10732.986159,-153.219100
413.533483,-1184.329507,-10436.903782,-612.876398
413.533807,-296.082377,-10436.903782,-919.314598
413.534131,888.247130,-9992.780217,-766.095498
413.534455,1480.411884,-9326.594869,-766.095498
413.534780,1406.391290,-9178.553681,-612.876398
413.535104,1184.329507,-9252.574275,-919.314598
413.535428,444.123565,-9030.512492,-842.705048
413.535752,-592.164754,-9252.574275,-1149.143247
413.536077,-1554.432478,-9474.636058,-919.314598
413.536401,-1998.556043,-9474.636058,-919.314598
413.536725,-1850.514855,-9844.739029,-842.705048
413.537049,-592.164754,-9770.718434,-536.266849
413.537374,1332.370696,-10288.862594,0.000000
413.537698,2368.659014,-10214.842000,383.047749
413.538022,2664.741391,-10436.903782,689.485948
413.538346,2146.597232,-10510.924376,0.000000
413.538671,962.267725,-11177.109724,0.000000
413.538995,-740.205942,-11177.109724,-229.828649
413.539319,-2072.576638,-10807.006753,153.219100
413.539643,-2664.741391,-9918.759623,0.000000
413.539968,-2368.659014,-9178.553681,153.219100
413.540292,-962.267725,-8734.430116,306.438199
413.540616,666.185348,-8142.265362,919.314598
413.540940,1332.370696,-7772.162391,919.314598
413.541265,1924.535449,-7550.100608,995.924147
413.541589,814.226536,-7624.121203,536.266849
413.541913,-370.102971,-8364.327145,306.438199
413.542237,-1554.432478,-9104.533087,229.828649
413.542562,-2368.659014,-9104.533087,0.000000
413.542886,-2812.782580,-9030.512492,153.219100
413.543210,-2368.659014,-8956.491898,1072.533697
413.543534,-74.020594,-9548.656652,1149.143247
413.543859,1554.432478,-9844.739029,1149.143247
413.544183,2738.761985,-9622.677246,1455.581446
413.544507,2738.761985,-9548.656652,919.314598
413.544831,2294.638420,-10066.800811,689.485948
413.545156,1258.350101,-10214.842000,766.095498
413.545480,-222.061783,-10584.944971,383.047749
413.545804,-1554.432478,-10436.903782,536.266849
413.546128,-2516.700203,-9696.697840,76.609550
413.546452,-2368.659014,-9844.739029,-383.047749
413.546777,-1332.370696,-9474.636058,0.000000
413.547101,148.041188,-9252.574275,0.000000
413.547425,1110.308913,-8734.430116,0.000000
413.547749,1258.350101,-9252.574275,-229.828649
413.548074,1110.308913,-8956.491898,306.438199
413.548398,222.061783,-9252.574275,306.438199
413.548722,-592.164754,-9622.677246,76.609550
413.549046,-1258.350101,-10066.800811,-689.485948
413.549371,-1406.391290,-10362.883188,-383.047749
413.549695,-296.082377,-10658.965565,-229.828649
413.550019,1258.350101,-10807.006753,0.000000
413.550343,2738.761985,-10510.924376,383.047749
413.550668,3552.988522,-10807.006753,306.438199
413.550992,3627.009116,-11103.089130,459.657299
413.551316,1998.556043,-10955.047942,76.609550
413.551640,222.061783,-10955.047942,0.000000
413.551965,-1406.391290,-11177.109724,-153.219100
413.552289,-2960.823768,-10288.862594,-766.095498
413.552613,-3552.988522,-9400.615463,-459.657299
413.552937,-2960.823768,-8882.471304,-612.876398
413.553262,-1258.350101,-8660.409521,0.000000
413.553586,296.082377,-8586.388927,-76.609550
413.553910,1184.329507,-8142.265362,0.000000
413.554234,1110.308913,-8068.244768,0.000000
413.554559,666.185348,-8734.430116,-229.828649
413.554883,-148.041188,-9178.553681,-306.438199
413.555207,-1702.473667,-9474.636058,76.609550
413.555531,-2146.597232,-9474.636058,-229.828649
413.555856,-2368.659014,-9548.656652,-306.438199
413.556180,-1036.288319,-9992.780217,0.000000
413.556504,1036.288319,-10066.800811,153.219100
413.556828,2516.700203,-9770.718434,383.047749
413.557153,3256.906145,-9844.739029,306.438199
413.557477,2812.782580,-9400.615463,229.828649
413.557801,2072.576638,-9696.697840,76.609550
413.558125,740.205942,-10066.800811,229.828649
413.558450,-1110.308913,-9992.780217,0.000000
413.558774,-2368.659014,-9918.759623,-612.876398
413.559098,-2812.782580,-9474.636058,-1225.752797
413.559422,-2368.659014,-9400.615463,-1149.143247
413.559746,-1258.350101,-9104.533087,-842.705048
413.560071,222.061783,-8512.368333,-383.047749
413.560395,592.164754,-8290.306550,-306.438199
413.560719,888.247130,-8882.471304,-459.657299
413.561043,370.102971,-9252.574275,-383.047749
413.561368,-370.102971,-9622.677246,-536.266849
413.561692,-1406.391290,-10140.821405,-536.266849
413.562016,-1776.494261,-10436.903782,-612.876398
413.562340,-1776.494261,-10436.903782,0.000000
413.562665,-518.144159,-10658.965565,306.438199
413.562989,1850.514855,-10807.006753,689.485948
413.563313,3108.864956,-10658.965565,459.657299
413.563637,3923.091493,-10807.006753,229.828649
413.563962,3627.009116,-10881.027347,229.828649
413.564286,2220.617826,-10881.027347,229.828649
413.564610,296.082377,-10881.027347,153.219100
413.564934,-1776.494261,-10881.027347,-536.266849
413.565259,-3108.864956,-9992.780217,-306.438199
413.565583,-3552.988522,-9400.615463,-612.876398
413.565907,-2960.823768,-8586.388927,-536.266849
413.566231,-740.205942,-8734.430116,153.219100
413.566556,148.041188,-8068.244768,306.438199
413.566880,814.226536,-7994.224174,459.657299
413.567204,222.061783,-7920.203579,76.609550
413.567528,-222.061783,-8068.244768,0.000000
413.567853,-1184.329507,-8734.430116,0.000000
413.568177,-1628.453072,-9030.512492,-612.876398
413.568501,-2294.638420,-9844.739029,0.000000
413.568825,-1924.535449,-9992.780217,-383.047749
413.569150,-444.123565,-10066.800811,306.438199
413.569474,1702.473667,-10214.842000,612.876398
413.569798,3404.947333,-10214.842000,919.314598
413.570122,3627.009116,-10510.924376,1608.800546
413.570447,2960.823768,-10362.883188,1149.143247
413.570771,1480.411884,-9918.759623,842.705048
413.571095,0.000000,-10510.924376,153.219100
413.571419,-1702.473667,-10214.842000,76.609550
413.571744,-2664.741391,-9548.656652,-689.485948
413.572068,-2664.741391,-9252.574275,-689.485948
413.572392,-1924.535449,-9030.512492,-153.219100
413.572716,-592.164754,-8808.450710,-229.828649
413.573041,444.123565,-8882.471304,-153.219100
413.573365,1406.391290,-8512.368333,0.000000
413.573689,888.247130,-8734.430116,-306.438199
413.574013,370.102971,-9178.553681,-229.828649
413.574337,-592.164754,-9770.718434,0.000000
413.574662,-1554.432478,-10288.862594,-612.876398
413.574986,-1998.556043,-10436.903782,-536.266849
413.575310,-1258.350101,-10436.903782,0.000000
413.575634,518.144159,-10658.965565,229.828649
413.575959,2590.720797,-10362.883188,459.657299
413.576283,3701.029710,-10510.924376,612.876398
413.576607,3552.988522,-10436.903782,536.266849
413.576931,2738.761985,-10584.944971,689.485948
413.577256,1258.350101,-10807.006753,459.657299
413.577580,-666.185348,-10584.944971,229.828649
413.577904,-2220.617826,-9992.780217,-1378.971896
413.578228,-3404.947333,-9400.615463,-689.485948
413.578553,-3182.885551,-9178.553681,-612.876398
413.578877,-2146.597232,-8882.471304,-383.047749
413.579201,-518.144159,-8512.368333,-306.438199
413.579525,592.164754,-8290.306550,-153.219100
413.579850,888.247130,-7698.141797,0.000000
413.580174,296.082377,-8290.306550,-536.266849
413.580498,74.020594,-8586.388927,76.609550
413.580822,-1110.308913,-9178.553681,-229.828649
413.581147,-2072.576638,-9696.697840,229.828649
413.581471,-2072.576638,-9918.759623,-306.438199
413.581795,-1258.350101,-9992.780217,-306.438199
413.582120,518.144159,-10510.924376,0.000000
413.582444,1924.535449,-10510.924376,383.047749
413.582768,3256.906145,-10436.903782,0.000000
413.583092,2738.761985,-9992.780217,76.609550
413.583417,1776.494261,-10214.842000,-153.219100
413.583741,666.185348,-10436.903782,-919.314598
413.584065,-592.164754,-10436.903782,-536.266849
413.584389,-1702.473667,-10066.800811,-766.095498
413.584714,-2368.659014,-9622.677246,-842.705048
413.585038,-2146.597232,-9622.677246,-459.657299
413.585362,-1258.350101,-9030.512492,-1532.190996
413.585686,-148.041188,-9252.574275,-306.438199
413.586011,666.185348,-8956.491898,-383.047749
413.586335,962.267725,-9474.636058,-153.219100
413.586659,888.247130,-9548.656652,-383.047749
413.586983,296.082377,-9918.759623,0.000000
413.587308,-296.082377,-9918.759623,0.000000
413.587632,-1480.411884,-9992.780217,153.219100
413.587956,-1406.391290,-9918.759623,0.000000
413.588280,-518.144159,-10214.842000,0.000000
413.588605,1184.329507,-10214.842000,229.828649
413.588929,2590.720797,-10288.862594,306.438199
413.589253,3256.906145,-10288.862594,536.266849
413.589577,3330.926739,-10214.842000,1149.143247
413.589902,2368.659014,-10066.800811,842.705048
413.590226,740.205942,-10362.883188,995.924147
413.590550,-1480.411884,-10140.821405,306.438199
413.590874,-3034.844362,-9770.718434,-306.438199
413.591199,-3627.009116,-9178.553681,0.000000
413.591523,-2590.720797,-9030.512492,0.000000
413.591847,-1258.350101,-8512.368333,383.047749
413.592171,444.123565,-7846.182985,383.047749
413.592496,1480.411884,-7328.038826,689.485948
413.592820,1924.535449,-7624.121203,536.266849
413.593144,1110.308913,-8216.285956,536.266849
413.593468,-444.123565,-8734.430116,229.828649
413.593793,-1924.535449,-9474.636058,0.000000
413.594117,-2516.700203,-9770.718434,0.000000
413.594441,-2368.659014,-10066.800811,459.657299
413.594765,-1184.329507,-10140.821405,0.000000
413.595090,592.164754,-10140.821405,536.266849
413.595414,1998.556043,-10066.800811,1149.143247
413.595738,2664.741391,-9992.780217,689.485948
413.596062,2516.700203,-10066.800811,766.095498
413.596387,1554.432478,-9992.780217,536.266849
413.596711,518.144159,-10066.800811,229.828649
413.597035,-1258.350101,-9992.780217,153.219100
413.597359,-2220.617826,-10066.800811,-766.095498
413.597684,-2590.720797,-9474.636058,-229.828649
413.598008,-2516.700203,-9548.656652,-536.266849
413.598332,-740.205942,-9548.656652,-383.047749
413.598656,296.082377,-9400.615463,-306.438199
413.598981,1036.288319,-9326.594869,-153.219100
413.599305,1628.453072,-9548.656652,0.000000
413.599629,740.205942,-9400.615463,0.000000
413.599953,-592.164754,-9696.697840,0.000000
413.600278,-1110.308913,-9992.780217,-306.438199
413.600602,-1406.391290,-10066.800811,-612.876398
413.600926,-962.267725,-10066.800811,-459.657299
413.601250,444.123565,-10436.903782,-229.828649
413.601575,1998.556043,-10584.944971,-153.219100
413.601899,3256.906145,-10288.862594,383.047749
413.602223,3478.967927,-10436.903782,383.047749
413.602547,2886.803174,-10658.965565,306.438199
413.602872,1776.494261,-11473.192101,76.609550
413.603196,-296.082377,-10732.986159,-383.047749
413.603520,-2146.597232,-10288.862594,-536.266849
413.603844,-2812.782580,-9770.718434,-536.266849
413.604169,-3108.864956,-8808.450710,-919.314598
413.604493,-1998.556043,-8364.327145,-383.047749
413.604817,-148.041188,-8290.306550,383.047749
413.605141,1406.391290,-7994.224174,0.000000
413.605466,1332.370696,-7920.203579,76.609550
413.605790,1184.329507,-8216.285956,0.000000
413.606114,74.020594,-8808.450710,0.000000
413.606438,-1332.370696,-9104.533087,-536.266849
413.606763,-2442.679609,-9696.697840,-383.047749
413.607087,-2442.679609,-9992.780217,-612.876398
413.607411,-2368.659014,-9770.718434,-919.314598
413.607735,-740.205942,-10066.800811,0.000000
413.608060,1110.308913,-10214.842000,0.000000
413.608384,2368.659014,-9992.780217,76.609550
413.608708,2516.700203,-9622.677246,306.438199
413.609032,2368.659014,-9918.759623,0.000000
413.609357,1628.453072,-9992.780217,-383.047749
413.609681,0.000000,-10066.800811,-383.047749
413.610005,-962.267725,-9844.739029,-459.657299
413.610329,-2220.617826,-9770.718434,-153.219100
413.610654,-2368.659014,-9474.636058,-1072.533697
413.610978,-1776.494261,-9400.615463,-689.485948
413.611302,-592.164754,-9474.636058,-842.705048
413.611626,444.123565,-9400.615463,-536.266849
413.611951,1036.288319,-9030.512492,-153.219100
413.612275,444.123565,-9400.615463,-689.485948
413.612599,0.000000,-9844.739029,-383.047749
413.612923,-814.226536,-9918.759623,-229.828649
413.613248,-1332.370696,-10436.903782,306.438199
413.613572,-1628.453072,-10436.903782,0.000000
413.613896,-888.247130,-10658.965565,-229.828649
413.614220,518.144159,-11029.068536,-153.219100
413.614545,2368.659014,-11251.130318,306.438199
413.614869,3775.050304,-11325.150913,459.657299
413.615193,4441.235652,-11103.089130,689.485948
413.615517,3256.906145,-10807.006753,383.047749
413.615842,1924.535449,-11177.109724,536.266849
413.616166,0.000000,-10584.944971,153.219100
413.616490,-1924.535449,-10732.986159,-76.609550
413.616814,-2960.823768,-9844.739029,0.000000
413.617139,-2664.741391,-9030.512492,76.609550
413.617463,-1554.432478,-8290.306550,919.314598
413.617787,148.041188,-7994.224174,919.314598
413.618111,1036.288319,-7624.121203,1378.971896
413.618436,1258.350101,-7402.059420,995.924147
413.618760,592.164754,-7698.141797,459.657299
413.619084,0.000000,-8290.306550,306.438199
413.619408,-1258.350101,-8808.450710,536.266849
413.619733,-1998.556043,-9104.533087,306.438199
413.620057,-1850.514855,-9992.780217,383.047749
413.620381,-962.267725,-9400.615463,612.876398
413.620705,370.102971,-9770.718434,919.314598
413.621030,1702.473667,-9770.718434,1149.143247
413.621354,2886.803174,-9992.780217,1225.752797
413.621678,2812.782580,-9844.739029,1225.752797
413.622002,2220.617826,-9844.739029,995.924147
413.622327,592.164754,-9474.636058,766.095498
413.622651,-222.061783,-9548.656652,153.219100
413.622975,-1850.514855,-9326.594869,0.000000
413.623299,-2220.617826,-9178.553681,-306.438199
413.623624,-2146.597232,-8734.430116,-306.438199
413.623948,-1332.370696,-8660.409521,-229.828649
413.624272,-148.041188,-8734.430116,-153.219100
413.624596,518.144159,-8586.388927,-229.828649
413.624921,888.247130,-8586.388927,0.000000
413.625245,222.061783,-9252.574275,-459.657299
413.625569,-518.144159,-9770.718434,-306.438199
413.625893,-740.205942,-10584.944971,-919.314598
413.626218,-1258.350101,-10732.986159,-689.485948
413.626542,-1480.411884,-10807.006753,-383.047749
413.626866,-444.123565,-11029.068536,0.000000
413.627190,1184.329507,-11473.192101,229.828649
413.627515,2664.741391,-11251.130318,0.000000
413.627839,3627.009116,-11621.233289,0.000000
413.628163,3330.926739,-11325.150913,-459.657299
413.628487,2294.638420,-11547.212695,-306.438199
413.628812,518.144159,-11621.233289,-612.876398
413.629136,-1406.391290,-11103.089130,-1072.533697
413.629460,-2960.823768,-10584.944971,-1225.752797
413.629784,-3330.926739,-9548.656652,-1225.752797
413.630109,-2516.700203,-9474.636058,-383.047749
413.630433,-1184.329507,-9030.512492,-536.266849
413.630757,74.020594,-8586.388927,-536.266849
413.631081,888.247130,-7920.203579,-229.828649
413.631406,1258.350101,-7994.224174,0.000000
413.631730,592.164754,-8364.327145,0.000000
413.632054,-666.185348,-8808.450710,-536.266849
413.632378,-1628.453072,-9252.574275,-306.438199
413.632703,-2664.741391,-9326.594869,-383.047749
413.633027,-2738.761985,-9474.636058,-306.438199
413.633351,-1998.556043,-9696.697840,-459.657299
413.633676,0.000000,-9918.759623,0.000000
413.634000,1924.535449,-10066.800811,76.609550
413.634324,2294.638420,-9622.677246,459.657299
413.634648,2368.659014,-9474.636058,383.047749
413.634973,814.226536,-9252.574275,306.438199
413.635297,0.000000,-9474.636058,306.438199
413.635621,-962.267725,-9400.615463,0.000000
413.635945,-2220.617826,-9178.553681,-383.047749
413.636270,-2146.597232,-8882.471304,-383.047749
413.636594,-1406.391290,-8808.450710,-383.047749
413.636918,-740.205942,-8438.347739,-689.485948
413.637242,296.082377,-8068.244768,-1149.143247
413.637567,592.164754,-8438.347739,-459.657299
413.637891,666.185348,-8808.450710,-459.657299
413.638215,444.123565,-9326.594869,-689.485948
413.638539,-222.061783,-9844.739029,-383.047749
413.638864,-1184.329507,-10288.862594,-459.657299
413.639188,-1850.514855,-10214.842000,-689.485948
413.639512,-1480.411884,-10288.862594,-459.657299
413.639836,148.041188,-10140.821405,383.047749
413.640161,2146.597232,-10807.006753,153.219100
413.640485,3923.091493,-11103.089130,689.485948
413.640809,4293.194464,-11251.130318,536.266849
413.641133,3478.967927,-11325.150913,536.266849
413.641458,1850.514855,-11325.150913,0.000000
413.641782,0.000000,-11473.192101,0.000000
413.642106,-2146.597232,-11399.171507,0.000000
413.642430,-3997.112087,-10288.862594,-1072.533697
413.642755,-3256.906145,-9844.739029,-536.266849
413.643079,-2664.741391,-9326.594869,-229.828649
413.643403,-1036.288319,-9030.512492,0.000000
413.643727,592.164754,-8512.368333,153.219100
413.644052,1332.370696,-7994.224174,536.266849
413.644376,1110.308913,-7994.224174,306.438199
413.644700,444.123565,-7994.224174,229.828649
413.645024,-74.020594,-9030.512492,-383.047749
413.645349,-1184.329507,-9622.677246,0.000000
413.645673,-1776.494261,-10066.800811,0.000000
413.645997,-1702.473667,-10066.800811,153.219100
413.646321,-296.082377,-10436.903782,459.657299
413.646646,1628.453072,-10140.821405,1072.533697
413.646970,2590.720797,-9844.739029,1149.143247
413.647294,2664.741391,-9548.656652,1915.238745
413.647618,2146.597232,-9770.718434,1072.533697
413.647943,962.267725,-9400.615463,842.705048
413.648267,0.000000,-9548.656652,842.705048
413.648591,-1628.453072,-9252.574275,842.705048
413.648915,-2072.576638,-9104.533087,76.609550
413.649240,-1924.535449,-8290.306550,0.000000
413.649564,-1184.329507,-7772.162391,153.219100
413.649888,0.000000,-8068.244768,-306.438199
413.650212,370.102971,-8068.244768,-229.828649
413.650537,592.164754,-8216.285956,0.000000
413.650861,370.102971,-8734.430116,153.219100
413.651185,-296.082377,-9178.553681,229.828649
413.651509,-888.247130,-9474.636058,0.000000
413.651834,-1258.350101,-9622.677246,-766.095498
413.652158,-1998.556043,-10066.800811,0.000000
413.652482,-888.247130,-10214.842000,0.000000
413.652806,888.247130,-10584.944971,536.266849
413.653131,2738.761985,-10881.027347,536.266849
413.653455,3923.091493,-10436.903782,383.047749
413.653779,3775.050304,-10288.862594,459.657299
413.654103,3256.906145,-10732.986159,-153.219100
413.654428,1554.432478,-11695.253884,-1532.190996
413.654752,-296.082377,-11769.274478,-459.657299
413.655076,-2220.617826,-11177.109724,-919.314598
413.655400,-3404.947333,-10732.986159,-1455.581446
413.655725,-3627.009116,-10214.842000,-1225.752797
413.656049,-2368.659014,-9918.759623,-995.924147
413.656373,-370.102971,-9548.656652,-1225.752797
413.656697,1036.288319,-9252.574275,76.609550
413.657022,1332.370696,-8734.430116,-536.266849
413.657346,814.226536,-8882.471304,-229.828649
413.657670,0.000000,-9326.594869,-536.266849
413.657994,-888.247130,-9992.780217,-536.266849
413.658319,-1776.494261,-10510.924376,-383.047749
413.658643,-1850.514855,-10436.903782,-612.876398
413.658967,-740.205942,-10362.883188,-612.876398
413.659291,74.020594,-10066.800811,0.000000
413.659616,2368.659014,-10362.883188,459.657299
413.659940,3182.885551,-10140.821405,536.266849
413.660264,3034.844362,-9918.759623,766.095498
413.660588,1850.514855,-9474.636058,689.485948
413.660913,370.102971,-9622.677246,153.219100
413.661237,-1258.350101,-9548.656652,153.219100
413.661561,-2516.700203,-9104.533087,-229.828649
413.661885,-2960.823768,-8586.388927,-383.047749
413.662210,-2368.659014,-8142.265362,-383.047749
413.662534,-1628.453072,-7698.141797,0.000000
413.662858,-296.082377,-7624.121203,229.828649
413.663182,296.082377,-7698.141797,-459.657299
413.663507,148.041188,-8142.265362,-306.438199
413.663831,-148.041188,-8438.347739,-383.047749
413.664155,-666.185348,-9326.594869,0.000000
413.664479,-1184.329507,-9992.780217,0.000000
413.664804,-1924.535449,-9918.759623,-306.438199
413.665128,-1850.514855,-10140.821405,-612.876398
413.665452,-592.164754,-9918.759623,-306.438199
413.665776,1332.370696,-10510.924376,0.000000
413.666101,2516.700203,-10436.903782,383.047749
413.666425,3849.070898,-10436.903782,612.876398
413.666749,3775.050304,-10510.924376,306.438199
413.667073,2886.803174,-10881.027347,0.000000
413.667398,1110.308913,-10732.986159,536.266849
413.667722,-1110.308913,-10658.965565,-153.219100
413.668046,-2886.803174,-10584.944971,-1149.143247
413.668370,-3478.967927,-9992.780217,-1302.362347
413.668695,-2886.803174,-9474.636058,-766.095498
413.669019,-1184.329507,-9252.574275,-536.266849
413.669343,518.144159,-8956.491898,0.000000
413.669667,1702.473667,-8660.409521,-306.438199
413.669992,1628.453072,-8290.306550,-689.485948
413.670316,1406.391290,-9400.615463,-689.485948
413.670640,148.041188,-10066.800811,-383.047749
413.670964,-814.226536,-10732.986159,-306.438199
413.671289,-1702.473667,-10955.047942,-612.876398
413.671613,-1628.453072,-11325.150913,-536.266849
413.671937,-222.061783,-11103.089130,0.000000
413.672261,1406.391290,-10807.006753,459.657299
413.672586,3478.967927,-10807.006753,842.705048
413.672910,3404.947333,-10362.883188,459.657299
413.673234,2886.803174,-10214.842000,306.438199
413.673558,1332.370696,-9844.739029,76.609550
413.673883,-222.061783,-9918.759623,0.000000
413.674207,-1480.411884,-9918.759623,76.609550
413.674531,-2368.659014,-9252.574275,-459.657299
413.674855,-2960.823768,-8586.388927,-1302.362347
413.675180,-2220.617826,-8364.327145,0.000000
413.675504,-592.164754,-8586.388927,-153.219100
413.675828,222.061783,-8364.327145,0.000000
413.676152,444.123565,-7994.224174,0.000000
413.676477,222.061783,-7846.182985,383.047749
413.676801,-222.061783,-8364.327145,229.828649
413.677125,-814.226536,-9548.656652,0.000000
413.677449,-1924.535449,-9992.780217,536.266849
413.677774,-2072.576638,-9770.718434,76.609550
413.678098,-1702.473667,-9696.697840,-229.828649
413.678422,-222.061783,-9770.718434,229.828649
413.678746,1850.514855,-9992.780217,459.657299
413.679071,3552.988522,-10066.800811,689.485948
413.679395,4219.173869,-10288.862594,766.095498
413.679719,3108.864956,-10140.821405,536.266849
413.680043,2368.659014,-10288.862594,76.609550
413.680367,-296.082377,-10510.924376,0.000000
413.680692,-2072.576638,-10584.944971,-306.438199
413.681016,-3034.844362,-9770.718434,-383.047749
413.681340,-3552.988522,-8956.491898,-536.266849
413.681664,-2368.659014,-8364.327145,0.000000
413.681989,-518.144159,-8438.347739,0.000000
413.682313,814.226536,-8364.327145,0.000000
413.682637,1554.432478,-8364.327145,0.000000
413.682961,1480.411884,-8586.388927,153.219100
413.683286,814.226536,-9104.533087,153.219100
413.683610,-148.041188,-9770.718434,0.000000
413.683934,-888.247130,-10584.944971,76.609550
413.684258,-1776.494261,-11177.109724,0.000000
413.684582,-1406.391290,-10881.027347,0.000000
413.684907,370.102971,-11325.150913,536.266849
413.685231,2220.617826,-11325.150913,612.876398
413.685555,3552.988522,-11251.130318,1072.533697
413.685879,3552.988522,-10807.006753,1072.533697
413.686204,2590.720797,-10436.903782,536.266849
413.686528,962.267725,-10362.883188,842.705048
413.686852,-296.082377,-10066.800811,-306.438199
413.687176,-1628.453072,-9548.656652,76.609550
413.687501,-2516.700203,-9178.553681,-153.219100
413.687825,-2516.700203,-9104.533087,-383.047749
413.688149,-1702.473667,-8438.347739,-229.828649
413.688473,-518.144159,-8216.285956,0.000000
413.688797,296.082377,-7550.100608,-536.266849
413.689122,740.205942,-7846.182985,-383.047749
413.689446,74.020594,-8142.265362,-306.438199
413.689770,-296.082377,-8734.430116,0.000000
413.690094,-1184.329507,-9548.656652,0.000000
413.690419,-1850.514855,-9918.759623,153.219100
413.690743,-2072.576638,-9918.759623,0.000000
413.691067,-1554.432478,-9844.739029,76.609550
413.691391,296.082377,-9844.739029,306.438199
413.691716,2368.659014,-9622.677246,536.266849
413.692040,3256.906145,-10066.800811,919.314598
413.692364,3552.988522,-10140.821405,766.095498
413.692688,2220.617826,-9918.759623,76.609550
413.693012,518.144159,-9992.780217,-536.266849
413.693337,-1480.411884,-10362.883188,-383.047749
413.693661,-3256.906145,-10140.821405,-1149.143247
413.693985,-3775.050304,-9622.677246,-1455.581446
413.694309,-3478.967927,-9474.636058,-1149.143247
413.694634,-2516.700203,-8438.347739,-842.705048
413.694958,-888.247130,-7994.224174,-689.485948
413.695282,444.123565,-8068.244768,-306.438199
413.695606,962.267725,-8068.244768,-383.047749
413.695931,888.247130,-8660.409521,-689.485948
413.696255,148.041188,-9474.636058,-995.924147
413.696579,-1110.308913,-10140.821405,-1149.143247
413.696903,-2146.597232,-10658.965565,-995.924147
413.697227,-1850.514855,-11029.068536,-1915.238745
413.697552,-888.247130,-11473.192101,-766.095498
413.697876,814.226536,-11029.068536,-153.219100
413.698200,2886.803174,-11473.192101,0.000000
413.698524,3923.091493,-10955.047942,306.438199
413.698849,3330.926739,-11177.109724,0.000000
413.699173,2220.617826,-10510.924376,0.000000
413.699497,888.247130,-10807.006753,383.047749
413.699821,-666.185348,-9918.759623,-612.876398
413.700146,-1406.391290,-9992.780217,-766.095498
413.700470,-2442.679609,-9252.574275,-842.705048
413.700794,-2590.720797,-9030.512492,-842.705048
413.701118,-1776.494261,-9104.533087,-689.485948
413.701442,-740.205942,-8660.409521,-459.657299
413.701767,296.082377,-8660.409521,-536.266849
413.702091,518.144159,-8734.430116,-229.828649
413.702415,0.000000,-8734.430116,0.000000
413.702739,-296.082377,-9696.697840,-306.438199
413.703064,-1554.432478,-9844.739029,-229.828649
413.703388,-1850.514855,-10362.883188,76.609550
413.703712,-1702.473667,-10140.821405,0.000000
413.704036,-370.102971,-9918.759623,383.047749
413.704361,1924.535449,-9622.677246,306.438199
413.704685,3108.864956,-9770.718434,1302.362347
413.705009,3404.947333,-9918.759623,766.095498
413.705333,2812.782580,-9844.739029,689.485948
413.705657,1554.432478,-9770.718434,459.657299
413.705982,0.000000,-10066.800811,229.828649
413.706306,-2368.659014,-10066.800811,229.828649
413.706630,-3478.967927,-9400.615463,-536.266849
413.706954,-4367.215058,-8660.409521,-459.657299
413.707279,-3330.926739,-8364.327145,-153.219100
413.707603,-1850.514855,-7846.182985,76.609550
413.707927,296.082377,-7624.121203,153.219100
413.708251,1406.391290,-7550.100608,459.657299
413.708576,1924.535449,-7772.162391,383.047749
413.708900,1702.473667,-8438.347739,536.266849
413.709224,814.226536,-9326.594869,306.438199
413.709548,-148.041188,-10288.862594,0.000000
413.709872,-666.185348,-10955.047942,459.657299
413.710197,-222.061783,-11325.150913,229.828649
413.710521,518.144159,-11251.130318,306.438199
413.710845,1702.473667,-11103.089130,536.266849
413.711169,2960.823768,-11029.068536,612.876398
413.711494,3256.906145,-10955.047942,1072.533697
413.711818,3034.844362,-10436.903782,1072.533697
413.712142,1628.453072,-10288.862594,689.485948
413.712466,-296.082377,-9770.718434,0.000000
413.712791,-1628.453072,-9770.718434,-229.828649
413.713115,-2442.679609,-9252.574275,-383.047749
413.713439,-2812.782580,-9178.553681,-306.438199
413.713763,-1924.535449,-8956.491898,0.000000
413.714087,-1036.288319,-8586.388927,-229.828649
413.714412,444.123565,-8364.327145,-536.266849
413.714736,1110.308913,-8808.450710,76.609550
413.715060,666.185348,-9030.512492,229.828649
413.715384,444.123565,-9400.615463,229.828649
413.715709,148.041188,-9770.718434,153.219100
413.716033,-148.041188,-10214.842000,612.876398
413.716357,-444.123565,-9918.759623,766.095498
413.716681,-148.041188,-9918.759623,383.047749
413.717006,1036.288319,-9844.739029,612.876398
413.717330,2146.597232,-10140.821405,536.266849
413.717654,2516.700203,-10214.842000,612.876398
413.717978,2368.659014,-10066.800811,689.485948
413.718302,1480.411884,-9992.780217,0.000000
413.718627,74.020594,-9844.739029,-919.314598
413.718951,-1702.473667,-10140.821405,-1302.362347
413.719275,-3478.967927,-9622.677246,-1225.752797
413.719599,-4293.194464,-9252.574275,-1302.362347
413.719924,-4145.153275,-9030.512492,-995.924147
413.720248,-2886.803174,-8808.450710,-536.266849
413.720572,-888.247130,-8216.285956,-383.047749
413.720896,1184.329507,-7994.224174,0.000000
413.721221,2146.597232,-8142.265362,0.000000
413.721545,2590.720797,-8068.244768,0.000000
413.721869,2146.597232,-9474.636058,-459.657299
413.722193,666.185348,-10732.986159,-306.438199
413.722517,0.000000,-11177.109724,-612.876398
413.722842,-888.247130,-11399.171507,-919.314598
413.723166,-962.267725,-11177.109724,-842.705048
413.723490,222.061783,-10955.047942,-689.485948
413.723814,1850.514855,-11177.109724,-306.438199
413.724139,2738.761985,-10436.903782,-689.485948
413.724463,2960.823768,-10584.944971,0.000000
413.724787,2072.576638,-10510.924376,-383.047749
413.725111,518.144159,-10214.842000,-612.876398
413.725436,-1110.308913,-10066.800811,-612.876398
413.725760,-2886.803174,-9696.697840,-842.705048
413.726084,-3182.885551,-9622.677246,-1532.190996
413.726408,-2960.823768,-9474.636058,-995.924147
413.726732,-1776.494261,-8734.430116,-306.438199
413.727057,-888.247130,-8956.491898,-383.047749
413.727381,222.061783,-8882.471304,-459.657299
413.727705,666.185348,-8956.491898,-612.876398
413.728029,296.082377,-8956.491898,-459.657299
413.728354,-222.061783,-9400.615463,0.000000
413.728678,-814.226536,-10140.821405,689.485948
413.729002,-1184.329507,-10066.800811,229.828649
413.729326,-740.205942,-9844.739029,-306.438199
413.729651,74.020594,-9770.718434,0.000000
413.729975,1332.370696,-9844.739029,536.266849
413.730299,2590.720797,-9696.697840,459.657299
413.730623,3182.885551,-9696.697840,689.485948
413.730947,2960.823768,-9474.636058,766.095498
413.731272,1702.473667,-9844.739029,0.000000
413.731596,-370.102971,-9474.636058,-306.438199
413.731920,-2442.679609,-9844.739029,-153.219100
413.732244,-3997.112087,-9548.656652,-766.095498
413.732569,-4737.318029,-8956.491898,-919.314598
413.732893,-3997.112087,-8512.368333,-766.095498
413.733217,-1924.535449,-8142.265362,0.000000
413.733541,-74.020594,-7994.224174,153.219100
413.733866,1258.350101,-7846.182985,-229.828649
413.734190,1850.514855,-8216.285956,306.438199
413.734514,2294.638420,-8882.471304,536.266849
413.734838,1628.453072,-9622.677246,459.657299
413.735162,296.082377,-10436.903782,0.000000
413.735487,-666.185348,-11251.130318,0.000000
413.735811,-1554.432478,-11621.233289,-153.219100
413.736135,-1036.288319,-11547.212695,-306.438199
413.736459,666.185348,-11399.171507,-306.438199
413.736784,2368.659014,-11399.171507,0.000000
413.737108,3701.029710,-10807.006753,689.485948
413.737432,3034.844362,-10066.800811,766.095498
413.737756,1850.514855,-10066.800811,76.609550
413.738081,370.102971,-10066.800811,-459.657299
413.738405,-1110.308913,-9770.718434,-612.876398
413.738729,-2146.597232,-9474.636058,-689.485948
413.739053,-2368.659014,-9474.636058,-612.876398
413.739377,-2220.617826,-9104.533087,-153.219100
413.739702,-962.267725,-9252.574275,153.219100
413.740026,-296.082377,-9252.574275,0.000000
413.740350,592.164754,-9104.533087,0.000000
413.740674,740.205942,-9104.533087,306.438199
413.740999,518.144159,-9400.615463,76.609550
413.741323,0.000000,-9844.739029,229.828649
413.741647,-518.144159,-10140.821405,536.266849
413.741971,-962.267725,-9992.780217,383.047749
413.742296,-370.102971,-9474.636058,229.828649
413.742620,814.226536,-9622.677246,153.219100
413.742944,2146.597232,-9548.656652,459.657299
413.743268,3256.906145,-9622.677246,459.657299
413.743592,3701.029710,-9252.574275,766.095498
413.743917,3256.906145,-9770.718434,383.047749
413.744241,1480.411884,-9474.636058,229.828649
413.744565,-962.267725,-9474.636058,-229.828649
413.744889,-2664.741391,-9548.656652,0.000000
413.745214,-3627.009116,-9252.574275,-459.657299
413.745538,-3701.029710,-8660.409521,-612.876398
413.745862,-2960.823768,-8586.388927,0.000000
413.746186,-1554.432478,-8438.347739,536.266849
413.746511,444.123565,-7698.141797,76.609550
413.746835,1480.411884,-7698.141797,0.000000
413.747159,2072.576638,-8512.368333,0.000000
413.747483,1184.329507,-9326.594869,0.000000
413.747807,740.205942,-10288.862594,0.000000
413.748132,-222.061783,-10955.047942,0.000000
413.748456,-814.226536,-11325.150913,-383.047749
413.748780,-1332.370696,-11547.212695,0.000000
413.749104,-222.061783,-11177.109724,-229.828649
413.749429,1480.411884,-11473.192101,229.828649
413.749753,2516.700203,-10732.986159,536.266849
413.750077,2812.782580,-10510.924376,459.657299
413.750401,2294.638420,-10288.862594,612.876398
413.750726,1184.329507,-9918.759623,306.438199
413.751050,222.061783,-10140.821405,153.219100
413.751374,-1850.514855,-9622.677246,-383.047749
413.751698,-3256.906145,-9400.615463,-459.657299
413.752022,-3701.029710,-8882.471304,-612.876398
413.752347,-2812.782580,-8882.471304,-995.924147
413.752671,-1628.453072,-9030.512492,-919.314598
413.752995,148.041188,-9104.533087,-536.266849
413.753319,1184.329507,-8882.471304,229.828649
413.753644,962.267725,-8734.430116,0.000000
413.753968,1110.308913,-9178.553681,229.828649
413.754292,-814.226536,-9622.677246,153.219100
413.754616,-1184.329507,-10362.883188,153.219100
413.754941,-1628.453072,-10362.883188,0.000000
413.755265,-1110.308913,-10140.821405,76.609550
413.755589,0.000000,-9918.759623,536.266849
413.755913,1628.453072,-9992.780217,689.485948
413.756237,2516.700203,-9548.656652,229.828649
413.756562,2442.679609,-9548.656652,0.000000
413.756886,1628.453072,-10066.800811,229.828649
413.757210,0.000000,-10140.821405,-459.657299
413.757534,-1480.411884,-10214.842000,-689.485948
413.757859,-2516.700203,-10066.800811,-1072.533697
413.758183,-3775.050304,-9104.533087,-1302.362347
413.758507,-3552.988522,-9030.512492,-1455.581446
413.758831,-2368.659014,-8882.471304,-689.485948
413.759156,0.000000,-8734.430116,-536.266849
413.759480,1406.391290,-8438.347739,-153.219100
413.759804,2072.576638,-8364.327145,0.000000
413.760128,1702.473667,-8660.409521,0.000000
413.760452,1258.350101,-9030.512492,-306.438199
413.760777,148.041188,-10066.800811,-536.266849
413.761101,-888.247130,-10658.965565,-459.657299
413.761425,-1702.473667,-10658.965565,-612.876398
413.761749,-1406.391290,-11473.192101,-766.095498
413.762074,-370.102971,-11103.089130,-612.876398
413.762398,1332.370696,-10807.006753,-612.876398
413.762722,2442.679609,-10807.006753,-229.828649
413.763046,2664.741391,-10214.842000,-153.219100
413.763371,2368.659014,-10362.883188,0.000000
413.763695,1480.411884,-9918.759623,383.047749
413.764019,-592.164754,-9770.718434,-229.828649
413.764343,-2072.576638,-9992.780217,-459.657299
413.764667,-2590.720797,-9400.615463,-842.705048
413.764992,-2664.741391,-9252.574275,-612.876398
413.765316,-1628.453072,-9252.574275,-842.705048
413.765640,-370.102971,-8882.471304,153.219100
413.765964,666.185348,-8956.491898,0.000000
413.766289,888.247130,-8586.388927,229.828649
413.766613,518.144159,-9252.574275,0.000000
413.766937,-296.082377,-9474.636058,0.000000
413.767261,-1184.329507,-9992.780217,306.438199
413.767586,-1628.453072,-9992.780217,229.828649
413.767910,-1406.391290,-9770.718434,0.000000
413.768234,-222.061783,-9844.739029,766.095498
413.768558,370.102971,-9844.739029,1149.143247
413.768882,2516.700203,-9770.718434,995.924147
413.769207,3404.947333,-9474.636058,1149.143247
413.769531,3034.844362,-9474.636058,1225.752797
413.769855,1998.556043,-9622.677246,689.485948
413.770179,148.041188,-9844.739029,536.266849
413.770504,-1554.432478,-9918.759623,229.828649
413.770828,-3256.906145,-9622.677246,0.000000
413.771152,-3849.070898,-9178.553681,76.609550
413.771476,-3775.050304,-8586.388927,76.609550
413.771801,-1998.556043,-8586.388927,76.609550
413.772125,-370.102971,-8216.285956,536.266849
413.772449,962.267725,-8142.265362,689.485948
413.772773,1850.514855,-8216.285956,1608.800546
413.773097,1924.535449,-8734.430116,459.657299
413.773422,888.247130,-9326.594869,536.266849
413.773746,74.020594,-10066.800811,536.266849
413.774070,-962.267725,-10881.027347,0.000000
413.774394,-1480.411884,-11473.192101,0.000000
413.774719,-1110.308913,-11177.109724,0.000000
413.775043,444.123565,-11029.068536,229.828649
413.775367,2220.617826,-10658.965565,383.047749
413.775691,2886.803174,-10807.006753,919.314598
413.776016,2368.659014,-10362.883188,76.609550
413.776340,1628.453072,-9992.780217,383.047749
413.776664,370.102971,-9548.656652,-306.438199
413.776988,-1258.350101,-9770.718434,-229.828649
413.777312,-2146.597232,-9770.718434,-536.266849
413.777636,-2442.679609,-9474.636058,-919.314598
413.777961,-2516.700203,-9104.533087,-995.924147
413.778285,-1110.308913,-9252.574275,-919.314598
413.778609,222.061783,-9178.553681,-383.047749
413.778933,1332.370696,-9400.615463,0.000000
413.779257,1332.370696,-9548.656652,-153.219100
413.779581,1036.288319,-9696.697840,-383.047749
413.779905,222.061783,-10214.842000,-459.657299
413.780230,-592.164754,-10510.924376,-229.828649
413.780554,-888.247130,-10362.883188,-536.266849
413.780878,-444.123565,-9992.780217,-306.438199
413.781202,444.123565,-10066.800811,0.000000
413.781526,1924.535449,-9770.718434,306.438199
413.781850,3256.906145,-10066.800811,459.657299
413.782175,3404.947333,-9770.718434,459.657299
413.782499,3182.885551,-9992.780217,306.438199
413.782823,1480.411884,-9992.780217,0.000000
413.783147,-592.164754,-9770.718434,-153.219100
413.783471,-2368.659014,-9622.677246,-612.876398
413.783795,-4071.132681,-8956.491898,-842.705048
413.784120,-4071.132681,-8364.327145,-842.705048
413.784444,-2886.803174,-8216.285956,-536.266849
413.784768,-962.267725,-7994.224174,-153.219100
413.785092,814.226536,-7772.162391,76.609550
413.785416,1850.514855,-7698.141797,459.657299
413.785740,1480.411884,-8142.265362,0.000000
413.786064,1110.308913,-9030.512492,76.609550
413.786389,-148.041188,-9844.739029,-536.266849
413.786713,-1332.370696,-10955.047942,-459.657299
413.787037,-2220.617826,-11177.109724,-766.095498
413.787361,-2146.597232,-11251.130318,-766.095498
413.787685,-1406.391290,-11103.089130,-766.095498
413.788009,518.144159,-11251.130318,0.000000
413.788334,2146.597232,-10584.944971,-306.438199
413.788658,2886.803174,-10140.821405,0.000000
413.788982,2146.597232,-10140.821405,-153.219100
413.789306,814.226536,-10066.800811,-153.219100
413.789630,-666.185348,-9992.780217,-383.047749
413.789954,-2072.576638,-9844.739029,-612.876398
413.790279,-3108.864956,-9474.636058,-919.314598
413.790603,-3256.906145,-9474.636058,-1149.143247
413.790927,-2368.659014,-9474.636058,-536.266849
413.791251,-1110.308913,-9326.594869,-459.657299
413.791575,0.000000,-9178.553681,-536.266849
413.791899,444.123565,-9104.533087,-612.876398
413.792223,666.185348,-9400.615463,-229.828649
413.792548,444.123565,-9844.739029,0.000000
413.792872,0.000000,-10288.862594,-229.828649
413.793196,-592.164754,-10510.924376,0.000000
413.793520,-444.123565,-10584.944971,-306.438199
413.793844,-222.061783,-10362.883188,153.219100
413.794168,1036.288319,-10436.903782,536.266849
413.794493,2664.741391,-10214.842000,689.485948
413.794817,3701.029710,-10140.821405,383.047749
413.795141,3701.029710,-9992.780217,1149.143247
413.795465,2516.700203,-9696.697840,-153.219100
413.795789,1036.288319,-9548.656652,0.000000
413.796113,-888.247130,-9918.759623,-153.219100
413.796437,-2738.761985,-9770.718434,-383.047749
413.796762,-3923.091493,-9030.512492,-459.657299
413.797086,-3552.988522,-8512.368333,-306.438199
413.797410,-2072.576638,-8216.285956,0.000000
413.797734,-592.164754,-7772.162391,306.438199
413.798058,1406.391290,-7328.038826,536.266849
413.798382,2146.597232,-7698.141797,842.705048
413.798707,1850.514855,-8142.265362,383.047749
413.799031,888.247130,-8956.491898,229.828649
413.799355,0.000000,-9770.718434,383.047749
413.799679,-1184.329507,-10362.883188,0.000000
413.800003,-1998.556043,-10658.965565,-612.876398
413.800327,-1776.494261,-10362.883188,76.609550
413.800652,-444.123565,-9992.780217,459.657299
413.800976,1776.494261,-10436.903782,459.657299
413.801300,2886.803174,-10214.842000,919.314598
413.801624,2738.761985,-9918.759623,766.095498
413.801948,1702.473667,-9844.739029,612.876398
413.802272,518.144159,-9548.656652,76.609550
413.802596,-888.247130,-9548.656652,153.219100
413.802921,-1924.535449,-9474.636058,76.609550
413.803245,-2590.720797,-9400.615463,0.000000
413.803569,-2664.741391,-9474.636058,-536.266849
413.803893,-1850.514855,-9252.574275,-306.438199
413.804217,-592.164754,-8956.491898,-383.047749
413.804541,518.144159,-8956.491898,0.000000
413.804866,1110.308913,-9326.594869,459.657299
413.805190,1258.350101,-9548.656652,229.828649
413.805514,444.123565,-9400.615463,76.609550
413.805838,0.000000,-10288.862594,0.000000
413.806162,-740.205942,-10807.006753,153.219100
413.806486,-962.267725,-10807.006753,0.000000
413.806810,-148.041188,-10510.924376,229.828649
413.807135,962.267725,-10584.944971,306.438199
413.807459,2368.659014,-10288.862594,383.047749
413.807783,2886.803174,-9992.780217,383.047749
413.808107,2812.782580,-9992.780217,306.438199
413.808431,1702.473667,-10140.821405,0.000000
413.808755,0.000000,-10288.862594,-229.828649
413.809080,-1998.556043,-10288.862594,-459.657299
413.809404,-2886.803174,-9844.739029,-383.047749
413.809728,-3552.988522,-8882.471304,-919.314598
413.810052,-3108.864956,-8512.368333,-1302.362347
413.810376,-1406.391290,-8290.306550,-612.876398
413.810700,296.082377,-8216.285956,0.000000
413.811025,1332.370696,-8142.265362,0.000000
413.811349,1850.514855,-8438.347739,-153.219100
413.811673,1332.370696,-8882.471304,-306.438199
413.811997,740.205942,-9622.677246,-995.924147
413.812321,-518.144159,-10436.903782,-612.876398
413.812645,-2220.617826,-10362.883188,-842.705048
413.812969,-1850.514855,-10658.965565,-689.485948
413.813294,-1258.350101,-10658.965565,-536.266849
413.813618,592.164754,-10955.047942,-229.828649
413.813942,2072.576638,-10584.944971,0.000000
413.814266,3108.864956,-10288.862594,383.047749
413.814590,2886.803174,-9992.780217,459.657299
413.814914,2220.617826,-9992.780217,0.000000
413.815239,518.144159,-9696.697840,0.000000
413.815563,-1036.288319,-9844.739029,0.000000
413.815887,-2220.617826,-9844.739029,-536.266849
413.816211,-2812.782580,-9622.677246,-689.485948
413.816535,-2368.659014,-9400.615463,-612.876398
413.816859,-1184.329507,-9104.533087,-383.047749
413.817184,518.144159,-8734.430116,-153.219100
413.817508,666.185348,-8142.265362,0.000000
413.817832,888.247130,-8512.368333,229.828649
413.818156,666.185348,-9030.512492,76.609550
413.818480,0.000000,-9622.677246,0.000000
413.818804,-370.102971,-9918.759623,-153.219100
413.819128,-1258.350101,-9770.718434,0.000000
413.819453,-1110.308913,-10066.800811,229.828649
413.819777,0.000000,-10288.862594,536.266849
413.820101,1332.370696,-10436.903782,383.047749
413.820425,2590.720797,-9844.739029,766.095498
413.820749,2886.803174,-9770.718434,995.924147
413.821073,2146.597232,-9918.759623,766.095498
413.821398,666.185348,-9844.739029,689.485948
413.821722,-1258.350101,-10214.842000,0.000000
413.822046,-2960.823768,-10140.821405,0.000000
413.822370,-4293.194464,-9548.656652,-612.876398
413.822694,-4367.215058,-9252.574275,-229.828649
413.823018,-3404.947333,-8734.430116,153.219100
413.823342,-1480.411884,-8660.409521,0.000000
413.823667,148.041188,-7994.224174,0.000000
413.823991,1480.411884,-8142.265362,153.219100
413.824315,1332.370696,-8512.368333,153.219100
413.824639,1036.288319,-8956.491898,-383.047749
413.824963,0.000000,-9622.677246,-383.047749
413.825287,-888.247130,-10436.903782,153.219100
413.825612,-1332.370696,-10510.924376,-306.438199
413.825936,-1480.411884,-10955.047942,-689.485948
413.826260,-592.164754,-10955.047942,-229.828649
413.826584,1258.350101,-11029.068536,-153.219100
413.826908,2590.720797,-11029.068536,76.609550
413.827232,3182.885551,-11029.068536,306.438199
413.827557,2812.782580,-10658.965565,76.609550
413.827881,1850.514855,-9918.759623,0.000000
413.828205,0.000000,-9696.697840,-766.095498
413.828529,-1184.329507,-9918.759623,-536.266849
413.828853,-2146.597232,-9770.718434,-689.485948
413.829177,-2220.617826,-9474.636058,-919.314598
413.829501,-1554.432478,-9326.594869,-689.485948
413.829826,-296.082377,-9400.615463,-612.876398
413.830150,1184.329507,-9474.636058,-229.828649
413.830474,1332.370696,-8734.430116,-229.828649
413.830798,1110.308913,-8734.430116,-153.219100
413.831122,296.082377,-9474.636058,0.000000
413.831446,-444.123565,-9992.780217,0.000000
413.831771,-1036.288319,-10140.821405,0.000000
413.832095,-1406.391290,-9992.780217,153.219100
413.832419,-962.267725,-9992.780217,0.000000
413.832743,370.102971,-9770.718434,0.000000
413.833067,2442.679609,-9474.636058,1072.533697
413.833391,3627.009116,-9548.656652,1302.362347
413.833716,3182.885551,-9844.739029,766.095498
413.834040,2368.659014,-9992.780217,689.485948
413.834364,518.144159,-9918.759623,229.828649
413.834688,-1554.432478,-9696.697840,0.000000
413.835012,-3034.844362,-9400.615463,0.000000
413.835336,-3997.112087,-8586.388927,-1378.971896
413.835660,-3849.070898,-8068.244768,-919.314598
413.835985,-2368.659014,-8068.244768,0.000000
413.836309,-1406.391290,-7698.141797,0.000000
413.836633,0.000000,-7402.059420,229.828649
413.836957,592.164754,-7550.100608,0.000000
413.837281,444.123565,-7698.141797,76.609550
413.837605,-296.082377,-8290.306550,306.438199
413.837930,-1036.288319,-9474.636058,-459.657299
413.838254,-1554.432478,-10510.924376,-383.047749
413.838578,-2072.576638,-10732.986159,-306.438199
413.838902,-1184.329507,-11251.130318,-153.219100
413.839226,444.123565,-11177.109724,0.000000
413.839550,2294.638420,-11103.089130,306.438199
413.839874,3552.988522,-10881.027347,459.657299
413.840199,3923.091493,-10732.986159,612.876398
413.840523,3182.885551,-10658.965565,229.828649
413.840847,1554.432478,-10362.883188,-612.876398
413.841171,0.000000,-10584.944971,-536.266849
413.841495,-1480.411884,-10362.883188,-689.485948
413.841819,-2220.617826,-10214.842000,-1149.143247
413.842144,-2368.659014,-9548.656652,-766.095498
413.842468,-1554.432478,-9622.677246,-459.657299
413.842792,-444.123565,-9400.615463,-383.047749
413.843116,740.205942,-9474.636058,-306.438199
413.843440,962.267725,-9474.636058,-1149.143247
413.843764,1036.288319,-9622.677246,-383.047749
413.844089,814.226536,-10362.883188,-153.219100
413.844413,0.000000,-10807.006753,0.000000
413.844737,-740.205942,-10732.986159,306.438199
413.845061,-592.164754,-10732.986159,76.609550
413.845385,370.102971,-10510.924376,-306.438199
413.845709,2146.597232,-9770.718434,459.657299
413.846033,3478.967927,-10140.821405,766.095498
413.846358,3775.050304,-10140.821405,919.314598
413.846682,3182.885551,-9770.718434,689.485948
413.847006,1480.411884,-9548.656652,229.828649
413.847330,-1110.308913,-9252.574275,306.438199
413.847654,-2664.741391,-9844.739029,-306.438199
413.847978,-4219.173869,-8808.450710,-383.047749
413.848303,-5033.400406,-7846.182985,-383.047749
413.848627,-4145.153275,-7402.059420,-229.828649
413.848951,-1924.535449,-7476.080014,229.828649
413.849275,-148.041188,-7031.956449,766.095498
413.849599,1184.329507,-6661.853478,1302.362347
413.849923,1480.411884,-6883.915261,766.095498
413.850247,1110.308913,-7328.038826,459.657299
413.850572,370.102971,-8660.409521,229.828649
413.850896,-296.082377,-9918.759623,536.266849
413.851220,-814.226536,-10436.903782,0.000000
413.851544,-962.267725,-10807.006753,-153.219100
413.851868,-888.247130,-10807.006753,0.000000
413.852192,814.226536,-10658.965565,842.705048
413.852517,1850.514855,-10732.986159,1072.533697
413.852841,2516.700203,-10510.924376,306.438199
413.853165,1998.556043,-9992.780217,153.219100
413.853489,888.247130,-10214.842000,0.000000
413.853813,-444.123565,-10436.903782,-536.266849
413.854137,-1998.556043,-10362.883188,-536.266849
413.854462,-2812.782580,-9770.718434,-842.705048
413.854786,-3627.009116,-9918.759623,-1378.971896
413.855110,-2516.700203,-9696.697840,-1225.752797
413.855434,-1554.432478,-9770.718434,-689.485948
413.855758,666.185348,-9622.677246,-689.485948
413.856082,1924.535449,-9844.739029,-536.266849
413.856406,1998.556043,-9918.759623,-383.047749
413.856731,1924.535449,-10436.903782,-612.876398
413.857055,1110.308913,-10732.986159,-383.047749
413.857379,518.144159,-11325.150913,-76.609550
413.857703,74.020594,-11399.171507,-536.266849
413.858027,370.102971,-11399.171507,0.000000
413.858351,740.205942,-10732.986159,-153.219100
413.858676,2146.597232,-10584.944971,76.609550
413.859000,3108.864956,-10436.903782,0.000000
413.859324,3404.947333,-10214.842000,76.609550
413.859648,2368.659014,-9622.677246,-383.047749
413.859972,666.185348,-9622.677246,-306.438199
413.860296,-1406.391290,-9474.636058,-612.876398
413.860621,-3330.926739,-9474.636058,-459.657299
413.860945,-4219.173869,-9030.512492,-995.924147
413.861269,-4367.215058,-8660.409521,-842.705048
413.861593,-3034.844362,-8586.388927,-536.266849
413.861917,-962.267725,-8142.265362,76.609550
413.862241,888.247130,-7772.162391,306.438199
413.862565,1332.370696,-7402.059420,0.000000
413.862890,1776.494261,-7772.162391,76.609550
413.863214,1036.288319,-8364.327145,229.828649
413.863538,74.020594,-9622.677246,229.828649
413.863862,-740.205942,-9992.780217,229.828649
413.864186,-1332.370696,-9992.780217,76.609550
413.864510,-1332.370696,-10066.800811,459.657299
413.864835,-592.164754,-10140.821405,153.219100
413.865159,962.267725,-9918.759623,459.657299
413.865483,2294.638420,-9770.718434,383.047749
413.865807,2368.659014,-9474.636058,689.485948
413.866131,1702.473667,-9400.615463,153.219100
413.866455,370.102971,-9326.594869,0.000000
413.866779,-1184.329507,-9252.574275,306.438199
413.867104,-1702.473667,-9474.636058,-229.828649
413.867428,-2516.700203,-9474.636058,-153.219100
413.867752,-2590.720797,-9326.594869,-459.657299
413.868076,-1702.473667,-9326.594869,-153.219100
413.868400,-148.041188,-9474.636058,0.000000
413.868724,740.205942,-9474.636058,0.000000
413.869049,1554.432478,-9844.739029,229.828649
413.869373,2072.576638,-9992.780217,0.000000
413.869697,1702.473667,-10362.883188,536.266849
413.870021,1110.308913,-10732.986159,306.438199
413.870345,0.000000,-11325.150913,76.609550
413.870669,-592.164754,-11029.068536,76.609550
413.870994,0.000000,-10807.006753,229.828649
413.871318,814.226536,-10955.047942,229.828649
413.871642,1998.556043,-10732.986159,842.705048
413.871966,2738.761985,-10362.883188,536.266849
413.872290,2516.700203,-9696.697840,766.095498
413.872614,1628.453072,-9622.677246,0.000000
413.872938,222.061783,-9696.697840,0.000000
413.873263,-1480.411884,-10214.842000,0.000000
413.873587,-3182.885551,-9696.697840,0.000000
413.873911,-3923.091493,-9178.553681,-459.657299
413.874235,-3330.926739,-8808.450710,0.000000
413.874559,-1998.556043,-8882.471304,153.219100
413.874883,0.000000,-8512.368333,536.266849
413.875208,1480.411884,-7920.203579,536.266849
413.875532,2146.597232,-7994.224174,1378.971896
413.875856,1406.391290,-8142.265362,306.438199
413.876180,888.247130,-9104.533087,459.657299
413.876504,74.020594,-9770.718434,306.438199
413.876828,-592.164754,-9844.739029,153.219100
413.877152,-1036.288319,-9992.780217,-229.828649
413.877477,-666.185348,-9992.780217,-229.828649
413.877801,0.000000,-9622.677246,0.000000
413.878125,1184.329507,-9918.759623,0.000000
413.878449,2146.597232,-9918.759623,459.657299
413.878773,2146.597232,-9548.656652,306.438199
413.879097,1628.453072,-9474.636058,0.000000
413.879421,518.144159,-9548.656652,-229.828649
413.879745,-1332.370696,-9474.636058,0.000000
413.880070,-2368.659014,-9400.615463,-612.876398
413.880394,-2886.803174,-9252.574275,-1149.143247
413.880718,-2812.782580,-9400.615463,-995.924147
413.881042,-1480.411884,-8956.491898,-766.095498
413.881366,74.020594,-9104.533087,-459.657299
413.881690,814.226536,-9400.615463,-536.266849
413.882014,888.247130,-9474.636058,-383.047749
413.882338,1036.288319,-9844.739029,-459.657299
413.882663,740.205942,-10362.883188,0.000000
413.882987,222.061783,-11251.130318,-536.266849
413.883311,-1110.308913,-10881.027347,-459.657299
413.883635,-1184.329507,-10955.047942,-153.219100
413.883959,-296.082377,-10955.047942,-306.438199
413.884283,1184.329507,-10658.965565,0.000000
413.884607,2590.720797,-10955.047942,0.000000
413.884931,3404.947333,-10362.883188,995.924147
413.885255,3108.864956,-10288.862594,995.924147
413.885580,2368.659014,-10362.883188,0.000000
413.885904,222.061783,-10288.862594,-459.657299
413.886228,-1850.514855,-10510.924376,-383.047749
413.886552,-3182.885551,-10140.821405,-842.705048
413.886876,-3701.029710,-9548.656652,-612.876398
413.887200,-3034.844362,-9104.533087,-229.828649
413.887524,-1480.411884,-8586.388927,0.000000
413.887848,0.000000,-8512.368333,-229.828649
413.888173,962.267725,-8068.244768,153.219100
413.888497,1628.453072,-8216.285956,536.266849
413.888821,1184.329507,-8512.368333,229.828649
413.889145,296.082377,-8956.491898,306.438199
413.889469,-666.185348,-9326.594869,306.438199
413.889793,-1702.473667,-9770.718434,306.438199
413.890117,-1998.556043,-10140.821405,0.000000
413.890441,-962.267725,-10584.944971,306.438199
413.890766,0.000000,-10214.842000,153.219100
413.891090,1406.391290,-9992.780217,383.047749
413.891414,1998.556043,-9622.677246,383.047749
413.891738,1702.473667,-9474.636058,306.438199
413.892062,1110.308913,-9252.574275,0.000000
413.892386,0.000000,-9474.636058,-306.438199
413.892710,-1332.370696,-9474.636058,0.000000
413.893034,-2664.741391,-9252.574275,-536.266849
413.893359,-2960.823768,-9178.553681,-536.266849
413.893683,-2516.700203,-9178.553681,-459.657299
413.894007,-1184.329507,-9030.512492,-612.876398
413.894331,592.164754,-9030.512492,-153.219100
413.894655,1554.432478,-8956.491898,0.000000
413.894979,1776.494261,-9252.574275,0.000000
413.895303,1554.432478,-9844.739029,-229.828649
413.895627,592.164754,-10436.903782,-536.266849
413.895951,-296.082377,-11029.068536,-229.828649
413.896276,-740.205942,-11251.130318,-383.047749
413.896600,-370.102971,-11029.068536,0.000000
413.896924,148.041188,-10955.047942,0.000000
413.897248,1850.514855,-10658.965565,-306.438199
413.897572,3256.906145,-10584.944971,76.609550
413.897896,3330.926739,-10140.821405,383.047749
413.898220,2664.741391,-10140.821405,-229.828649
413.898544,1110.308913,-10288.862594,-306.438199
413.898869,-592.164754,-10288.862594,-229.828649
413.899193,-2368.659014,-10066.800811,-1225.752797
413.899517,-3627.009116,-9474.636058,-842.705048
413.899841,-4293.194464,-8586.388927,-842.705048
413.900165,-2886.803174,-8808.450710,-766.095498
413.900489,-1258.350101,-8882.471304,-306.438199
413.900813,444.123565,-8438.347739,0.000000
413.901137,1332.370696,-8142.265362,229.828649
413.901462,1628.453072,-8216.285956,229.828649
413.901786,1702.473667,-8734.430116,229.828649
413.902110,518.144159,-9622.677246,229.828649
413.902434,-444.123565,-10658.965565,-229.828649
413.902758,-740.205942,-10807.006753,76.609550
413.903082,-370.102971,-10066.800811,0.000000
413.903406,0.000000,-10288.862594,229.828649
413.903730,666.185348,-10288.862594,76.609550
413.904055,1480.411884,-10066.800811,153.219100
413.904379,1480.411884,-9548.656652,306.438199
413.904703,1184.329507,-9178.553681,766.095498
413.905027,148.041188,-8882.471304,229.828649
413.905351,-962.267725,-8290.306550,-229.828649
413.905675,-1998.556043,-8512.368333,-229.828649
413.905999,-2294.638420,-9252.574275,-76.609550
413.906323,-2738.761985,-9030.512492,-383.047749
413.906647,-1924.535449,-9030.512492,0.000000
413.906972,-370.102971,-8882.471304,153.219100
413.907296,1332.370696,-8882.471304,459.657299
413.907620,1776.494261,-9252.574275,229.828649
413.907944,1998.556043,-9918.759623,536.266849
413.908268,1776.494261,-10436.903782,383.047749
413.908592,814.226536,-10584.944971,229.828649
413.908916,0.000000,-10658.965565,459.657299
413.909240,-1184.329507,-10658.965565,-306.438199
413.909565,-1184.329507,-10584.944971,-536.266849
413.909889,0.000000,-10584.944971,0.000000
413.910213,1702.473667,-10214.842000,0.000000
413.910537,2812.782580,-10066.800811,229.828649
413.910861,2886.803174,-9918.759623,0.000000
413.911185,2220.617826,-9770.718434,-306.438199
413.911509,370.102971,-10140.821405,153.219100
413.911833,-1628.453072,-10584.944971,-306.438199
413.912158,-3330.926739,-10214.842000,-306.438199
413.912482,-3997.112087,-9548.656652,-383.047749
413.912806,-3256.906145,-9326.594869,-229.828649
413.913130,-1554.432478,-8956.491898,153.219100
413.913454,0.000000,-8512.368333,229.828649
413.913778,1628.453072,-8660.409521,306.438199
413.914102,2220.617826,-8068.244768,0.000000
413.914426,1924.535449,-8586.388927,0.000000
413.914751,1110.308913,-9474.636058,459.657299
413.915075,222.061783,-10214.842000,229.828649
413.915399,-666.185348,-11177.109724,383.047749
413.915723,-1480.411884,-10584.944971,0.000000
413.916047,-1332.370696,-10658.965565,76.609550
413.916371,222.061783,-10140.821405,766.095498
413.916695,1258.350101,-10214.842000,689.485948
413.917019,2072.576638,-9548.656652,766.095498
413.917343,1554.432478,-9030.512492,459.657299
413.917668,740.205942,-9104.533087,229.828649
413.917992,0.000000,-8512.368333,0.000000
413.918316,-1110.308913,-9104.533087,-1149.143247
413.918640,-2072.576638,-9474.636058,-612.876398
413.918964,-3034.844362,-8808.450710,-689.485948
413.919288,-2812.782580,-9030.512492,-689.485948
413.919612,-1554.432478,-9326.594869,-383.047749
413.919936,0.000000,-9326.594869,-306.438199
413.920261,1110.308913,-9474.636058,0.000000
413.920585,1702.473667,-9400.615463,0.000000
413.920909,1924.535449,-9326.594869,153.219100
413.921233,1110.308913,-9400.615463,76.609550
413.921557,74.020594,-10510.924376,0.000000
413.921881,-518.144159,-10807.006753,0.000000
413.922205,-888.247130,-10584.944971,-229.828649
413.922529,-444.123565,-10436.903782,-306.438199
413.922854,370.102971,-10214.842000,-229.828649
413.923178,1628.453072,-10066.800811,0.000000
413.923502,2516.700203,-10140.821405,-153.219100
413.923826,2368.659014,-10362.883188,-306.438199
413.924150,1110.308913,-10288.862594,-229.828649
413.924474,-444.123565,-10436.903782,-306.438199
413.924798,-2072.576638,-10288.862594,-689.485948
413.925122,-3182.885551,-9548.656652,-459.657299
413.925447,-3330.926739,-9252.574275,-536.266849
413.925771,-2294.638420,-9030.512492,-383.047749
413.926095,-740.205942,-8290.306550,-459.657299
413.926419,1110.308913,-8216.285956,76.609550
413.926743,2368.659014,-7994.224174,306.438199
413.927067,2590.720797,-8364.327145,0.000000
413.927391,1702.473667,-8808.450710,-153.219100
413.927715,666.185348,-9622.677246,0.000000
413.928039,-592.164754,-10066.800811,-306.438199
413.928364,-1776.494261,-10140.821405,-612.876398
413.928688,-1776.494261,-10362.883188,-919.314598
413.929012,-1110.308913,-10362.883188,-536.266849
413.929336,296.082377,-10288.862594,0.000000
413.929660,1850.514855,-10288.862594,0.000000
413.929984,2812.782580,-10140.821405,536.266849
413.930308,2294.638420,-9548.656652,383.047749
413.930632,1406.391290,-9474.636058,383.047749
413.930957,0.000000,-9326.594869,0.000000
413.931281,-1702.473667,-9622.677246,-536.266849
413.931605,-2812.782580,-9992.780217,-842.705048
413.931929,-3256.906145,-9474.636058,-1149.143247
413.932253,-2960.823768,-9622.677246,-995.924147
413.932577,-1776.494261,-9474.636058,-766.095498
413.932901,222.061783,-9474.636058,-1149.143247
413.933225,518.144159,-9104.533087,0.000000
413.933550,1110.308913,-9548.656652,153.219100
413.933874,666.185348,-9622.677246,-306.438199
413.934198,148.041188,-10214.842000,0.000000
413.934522,-370.102971,-10807.006753,0.000000
413.934846,-666.185348,-10732.986159,229.828649
413.935170,-148.041188,-10214.842000,383.047749
413.935494,1036.288319,-10140.821405,612.876398
413.935818,2368.659014,-10214.842000,306.438199
413.936143,3256.906145,-10066.800811,459.657299
413.936467,3404.947333,-9696.697840,536.266849
413.936791,2516.700203,-9474.636058,0.000000
413.937115,1406.391290,-9622.677246,-536.266849
413.937439,-148.041188,-9622.677246,-229.828649
413.937763,-2220.617826,-9622.677246,0.000000
413.938087,-3701.029710,-9252.574275,-306.438199
413.938411,-3552.988522,-9030.512492,0.000000
413.938735,-2442.679609,-8808.450710,306.438199
413.939060,-592.164754,-8586.388927,536.266849
413.939384,1184.329507,-8438.347739,1378.971896
413.939708,2220.617826,-8290.306550,1455.581446
413.940032,2368.659014,-8142.265362,1685.410096
413.940356,1702.473667,-8290.306550,536.266849
413.940680,444.123565,-9178.553681,842.705048
413.941004,-148.041188,-10066.800811,689.485948
413.941328,-1184.329507,-10214.842000,153.219100
413.941653,-1480.411884,-10140.821405,153.219100
413.941977,-666.185348,-10214.842000,383.047749
413.942301,1036.288319,-9696.697840,0.000000
413.942625,2146.597232,-9696.697840,689.485948
413.942949,2516.700203,-9548.656652,995.924147
413.943273,2294.638420,-9474.636058,1225.752797
413.943597,1036.288319,-9474.636058,536.266849
413.943921,-888.247130,-9474.636058,689.485948
413.944246,-2220.617826,-9548.656652,306.438199
413.944570,-3256.906145,-8660.409521,0.000000
413.944894,-3256.906145,-8438.347739,-153.219100
413.945218,-2294.638420,-9030.512492,-842.705048
413.945542,-888.247130,-8808.450710,-383.047749
413.945866,74.020594,-9104.533087,-612.876398
413.946190,1036.288319,-9178.553681,-306.438199
413.946514,962.267725,-9918.759623,-306.438199
413.946839,296.082377,-10288.862594,-383.047749
413.947163,-222.061783,-10881.027347,-153.219100
413.947487,-814.226536,-11695.253884,-383.047749
413.947811,-1110.308913,-11103.089130,0.000000
413.948135,-370.102971,-10955.047942,76.609550
413.948459,518.144159,-10881.027347,76.609550
413.948783,2220.617826,-10881.027347,153.219100
413.949107,3108.864956,-10214.842000,153.219100
413.949431,3108.864956,-9696.697840,-153.219100
413.949756,2664.741391,-9844.739029,0.000000
413.950080,148.041188,-9844.739029,-153.219100
413.950404,-1184.329507,-10288.862594,-766.095498
413.950728,-2664.741391,-9918.759623,-1072.533697
413.951052,-3775.050304,-9474.636058,-1608.800546
413.951376,-3627.009116,-9400.615463,-1455.581446
413.951700,-2368.659014,-8586.388927,-1072.533697
413.952024,0.000000,-8512.368333,-689.485948
413.952349,1702.473667,-8068.244768,0.000000
413.952673,2442.679609,-8290.306550,459.657299
413.952997,2072.576638,-8586.388927,-153.219100
413.953321,1332.370696,-9252.574275,153.219100
413.953645,222.061783,-10140.821405,0.000000
413.953969,-814.226536,-10510.924376,0.000000
413.954293,-1480.411884,-10510.924376,-153.219100
413.954617,-1258.350101,-10658.965565,-153.219100
413.954942,-370.102971,-10066.800811,153.219100
413.955266,814.226536,-10066.800811,0.000000
413.955590,1628.453072,-10140.821405,153.219100
413.955914,1628.453072,-9622.677246,383.047749
413.956238,592.164754,-9104.533087,-153.219100
413.956562,-370.102971,-9030.512492,-536.266849
413.956886,-1554.432478,-8882.471304,-229.828649
413.957210,-2146.597232,-8660.409521,-383.047749
413.957535,-2516.700203,-8216.285956,-459.657299
413.957859,-2072.576638,-8956.491898,0.000000
413.958183,-1406.391290,-8586.388927,-306.438199
413.958507,0.000000,-8586.388927,-229.828649
413.958831,592.164754,-8586.388927,76.609550
413.959155,1036.288319,-9178.553681,-229.828649
413.959479,962.267725,-9252.574275,229.828649
413.959803,0.000000,-10066.800811,229.828649
413.960127,-592.164754,-10510.924376,306.438199
413.960452,-1036.288319,-10732.986159,76.609550
413.960776,-1258.350101,-10732.986159,-459.657299
413.961100,-666.185348,-10436.903782,-153.219100
413.961424,666.185348,-10288.862594,153.219100
413.961748,2368.659014,-10140.821405,459.657299
413.962072,3182.885551,-10214.842000,689.485948
413.962396,2886.803174,-10436.903782,153.219100
413.962720,1998.556043,-11029.068536,-229.828649
413.963045,-296.082377,-11103.089130,-383.047749
413.963369,-2368.659014,-10955.047942,-459.657299
413.963693,-3552.988522,-10732.986159,-612.876398
413.964017,-3923.091493,-9992.780217,-536.266849
413.964341,-3034.844362,-9548.656652,-612.876398
413.964665,-1036.288319,-8956.491898,76.609550
413.964989,814.226536,-8808.450710,0.000000
413.965313,1998.556043,-8364.327145,229.828649
413.965638,2368.659014,-8142.265362,459.657299
413.965962,2072.576638,-8438.347739,153.219100
413.966286,1110.308913,-9326.594869,0.000000
413.966610,444.123565,-10214.842000,536.266849
413.966934,-296.082377,-10807.006753,-76.609550
413.967258,-962.267725,-10288.862594,-536.266849
413.967582,-666.185348,-11029.068536,0.000000
413.967906,444.123565,-10436.903782,306.438199
413.968231,1776.494261,-10140.821405,383.047749
413.968555,1850.514855,-9918.759623,689.485948
413.968879,1850.514855,-9400.615463,459.657299
413.969203,1110.308913,-8956.491898,536.266849
413.969527,-1036.288319,-8512.368333,229.828649
413.969851,-1110.308913,-8956.491898,0.000000
413.970175,-2442.679609,-8586.388927,-383.047749
413.970499,-2812.782580,-8586.388927,-612.876398
413.970823,-2516.700203,-8512.368333,-306.438199
413.971148,-1110.308913,-8660.409521,-229.828649
413.971472,222.061783,-8586.388927,0.000000
413.971796,592.164754,-8660.409521,536.266849
413.972120,1258.350101,-9104.533087,459.657299
413.972444,666.185348,-9326.594869,0.000000
413.972768,148.041188,-9696.697840,153.219100
413.973092,-518.144159,-10066.800811,229.828649
413.973416,-666.185348,-10140.821405,76.609550
413.973741,-148.041188,-9992.780217,995.924147
413.974065,740.205942,-9844.739029,536.266849
413.974389,2146.597232,-10436.903782,306.438199
413.974713,2960.823768,-10066.800811,689.485948
413.975037,3404.947333,-10066.800811,306.438199
413.975361,2960.823768,-10214.842000,0.000000
413.975685,1776.494261,-10732.986159,76.609550
413.976009,-148.041188,-10955.047942,153.219100
413.976334,-2442.679609,-10584.944971,-306.438199
413.976658,-3627.009116,-10584.944971,-995.924147
413.976982,-3552.988522,-9844.739029,-536.266849
413.977306,-2664.741391,-9474.636058,-459.657299
413.977630,-888.247130,-9104.533087,-153.219100
413.977954,740.205942,-8808.450710,0.000000
413.978278,1924.535449,-8734.430116,383.047749
413.978603,2516.700203,-9252.574275,459.657299
413.978927,1998.556043,-9400.615463,0.000000
413.979251,888.247130,-9918.759623,0.000000
413.979575,0.000000,-10436.903782,76.609550
413.979899,-962.267725,-11029.068536,-536.266849
413.980223,-1406.391290,-11029.068536,-153.219100
413.980547,-518.144159,-10732.986159,0.000000
413.980872,814.226536,-10510.924376,306.438199
413.981196,2368.659014,-10214.842000,689.485948
413.981520,2146.597232,-9474.636058,383.047749
413.981844,1554.432478,-9178.553681,306.438199
413.982168,148.041188,-9030.512492,229.828649
413.982492,-1776.494261,-9326.594869,-229.828649
413.982816,-3182.885551,-9252.574275,-689.485948
413.983141,-4219.173869,-8734.430116,-919.314598
413.983465,-3701.029710,-8660.409521,-612.876398
413.983789,-2738.761985,-8290.306550,-995.924147
413.984113,-1258.350101,-8808.450710,-459.657299
413.984437,-74.020594,-8660.409521,-153.219100
413.984761,444.123565,-9030.512492,-459.657299
413.985085,518.144159,-9326.594869,-459.657299
413.985410,148.041188,-9696.697840,-459.657299
413.985734,-296.082377,-10288.862594,-842.705048
413.986058,-592.164754,-10510.924376,153.219100
413.986382,-518.144159,-10732.986159,0.000000
413.986706,-148.041188,-10214.842000,306.438199
413.987030,592.164754,-9844.739029,-153.219100
413.987354,1924.535449,-9770.718434,0.000000
413.987679,3034.844362,-9770.718434,0.000000
413.988003,3108.864956,-9918.759623,-306.438199
413.988327,2220.617826,-9770.718434,-459.657299
413.988651,518.144159,-9696.697840,-766.095498
413.988975,-1406.391290,-9992.780217,-995.924147
413.989299,-1998.556043,-10140.821405,-919.314598
413.989624,-2516.700203,-9474.636058,-1072.533697
413.989948,-2960.823768,-9400.615463,-1302.362347
413.990272,-1480.411884,-8882.471304,0.000000
413.990596,888.247130,-9178.553681,153.219100
413.990920,2220.617826,-9104.533087,0.000000
413.991244,2812.782580,-9030.512492,76.609550
413.991568,2368.659014,-8882.471304,0.000000
413.991893,1776.494261,-9696.697840,0.000000
413.992217,888.247130,-11103.089130,0.000000
413.992541,-666.185348,-11029.068536,-229.828649
413.992865,-1480.411884,-11029.068536,-153.219100
413.993189,-1332.370696,-11103.089130,-536.266849
413.993513,-148.041188,-10955.047942,0.000000
413.993837,1258.350101,-10510.924376,306.438199
413.994162,2442.679609,-9622.677246,459.657299
413.994486,2516.700203,-9770.718434,459.657299
413.994810,1480.411884,-9178.553681,306.438199
413.995134,0.000000,-9400.615463,76.609550
413.995458,-1554.432478,-9400.615463,0.000000
413.995782,-2516.700203,-9252.574275,-536.266849
413.996106,-3256.906145,-8882.471304,-536.266849
413.996431,-3108.864956,-8734.430116,0.000000
413.996755,-2368.659014,-8512.368333,76.609550
413.997079,-740.205942,-8438.347739,153.219100
413.997403,444.123565,-8808.450710,76.609550
413.997727,1036.288319,-9104.533087,229.828649
413.998051,962.267725,-9400.615463,612.876398
413.998376,592.164754,-9622.677246,306.438199
413.998700,-148.041188,-9992.780217,459.657299
413.999024,-962.267725,-10436.903782,459.657299
413.999348,-1258.350101,-10066.800811,153.219100
413.999672,-444.123565,-9918.759623,383.047749
413.999996,1110.308913,-10732.986159,536.266849
414.000320,2220.617826,-9992.780217,229.828649
414.000645,2738.761985,-9770.718434,459.657299
414.000969,2442.679609,-9918.759623,153.219100
414.001293,1850.514855,-10066.800811,0.000000
414.001617,-296.082377,-9992.780217,-306.438199
414.001941,-1702.473667,-10140.821405,-459.657299
414.002265,-2664.741391,-9770.718434,-536.266849
414.002589,-3034.844362,-9474.636058,-766.095498
414.002914,-2516.700203,-9178.553681,-536.266849
414.003238,-888.247130,-8956.491898,0.000000
414.003562,1036.288319,-8660.409521,153.219100
414.003886,2442.679609,-8586.388927,229.828649
414.004210,2812.782580,-8586.388927,459.657299
414.004534,2590.720797,-9178.553681,76.609550
414.004858,1332.370696,-9548.656652,612.876398
414.005183,370.102971,-10732.986159,76.609550
414.005507,-592.164754,-11103.089130,-306.438199
414.005831,-1332.370696,-10955.047942,-153.219100
414.006155,-740.205942,-10807.006753,0.000000
414.006479,592.164754,-10807.006753,459.657299
414.006803,1702.473667,-10436.903782,76.609550
414.007127,2442.679609,-9992.780217,459.657299
414.007452,1998.556043,-9844.739029,536.266849
414.007776,740.205942,-9622.677246,306.438199
414.008100,-370.102971,-9474.636058,153.219100
414.008424,-1850.514855,-9622.677246,-229.828649
414.008748,-3034.844362,-9252.574275,76.609550
414.009072,-2960.823768,-9030.512492,-383.047749
414.009397,-2442.679609,-8364.327145,306.438199
414.009721,-1258.350101,-8438.347739,-76.609550
414.010045,74.020594,-8586.388927,0.000000
414.010369,962.267725,-8586.388927,306.438199
414.010693,888.247130,-8586.388927,76.609550
414.011017,888.247130,-8808.450710,306.438199
414.011341,592.164754,-9474.636058,229.828649
414.011666,-296.082377,-10288.862594,689.485948
414.011990,-814.226536,-10140.821405,0.000000
414.012314,-962.267725,-9918.759623,76.609550
414.012638,0.000000,-10066.800811,76.609550
414.012962,1258.350101,-9992.780217,0.000000
414.013286,2368.659014,-9770.718434,0.000000
414.013610,2664.741391,-9992.780217,0.000000
414.013935,1924.535449,-9770.718434,-459.657299
414.014259,888.247130,-10362.883188,0.000000
414.014583,-1480.411884,-10214.842000,-766.095498
414.014907,-2664.741391,-10436.903782,-1072.533697
414.015231,-3701.029710,-10066.800811,-1225.752797
414.015555,-3775.050304,-9918.759623,-842.705048
414.015879,-2294.638420,-9474.636058,76.609550
414.016204,-148.041188,-9030.512492,0.000000
414.016528,1036.288319,-8586.388927,229.828649
414.016852,1776.494261,-8438.347739,-153.219100
414.017176,2072.576638,-8956.491898,-383.047749
414.017500,1480.411884,-9474.636058,0.000000
414.017824,148.041188,-10510.924376,-306.438199
414.018149,-962.267725,-10807.006753,-612.876398
414.018473,-1628.453072,-10881.027347,-383.047749
414.018797,-1406.391290,-10732.986159,-919.314598
414.019121,-296.082377,-10732.986159,-995.924147
414.019445,962.267725,-10807.006753,-689.485948
414.019769,2220.617826,-10436.903782,-306.438199
414.020093,2664.741391,-9918.759623,0.000000
414.020418,2294.638420,-9548.656652,-229.828649
414.020742,1406.391290,-9474.636058,-229.828649
414.021066,296.082377,-9770.718434,0.000000
414.021390,-1702.473667,-9548.656652,0.000000
414.021714,-3034.844362,-9326.594869,-459.657299
414.022038,-2738.761985,-9622.677246,-459.657299
414.022362,-2146.597232,-9474.636058,-459.657299
414.022687,-1036.288319,-9104.533087,-459.657299
414.023011,-148.041188,-8956.491898,-383.047749
414.023335,370.102971,-8660.409521,0.000000
414.023659,370.102971,-8734.430116,-306.438199
414.023983,592.164754,-9474.636058,229.828649
414.024307,0.000000,-9474.636058,76.609550
414.024631,-296.082377,-9844.739029,76.609550
414.024956,-888.247130,-9622.677246,0.000000
414.025280,-444.123565,-9770.718434,0.000000
414.025604,740.205942,-9696.697840,459.657299
414.025928,2368.659014,-9992.780217,995.924147
414.026252,3108.864956,-9992.780217,1072.533697
414.026576,2886.803174,-9770.718434,919.314598
414.026900,1776.494261,-9992.780217,0.000000
414.027225,0.000000,-10066.800811,0.000000
414.027549,-1850.514855,-10584.944971,-153.219100
414.027873,-3478.967927,-10214.842000,-536.266849
414.028197,-3775.050304,-9622.677246,-689.485948
414.028521,-3034.844362,-9030.512492,-459.657299
414.028845,-1850.514855,-8808.450710,-689.485948
414.029170,518.144159,-8586.388927,76.609550
414.029494,1924.535449,-8586.388927,383.047749
414.029818,2664.741391,-8660.409521,383.047749
414.030142,2368.659014,-8956.491898,229.828649
414.030466,1554.432478,-9474.636058,-153.219100
414.030790,666.185348,-10584.944971,536.266849
414.031114,-666.185348,-11325.150913,-153.219100
414.031439,-1184.329507,-11029.068536,76.609550
414.031763,-814.226536,-11473.192101,76.609550
414.032087,0.000000,-10955.047942,306.438199
414.032411,1332.370696,-10362.883188,383.047749
414.032735,2368.659014,-9992.780217,459.657299
414.033059,2368.659014,-9252.574275,459.657299
414.033383,1480.411884,-9178.553681,0.000000
414.033708,888.247130,-9326.594869,76.609550
414.034032,-592.164754,-9474.636058,-919.314598
414.034356,-1998.556043,-9030.512492,-383.047749
414.034680,-2738.761985,-9104.533087,-612.876398
414.035004,-2368.659014,-9400.615463,-383.047749
414.035328,-1184.329507,-9696.697840,0.000000
414.035652,-148.041188,-9104.533087,229.828649
414.035977,518.144159,-8808.450710,536.266849
414.036301,666.185348,-8734.430116,229.828649
414.036625,592.164754,-9474.636058,229.828649
414.036949,0.000000,-9696.697840,459.657299
414.037273,-592.164754,-9844.739029,0.000000
414.037597,-814.226536,-9770.718434,306.438199
414.037922,-592.164754,-9770.718434,-153.219100
414.038246,222.061783,-9474.636058,-306.438199
414.038570,1036.288319,-9770.718434,-153.219100
414.038894,2368.659014,-10140.821405,0.000000
414.039218,2886.803174,-9770.718434,306.438199
414.039542,2590.720797,-9918.759623,229.828649
414.039866,1406.391290,-10140.821405,0.000000
414.040191,-518.144159,-10288.862594,0.000000
414.040515,-2368.659014,-10140.821405,-229.828649
414.040839,-3404.947333,-9770.718434,-612.876398
414.041163,-3923.091493,-9400.615463,-842.705048
414.041487,-3478.967927,-8660.409521,-383.047749
414.041811,-1258.350101,-8660.409521,-153.219100
414.042135,0.000000,-8364.327145,0.000000
414.042460,1406.391290,-8216.285956,0.000000
414.042784,1776.494261,-8586.388927,0.000000
414.043108,1702.473667,-9326.594869,-153.219100
414.043432,1184.329507,-10066.800811,76.609550
414.043756,0.000000,-10658.965565,0.000000
414.044080,-740.205942,-11103.089130,-459.657299
414.044404,-1184.329507,-11251.130318,-459.657299
414.044729,-888.247130,-11325.150913,-459.657299
414.045053,518.144159,-10955.047942,-153.219100
414.045377,2220.617826,-10732.986159,0.000000
414.045701,2516.700203,-9918.759623,153.219100
414.046025,2368.659014,-9474.636058,153.219100
414.046349,1332.370696,-8882.471304,153.219100
414.046673,-222.061783,-9030.512492,0.000000
414.046998,-1776.494261,-9548.656652,-612.876398
414.047322,-3330.926739,-9474.636058,-1225.752797
414.047646,-3552.988522,-9548.656652,-995.924147
414.047970,-2590.720797,-9252.574275,-766.095498
414.048294,-1258.350101,-9178.553681,-995.924147
414.048618,74.020594,-9474.636058,-459.657299
414.048943,1110.308913,-9474.636058,536.266849
414.049267,1554.432478,-9474.636058,0.000000
414.049591,1110.308913,-9622.677246,229.828649
414.049915,592.164754,-9918.759623,76.609550
414.050239,0.000000,-10214.842000,306.438199
414.050563,-444.123565,-9992.780217,229.828649
414.050887,-444.123565,-9326.594869,0.000000
414.051212,-370.102971,-9252.574275,0.000000
414.051536,888.247130,-9474.636058,0.000000
414.051860,2072.576638,-9770.718434,76.609550
414.052184,2294.638420,-9548.656652,383.047749
414.052508,1258.350101,-9474.636058,0.000000
414.052832,-222.061783,-9844.739029,-229.828649
414.053156,-1850.514855,-10362.883188,0.000000
414.053481,-3034.844362,-9474.636058,-306.438199
414.053805,-3108.864956,-9474.636058,-306.438199
414.054129,-2738.761985,-9252.574275,-612.876398
414.054453,-2146.597232,-8808.450710,-153.219100
414.054777,-444.123565,-8586.388927,153.219100
414.055101,814.226536,-8290.306550,153.219100
414.055425,1776.494261,-8586.388927,153.219100
414.055750,1850.514855,-9104.533087,459.657299
414.056074,1406.391290,-9548.656652,0.000000
414.056398,444.123565,-9770.718434,0.000000
414.056722,-592.164754,-10955.047942,-306.438199
414.057046,-1998.556043,-11029.068536,-766.095498
414.057370,-2368.659014,-11103.089130,-689.485948
414.057695,-962.267725,-10807.006753,-306.438199
414.058019,740.205942,-10362.883188,0.000000
414.058343,2590.720797,-10658.965565,459.657299
414.058667,2516.700203,-9770.718434,459.657299
414.058991,2812.782580,-9992.780217,536.266849
414.059315,1554.432478,-9770.718434,229.828649
414.059639,0.000000,-9844.739029,76.609550
414.059964,-1406.391290,-9992.780217,-229.828649
414.060288,-2590.720797,-9474.636058,-306.438199
414.060612,-2590.720797,-9326.594869,-383.047749
414.060936,-1628.453072,-9474.636058,-153.219100
414.061260,-592.164754,-9400.615463,-459.657299
414.061584,740.205942,-9104.533087,-306.438199
414.061908,1258.350101,-8808.450710,0.000000
414.062233,1406.391290,-8882.471304,0.000000
414.062557,1036.288319,-9474.636058,0.000000
