#time,accel_x,accel_y,accel_z
552.389837,-370.102971,-9474.636058,0.000000
552.390160,0.000000,-9326.594869,229.828649
552.390484,148.041188,-9696.697840,0.000000
552.390808,0.000000,-9474.636058,229.828649
552.391132,-148.041188,-9770.718434,76.609550
552.391456,0.000000,-10066.800811,-153.219100
552.391780,-370.102971,-9696.697840,-229.828649
552.392104,-592.164754,-9696.697840,0.000000
552.392428,-296.082377,-9474.636058,0.000000
552.392752,0.000000,-9696.697840,306.438199
552.393075,0.000000,-9696.697840,76.609550
552.393399,148.041188,-9770.718434,0.000000
552.393723,-444.123565,-9474.636058,0.000000
552.394047,-148.041188,-9548.656652,0.000000
552.394371,0.000000,-9696.697840,-153.219100
552.394695,-222.061783,-9844.739029,-153.219100
552.395019,74.020594,-9474.636058,0.000000
552.395343,74.020594,-9770.718434,0.000000
552.395667,444.123565,-9918.759623,0.000000
552.395990,148.041188,-9622.677246,76.609550
552.396314,74.020594,-9622.677246,0.000000
552.396638,148.041188,-9622.677246,-153.219100
552.396962,222.061783,-9696.697840,0.000000
552.397286,148.041188,-9696.697840,-459.657299
552.397610,0.000000,-9474.636058,76.609550
552.397934,370.102971,-9622.677246,0.000000
552.398258,222.061783,-9770.718434,0.000000
552.398582,74.020594,-9622.677246,0.000000
552.398906,148.041188,-9770.718434,0.000000
552.399229,0.000000,-9622.677246,0.000000
552.399553,0.000000,-9548.656652,0.000000
552.399877,0.000000,-9770.718434,153.219100
552.400201,0.000000,-9474.636058,-153.219100
552.400525,222.061783,-9622.677246,-229.828649
552.400849,0.000000,-9770.718434,0.000000
552.401173,222.061783,-9770.718434,0.000000
552.401497,296.082377,-9326.594869,229.828649
552.401821,666.185348,-9548.656652,76.609550
552.402144,518.144159,-9992.780217,76.609550
552.402468,222.061783,-10066.800811,153.219100
552.402792,-592.164754,-10288.862594,153.219100
552.403116,-1480.411884,-9992.780217,-153.219100
552.403440,-1332.370696,-9474.636058,306.438199
552.403764,-962.267725,-9104.533087,153.219100
552.404088,222.061783,-9326.594869,995.924147
552.404412,814.226536,-9622.677246,689.485948
552.404736,1480.411884,-9326.594869,536.266849
552.405059,1406.391290,-9474.636058,459.657299
552.405383,1036.288319,-9770.718434,306.438199
552.405707,888.247130,-9770.718434,0.000000
552.406031,-370.102971,-9696.697840,76.609550
552.406355,-1110.308913,-10066.800811,-153.219100
552.406679,-1332.370696,-10584.944971,76.609550
552.407003,-740.205942,-10140.821405,306.438199
552.407327,74.020594,-9696.697840,766.095498
552.407651,1406.391290,-9622.677246,1149.143247
552.407974,2368.659014,-9252.574275,1532.190996
552.408298,2960.823768,-9622.677246,1608.800546
552.408622,2886.803174,-9844.739029,2298.286494
552.408946,2220.617826,-9104.533087,766.095498
552.409270,1850.514855,-9252.574275,459.657299
552.409594,518.144159,-9548.656652,0.000000
552.409918,-222.061783,-10140.821405,-383.047749
552.410242,-740.205942,-10214.842000,-153.219100
552.410566,-296.082377,-9548.656652,536.266849
552.410889,1110.308913,-9474.636058,459.657299
552.411213,2220.617826,-9252.574275,1149.143247
552.411537,3923.091493,-9622.677246,2451.505594
552.411861,4589.276840,-9548.656652,2528.115143
552.412185,5033.400406,-10066.800811,2681.334243
552.412509,4663.297435,-10066.800811,2834.553343
552.412833,3775.050304,-9622.677246,2298.286494
552.413157,3478.967927,-10288.862594,1838.629195
552.413481,1776.494261,-10362.883188,1302.362347
552.413804,1480.411884,-10362.883188,766.095498
552.414128,592.164754,-9992.780217,459.657299
552.414452,1332.370696,-9918.759623,1455.581446
552.414776,2886.803174,-9548.656652,2374.896044
552.415100,4589.276840,-9474.636058,3140.991542
552.415424,5255.462188,-9252.574275,4213.525239
552.415748,5033.400406,-9252.574275,4290.134789
552.416072,4441.235652,-9770.718434,4596.572988
552.416396,2886.803174,-9696.697840,4596.572988
552.416719,1480.411884,-9474.636058,3600.648841
552.417043,0.000000,-9326.594869,2987.772442
552.417367,-1110.308913,-9178.553681,2451.505594
552.417691,-1554.432478,-8512.368333,1838.629195
552.418015,-814.226536,-7994.224174,2145.067394
552.418339,0.000000,-6809.894666,1838.629195
552.418663,1184.329507,-6957.935855,2528.115143
552.418987,1628.453072,-6513.812290,2604.724693
552.419311,2960.823768,-7105.977043,3140.991542
552.419634,3775.050304,-8216.285956,3907.087040
552.419958,4367.215058,-9548.656652,4290.134789
552.420282,4663.297435,-10510.924376,4519.963438
552.420606,3849.070898,-11251.130318,4443.353888
552.420930,1702.473667,-11695.253884,3983.696590
552.421254,-222.061783,-12435.459826,2987.772442
552.421578,-1998.556043,-11917.315666,1991.848295
552.421902,-2516.700203,-10732.986159,1225.752797
552.422226,-1480.411884,-9622.677246,1378.971896
552.422549,592.164754,-8586.388927,1532.190996
552.422873,2442.679609,-7550.100608,1838.629195
552.423197,3256.906145,-7105.977043,1838.629195
552.423521,4145.153275,-7105.977043,842.705048
552.423845,4367.215058,-8142.265362,1225.752797
552.424169,3552.988522,-10066.800811,1915.238745
552.424493,1998.556043,-11991.336260,2451.505594
552.424817,444.123565,-12509.480420,2145.067394
552.425141,-666.185348,-11547.212695,1762.019645
552.425464,-592.164754,-11547.212695,1455.581446
552.425788,148.041188,-11325.150913,1378.971896
552.426112,1406.391290,-10658.965565,919.314598
552.426436,2442.679609,-9474.636058,459.657299
552.426760,3108.864956,-8660.409521,459.657299
552.427084,3330.926739,-8882.471304,306.438199
552.427408,3034.844362,-8956.491898,0.000000
552.427732,2368.659014,-8142.265362,0.000000
552.428056,2368.659014,-8512.368333,-306.438199
552.428380,3552.988522,-9622.677246,229.828649
552.428703,5625.565159,-11547.212695,1225.752797
552.429027,6735.874072,-12435.459826,2145.067394
552.429351,6069.688724,-13175.665768,2298.286494
552.429675,3330.926739,-12805.562797,1838.629195
552.429999,296.082377,-11843.295072,1378.971896
552.430323,-1850.514855,-10658.965565,1225.752797
552.430647,-1776.494261,-9844.739029,995.924147
552.430971,0.000000,-8290.306550,1149.143247
552.431295,1628.453072,-8068.244768,1149.143247
552.431618,2146.597232,-7328.038826,766.095498
552.431942,1850.514855,-6513.812290,306.438199
552.432266,1480.411884,-5477.523971,-153.219100
552.432590,1924.535449,-5995.668130,229.828649
552.432914,2960.823768,-7402.059420,306.438199
552.433238,3775.050304,-9844.739029,2528.115143
552.433562,4293.194464,-11399.171507,2528.115143
552.433886,3404.947333,-11029.068536,2528.115143
552.434210,1702.473667,-10214.842000,2451.505594
552.434533,1110.308913,-10140.821405,2528.115143
552.434857,1776.494261,-10436.903782,2528.115143
552.435181,1480.411884,-10510.924376,3064.381992
552.435505,888.247130,-10510.924376,2604.724693
552.435829,-296.082377,-9252.574275,1915.238745
552.436153,444.123565,-7772.162391,1378.971896
552.436477,1998.556043,-6809.894666,1302.362347
552.436801,2812.782580,-7846.182985,1072.533697
552.437125,2294.638420,-9326.594869,1455.581446
552.437448,740.205942,-10140.821405,1072.533697
552.437772,-888.247130,-9844.739029,766.095498
552.438096,0.000000,-9770.718434,1532.190996
552.438420,1628.453072,-11399.171507,2604.724693
552.438744,3478.967927,-12509.480420,3600.648841
552.439068,3849.070898,-11769.274478,3524.039291
552.439392,3701.029710,-10510.924376,3370.820191
552.439716,3627.009116,-10658.965565,3524.039291
552.440040,3775.050304,-11695.253884,4136.915689
552.440363,2812.782580,-11399.171507,3983.696590
552.440687,1184.329507,-10066.800811,2911.162892
552.441011,592.164754,-8882.471304,1685.410096
552.441335,1332.370696,-9030.512492,919.314598
552.441659,2442.679609,-9622.677246,1225.752797
552.441983,3108.864956,-9696.697840,1608.800546
552.442307,3478.967927,-8882.471304,2451.505594
552.442631,3701.029710,-8142.265362,2145.067394
552.442955,4145.153275,-9622.677246,3524.039291
552.443278,4441.235652,-10881.027347,3447.429741
552.443602,3330.926739,-10214.842000,3677.258390
552.443926,2812.782580,-9474.636058,3983.696590
552.444250,2516.700203,-9474.636058,3753.867940
552.444574,2442.679609,-9696.697840,4903.011187
552.444898,3404.947333,-9622.677246,4519.963438
552.445222,3775.050304,-8734.430116,4136.915689
552.445546,2960.823768,-8068.244768,2987.772442
552.445870,222.061783,-7846.182985,2221.676944
552.446193,-1628.453072,-7920.203579,1608.800546
552.446517,-1332.370696,-7994.224174,1302.362347
552.446841,370.102971,-7328.038826,1685.410096
552.447165,2220.617826,-7402.059420,1532.190996
552.447489,2960.823768,-8068.244768,2911.162892
552.447813,3627.009116,-8438.347739,2987.772442
552.448137,3849.070898,-8364.327145,3370.820191
552.448461,2738.761985,-9030.512492,3370.820191
552.448785,1184.329507,-10140.821405,3524.039291
552.449108,740.205942,-10807.006753,3447.429741
552.449432,1924.535449,-9770.718434,2834.553343
552.449756,2738.761985,-8290.306550,2681.334243
552.450080,2220.617826,-9178.553681,1378.971896
552.450404,370.102971,-10881.027347,1685.410096
552.450728,-888.247130,-10436.903782,919.314598
552.451052,-2516.700203,-8808.450710,-766.095498
552.451376,-4367.215058,-8068.244768,-1302.362347
552.451700,-3701.029710,-8216.285956,-2145.067394
552.452023,-1258.350101,-8808.450710,-1685.410096
552.452347,1776.494261,-9178.553681,-229.828649
552.452671,4737.318029,-9548.656652,1455.581446
552.452995,6439.791695,-11695.253884,1838.629195
552.453319,6587.832884,-12953.603985,2221.676944
552.453643,4071.132681,-11621.233289,2374.896044
552.453967,2294.638420,-11399.171507,1762.019645
552.454291,592.164754,-12805.562797,229.828649
552.454616,-1036.288319,-13841.851115,-612.876398
552.454940,-2220.617826,-12287.418637,0.000000
552.455264,-2294.638420,-11177.109724,-1225.752797
552.455589,-2590.720797,-11029.068536,-2911.162892
552.455913,-4145.153275,-9844.739029,-3600.648841
552.456237,-3627.009116,-8438.347739,-3370.820191
552.456561,-1924.535449,-8216.285956,-2834.553343
552.456886,370.102971,-9770.718434,-1838.629195
552.457210,2738.761985,-9474.636058,-919.314598
552.457534,4811.338623,-8734.430116,153.219100
552.457858,3701.029710,-9770.718434,383.047749
552.458183,3108.864956,-10140.821405,383.047749
552.458507,2738.761985,-9178.553681,383.047749
552.458831,1628.453072,-10066.800811,1608.800546
552.459155,-222.061783,-12065.356855,919.314598
552.459480,-1406.391290,-10510.924376,-229.828649
552.459804,-3034.844362,-9104.533087,-229.828649
552.460128,-3404.947333,-10732.986159,-536.266849
552.460453,-1850.514855,-9696.697840,-1302.362347
552.460777,148.041188,-7254.018232,-1302.362347
552.461101,962.267725,-6513.812290,-842.705048
552.461425,444.123565,-7476.080014,-1991.848295
552.461750,-148.041188,-7402.059420,-2604.724693
552.462074,-666.185348,-7105.977043,-1915.238745
552.462398,-518.144159,-7698.141797,-842.705048
552.462722,1184.329507,-7105.977043,-689.485948
552.463047,3108.864956,-7550.100608,76.609550
552.463371,3627.009116,-9548.656652,2221.676944
552.463695,3108.864956,-10732.986159,2145.067394
552.464020,1258.350101,-11177.109724,1762.019645
552.464344,-2146.597232,-11473.192101,1685.410096
552.464668,-4515.256246,-10510.924376,612.876398
552.464992,-4145.153275,-9992.780217,-306.438199
552.465317,-3034.844362,-9622.677246,-1378.971896
552.465641,-1406.391290,-9474.636058,-1991.848295
552.465965,0.000000,-9474.636058,-2987.772442
552.466289,1036.288319,-9178.553681,-2757.943793
552.466614,962.267725,-9326.594869,-1685.410096
552.466938,1184.329507,-9326.594869,-1608.800546
552.467262,666.185348,-10140.821405,-1685.410096
552.467586,296.082377,-12065.356855,-689.485948
552.467911,888.247130,-12731.542202,0.000000
552.468235,1924.535449,-11843.295072,1225.752797
552.468559,1258.350101,-12509.480420,2604.724693
552.468884,148.041188,-11769.274478,2604.724693
552.469208,-518.144159,-11473.192101,2298.286494
552.469532,-2072.576638,-11769.274478,1532.190996
552.469856,-2738.761985,-10214.842000,153.219100
552.470181,-2738.761985,-8734.430116,0.000000
552.470505,-2072.576638,-8142.265362,-1225.752797
552.470829,-1036.288319,-7624.121203,-1072.533697
552.471153,0.000000,-7254.018232,-995.924147
552.471478,-296.082377,-8660.409521,-1225.752797
552.471802,-1110.308913,-10214.842000,-229.828649
552.472126,-296.082377,-9474.636058,689.485948
552.472451,1332.370696,-9548.656652,1378.971896
552.472775,1776.494261,-10510.924376,3064.381992
552.473099,1998.556043,-10214.842000,3907.087040
552.473423,2886.803174,-10362.883188,3983.696590
552.473748,1998.556043,-11843.295072,4290.134789
552.474072,296.082377,-10584.944971,2604.724693
552.474396,-592.164754,-7550.100608,1532.190996
552.474720,-1850.514855,-6661.853478,459.657299
552.475045,-740.205942,-7328.038826,153.219100
552.475369,814.226536,-7031.956449,459.657299
552.475693,370.102971,-7254.018232,-536.266849
552.476017,-370.102971,-7846.182985,-1072.533697
552.476342,-148.041188,-7846.182985,-919.314598
552.476666,592.164754,-8586.388927,-536.266849
552.476990,666.185348,-10214.842000,689.485948
552.477315,740.205942,-9918.759623,2068.457845
552.477639,1184.329507,-9474.636058,1072.533697
552.477963,-592.164754,-9992.780217,1608.800546
552.478287,-1998.556043,-10584.944971,689.485948
552.478612,-1628.453072,-10362.883188,612.876398
552.478936,-1036.288319,-10066.800811,383.047749
552.479260,222.061783,-8438.347739,383.047749
552.479584,1332.370696,-7328.038826,-153.219100
552.479909,1332.370696,-9326.594869,-536.266849
552.480233,-148.041188,-10436.903782,-1532.190996
552.480557,-296.082377,-9770.718434,-2298.286494
552.480881,-1332.370696,-9548.656652,-2528.115143
552.481206,-1110.308913,-11029.068536,-1685.410096
552.481530,740.205942,-11399.171507,-842.705048
552.481854,2442.679609,-11177.109724,-612.876398
552.482179,1110.308913,-11325.150913,-459.657299
552.482503,0.000000,-10881.027347,-995.924147
552.482827,-888.247130,-10584.944971,-1072.533697
552.483151,-1480.411884,-10584.944971,-919.314598
552.483476,0.000000,-10214.842000,0.000000
552.483800,1850.514855,-10214.842000,536.266849
552.484124,2220.617826,-11251.130318,306.438199
552.484448,1258.350101,-10881.027347,-842.705048
552.484773,518.144159,-9548.656652,-1991.848295
552.485097,222.061783,-10955.047942,-1532.190996
552.485421,-1036.288319,-11991.336260,-2451.505594
552.485746,0.000000,-11769.274478,-1608.800546
552.486070,-148.041188,-10732.986159,-536.266849
552.486394,-1258.350101,-11251.130318,-689.485948
552.486718,-1480.411884,-10658.965565,-1378.971896
552.487043,-1036.288319,-9622.677246,-1225.752797
552.487367,-518.144159,-9178.553681,-459.657299
552.487691,592.164754,-7994.224174,76.609550
552.488015,1406.391290,-7846.182985,995.924147
552.488340,1406.391290,-8808.450710,1455.581446
552.488664,666.185348,-8364.327145,689.485948
552.488988,0.000000,-8290.306550,-153.219100
552.489312,-1184.329507,-8438.347739,76.609550
552.489637,-1850.514855,-8660.409521,229.828649
552.489961,-1110.308913,-8808.450710,-229.828649
552.490285,-1776.494261,-9252.574275,0.000000
552.490610,-2886.803174,-9696.697840,153.219100
552.490934,-2960.823768,-9474.636058,-459.657299
552.491258,-1998.556043,-8956.491898,-383.047749
552.491582,-592.164754,-8586.388927,459.657299
552.491907,1036.288319,-7772.162391,919.314598
552.492231,1776.494261,-8290.306550,612.876398
552.492555,1110.308913,-9326.594869,612.876398
552.492879,518.144159,-8882.471304,612.876398
552.493204,222.061783,-8068.244768,76.609550
552.493528,-962.267725,-9326.594869,459.657299
552.493852,-962.267725,-9770.718434,612.876398
552.494177,0.000000,-10066.800811,689.485948
552.494501,-518.144159,-11177.109724,766.095498
552.494825,-1702.473667,-10584.944971,0.000000
552.495149,-2294.638420,-7994.224174,-1685.410096
552.495474,-2368.659014,-7402.059420,-2068.457845
552.495798,-888.247130,-9104.533087,-995.924147
552.496122,1924.535449,-9770.718434,-153.219100
552.496446,3330.926739,-9770.718434,536.266849
552.496771,2960.823768,-10362.883188,1149.143247
552.497095,2368.659014,-9696.697840,0.000000
552.497419,1924.535449,-10732.986159,-229.828649
552.497743,888.247130,-11843.295072,306.438199
552.498068,592.164754,-11769.274478,919.314598
552.498392,1184.329507,-11991.336260,229.828649
552.498716,-518.144159,-12287.418637,536.266849
552.499041,-1628.453072,-11621.233289,536.266849
552.499365,-1554.432478,-10807.006753,-766.095498
552.499689,-1924.535449,-10658.965565,-1302.362347
552.500013,-1332.370696,-10362.883188,-766.095498
552.500338,814.226536,-9104.533087,-842.705048
552.500662,1628.453072,-8808.450710,-153.219100
552.500986,1258.350101,-9474.636058,842.705048
552.501310,1258.350101,-9326.594869,306.438199
552.501635,962.267725,-9844.739029,229.828649
552.501959,296.082377,-9770.718434,1225.752797
552.502283,1036.288319,-8586.388927,919.314598
552.502607,1702.473667,-8438.347739,1072.533697
552.502932,222.061783,-9326.594869,995.924147
552.503256,-962.267725,-9474.636058,1302.362347
552.503580,-666.185348,-8956.491898,1225.752797
552.503905,-370.102971,-8290.306550,1608.800546
552.504229,370.102971,-7624.121203,1915.238745
552.504553,2294.638420,-6365.771101,1149.143247
552.504877,1702.473667,-7031.956449,0.000000
552.505202,0.000000,-7105.977043,-459.657299
552.505526,-444.123565,-6365.771101,-229.828649
552.505850,0.000000,-7994.224174,0.000000
552.506174,-222.061783,-8808.450710,459.657299
552.506499,0.000000,-8734.430116,229.828649
552.506823,666.185348,-9770.718434,153.219100
552.507147,370.102971,-11177.109724,-306.438199
552.507472,-740.205942,-11029.068536,-306.438199
552.507796,-1850.514855,-10658.965565,0.000000
552.508120,-1850.514855,-10881.027347,0.000000
552.508444,-370.102971,-11103.089130,76.609550
552.508769,1110.308913,-10658.965565,0.000000
552.509093,962.267725,-10955.047942,0.000000
552.509417,148.041188,-10955.047942,-1685.410096
552.509741,0.000000,-10214.842000,-1915.238745
552.510066,-666.185348,-11029.068536,-1149.143247
552.510390,-148.041188,-11251.130318,-919.314598
552.510714,0.000000,-10955.047942,-919.314598
552.511038,-888.247130,-11399.171507,-1608.800546
552.511363,-1628.453072,-11769.274478,-1225.752797
552.511687,-1406.391290,-11177.109724,-1149.143247
552.512011,-1258.350101,-10436.903782,-1302.362347
552.512336,-1628.453072,-10140.821405,-229.828649
552.512660,-666.185348,-9252.574275,-612.876398
552.512984,814.226536,-9252.574275,-306.438199
552.513308,592.164754,-10214.842000,0.000000
552.513633,222.061783,-9992.780217,0.000000
552.513957,666.185348,-9622.677246,-383.047749
552.514281,74.020594,-8956.491898,-842.705048
552.514605,592.164754,-8660.409521,-612.876398
552.514930,962.267725,-8512.368333,-1225.752797
552.515254,296.082377,-10510.924376,-1072.533697
552.515578,-740.205942,-11547.212695,-689.485948
552.515903,-1332.370696,-9992.780217,-766.095498
552.516227,-1184.329507,-9474.636058,0.000000
552.516551,-592.164754,-10066.800811,842.705048
552.516875,518.144159,-9400.615463,306.438199
552.517200,1258.350101,-9252.574275,306.438199
552.517524,444.123565,-8808.450710,842.705048
552.517848,370.102971,-8586.388927,536.266849
552.518172,0.000000,-8364.327145,383.047749
552.518497,-740.205942,-8142.265362,306.438199
552.518821,-518.144159,-7698.141797,0.000000
552.519145,-148.041188,-7402.059420,-689.485948
552.519469,-148.041188,-9474.636058,0.000000
552.519794,-148.041188,-9030.512492,383.047749
552.520118,-444.123565,-7994.224174,383.047749
552.520442,-1110.308913,-8364.327145,153.219100
552.520767,-1998.556043,-9252.574275,0.000000
552.521091,-444.123565,-8660.409521,-612.876398
552.521415,518.144159,-9400.615463,-229.828649
552.521739,518.144159,-10214.842000,842.705048
552.522064,1110.308913,-9770.718434,842.705048
552.522388,1110.308913,-9252.574275,766.095498
552.522712,370.102971,-10066.800811,766.095498
552.523036,740.205942,-9918.759623,-306.438199
552.523361,814.226536,-9770.718434,-919.314598
552.523685,444.123565,-11103.089130,-229.828649
552.524009,0.000000,-11547.212695,0.000000
552.524333,222.061783,-10658.965565,-689.485948
552.524658,148.041188,-10658.965565,-459.657299
552.524982,0.000000,-11103.089130,0.000000
552.525306,1036.288319,-10955.047942,-612.876398
552.525631,1702.473667,-11029.068536,0.000000
552.525955,296.082377,-11251.130318,306.438199
552.526279,148.041188,-10362.883188,-306.438199
552.526603,444.123565,-10362.883188,-536.266849
552.526928,592.164754,-10955.047942,76.609550
552.527252,1776.494261,-10732.986159,306.438199
552.527576,2812.782580,-10362.883188,919.314598
552.527900,2072.576638,-10362.883188,1608.800546
552.528225,1258.350101,-9548.656652,689.485948
552.528549,74.020594,-9844.739029,-153.219100
552.528873,-1776.494261,-10658.965565,-153.219100
552.529198,-1776.494261,-10288.862594,153.219100
552.529522,-370.102971,-8882.471304,383.047749
552.529846,74.020594,-9548.656652,1455.581446
552.530170,-740.205942,-9548.656652,1762.019645
552.530495,-1184.329507,-8956.491898,1455.581446
552.530819,-1850.514855,-8734.430116,306.438199
552.531143,-2072.576638,-8438.347739,612.876398
552.531467,-740.205942,-7698.141797,1149.143247
552.531792,0.000000,-8142.265362,1455.581446
552.532116,-888.247130,-8216.285956,1915.238745
552.532440,-814.226536,-7254.018232,1302.362347
552.532764,-1480.411884,-7772.162391,459.657299
552.533089,-1776.494261,-8734.430116,536.266849
552.533413,-1036.288319,-7698.141797,612.876398
552.533737,0.000000,-7254.018232,383.047749
552.534062,-592.164754,-8660.409521,766.095498
552.534386,-1924.535449,-9474.636058,459.657299
552.534710,-1850.514855,-8660.409521,536.266849
552.535034,-370.102971,-8586.388927,766.095498
552.535359,592.164754,-8216.285956,0.000000
552.535683,1924.535449,-8068.244768,76.609550
552.536007,1702.473667,-9178.553681,306.438199
552.536331,1258.350101,-10362.883188,459.657299
552.536656,1184.329507,-10214.842000,-459.657299
552.536980,74.020594,-10066.800811,-612.876398
552.537304,-666.185348,-11177.109724,229.828649
552.537629,0.000000,-11029.068536,-1149.143247
552.537953,1998.556043,-10881.027347,-1378.971896
552.538277,592.164754,-12065.356855,-1532.190996
552.538601,-518.144159,-11325.150913,-2374.896044
552.538926,-1184.329507,-10584.944971,-2757.943793
552.539250,-740.205942,-11621.233289,-1685.410096
552.539574,296.082377,-11399.171507,-995.924147
552.539898,1850.514855,-11103.089130,-612.876398
552.540223,2220.617826,-10955.047942,-306.438199
552.540547,1924.535449,-10955.047942,-995.924147
552.540871,1998.556043,-10140.821405,-1302.362347
552.541195,888.247130,-11399.171507,-1072.533697
552.541520,-444.123565,-12213.398043,-383.047749
552.541844,296.082377,-10732.986159,-383.047749
552.542168,518.144159,-10288.862594,0.000000
552.542493,-814.226536,-11251.130318,-383.047749
552.542817,-1998.556043,-10214.842000,-1685.410096
552.543141,-1554.432478,-9178.553681,-1608.800546
552.543465,-1924.535449,-9178.553681,-766.095498
552.543790,-1332.370696,-8808.450710,-766.095498
552.544114,0.000000,-7772.162391,-383.047749
552.544438,370.102971,-7624.121203,306.438199
552.544762,518.144159,-8142.265362,383.047749
552.545087,740.205942,-8142.265362,-383.047749
552.545411,0.000000,-8438.347739,459.657299
552.545735,666.185348,-8364.327145,995.924147
552.546059,2516.700203,-8438.347739,1072.533697
552.546384,1998.556043,-9696.697840,1838.629195
552.546708,-444.123565,-9474.636058,919.314598
552.547032,-2368.659014,-9030.512492,0.000000
552.547357,-2738.761985,-7698.141797,-229.828649
552.547681,-1702.473667,-8364.327145,306.438199
552.548005,-444.123565,-8808.450710,0.000000
552.548329,592.164754,-8808.450710,0.000000
552.548654,518.144159,-8438.347739,459.657299
552.548978,592.164754,-8142.265362,383.047749
552.549302,444.123565,-8512.368333,-229.828649
552.549626,-444.123565,-9548.656652,612.876398
552.549951,296.082377,-10584.944971,1532.190996
552.550275,1628.453072,-10807.006753,1149.143247
552.550599,1628.453072,-12065.356855,2145.067394
552.550924,148.041188,-12805.562797,1378.971896
552.551248,-592.164754,-11325.150913,306.438199
552.551572,-1998.556043,-10436.903782,229.828649
552.551896,-2664.741391,-10732.986159,-306.438199
552.552221,-2368.659014,-9696.697840,0.000000
552.552545,-1776.494261,-9400.615463,-459.657299
552.552869,-1184.329507,-9178.553681,76.609550
552.553193,0.000000,-8438.347739,-383.047749
552.553518,74.020594,-7920.203579,-1072.533697
552.553842,-296.082377,-8808.450710,76.609550
552.554166,740.205942,-9252.574275,0.000000
552.554490,2146.597232,-8882.471304,153.219100
552.554814,1258.350101,-10362.883188,1378.971896
552.555139,-592.164754,-11843.295072,1608.800546
552.555463,-148.041188,-11843.295072,995.924147
552.555787,0.000000,-10955.047942,842.705048
552.556111,-296.082377,-9474.636058,1302.362347
552.556435,592.164754,-9030.512492,76.609550
552.556759,1480.411884,-9474.636058,-306.438199
552.557083,1406.391290,-9474.636058,383.047749
552.557408,518.144159,-8586.388927,-612.876398
552.557732,-1258.350101,-8438.347739,-1838.629195
552.558056,-1924.535449,-9400.615463,-1225.752797
552.558380,-888.247130,-9030.512492,-536.266849
552.558704,1480.411884,-9918.759623,-383.047749
552.559028,1110.308913,-10658.965565,-306.438199
552.559352,-444.123565,-10510.924376,0.000000
552.559676,-962.267725,-9548.656652,229.828649
552.560001,-296.082377,-11251.130318,459.657299
552.560325,-370.102971,-11103.089130,612.876398
552.560649,370.102971,-9178.553681,-306.438199
552.560973,444.123565,-7994.224174,-306.438199
552.561297,518.144159,-8660.409521,0.000000
552.561621,1110.308913,-8438.347739,-459.657299
552.561945,888.247130,-8216.285956,-306.438199
552.562269,740.205942,-8438.347739,-459.657299
552.562594,1036.288319,-7772.162391,-1302.362347
552.562918,444.123565,-8512.368333,-1072.533697
552.563242,-1554.432478,-11177.109724,153.219100
552.563566,-2294.638420,-10584.944971,-689.485948
552.563890,-1924.535449,-9326.594869,-459.657299
552.564214,-2368.659014,-10362.883188,383.047749
552.564538,-740.205942,-9844.739029,-612.876398
552.564862,814.226536,-9400.615463,0.000000
552.565187,740.205942,-10066.800811,1072.533697
552.565511,592.164754,-9992.780217,383.047749
552.565835,444.123565,-8882.471304,0.000000
552.566159,-296.082377,-7550.100608,-229.828649
552.566483,814.226536,-8660.409521,612.876398
552.566807,3404.947333,-9104.533087,-536.266849
552.567131,3404.947333,-9992.780217,-459.657299
552.567456,1332.370696,-11473.192101,-306.438199
552.567780,-444.123565,-11325.150913,-1378.971896
552.568104,-1480.411884,-10214.842000,-1762.019645
552.568428,-2516.700203,-9918.759623,-766.095498
552.568752,-1776.494261,-11103.089130,-153.219100
552.569076,296.082377,-11621.233289,0.000000
552.569400,1702.473667,-11177.109724,0.000000
552.569724,1776.494261,-9622.677246,306.438199
552.570049,1184.329507,-8512.368333,-766.095498
552.570373,-518.144159,-9030.512492,-1149.143247
552.570697,-1110.308913,-9696.697840,-689.485948
552.571021,0.000000,-9622.677246,-536.266849
552.571345,1110.308913,-10584.944971,76.609550
552.571669,444.123565,-11177.109724,0.000000
552.571993,444.123565,-11029.068536,0.000000
552.572317,-962.267725,-11177.109724,-383.047749
552.572642,-2220.617826,-12065.356855,0.000000
552.572966,-2220.617826,-11029.068536,306.438199
552.573290,-1554.432478,-9622.677246,842.705048
552.573614,-1480.411884,-10288.862594,689.485948
552.573938,-888.247130,-9474.636058,995.924147
552.574262,518.144159,-7698.141797,229.828649
552.574586,518.144159,-7772.162391,306.438199
552.574911,740.205942,-7698.141797,612.876398
552.575235,1406.391290,-6661.853478,383.047749
552.575559,592.164754,-7476.080014,689.485948
552.575883,-592.164754,-8512.368333,1149.143247
552.576207,-962.267725,-7994.224174,459.657299
552.576531,-1628.453072,-8660.409521,459.657299
552.576855,-1702.473667,-9622.677246,766.095498
552.577179,-518.144159,-9400.615463,919.314598
552.577504,296.082377,-8956.491898,612.876398
552.577828,-296.082377,-9326.594869,459.657299
552.578152,-888.247130,-9178.553681,0.000000
552.578476,-666.185348,-8882.471304,-689.485948
552.578800,-444.123565,-9400.615463,-153.219100
552.579124,592.164754,-9696.697840,0.000000
552.579448,2146.597232,-9400.615463,-229.828649
552.579772,2516.700203,-10510.924376,766.095498
552.580097,1554.432478,-11547.212695,612.876398
552.580421,1480.411884,-11843.295072,153.219100
552.580745,-148.041188,-11917.315666,76.609550
552.581069,-1998.556043,-11769.274478,76.609550
552.581393,-1924.535449,-10140.821405,-536.266849
552.581717,-1554.432478,-10436.903782,-1915.238745
552.582041,-1332.370696,-10658.965565,-459.657299
552.582366,-222.061783,-9622.677246,-459.657299
552.582690,444.123565,-9178.553681,0.000000
552.583014,222.061783,-9252.574275,306.438199
552.583338,1332.370696,-8290.306550,0.000000
552.583662,2368.659014,-7772.162391,-536.266849
552.583986,1924.535449,-9548.656652,76.609550
552.584310,1110.308913,-10510.924376,0.000000
552.584634,518.144159,-10658.965565,76.609550
552.584959,296.082377,-10362.883188,612.876398
552.585283,-296.082377,-9844.739029,383.047749
552.585607,-370.102971,-8956.491898,-919.314598
552.585931,-1036.288319,-9622.677246,-842.705048
552.586255,-1554.432478,-10288.862594,-229.828649
552.586579,-518.144159,-9474.636058,0.000000
552.586903,0.000000,-8512.368333,229.828649
552.587227,888.247130,-8734.430116,1455.581446
552.587552,2738.761985,-8660.409521,1072.533697
552.587876,3627.009116,-8956.491898,76.609550
552.588200,1850.514855,-9474.636058,383.047749
552.588524,74.020594,-9178.553681,-842.705048
552.588848,-296.082377,-9252.574275,-1072.533697
552.589172,-1332.370696,-10066.800811,-536.266849
552.589496,-1480.411884,-9992.780217,-153.219100
552.589820,-740.205942,-9474.636058,-995.924147
552.590145,-1258.350101,-9770.718434,-995.924147
552.590469,-740.205942,-9918.759623,-536.266849
552.590793,148.041188,-9474.636058,-766.095498
552.591117,518.144159,-8808.450710,-459.657299
552.591441,0.000000,-8586.388927,0.000000
552.591765,592.164754,-8808.450710,0.000000
552.592089,1554.432478,-9622.677246,76.609550
552.592414,962.267725,-11103.089130,689.485948
552.592738,0.000000,-11029.068536,229.828649
552.593062,-444.123565,-10362.883188,-766.095498
552.593386,-1850.514855,-11325.150913,-306.438199
552.593710,-2294.638420,-11399.171507,383.047749
552.594034,-1998.556043,-10732.986159,-383.047749
552.594358,-3182.885551,-10807.006753,-536.266849
552.594682,-3256.906145,-10140.821405,-383.047749
552.595007,-2368.659014,-8956.491898,-995.924147
552.595331,-1036.288319,-8660.409521,-689.485948
552.595655,0.000000,-8438.347739,0.000000
552.595979,1628.453072,-8142.265362,0.000000
552.596303,2220.617826,-8290.306550,0.000000
552.596627,1480.411884,-8882.471304,0.000000
552.596951,518.144159,-8068.244768,-229.828649
552.597275,-444.123565,-8808.450710,-459.657299
552.597600,-1406.391290,-10362.883188,-229.828649
552.597924,-814.226536,-10362.883188,-229.828649
552.598248,74.020594,-10140.821405,0.000000
552.598572,-148.041188,-10214.842000,0.000000
552.598896,-370.102971,-10214.842000,-229.828649
552.599220,-1332.370696,-9770.718434,-536.266849
552.599544,-1184.329507,-10214.842000,-536.266849
552.599869,-518.144159,-9992.780217,-459.657299
552.600193,1628.453072,-9030.512492,-842.705048
552.600517,3034.844362,-9548.656652,-612.876398
552.600841,3330.926739,-10066.800811,-383.047749
552.601165,2590.720797,-10066.800811,-1072.533697
552.601489,1258.350101,-10510.924376,-459.657299
552.601813,0.000000,-11769.274478,-459.657299
552.602137,-444.123565,-11547.212695,-383.047749
552.602462,-518.144159,-11399.171507,-229.828649
552.602786,-1110.308913,-11843.295072,76.609550
552.603110,-1480.411884,-10732.986159,0.000000
552.603434,-1036.288319,-9770.718434,-612.876398
552.603758,-888.247130,-9548.656652,76.609550
552.604082,0.000000,-8734.430116,229.828649
552.604406,1480.411884,-7476.080014,306.438199
552.604730,1110.308913,-7772.162391,383.047749
552.605055,222.061783,-8364.327145,229.828649
552.605379,0.000000,-8438.347739,-612.876398
552.605703,-296.082377,-9104.533087,-306.438199
552.606027,0.000000,-9474.636058,306.438199
552.606351,74.020594,-9400.615463,76.609550
552.606675,0.000000,-10066.800811,689.485948
552.606999,-1036.288319,-10584.944971,536.266849
552.607324,-1258.350101,-9918.759623,383.047749
552.607648,-740.205942,-9326.594869,306.438199
552.607972,-592.164754,-9252.574275,995.924147
552.608296,666.185348,-8586.388927,919.314598
552.608620,1924.535449,-7624.121203,383.047749
552.608944,1554.432478,-8364.327145,919.314598
552.609268,74.020594,-8882.471304,0.000000
552.609592,-148.041188,-8586.388927,-536.266849
552.609917,-592.164754,-9400.615463,0.000000
552.610241,-222.061783,-9400.615463,0.000000
552.610565,888.247130,-9104.533087,-919.314598
552.610889,222.061783,-9770.718434,-383.047749
552.611213,-296.082377,-10807.006753,-229.828649
552.611537,0.000000,-10362.883188,-766.095498
552.611861,-518.144159,-9474.636058,-995.924147
552.612185,-592.164754,-9844.739029,0.000000
552.612510,666.185348,-10066.800811,0.000000
552.612834,2220.617826,-10510.924376,0.000000
552.613158,1110.308913,-11029.068536,1072.533697
552.613482,222.061783,-10362.883188,153.219100
552.613806,444.123565,-10510.924376,-612.876398
552.614130,-592.164754,-11029.068536,0.000000
552.614454,-444.123565,-11177.109724,0.000000
552.614778,0.000000,-10658.965565,-612.876398
552.615103,-1110.308913,-11695.253884,0.000000
552.615427,-1258.350101,-12287.418637,-459.657299
552.615751,-1998.556043,-10362.883188,-919.314598
552.616075,-2442.679609,-9844.739029,-536.266849
552.616399,-1998.556043,-9770.718434,0.000000
552.616723,-666.185348,-9104.533087,-612.876398
552.617047,296.082377,-8142.265362,-229.828649
552.617372,-370.102971,-7994.224174,383.047749
552.617696,-148.041188,-8216.285956,-153.219100
552.618020,296.082377,-8068.244768,-153.219100
552.618344,740.205942,-8734.430116,919.314598
552.618668,1554.432478,-9474.636058,766.095498
552.618992,2960.823768,-8364.327145,536.266849
552.619316,2960.823768,-9548.656652,1685.410096
552.619640,2368.659014,-9992.780217,1608.800546
552.619965,1480.411884,-9474.636058,536.266849
552.620289,296.082377,-8956.491898,766.095498
552.620613,-296.082377,-9030.512492,766.095498
552.620937,592.164754,-8956.491898,0.000000
552.621261,1258.350101,-8364.327145,612.876398
552.621585,0.000000,-8956.491898,536.266849
552.621909,-888.247130,-9252.574275,-689.485948
552.622233,-1924.535449,-8660.409521,-1378.971896
552.622558,-2294.638420,-8882.471304,-766.095498
552.622882,-1998.556043,-9474.636058,-1455.581446
552.623206,-1924.535449,-9622.677246,-689.485948
552.623530,-2368.659014,-10658.965565,0.000000
552.623854,-2368.659014,-9992.780217,-383.047749
552.624178,-2516.700203,-9474.636058,-842.705048
552.624502,-2812.782580,-10066.800811,-1072.533697
552.624827,-1628.453072,-9918.759623,-306.438199
552.625151,888.247130,-9770.718434,-383.047749
552.625475,2294.638420,-9992.780217,76.609550
552.625799,1998.556043,-9992.780217,1455.581446
552.626123,1924.535449,-9474.636058,76.609550
552.626447,1406.391290,-9696.697840,-536.266849
552.626771,1332.370696,-9844.739029,-766.095498
552.627095,2294.638420,-9770.718434,-612.876398
552.627420,2812.782580,-10807.006753,-383.047749
552.627744,2220.617826,-11621.233289,0.000000
552.628068,962.267725,-11103.089130,0.000000
552.628392,-740.205942,-9770.718434,-1991.848295
552.628716,-2072.576638,-9770.718434,-2451.505594
552.629040,-1628.453072,-10288.862594,-1302.362347
552.629364,148.041188,-9770.718434,-1149.143247
552.629688,74.020594,-10362.883188,-689.485948
552.630013,-1036.288319,-9992.780217,-306.438199
552.630337,-1480.411884,-9030.512492,-1378.971896
552.630661,-1480.411884,-9400.615463,-383.047749
552.630985,-1184.329507,-9918.759623,-1225.752797
552.631309,-518.144159,-9326.594869,-383.047749
552.631633,0.000000,-9696.697840,-536.266849
552.631957,-666.185348,-10436.903782,-153.219100
552.632282,-1110.308913,-10288.862594,-383.047749
552.632606,-1258.350101,-10140.821405,-842.705048
552.632930,-1850.514855,-9844.739029,-383.047749
552.633254,-296.082377,-9548.656652,-306.438199
552.633578,1554.432478,-9178.553681,76.609550
552.633902,1776.494261,-10066.800811,306.438199
552.634226,962.267725,-10214.842000,383.047749
552.634550,888.247130,-9770.718434,76.609550
552.634875,444.123565,-8808.450710,0.000000
552.635199,518.144159,-8660.409521,536.266849
552.635523,1258.350101,-8068.244768,536.266849
552.635847,1776.494261,-8808.450710,1072.533697
552.636171,666.185348,-9918.759623,919.314598
552.636495,-666.185348,-9178.553681,306.438199
552.636819,-2072.576638,-8808.450710,0.000000
552.637143,-2960.823768,-9104.533087,-459.657299
552.637468,-1998.556043,-8586.388927,-689.485948
552.637792,-740.205942,-7994.224174,76.609550
552.638116,-1184.329507,-9548.656652,306.438199
552.638440,-1924.535449,-9548.656652,-229.828649
552.638764,-1184.329507,-8882.471304,153.219100
552.639088,-740.205942,-9326.594869,306.438199
552.639412,222.061783,-9992.780217,0.000000
552.639736,1110.308913,-9252.574275,76.609550
552.640061,1628.453072,-9770.718434,229.828649
552.640385,1628.453072,-10214.842000,689.485948
552.640709,1924.535449,-9770.718434,153.219100
552.641033,592.164754,-10140.821405,76.609550
552.641357,1110.308913,-10732.986159,-153.219100
552.641681,1998.556043,-10140.821405,-536.266849
552.642005,2516.700203,-10288.862594,383.047749
552.642330,1998.556043,-11473.192101,459.657299
552.642654,444.123565,-11177.109724,689.485948
552.642978,0.000000,-9992.780217,76.609550
552.643302,-592.164754,-9622.677246,0.000000
552.643626,-370.102971,-9992.780217,-153.219100
552.643950,666.185348,-9992.780217,-306.438199
552.644274,962.267725,-10140.821405,0.000000
552.644598,666.185348,-9474.636058,536.266849
552.644923,592.164754,-8512.368333,-536.266849
552.645247,-370.102971,-9696.697840,-383.047749
552.645571,-814.226536,-10214.842000,-229.828649
552.645895,-148.041188,-9844.739029,-306.438199
552.646219,-370.102971,-10214.842000,536.266849
552.646543,-1998.556043,-11251.130318,536.266849
552.646867,-2368.659014,-10140.821405,-153.219100
552.647191,-2368.659014,-9474.636058,-536.266849
552.647516,-2442.679609,-9252.574275,229.828649
552.647840,-888.247130,-8142.265362,-229.828649
552.648164,740.205942,-7920.203579,306.438199
552.648488,1036.288319,-8364.327145,842.705048
552.648812,1036.288319,-8142.265362,306.438199
552.649136,666.185348,-7772.162391,-229.828649
552.649460,666.185348,-8660.409521,-153.219100
552.649785,1110.308913,-9104.533087,306.438199
552.650109,2368.659014,-9030.512492,306.438199
552.650433,1850.514855,-9030.512492,1149.143247
552.650757,-296.082377,-10510.924376,306.438199
552.651081,-1406.391290,-9918.759623,-153.219100
552.651405,-1406.391290,-9474.636058,-612.876398
552.651729,-1850.514855,-9474.636058,-766.095498
552.652053,-962.267725,-8808.450710,-995.924147
552.652378,0.000000,-9252.574275,-766.095498
552.652702,222.061783,-9622.677246,0.000000
552.653026,518.144159,-9770.718434,0.000000
552.653350,148.041188,-9030.512492,-1149.143247
552.653674,-370.102971,-9844.739029,-995.924147
552.653998,0.000000,-10807.006753,-1149.143247
552.654322,1036.288319,-11251.130318,-766.095498
552.654646,444.123565,-12805.562797,-536.266849
552.654971,-1332.370696,-12805.562797,-306.438199
552.655295,-2146.597232,-10881.027347,-1532.190996
552.655619,-1998.556043,-10807.006753,-766.095498
552.655944,-1184.329507,-11399.171507,-689.485948
552.656268,296.082377,-10658.965565,-1532.190996
552.656592,1258.350101,-10140.821405,0.000000
552.656917,1628.453072,-9622.677246,995.924147
552.657241,2664.741391,-9770.718434,-612.876398
552.657565,1406.391290,-9104.533087,-689.485948
552.657889,-148.041188,-9770.718434,0.000000
552.658214,518.144159,-9844.739029,-689.485948
552.658538,1406.391290,-10510.924376,-689.485948
552.658862,148.041188,-11103.089130,153.219100
552.659187,-1480.411884,-10658.965565,76.609550
552.659511,-1998.556043,-9326.594869,-229.828649
552.659835,-2516.700203,-9474.636058,-306.438199
552.660159,-2516.700203,-9252.574275,-842.705048
552.660484,-1480.411884,-7994.224174,-1685.410096
552.660808,-518.144159,-7402.059420,0.000000
552.661132,-148.041188,-8512.368333,919.314598
552.661457,518.144159,-8586.388927,229.828649
552.661781,740.205942,-8068.244768,0.000000
552.662105,444.123565,-8660.409521,842.705048
552.662430,1406.391290,-9400.615463,1072.533697
552.662754,2072.576638,-9770.718434,766.095498
552.663078,1036.288319,-10584.944971,1532.190996
552.663402,0.000000,-10288.862594,536.266849
552.663727,-444.123565,-9918.759623,306.438199
552.664051,-814.226536,-10362.883188,306.438199
552.664375,-814.226536,-9622.677246,229.828649
552.664700,0.000000,-8882.471304,76.609550
552.665024,666.185348,-8586.388927,689.485948
552.665348,814.226536,-8586.388927,536.266849
552.665672,1184.329507,-8438.347739,76.609550
552.665997,814.226536,-8438.347739,76.609550
552.666321,1480.411884,-8882.471304,459.657299
552.666645,2664.741391,-8512.368333,306.438199
552.666970,2220.617826,-9252.574275,1225.752797
552.667294,444.123565,-9918.759623,1072.533697
552.667618,-962.267725,-10066.800811,0.000000
552.667943,-2960.823768,-9992.780217,-383.047749
552.668267,-4071.132681,-10140.821405,-612.876398
552.668591,-3701.029710,-9992.780217,-995.924147
552.668915,-2146.597232,-9696.697840,0.000000
552.669240,-518.144159,-10214.842000,919.314598
552.669564,-444.123565,-9918.759623,306.438199
552.669888,0.000000,-9178.553681,-842.705048
552.670213,-296.082377,-9326.594869,-536.266849
552.670537,1628.453072,-9474.636058,-306.438199
552.670861,3775.050304,-9918.759623,-153.219100
552.671185,3701.029710,-11547.212695,1149.143247
552.671510,2294.638420,-12583.501014,766.095498
552.671834,740.205942,-11399.171507,-536.266849
552.672158,-1036.288319,-10584.944971,-689.485948
552.672483,-1998.556043,-11029.068536,-1378.971896
552.672807,-1702.473667,-10584.944971,-2374.896044
552.673131,-962.267725,-9844.739029,-1532.190996
552.673456,-444.123565,-9918.759623,229.828649
552.673780,148.041188,-9622.677246,-383.047749
552.674104,222.061783,-8364.327145,-1149.143247
552.674428,0.000000,-7550.100608,-306.438199
552.674753,370.102971,-8586.388927,-689.485948
552.675077,1036.288319,-8882.471304,-612.876398
552.675401,444.123565,-10214.842000,0.000000
552.675726,-444.123565,-11251.130318,612.876398
552.676050,-1184.329507,-11029.068536,306.438199
552.676374,-2368.659014,-11103.089130,-383.047749
552.676698,-3701.029710,-10955.047942,-383.047749
552.677023,-3256.906145,-9992.780217,-1302.362347
552.677347,-1998.556043,-9252.574275,-919.314598
552.677671,-518.144159,-9474.636058,-76.609550
552.677996,-148.041188,-8956.491898,153.219100
552.678320,444.123565,-7698.141797,76.609550
552.678644,1036.288319,-7698.141797,459.657299
552.678969,1702.473667,-8216.285956,536.266849
552.679293,2368.659014,-7550.100608,153.219100
552.679617,2368.659014,-8660.409521,459.657299
552.679941,1184.329507,-9474.636058,842.705048
552.680266,148.041188,-9622.677246,0.000000
552.680590,-1554.432478,-9622.677246,459.657299
552.680914,-2146.597232,-9770.718434,229.828649
552.681239,-1480.411884,-9326.594869,-1072.533697
552.681563,-740.205942,-9030.512492,-1072.533697
552.681887,-518.144159,-9474.636058,-76.609550
552.682211,-222.061783,-9400.615463,-229.828649
552.682536,0.000000,-8586.388927,-383.047749
552.682860,74.020594,-8438.347739,0.000000
552.683184,1184.329507,-8216.285956,-766.095498
552.683509,2664.741391,-9474.636058,-536.266849
552.683833,2590.720797,-11473.192101,0.000000
552.684157,1258.350101,-11769.274478,1378.971896
552.684482,0.000000,-11547.212695,536.266849
552.684806,-962.267725,-12065.356855,459.657299
552.685130,-2368.659014,-11843.295072,0.000000
552.685454,-1036.288319,-11251.130318,-306.438199
552.685779,-370.102971,-11473.192101,0.000000
552.686103,-444.123565,-11547.212695,306.438199
552.686427,74.020594,-9918.759623,-306.438199
552.686752,0.000000,-8734.430116,-536.266849
552.687076,888.247130,-9326.594869,-306.438199
552.687400,1924.535449,-8290.306550,-306.438199
552.687724,2590.720797,-8808.450710,-689.485948
552.688049,1406.391290,-9844.739029,-153.219100
552.688373,296.082377,-10584.944971,76.609550
552.688697,0.000000,-10362.883188,-153.219100
552.689022,-1702.473667,-11251.130318,306.438199
552.689346,-2368.659014,-10140.821405,76.609550
552.689670,-1850.514855,-8586.388927,-153.219100
552.689995,-1554.432478,-9104.533087,229.828649
552.690319,-1110.308913,-10066.800811,842.705048
552.690643,-814.226536,-9104.533087,612.876398
552.690967,-888.247130,-7698.141797,536.266849
552.691292,222.061783,-7254.018232,536.266849
552.691616,2516.700203,-7550.100608,306.438199
552.691940,3256.906145,-8364.327145,-459.657299
552.692265,2368.659014,-9474.636058,0.000000
552.692589,444.123565,-9178.553681,-612.876398
552.692913,-148.041188,-9104.533087,-459.657299
552.693237,-740.205942,-11029.068536,0.000000
552.693562,-148.041188,-11029.068536,-459.657299
552.693886,0.000000,-9178.553681,-536.266849
552.694210,-1110.308913,-9326.594869,229.828649
552.694535,-592.164754,-9992.780217,229.828649
552.694859,-148.041188,-9844.739029,229.828649
552.695183,-370.102971,-8956.491898,1225.752797
552.695508,-148.041188,-8068.244768,459.657299
552.695832,740.205942,-7846.182985,-842.705048
552.696156,1702.473667,-8882.471304,0.000000
552.696480,1776.494261,-10066.800811,0.000000
552.696805,1258.350101,-10140.821405,-612.876398
552.697129,74.020594,-10362.883188,-383.047749
552.697453,-1998.556043,-11325.150913,-612.876398
552.697778,-2294.638420,-11399.171507,-1072.533697
552.698102,-2072.576638,-11177.109724,-1072.533697
552.698426,-1924.535449,-11251.130318,-612.876398
552.698751,-1702.473667,-10732.986159,-153.219100
552.699075,-814.226536,-9770.718434,0.000000
552.699399,-296.082377,-9252.574275,766.095498
552.699723,-222.061783,-8808.450710,306.438199
552.700048,1332.370696,-8438.347739,306.438199
552.700372,1998.556043,-9178.553681,459.657299
552.700696,1998.556043,-10140.821405,995.924147
552.701021,1258.350101,-9326.594869,459.657299
552.701345,74.020594,-9252.574275,229.828649
552.701669,-370.102971,-10140.821405,536.266849
552.701993,148.041188,-10288.862594,-612.876398
552.702318,74.020594,-9992.780217,-383.047749
552.702642,-962.267725,-10732.986159,229.828649
552.702966,-1480.411884,-10214.842000,0.000000
552.703291,-1332.370696,-9400.615463,-536.266849
552.703615,-1628.453072,-9474.636058,0.000000
552.703939,-370.102971,-9474.636058,0.000000
552.704264,1184.329507,-8734.430116,-919.314598
552.704588,1998.556043,-9030.512492,229.828649
552.704912,1776.494261,-9030.512492,689.485948
552.705236,1850.514855,-9474.636058,0.000000
552.705561,444.123565,-10510.924376,76.609550
552.705885,-962.267725,-11103.089130,-229.828649
552.706209,-1036.288319,-9844.739029,-612.876398
552.706534,-1184.329507,-9918.759623,-689.485948
552.706858,-1258.350101,-10732.986159,-229.828649
552.707182,-1184.329507,-10436.903782,-612.876398
552.707506,-888.247130,-9178.553681,-842.705048
552.707831,-1036.288319,-8734.430116,-536.266849
552.708155,0.000000,-8734.430116,-536.266849
552.708479,1776.494261,-8512.368333,-383.047749
552.708804,2072.576638,-8660.409521,229.828649
552.709128,1110.308913,-8290.306550,-766.095498
552.709452,222.061783,-8512.368333,-1378.971896
552.709777,-518.144159,-9030.512492,-689.485948
552.710101,-296.082377,-9844.739029,-536.266849
552.710425,444.123565,-9252.574275,-459.657299
552.710749,666.185348,-9622.677246,-306.438199
552.711074,222.061783,-10658.965565,0.000000
552.711398,0.000000,-10066.800811,-536.266849
552.711722,-1184.329507,-9326.594869,-383.047749
552.712047,-1406.391290,-9104.533087,-383.047749
552.712371,296.082377,-9400.615463,-383.047749
552.712695,1776.494261,-10066.800811,-459.657299
552.713019,2368.659014,-10362.883188,76.609550
552.713344,2294.638420,-9622.677246,-536.266849
552.713668,1184.329507,-9474.636058,-612.876398
552.713992,-148.041188,-10584.944971,0.000000
552.714317,-296.082377,-11325.150913,0.000000
552.714641,296.082377,-10436.903782,0.000000
552.714965,222.061783,-11399.171507,306.438199
552.715290,-296.082377,-11251.130318,229.828649
552.715614,-666.185348,-10214.842000,-459.657299
552.715938,-2220.617826,-9474.636058,-536.266849
552.716262,-2812.782580,-9178.553681,-153.219100
552.716587,-1184.329507,-9178.553681,-536.266849
552.716911,74.020594,-9474.636058,0.000000
552.717235,592.164754,-10214.842000,919.314598
552.717560,666.185348,-9622.677246,919.314598
552.717884,444.123565,-8956.491898,536.266849
552.718208,-296.082377,-10140.821405,459.657299
552.718532,-148.041188,-10066.800811,229.828649
552.718857,666.185348,-9548.656652,919.314598
552.719181,1480.411884,-10881.027347,1302.362347
552.719505,1184.329507,-10436.903782,1378.971896
552.719830,222.061783,-9326.594869,459.657299
552.720154,-1036.288319,-8808.450710,306.438199
552.720478,-1850.514855,-9252.574275,229.828649
552.720803,-1184.329507,-9030.512492,383.047749
552.721127,0.000000,-8660.409521,995.924147
552.721451,-444.123565,-8808.450710,1149.143247
552.721775,-1036.288319,-8364.327145,0.000000
552.722100,-1998.556043,-7105.977043,-306.438199
552.722424,-2072.576638,-8364.327145,229.828649
552.722748,-888.247130,-9326.594869,229.828649
552.723073,0.000000,-9400.615463,306.438199
552.723397,-222.061783,-9474.636058,1149.143247
552.723721,-370.102971,-9696.697840,766.095498
552.724045,0.000000,-9844.739029,689.485948
552.724370,-592.164754,-11251.130318,1302.362347
552.724694,0.000000,-11177.109724,995.924147
552.725018,888.247130,-9844.739029,766.095498
552.725343,962.267725,-9474.636058,919.314598
552.725667,1110.308913,-9992.780217,-306.438199
552.725991,592.164754,-9104.533087,-612.876398
552.726316,888.247130,-9104.533087,-306.438199
552.726640,592.164754,-9474.636058,229.828649
552.726964,1258.350101,-8808.450710,-306.438199
552.727288,740.205942,-8364.327145,-153.219100
552.727613,0.000000,-9770.718434,76.609550
552.727937,-666.185348,-9992.780217,-919.314598
552.728261,-1036.288319,-9844.739029,-842.705048
552.728586,-2294.638420,-9548.656652,-153.219100
552.728910,-1480.411884,-9326.594869,-153.219100
552.729234,1110.308913,-9992.780217,0.000000
552.729558,1702.473667,-10362.883188,153.219100
552.729883,1628.453072,-10807.006753,-229.828649
552.730207,1406.391290,-10140.821405,-995.924147
552.730531,1480.411884,-9770.718434,-689.485948
552.730856,1332.370696,-11029.068536,-306.438199
552.731180,2368.659014,-10955.047942,-1915.238745
552.731504,1702.473667,-10807.006753,-536.266849
552.731829,592.164754,-11473.192101,-536.266849
552.732153,0.000000,-11103.089130,-919.314598
552.732477,-814.226536,-10732.986159,-459.657299
552.732801,-1332.370696,-10510.924376,0.000000
552.733126,-518.144159,-9548.656652,0.000000
552.733450,444.123565,-8956.491898,-153.219100
552.733774,-518.144159,-8512.368333,-153.219100
552.734099,-962.267725,-9326.594869,-612.876398
552.734423,-888.247130,-7772.162391,-1072.533697
552.734747,-666.185348,-7179.997637,-612.876398
552.735071,0.000000,-8142.265362,-459.657299
552.735396,1036.288319,-8586.388927,-766.095498
552.735720,1850.514855,-9400.615463,153.219100
552.736044,1184.329507,-9992.780217,0.000000
552.736369,518.144159,-8808.450710,-766.095498
552.736693,-592.164754,-9770.718434,-612.876398
552.737017,-814.226536,-11029.068536,76.609550
552.737342,444.123565,-10881.027347,153.219100
552.737666,1554.432478,-10362.883188,612.876398
552.737990,-148.041188,-10807.006753,306.438199
552.738314,-1406.391290,-10510.924376,-306.438199
552.738639,-2368.659014,-9474.636058,-689.485948
552.738963,-2146.597232,-9104.533087,0.000000
552.739287,-1776.494261,-9326.594869,0.000000
552.739612,-1406.391290,-9104.533087,-306.438199
552.739936,-1480.411884,-8956.491898,-689.485948
552.740260,-1480.411884,-9030.512492,-919.314598
552.740584,-1036.288319,-8512.368333,-919.314598
552.740909,-1480.411884,-9474.636058,-1532.190996
552.741233,-1850.514855,-10584.944971,-306.438199
552.741557,-148.041188,-9622.677246,612.876398
552.741882,1258.350101,-10066.800811,1225.752797
552.742206,592.164754,-11103.089130,1072.533697
552.742530,-740.205942,-10510.924376,459.657299
552.742855,-1110.308913,-9400.615463,459.657299
552.743179,-592.164754,-9622.677246,1608.800546
552.743503,740.205942,-9696.697840,689.485948
552.743827,1406.391290,-9400.615463,766.095498
552.744152,1184.329507,-9548.656652,995.924147
552.744476,444.123565,-9918.759623,0.000000
552.744800,0.000000,-9104.533087,-689.485948
552.745125,-888.247130,-9030.512492,-612.876398
552.745449,-444.123565,-9770.718434,0.000000
552.745773,592.164754,-10066.800811,-229.828649
552.746097,518.144159,-10362.883188,-612.876398
552.746422,0.000000,-10436.903782,766.095498
552.746746,-518.144159,-9844.739029,306.438199
552.747070,-592.164754,-9844.739029,1149.143247
552.747395,-444.123565,-10066.800811,1225.752797
552.747719,814.226536,-9474.636058,919.314598
552.748043,2146.597232,-8808.450710,689.485948
552.748368,2146.597232,-9104.533087,1072.533697
552.748692,2072.576638,-9474.636058,76.609550
552.749016,1036.288319,-8882.471304,0.000000
552.749340,0.000000,-9622.677246,153.219100
552.749665,0.000000,-9918.759623,76.609550
552.749989,1110.308913,-9622.677246,153.219100
552.750313,148.041188,-9770.718434,0.000000
552.750638,-740.205942,-9844.739029,0.000000
552.750962,-962.267725,-8734.430116,-229.828649
552.751286,-888.247130,-8882.471304,0.000000
552.751610,-518.144159,-9622.677246,383.047749
552.751935,222.061783,-8808.450710,0.000000
552.752259,1036.288319,-7476.080014,-306.438199
552.752583,740.205942,-8364.327145,383.047749
552.752908,444.123565,-8734.430116,-766.095498
552.753232,222.061783,-8808.450710,-766.095498
552.753556,518.144159,-9474.636058,0.000000
552.753881,1406.391290,-9696.697840,0.000000
552.754205,2220.617826,-10066.800811,-612.876398
552.754529,740.205942,-11103.089130,-536.266849
552.754853,-1184.329507,-11769.274478,-689.485948
552.755178,-1036.288319,-11473.192101,-919.314598
552.755502,-814.226536,-10584.944971,-919.314598
552.755826,-666.185348,-9770.718434,-689.485948
552.756151,74.020594,-9104.533087,-612.876398
552.756475,592.164754,-9548.656652,0.000000
552.756799,1480.411884,-10214.842000,383.047749
552.757123,1184.329507,-9622.677246,-1149.143247
552.757448,148.041188,-9548.656652,-919.314598
552.757772,-222.061783,-10066.800811,-383.047749
552.758096,740.205942,-10214.842000,76.609550
552.758420,1406.391290,-10658.965565,306.438199
552.758745,-296.082377,-11621.233289,0.000000
552.759069,-2146.597232,-11029.068536,-306.438199
552.759393,-2146.597232,-9326.594869,-536.266849
552.759717,-2146.597232,-10066.800811,76.609550
552.760042,-1850.514855,-10436.903782,76.609550
552.760366,-592.164754,-10140.821405,153.219100
552.760690,74.020594,-9400.615463,536.266849
552.761014,444.123565,-8734.430116,0.000000
552.761339,444.123565,-7550.100608,0.000000
552.761663,-222.061783,-8734.430116,0.000000
552.761987,-1184.329507,-9252.574275,76.609550
552.762311,-592.164754,-8512.368333,76.609550
552.762636,-370.102971,-8438.347739,459.657299
552.762960,-1480.411884,-10140.821405,766.095498
552.763284,-2516.700203,-9918.759623,306.438199
552.763608,-3552.988522,-9030.512492,0.000000
552.763933,-3256.906145,-9622.677246,995.924147
552.764257,-2960.823768,-9770.718434,306.438199
552.764581,-1036.288319,-9178.553681,76.609550
552.764905,370.102971,-7846.182985,1225.752797
552.765230,1554.432478,-8512.368333,689.485948
552.765554,1258.350101,-8364.327145,0.000000
552.765878,888.247130,-9326.594869,0.000000
552.766203,592.164754,-9474.636058,383.047749
552.766527,2220.617826,-9696.697840,536.266849
552.766851,2738.761985,-10807.006753,76.609550
552.767175,1332.370696,-11621.233289,306.438199
552.767500,-370.102971,-11621.233289,-306.438199
552.767824,-1036.288319,-11325.150913,-919.314598
552.768148,-1850.514855,-11103.089130,-766.095498
552.768472,-888.247130,-9918.759623,-919.314598
552.768797,888.247130,-9030.512492,-536.266849
552.769121,1258.350101,-9326.594869,-612.876398
552.769445,1110.308913,-8956.491898,-995.924147
552.769769,962.267725,-8660.409521,-842.705048
552.770094,740.205942,-9252.574275,-153.219100
552.770418,1332.370696,-9918.759623,0.000000
552.770742,2294.638420,-9326.594869,459.657299
552.771066,2368.659014,-9326.594869,689.485948
552.771391,370.102971,-11103.089130,-459.657299
552.771715,-518.144159,-12065.356855,-459.657299
552.772039,-1406.391290,-11473.192101,-229.828649
552.772363,-1776.494261,-11251.130318,153.219100
552.772688,-962.267725,-10066.800811,0.000000
552.773012,888.247130,-8734.430116,76.609550
552.773336,1258.350101,-8882.471304,153.219100
552.773660,814.226536,-9030.512492,383.047749
552.773985,1110.308913,-8216.285956,306.438199
552.774309,888.247130,-8290.306550,1225.752797
552.774633,1702.473667,-8142.265362,842.705048
552.774958,2146.597232,-7698.141797,153.219100
552.775282,1184.329507,-8512.368333,612.876398
552.775606,296.082377,-9474.636058,76.609550
552.775930,0.000000,-10658.965565,-153.219100
552.776255,-2220.617826,-9992.780217,-229.828649
552.776579,-3182.885551,-9548.656652,306.438199
552.776903,-2738.761985,-9622.677246,229.828649
552.777227,-592.164754,-9770.718434,536.266849
552.777552,666.185348,-10066.800811,919.314598
552.777876,888.247130,-9178.553681,306.438199
552.778200,1036.288319,-7994.224174,-229.828649
552.778524,962.267725,-7994.224174,0.000000
552.778849,1628.453072,-8586.388927,153.219100
552.779173,1924.535449,-9770.718434,-306.438199
552.779497,740.205942,-11473.192101,-153.219100
552.779821,-1184.329507,-11843.295072,-612.876398
552.780146,-2590.720797,-11029.068536,-383.047749
552.780470,-3552.988522,-11029.068536,-459.657299
552.780794,-4071.132681,-11769.274478,-766.095498
552.781118,-2368.659014,-11103.089130,-383.047749
552.781443,-1036.288319,-10584.944971,76.609550
552.781767,-1036.288319,-9770.718434,-229.828649
552.782091,-1628.453072,-8586.388927,-995.924147
552.782415,-1110.308913,-8512.368333,-689.485948
552.782740,148.041188,-9696.697840,0.000000
552.783064,1554.432478,-9474.636058,153.219100
552.783388,2368.659014,-8734.430116,-306.438199
552.783713,1628.453072,-9548.656652,0.000000
552.784037,296.082377,-10288.862594,-459.657299
552.784361,-666.185348,-10288.862594,-766.095498
552.784685,-1628.453072,-10510.924376,-383.047749
552.785010,-1850.514855,-10288.862594,-842.705048
552.785334,-1554.432478,-8882.471304,-383.047749
552.785658,-1554.432478,-8882.471304,76.609550
552.785982,0.000000,-9474.636058,-459.657299
552.786307,0.000000,-9548.656652,-153.219100
552.786631,-148.041188,-8882.471304,0.000000
552.786955,518.144159,-8586.388927,76.609550
552.787279,1554.432478,-8438.347739,0.000000
552.787604,2294.638420,-9548.656652,689.485948
552.787928,1924.535449,-11103.089130,-536.266849
552.788252,962.267725,-11325.150913,0.000000
552.788576,74.020594,-10807.006753,-919.314598
552.788901,-1110.308913,-10584.944971,-306.438199
552.789225,-740.205942,-10732.986159,-383.047749
552.789549,0.000000,-10732.986159,0.000000
552.789873,-370.102971,-10214.842000,766.095498
552.790198,-666.185348,-9178.553681,306.438199
552.790522,-888.247130,-7846.182985,0.000000
552.790846,-962.267725,-8364.327145,459.657299
552.791170,444.123565,-8364.327145,76.609550
552.791495,2146.597232,-7328.038826,229.828649
552.791819,2368.659014,-7328.038826,1302.362347
552.792143,1702.473667,-8438.347739,766.095498
552.792467,1036.288319,-8956.491898,153.219100
552.792792,0.000000,-9326.594869,0.000000
552.793116,-148.041188,-9918.759623,153.219100
552.793440,148.041188,-10955.047942,229.828649
552.793765,962.267725,-10362.883188,306.438199
552.794089,1184.329507,-10288.862594,919.314598
552.794413,666.185348,-10066.800811,-306.438199
552.794737,0.000000,-8512.368333,-1378.971896
552.795062,-814.226536,-8956.491898,-306.438199
552.795386,0.000000,-9474.636058,-536.266849
552.795710,1850.514855,-9030.512492,-153.219100
552.796034,1702.473667,-9178.553681,612.876398
552.796359,222.061783,-10732.986159,0.000000
552.796683,-1110.308913,-11177.109724,-1149.143247
552.797007,-2146.597232,-11177.109724,-995.924147
552.797331,-2146.597232,-11695.253884,0.000000
552.797656,-592.164754,-11695.253884,76.609550
552.797980,666.185348,-11325.150913,0.000000
552.798304,0.000000,-10955.047942,612.876398
552.798628,0.000000,-10362.883188,-612.876398
552.798953,0.000000,-10140.821405,-612.876398
552.799277,222.061783,-9770.718434,-536.266849
552.799601,1184.329507,-9030.512492,0.000000
552.799925,2294.638420,-7772.162391,0.000000
552.800250,2220.617826,-8586.388927,612.876398
552.800574,888.247130,-10066.800811,-229.828649
552.800898,-518.144159,-9474.636058,-306.438199
552.801222,-2072.576638,-9252.574275,76.609550
552.801547,-2516.700203,-9992.780217,459.657299
552.801871,-1924.535449,-9474.636058,0.000000
552.802195,-1258.350101,-9252.574275,1149.143247
552.802520,-2368.659014,-9474.636058,766.095498
552.802844,-3256.906145,-9104.533087,612.876398
552.803168,-2738.761985,-8586.388927,766.095498
552.803492,-1702.473667,-8438.347739,842.705048
552.803817,-296.082377,-7402.059420,995.924147
552.804141,814.226536,-6587.832884,536.266849
552.804465,962.267725,-8216.285956,306.438199
552.804789,444.123565,-9918.759623,0.000000
552.805114,-444.123565,-9622.677246,153.219100
552.805438,-1110.308913,-9548.656652,76.609550
552.805762,-1480.411884,-9622.677246,76.609550
552.806086,-666.185348,-8956.491898,0.000000
552.806411,-370.102971,-9844.739029,229.828649
552.806735,-1406.391290,-11473.192101,153.219100
552.807059,-1702.473667,-10066.800811,-383.047749
552.807383,-1480.411884,-8956.491898,76.609550
552.807708,0.000000,-9178.553681,689.485948
552.808032,1924.535449,-9030.512492,76.609550
552.808356,3330.926739,-8956.491898,0.000000
552.808680,2886.803174,-10214.842000,1072.533697
552.809005,2294.638420,-11177.109724,0.000000
552.809329,1776.494261,-11177.109724,-1149.143247
552.809653,518.144159,-12065.356855,-689.485948
552.809977,148.041188,-12435.459826,-995.924147
552.810302,740.205942,-12509.480420,-1149.143247
552.810626,1258.350101,-12435.459826,-842.705048
552.810950,370.102971,-12805.562797,-536.266849
552.811275,296.082377,-10955.047942,-459.657299
552.811599,370.102971,-9696.697840,-842.705048
552.811923,296.082377,-9400.615463,-383.047749
552.812247,666.185348,-8734.430116,-842.705048
552.812572,1036.288319,-8216.285956,-229.828649
552.812896,666.185348,-8808.450710,153.219100
552.813220,370.102971,-8068.244768,-536.266849
552.813544,296.082377,-8142.265362,-536.266849
552.813869,0.000000,-8364.327145,306.438199
552.814193,296.082377,-9474.636058,0.000000
552.814517,370.102971,-9178.553681,-383.047749
552.814841,-740.205942,-9474.636058,306.438199
552.815166,-1406.391290,-10214.842000,153.219100
552.815490,-1184.329507,-9178.553681,-459.657299
552.815814,-1184.329507,-7920.203579,0.000000
552.816138,-518.144159,-8364.327145,306.438199
552.816463,592.164754,-8586.388927,229.828649
552.816787,1480.411884,-9178.553681,1455.581446
552.817111,1332.370696,-9548.656652,1915.238745
552.817435,666.185348,-8734.430116,766.095498
552.817760,-370.102971,-8142.265362,0.000000
552.818084,-2368.659014,-7846.182985,-536.266849
552.818408,-2146.597232,-8808.450710,-1378.971896
552.818732,-962.267725,-9178.553681,-536.266849
552.819057,-1406.391290,-9918.759623,153.219100
552.819381,-1628.453072,-9918.759623,459.657299
552.819705,-1110.308913,-9030.512492,0.000000
552.820029,-1406.391290,-9400.615463,306.438199
552.820354,-592.164754,-9770.718434,153.219100
552.820678,814.226536,-9474.636058,-459.657299
552.821002,2072.576638,-9844.739029,689.485948
552.821327,2368.659014,-10732.986159,766.095498
552.821651,2294.638420,-10955.047942,153.219100
552.821975,814.226536,-9622.677246,0.000000
552.822299,-444.123565,-10436.903782,-383.047749
552.822624,-518.144159,-11251.130318,-1302.362347
552.822948,-666.185348,-11473.192101,-995.924147
552.823272,-1332.370696,-12139.377449,76.609550
552.823596,-1924.535449,-11843.295072,-459.657299
552.823921,-1850.514855,-10955.047942,0.000000
552.824245,-2368.659014,-11473.192101,-612.876398
552.824569,-1702.473667,-11103.089130,-306.438199
552.824893,-370.102971,-9770.718434,0.000000
552.825218,370.102971,-10066.800811,1072.533697
552.825542,370.102971,-10658.965565,1225.752797
552.825866,0.000000,-9474.636058,0.000000
552.826190,74.020594,-8512.368333,766.095498
552.826515,148.041188,-8956.491898,-306.438199
552.826839,1406.391290,-8734.430116,-383.047749
552.827163,1554.432478,-9030.512492,1072.533697
552.827487,1184.329507,-10066.800811,1149.143247
552.827812,666.185348,-9696.697840,76.609550
552.828136,-592.164754,-8512.368333,153.219100
552.828460,-1036.288319,-8068.244768,0.000000
552.828784,-518.144159,-8660.409521,0.000000
552.829109,222.061783,-8142.265362,766.095498
552.829433,740.205942,-7772.162391,1838.629195
552.829757,148.041188,-8882.471304,536.266849
552.830082,-444.123565,-8808.450710,0.000000
552.830406,-814.226536,-8512.368333,306.438199
552.830730,222.061783,-9104.533087,76.609550
552.831054,962.267725,-8734.430116,-229.828649
552.831379,666.185348,-8956.491898,536.266849
552.831703,666.185348,-10807.006753,383.047749
552.832027,-148.041188,-10584.944971,-612.876398
552.832351,-518.144159,-10066.800811,-459.657299
552.832676,-1036.288319,-10436.903782,-842.705048
552.833000,-592.164754,-9992.780217,-1225.752797
552.833324,740.205942,-9474.636058,0.000000
552.833648,740.205942,-9474.636058,459.657299
552.833973,296.082377,-9696.697840,-229.828649
552.834297,0.000000,-8808.450710,-766.095498
552.834621,-296.082377,-8216.285956,0.000000
552.834945,222.061783,-8882.471304,-612.876398
552.835270,814.226536,-8956.491898,-995.924147
552.835594,592.164754,-9548.656652,-689.485948
552.835918,0.000000,-9844.739029,-766.095498
552.836242,-666.185348,-9400.615463,-1762.019645
552.836567,-1480.411884,-9548.656652,-995.924147
552.836891,-1554.432478,-10362.883188,-1532.190996
552.837215,-222.061783,-10214.842000,-1838.629195
552.837539,1184.329507,-9918.759623,-1302.362347
552.837864,1480.411884,-10807.006753,-383.047749
552.838188,1628.453072,-11399.171507,-1149.143247
552.838512,740.205942,-10066.800811,-919.314598
552.838837,-222.061783,-9474.636058,-766.095498
552.839161,222.061783,-10658.965565,-1149.143247
552.839485,1184.329507,-11251.130318,-612.876398
552.839809,1554.432478,-11177.109724,229.828649
552.840134,888.247130,-11029.068536,-306.438199
552.840458,-296.082377,-10066.800811,-689.485948
552.840782,-1406.391290,-10436.903782,0.000000
552.841106,-2146.597232,-11621.233289,-383.047749
552.841431,-1258.350101,-10584.944971,-612.876398
552.841755,-888.247130,-9104.533087,0.000000
552.842079,-888.247130,-9548.656652,153.219100
552.842403,-1332.370696,-9770.718434,-459.657299
552.842728,-1480.411884,-9252.574275,76.609550
552.843052,-888.247130,-8364.327145,995.924147
552.843376,148.041188,-8290.306550,-383.047749
552.843700,370.102971,-8364.327145,459.657299
552.844025,370.102971,-7846.182985,995.924147
552.844349,444.123565,-8734.430116,1378.971896
552.844673,370.102971,-9178.553681,1149.143247
552.844997,-1258.350101,-9474.636058,1302.362347
552.845322,-1850.514855,-9030.512492,459.657299
552.845646,-1258.350101,-7476.080014,1072.533697
552.845970,-740.205942,-7846.182985,1915.238745
552.846294,-888.247130,-9474.636058,1532.190996
552.846619,-1480.411884,-8660.409521,919.314598
552.846943,-1776.494261,-7402.059420,1225.752797
552.847267,-1036.288319,-7698.141797,842.705048
552.847591,74.020594,-7846.182985,0.000000
552.847916,814.226536,-8290.306550,766.095498
552.848240,1258.350101,-9252.574275,2145.067394
552.848564,1406.391290,-10066.800811,76.609550
552.848889,0.000000,-9474.636058,306.438199
552.849213,-962.267725,-10807.006753,995.924147
552.849537,814.226536,-12583.501014,766.095498
552.849861,3182.885551,-12361.439231,689.485948
552.850186,3182.885551,-11325.150913,1149.143247
552.850510,1776.494261,-11177.109724,1072.533697
552.850834,814.226536,-11103.089130,-919.314598
552.851158,296.082377,-10732.986159,76.609550
552.851483,444.123565,-10214.842000,-459.657299
552.851807,740.205942,-9696.697840,-1072.533697
552.852131,888.247130,-9474.636058,-689.485948
552.852455,888.247130,-9622.677246,-229.828649
552.852780,666.185348,-9326.594869,-1072.533697
552.853104,592.164754,-9770.718434,-1149.143247
552.853428,-962.267725,-10436.903782,-842.705048
552.853752,-592.164754,-10881.027347,-306.438199
552.854077,814.226536,-9770.718434,0.000000
552.854401,1110.308913,-10436.903782,76.609550
552.854725,-444.123565,-11251.130318,-536.266849
552.855049,-1332.370696,-10584.944971,-383.047749
552.855374,-444.123565,-9992.780217,383.047749
552.855698,666.185348,-9474.636058,0.000000
552.856022,1776.494261,-8734.430116,-383.047749
552.856346,1850.514855,-8364.327145,383.047749
552.856670,1184.329507,-9104.533087,-229.828649
552.856995,148.041188,-9400.615463,-842.705048
552.857319,-1184.329507,-8734.430116,-306.438199
552.857643,-1924.535449,-9030.512492,-459.657299
552.857967,-1628.453072,-9030.512492,-919.314598
552.858291,-814.226536,-8586.388927,0.000000
552.858615,-1480.411884,-9474.636058,76.609550
552.858939,-2368.659014,-10436.903782,-612.876398
552.859264,-2960.823768,-8956.491898,-919.314598
552.859588,-2960.823768,-7550.100608,-689.485948
552.859912,-2146.597232,-7920.203579,-1072.533697
552.860236,296.082377,-8068.244768,-689.485948
552.860560,1110.308913,-8734.430116,1072.533697
552.860884,2516.700203,-9104.533087,536.266849
552.861208,2072.576638,-8660.409521,-306.438199
552.861533,444.123565,-9252.574275,-306.438199
552.861857,-148.041188,-10881.027347,-229.828649
552.862181,740.205942,-11103.089130,-612.876398
552.862505,1480.411884,-10881.027347,76.609550
552.862829,0.000000,-12213.398043,229.828649
552.863153,-962.267725,-11621.233289,-689.485948
552.863477,-1184.329507,-10066.800811,-919.314598
552.863802,-1480.411884,-10214.842000,-459.657299
552.864126,-1850.514855,-9844.739029,-1685.410096
552.864450,-1776.494261,-8956.491898,-1608.800546
552.864774,-962.267725,-9178.553681,306.438199
552.865098,148.041188,-9696.697840,0.000000
552.865422,888.247130,-9474.636058,-1225.752797
552.865746,666.185348,-9548.656652,153.219100
552.866071,592.164754,-10362.883188,-229.828649
552.866395,1480.411884,-10510.924376,-766.095498
552.866719,1406.391290,-10658.965565,306.438199
552.867043,0.000000,-11917.315666,229.828649
552.867367,-740.205942,-11769.274478,-842.705048
552.867691,-1480.411884,-11029.068536,-153.219100
552.868015,-1998.556043,-10510.924376,76.609550
552.868340,-888.247130,-9622.677246,-842.705048
552.868664,518.144159,-9326.594869,-306.438199
552.868988,1110.308913,-9178.553681,612.876398
552.869312,1258.350101,-9104.533087,0.000000
552.869636,962.267725,-8586.388927,-153.219100
552.869960,-444.123565,-8660.409521,536.266849
552.870284,-296.082377,-9030.512492,-612.876398
552.870609,296.082377,-9178.553681,-536.266849
552.870933,222.061783,-10510.924376,383.047749
552.871257,0.000000,-11251.130318,536.266849
552.871581,222.061783,-10658.965565,-229.828649
552.871905,-518.144159,-9844.739029,459.657299
552.872229,-1110.308913,-10066.800811,689.485948
552.872553,-666.185348,-9548.656652,-306.438199
552.872878,666.185348,-8956.491898,1149.143247
552.873202,1850.514855,-8734.430116,1685.410096
552.873526,2812.782580,-8808.450710,612.876398
552.873850,1628.453072,-7846.182985,0.000000
552.874174,1110.308913,-7476.080014,612.876398
552.874498,1554.432478,-8216.285956,76.609550
552.874822,1554.432478,-8512.368333,-306.438199
552.875147,-296.082377,-10362.883188,995.924147
552.875471,-1332.370696,-10658.965565,153.219100
552.875795,-1110.308913,-9548.656652,0.000000
552.876119,-1702.473667,-9696.697840,1072.533697
552.876443,-1258.350101,-10436.903782,459.657299
552.876767,-962.267725,-9770.718434,-536.266849
552.877091,-518.144159,-9252.574275,306.438199
552.877416,370.102971,-8438.347739,689.485948
552.877740,1036.288319,-8586.388927,-153.219100
552.878064,74.020594,-8512.368333,-612.876398
552.878388,-518.144159,-8586.388927,0.000000
552.878712,740.205942,-8956.491898,-689.485948
552.879036,2294.638420,-9104.533087,0.000000
552.879360,2220.617826,-10658.965565,919.314598
552.879685,370.102971,-11769.274478,0.000000
552.880009,-666.185348,-10214.842000,-919.314598
552.880333,-2220.617826,-10362.883188,0.000000
552.880657,-3478.967927,-11769.274478,-919.314598
552.880981,-2664.741391,-10955.047942,-766.095498
552.881305,-1332.370696,-10288.862594,229.828649
552.881629,0.000000,-10066.800811,383.047749
552.881954,1110.308913,-8882.471304,-1762.019645
552.882278,962.267725,-7772.162391,-459.657299
552.882602,1332.370696,-9400.615463,0.000000
552.882926,2516.700203,-10066.800811,-766.095498
552.883250,2294.638420,-9622.677246,-1302.362347
552.883574,888.247130,-10066.800811,-383.047749
552.883898,-148.041188,-11325.150913,-1455.581446
552.884222,-518.144159,-11251.130318,-1762.019645
552.884547,-1554.432478,-11325.150913,-459.657299
552.884871,-1924.535449,-10955.047942,-383.047749
552.885195,-888.247130,-10140.821405,-536.266849
552.885519,-370.102971,-10732.986159,919.314598
552.885843,0.000000,-10807.006753,536.266849
552.886167,-370.102971,-8956.491898,-306.438199
552.886491,-592.164754,-7994.224174,0.000000
552.886816,370.102971,-9252.574275,612.876398
552.887140,1998.556043,-8956.491898,153.219100
552.887464,1998.556043,-8142.265362,689.485948
552.887788,1258.350101,-8586.388927,689.485948
552.888112,-370.102971,-9252.574275,-612.876398
552.888436,-2516.700203,-8882.471304,-1072.533697
552.888760,-4219.173869,-8660.409521,-383.047749
552.889085,-3404.947333,-9104.533087,-842.705048
552.889409,-1850.514855,-8586.388927,0.000000
552.889733,-1036.288319,-8660.409521,919.314598
552.890057,-740.205942,-7624.121203,536.266849
552.890381,-370.102971,-7476.080014,0.000000
552.890705,518.144159,-8142.265362,919.314598
552.891029,1184.329507,-9326.594869,612.876398
552.891354,2072.576638,-8882.471304,306.438199
552.891678,1258.350101,-8364.327145,842.705048
552.892002,592.164754,-10214.842000,766.095498
552.892326,222.061783,-11103.089130,-612.876398
552.892650,-444.123565,-11473.192101,0.000000
552.892974,-2220.617826,-12139.377449,-229.828649
552.893298,-2516.700203,-11473.192101,-1455.581446
552.893623,-1924.535449,-10140.821405,-2068.457845
552.893947,-1258.350101,-10955.047942,-1762.019645
552.894271,370.102971,-11917.315666,-1378.971896
552.894595,1110.308913,-10288.862594,-1915.238745
552.894919,1776.494261,-9400.615463,-383.047749
552.895243,2368.659014,-9326.594869,0.000000
552.895567,3997.112087,-9252.574275,-766.095498
552.895892,3997.112087,-10066.800811,76.609550
552.896216,2294.638420,-10658.965565,153.219100
552.896540,518.144159,-9918.759623,-995.924147
552.896864,-1110.308913,-9770.718434,0.000000
552.897188,-1924.535449,-10584.944971,0.000000
552.897512,-444.123565,-10658.965565,-612.876398
552.897836,0.000000,-9992.780217,0.000000
552.898161,-740.205942,-9918.759623,-229.828649
552.898485,-1110.308913,-9622.677246,-1149.143247
552.898809,-592.164754,-9030.512492,-1532.190996
552.899133,74.020594,-8438.347739,76.609550
552.899457,1332.370696,-8956.491898,0.000000
552.899781,2590.720797,-9178.553681,229.828649
552.900105,2960.823768,-9622.677246,1149.143247
552.900430,2442.679609,-11103.089130,612.876398
552.900754,888.247130,-10510.924376,-229.828649
552.901078,-666.185348,-9992.780217,536.266849
552.901402,-1406.391290,-10955.047942,919.314598
552.901726,-888.247130,-10510.924376,612.876398
552.902050,-592.164754,-9104.533087,1072.533697
552.902374,-666.185348,-8882.471304,1302.362347
552.902699,-740.205942,-9400.615463,76.609550
552.903023,-814.226536,-8216.285956,153.219100
552.903347,-1036.288319,-7328.038826,919.314598
552.903671,-148.041188,-6513.812290,229.828649
552.903995,740.205942,-6217.729913,0.000000
552.904319,296.082377,-7550.100608,1532.190996
552.904643,0.000000,-9400.615463,766.095498
552.904968,-444.123565,-8956.491898,-153.219100
552.905292,-1110.308913,-9104.533087,842.705048
552.905616,-1480.411884,-9992.780217,689.485948
552.905940,-1110.308913,-10214.842000,76.609550
552.906264,-1924.535449,-10066.800811,612.876398
552.906588,-1998.556043,-10362.883188,842.705048
552.906912,-1628.453072,-10214.842000,306.438199
552.907237,-962.267725,-9252.574275,689.485948
552.907561,-666.185348,-9252.574275,1149.143247
552.907885,814.226536,-9474.636058,-306.438199
552.908209,1332.370696,-9326.594869,0.000000
552.908533,1036.288319,-10066.800811,459.657299
552.908857,444.123565,-11251.130318,-842.705048
552.909181,-1110.308913,-11029.068536,-995.924147
552.909506,-1628.453072,-11029.068536,-919.314598
552.909830,-1036.288319,-11547.212695,-1072.533697
552.910154,148.041188,-11843.295072,-995.924147
552.910478,148.041188,-11547.212695,-459.657299
552.910802,-148.041188,-11769.274478,0.000000
552.911126,0.000000,-11103.089130,-306.438199
552.911450,518.144159,-9992.780217,0.000000
552.911775,1406.391290,-10436.903782,76.609550
552.912099,1850.514855,-9622.677246,-459.657299
552.912423,2664.741391,-9326.594869,0.000000
552.912747,2960.823768,-10288.862594,919.314598
552.913071,2072.576638,-10510.924376,-536.266849
552.913395,666.185348,-9918.759623,-536.266849
552.913719,-592.164754,-9622.677246,-153.219100
552.914044,-962.267725,-10140.821405,-1532.190996
552.914368,-1110.308913,-9992.780217,-1608.800546
552.914692,-1480.411884,-9474.636058,459.657299
552.915016,-1184.329507,-9844.739029,-306.438199
552.915340,-444.123565,-8956.491898,-689.485948
552.915664,-1258.350101,-7550.100608,536.266849
552.915988,-814.226536,-7328.038826,-383.047749
552.916313,592.164754,-7254.018232,-766.095498
552.916637,2368.659014,-7328.038826,766.095498
552.916961,2146.597232,-8142.265362,1225.752797
552.917285,1406.391290,-8438.347739,842.705048
552.917609,0.000000,-7476.080014,536.266849
552.917933,-962.267725,-8216.285956,306.438199
552.918257,-592.164754,-9326.594869,-689.485948
552.918582,-740.205942,-9622.677246,-383.047749
552.918906,-1258.350101,-9548.656652,612.876398
552.919230,-1110.308913,-9918.759623,76.609550
552.919554,-1110.308913,-8956.491898,-1378.971896
552.919878,-962.267725,-9178.553681,0.000000
552.920202,-222.061783,-8882.471304,-919.314598
552.920526,1332.370696,-8660.409521,-1378.971896
552.920851,1406.391290,-9030.512492,0.000000
552.921175,1110.308913,-9918.759623,-459.657299
552.921499,518.144159,-9696.697840,-1762.019645
552.921823,444.123565,-10807.006753,-995.924147
552.922147,-666.185348,-11473.192101,-1225.752797
552.922471,-370.102971,-11769.274478,-2298.286494
552.922795,0.000000,-11843.295072,-1072.533697
552.923120,148.041188,-12657.521608,-306.438199
552.923444,74.020594,-12435.459826,-1608.800546
552.923768,-370.102971,-11251.130318,-1225.752797
552.924092,-888.247130,-11103.089130,-1302.362347
552.924416,222.061783,-11399.171507,-1685.410096
552.924740,1554.432478,-10955.047942,-1149.143247
552.925064,2220.617826,-10807.006753,0.000000
552.925389,1554.432478,-11251.130318,-612.876398
552.925713,666.185348,-10214.842000,-1072.533697
552.926037,-518.144159,-10510.924376,-153.219100
552.926361,-962.267725,-11547.212695,-689.485948
552.926685,-888.247130,-10510.924376,-842.705048
552.927009,-1184.329507,-9474.636058,76.609550
552.927333,-1406.391290,-9770.718434,76.609550
552.927658,-2368.659014,-9474.636058,-536.266849
552.927982,-3552.988522,-8438.347739,0.000000
552.928306,-3627.009116,-8364.327145,306.438199
552.928630,-1258.350101,-8142.265362,0.000000
552.928954,740.205942,-7179.997637,1225.752797
552.929278,1554.432478,-7402.059420,3064.381992
552.929602,666.185348,-7550.100608,1225.752797
552.929927,0.000000,-6957.935855,1225.752797
552.930251,-666.185348,-7254.018232,1685.410096
552.930575,0.000000,-8068.244768,1149.143247
552.930899,962.267725,-7994.224174,1149.143247
552.931223,0.000000,-7994.224174,1149.143247
552.931547,-666.185348,-8734.430116,919.314598
552.931871,-814.226536,-9770.718434,383.047749
552.932196,-1480.411884,-9622.677246,1149.143247
552.932520,-1406.391290,-9918.759623,1302.362347
552.932844,-370.102971,-9252.574275,459.657299
552.933168,888.247130,-9104.533087,1225.752797
552.933492,1480.411884,-10510.924376,1532.190996
552.933816,1850.514855,-11177.109724,229.828649
552.934140,1258.350101,-10362.883188,689.485948
552.934465,888.247130,-10584.944971,1455.581446
552.934789,1036.288319,-10510.924376,536.266849
552.935113,962.267725,-10214.842000,153.219100
552.935437,444.123565,-10140.821405,919.314598
552.935761,0.000000,-10732.986159,-153.219100
552.936085,-592.164754,-9918.759623,-995.924147
552.936409,-1554.432478,-8956.491898,229.828649
552.936734,-814.226536,-10140.821405,383.047749
552.937058,222.061783,-9622.677246,-612.876398
552.937382,0.000000,-8808.450710,383.047749
552.937706,296.082377,-10066.800811,229.828649
552.938030,814.226536,-10436.903782,-995.924147
552.938354,1110.308913,-9918.759623,0.000000
552.938678,1924.535449,-9770.718434,919.314598
552.939003,2664.741391,-10362.883188,-1455.581446
552.939327,2590.720797,-10436.903782,-536.266849
552.939651,2368.659014,-10807.006753,153.219100
552.939975,1776.494261,-11399.171507,-1225.752797
552.940299,296.082377,-10362.883188,-2068.457845
552.940623,-592.164754,-10140.821405,-536.266849
552.940947,-518.144159,-11177.109724,-1072.533697
552.941272,740.205942,-10955.047942,-1225.752797
552.941596,0.000000,-9548.656652,0.000000
552.941920,-888.247130,-9844.739029,-459.657299
552.942244,-1924.535449,-9622.677246,-1915.238745
552.942568,-2146.597232,-9104.533087,-995.924147
552.942892,-1924.535449,-8734.430116,-536.266849
552.943216,-1554.432478,-8216.285956,-1225.752797
552.943541,-1110.308913,-8290.306550,-766.095498
552.943865,-592.164754,-9030.512492,76.609550
552.944189,-148.041188,-9548.656652,-842.705048
552.944513,148.041188,-9030.512492,-1072.533697
552.944837,-444.123565,-9474.636058,306.438199
552.945161,74.020594,-10510.924376,306.438199
552.945485,962.267725,-9844.739029,229.828649
552.945810,962.267725,-9178.553681,689.485948
552.946134,370.102971,-9400.615463,-383.047749
552.946458,-814.226536,-8290.306550,-2145.067394
552.946782,-888.247130,-8290.306550,-306.438199
552.947106,-962.267725,-8512.368333,-229.828649
552.947430,-592.164754,-8364.327145,-612.876398
552.947754,-1110.308913,-7772.162391,-536.266849
552.948079,-2368.659014,-7846.182985,-612.876398
552.948403,-2442.679609,-8808.450710,-1455.581446
552.948727,-2590.720797,-9252.574275,-1072.533697
552.949051,-2072.576638,-10066.800811,612.876398
552.949375,-814.226536,-10510.924376,153.219100
552.949699,888.247130,-10436.903782,383.047749
552.950023,1184.329507,-11177.109724,1608.800546
552.950348,666.185348,-12287.418637,689.485948
552.950672,296.082377,-11621.233289,-1149.143247
552.950996,-222.061783,-10584.944971,0.000000
552.951320,74.020594,-11251.130318,0.000000
552.951644,1628.453072,-11769.274478,-612.876398
552.951968,1850.514855,-10584.944971,536.266849
552.952292,1184.329507,-10807.006753,689.485948
552.952617,814.226536,-10658.965565,-1225.752797
552.952941,-518.144159,-10510.924376,-1149.143247
552.953265,-1406.391290,-10732.986159,153.219100
552.953589,-370.102971,-10658.965565,-306.438199
552.953913,814.226536,-9918.759623,-766.095498
552.954237,592.164754,-10214.842000,1838.629195
552.954561,222.061783,-10214.842000,76.609550
552.954886,740.205942,-9474.636058,-229.828649
552.955210,1110.308913,-8956.491898,1302.362347
552.955534,1776.494261,-9030.512492,1072.533697
552.955858,2368.659014,-9178.553681,229.828649
552.956182,1998.556043,-8438.347739,919.314598
552.956506,2220.617826,-8808.450710,1072.533697
552.956831,1776.494261,-9104.533087,-459.657299
552.957155,74.020594,-9030.512492,76.609550
552.957479,-962.267725,-8956.491898,306.438199
552.957803,-518.144159,-9474.636058,-306.438199
552.958128,-444.123565,-9474.636058,842.705048
552.958452,-1776.494261,-9918.759623,1225.752797
552.958776,-2664.741391,-9844.739029,229.828649
552.959100,-3404.947333,-8660.409521,229.828649
552.959424,-2590.720797,-7402.059420,612.876398
552.959749,-740.205942,-7031.956449,229.828649
552.960073,666.185348,-7328.038826,229.828649
552.960397,1480.411884,-7994.224174,1608.800546
552.960721,1554.432478,-8364.327145,919.314598
552.961046,1480.411884,-8142.265362,0.000000
552.961370,1258.350101,-8512.368333,1072.533697
552.961694,1110.308913,-9474.636058,229.828649
552.962018,1776.494261,-9178.553681,-612.876398
552.962343,1850.514855,-9104.533087,-306.438199
552.962667,-222.061783,-10658.965565,-229.828649
552.962991,-1702.473667,-10658.965565,-1455.581446
552.963315,-1998.556043,-9548.656652,-1072.533697
552.963639,-1332.370696,-9104.533087,0.000000
552.963964,-814.226536,-9326.594869,-1072.533697
552.964288,0.000000,-9770.718434,-842.705048
552.964612,0.000000,-10214.842000,612.876398
552.964936,1406.391290,-10658.965565,0.000000
552.965261,1554.432478,-10584.944971,-766.095498
552.965585,296.082377,-10436.903782,-153.219100
552.965909,74.020594,-11843.295072,-153.219100
552.966233,1036.288319,-12805.562797,-306.438199
552.966558,888.247130,-13101.645173,-612.876398
552.966882,-888.247130,-14137.933492,-842.705048
552.967206,-1628.453072,-13249.686362,-1915.238745
552.967530,-1998.556043,-11325.150913,-1072.533697
552.967855,-1332.370696,-10732.986159,-536.266849
552.968179,-740.205942,-10362.883188,-1378.971896
552.968503,-962.267725,-9696.697840,-689.485948
552.968827,-888.247130,-9252.574275,842.705048
552.969151,592.164754,-8438.347739,-153.219100
552.969476,74.020594,-7402.059420,229.828649
552.969800,-592.164754,-7920.203579,459.657299
552.970124,-740.205942,-8216.285956,0.000000
552.970448,-296.082377,-8438.347739,229.828649
552.970773,-592.164754,-8808.450710,1072.533697
552.971097,-1332.370696,-9030.512492,459.657299
552.971421,-1332.370696,-9400.615463,153.219100
552.971745,-814.226536,-8586.388927,306.438199
552.972070,-592.164754,-8734.430116,1072.533697
552.972394,148.041188,-8068.244768,-229.828649
552.972718,740.205942,-7698.141797,1072.533697
552.973042,1406.391290,-8068.244768,1532.190996
552.973366,1628.453072,-7846.182985,76.609550
552.973691,1036.288319,-7328.038826,0.000000
552.974015,-370.102971,-8364.327145,536.266849
552.974339,-444.123565,-8808.450710,-153.219100
552.974663,0.000000,-8734.430116,-306.438199
552.974988,-814.226536,-9696.697840,919.314598
552.975312,-1332.370696,-10288.862594,229.828649
552.975636,-1258.350101,-10214.842000,-689.485948
552.975960,-592.164754,-10214.842000,0.000000
552.976285,296.082377,-10510.924376,0.000000
552.976609,1258.350101,-10140.821405,-995.924147
552.976933,1702.473667,-10584.944971,306.438199
552.977257,1776.494261,-10288.862594,153.219100
552.977582,2294.638420,-10510.924376,-1378.971896
552.977906,1998.556043,-10214.842000,-842.705048
552.978230,1628.453072,-10658.965565,-766.095498
552.978554,3034.844362,-11399.171507,-383.047749
552.978878,3034.844362,-11399.171507,153.219100
552.979203,1702.473667,-12583.501014,1072.533697
552.979527,-148.041188,-12805.562797,-153.219100
552.979851,-1850.514855,-11843.295072,-689.485948
552.980175,-2886.803174,-11843.295072,-229.828649
552.980500,-2738.761985,-11547.212695,-1378.971896
552.980824,-1554.432478,-9992.780217,-1149.143247
552.981148,-814.226536,-9696.697840,995.924147
552.981472,518.144159,-9622.677246,0.000000
552.981797,222.061783,-9400.615463,-1225.752797
552.982121,-518.144159,-8142.265362,-536.266849
552.982445,296.082377,-8438.347739,-383.047749
552.982769,1924.535449,-9178.553681,-536.266849
552.983093,2442.679609,-9252.574275,995.924147
552.983418,1998.556043,-10066.800811,1838.629195
552.983742,888.247130,-10140.821405,306.438199
552.984066,-962.267725,-9474.636058,-153.219100
552.984390,-2368.659014,-9548.656652,612.876398
552.984715,-2442.679609,-9326.594869,0.000000
552.985039,-1628.453072,-8068.244768,383.047749
552.985363,-1036.288319,-7402.059420,1302.362347
552.985687,-370.102971,-7920.203579,459.657299
552.986012,370.102971,-7179.997637,0.000000
552.986336,444.123565,-6365.771101,0.000000
552.986660,444.123565,-7179.997637,-383.047749
552.986984,962.267725,-7550.100608,-459.657299
552.987309,592.164754,-8438.347739,306.438199
552.987633,0.000000,-10584.944971,612.876398
552.987957,-444.123565,-11325.150913,76.609550
552.988281,-1110.308913,-10955.047942,306.438199
552.988605,-2368.659014,-10881.027347,459.657299
552.988930,-2146.597232,-10510.924376,-536.266849
552.989254,-814.226536,-9474.636058,-306.438199
552.989578,-370.102971,-9770.718434,919.314598
552.989902,-518.144159,-9918.759623,229.828649
552.990227,-814.226536,-8290.306550,-459.657299
552.990551,-814.226536,-7179.997637,229.828649
552.990875,370.102971,-8216.285956,536.266849
552.991199,1628.453072,-8660.409521,-612.876398
552.991524,740.205942,-9548.656652,229.828649
552.991848,-740.205942,-11029.068536,383.047749
552.992172,-1184.329507,-11843.295072,-766.095498
552.992496,-1850.514855,-11843.295072,-536.266849
552.992821,-2516.700203,-11695.253884,-383.047749
552.993145,-1480.411884,-11103.089130,-1149.143247
552.993469,0.000000,-10436.903782,-689.485948
552.993793,814.226536,-11029.068536,383.047749
552.994117,1628.453072,-11325.150913,306.438199
552.994442,1628.453072,-10584.944971,612.876398
552.994766,1406.391290,-9622.677246,689.485948
552.995090,1332.370696,-9252.574275,-536.266849
552.995414,2072.576638,-9178.553681,-1302.362347
552.995739,1776.494261,-10362.883188,536.266849
552.996063,1480.411884,-10881.027347,842.705048
552.996387,740.205942,-10807.006753,-766.095498
552.996711,-1332.370696,-9696.697840,-153.219100
552.997036,-2220.617826,-10362.883188,-383.047749
552.997360,-1480.411884,-10732.986159,-1302.362347
552.997684,-962.267725,-10510.924376,0.000000
552.998008,-740.205942,-9918.759623,1225.752797
552.998332,148.041188,-9474.636058,689.485948
552.998657,888.247130,-8364.327145,153.219100
552.998981,1628.453072,-7698.141797,1532.190996
552.999305,2738.761985,-8290.306550,306.438199
552.999629,3552.988522,-8364.327145,-306.438199
552.999954,2590.720797,-8734.430116,1225.752797
553.000278,1628.453072,-9400.615463,919.314598
553.000602,0.000000,-9326.594869,-459.657299
553.000926,-2072.576638,-9400.615463,76.609550
553.001251,-2442.679609,-9918.759623,0.000000
553.001575,-1110.308913,-9696.697840,-689.485948
553.001899,-444.123565,-9474.636058,0.000000
553.002223,-444.123565,-8734.430116,766.095498
553.002548,-814.226536,-7846.182985,-612.876398
553.002872,-592.164754,-7402.059420,-766.095498
553.003196,-74.020594,-7624.121203,459.657299
553.003520,814.226536,-7624.121203,-459.657299
553.003844,1924.535449,-7105.977043,-612.876398
553.004169,1776.494261,-8142.265362,0.000000
553.004493,1480.411884,-9992.780217,229.828649
553.004817,888.247130,-10955.047942,-842.705048
553.005141,0.000000,-11177.109724,-153.219100
553.005466,-1258.350101,-11177.109724,-766.095498
553.005790,-1110.308913,-10807.006753,-1608.800546
553.006114,-814.226536,-11399.171507,-383.047749
553.006438,-518.144159,-11695.253884,-229.828649
553.006763,-518.144159,-11103.089130,-536.266849
553.007087,-1258.350101,-9992.780217,-689.485948
553.007411,-1554.432478,-10214.842000,-612.876398
553.007735,-296.082377,-10066.800811,-1225.752797
553.008059,1406.391290,-9622.677246,76.609550
553.008384,1702.473667,-10584.944971,1225.752797
553.008708,814.226536,-11917.315666,76.609550
553.009032,-1110.308913,-10658.965565,-229.828649
553.009356,-2442.679609,-10955.047942,-383.047749
553.009681,-2146.597232,-11621.233289,-919.314598
553.010005,-1406.391290,-11177.109724,-766.095498
553.010329,-1554.432478,-11177.109724,536.266849
553.010653,-1850.514855,-11029.068536,229.828649
553.010978,-1258.350101,-9770.718434,459.657299
553.011302,-888.247130,-8734.430116,766.095498
553.011626,-148.041188,-8882.471304,919.314598
553.011950,1332.370696,-8068.244768,76.609550
553.012275,1924.535449,-7550.100608,1378.971896
553.012599,1628.453072,-7846.182985,1608.800546
553.012923,1036.288319,-8290.306550,536.266849
553.013247,-814.226536,-8068.244768,1072.533697
553.013571,-1480.411884,-8956.491898,1149.143247
553.013896,-1702.473667,-9030.512492,-229.828649
553.014220,-1702.473667,-8290.306550,-229.828649
553.014544,-1998.556043,-8660.409521,612.876398
553.014868,-1480.411884,-9400.615463,306.438199
553.015193,-1184.329507,-8808.450710,536.266849
553.015517,-666.185348,-7994.224174,766.095498
553.015841,370.102971,-8216.285956,306.438199
553.016165,2960.823768,-8068.244768,229.828649
553.016490,3997.112087,-8290.306550,766.095498
553.016814,4293.194464,-9326.594869,766.095498
553.017138,2664.741391,-9844.739029,-153.219100
553.017462,1184.329507,-10584.944971,76.609550
553.017786,222.061783,-11103.089130,0.000000
553.018111,370.102971,-11029.068536,-842.705048
553.018435,-518.144159,-11251.130318,-766.095498
553.018759,-1332.370696,-12139.377449,0.000000
553.019083,-1258.350101,-11177.109724,-1302.362347
553.019408,-1406.391290,-9918.759623,-1225.752797
553.019732,-1332.370696,-9992.780217,-459.657299
553.020056,-296.082377,-9474.636058,-1378.971896
553.020380,1110.308913,-9252.574275,-1838.629195
553.020705,1924.535449,-9474.636058,0.000000
553.021029,2220.617826,-10066.800811,0.000000
553.021353,1258.350101,-10510.924376,-1532.190996
553.021677,0.000000,-10955.047942,0.000000
553.022002,-370.102971,-11029.068536,-306.438199
553.022326,518.144159,-10881.027347,-1378.971896
553.022650,518.144159,-10955.047942,0.000000
553.022974,0.000000,-11325.150913,0.000000
553.023298,-518.144159,-10955.047942,-1225.752797
553.023623,-1924.535449,-9696.697840,-842.705048
553.023947,-2664.741391,-9474.636058,-383.047749
553.024271,-666.185348,-9252.574275,-1072.533697
553.024595,1184.329507,-8512.368333,-536.266849
553.024920,1406.391290,-7920.203579,536.266849
553.025244,1850.514855,-8734.430116,-306.438199
553.025568,1776.494261,-8956.491898,0.000000
553.025892,962.267725,-9548.656652,766.095498
553.026217,740.205942,-9622.677246,-383.047749
553.026541,592.164754,-9178.553681,-1072.533697
553.026865,740.205942,-9992.780217,153.219100
553.027189,666.185348,-11399.171507,536.266849
553.027513,222.061783,-10584.944971,383.047749
553.027838,-444.123565,-9918.759623,459.657299
553.028162,-1110.308913,-9622.677246,766.095498
553.028486,-1036.288319,-8882.471304,-459.657299
553.028810,-148.041188,-8216.285956,383.047749
553.029135,296.082377,-8586.388927,995.924147
553.029459,-296.082377,-9252.574275,459.657299
553.029783,-1110.308913,-8216.285956,0.000000
553.030107,-2516.700203,-7698.141797,842.705048
553.030432,-1924.535449,-9252.574275,536.266849
553.030756,-1332.370696,-9326.594869,-842.705048
553.031080,-1406.391290,-9770.718434,536.266849
553.031404,-1702.473667,-9992.780217,689.485948
553.031729,-1702.473667,-10436.903782,0.000000
553.032053,-2516.700203,-10732.986159,153.219100
553.032377,-2516.700203,-10288.862594,1302.362347
553.032701,-814.226536,-9622.677246,229.828649
553.033025,1110.308913,-9252.574275,1149.143247
553.033350,1702.473667,-9474.636058,1608.800546
553.033674,1776.494261,-9992.780217,1149.143247
553.033998,666.185348,-9104.533087,153.219100
553.034322,-666.185348,-8808.450710,919.314598
553.034647,-1184.329507,-9178.553681,-229.828649
553.034971,-740.205942,-9770.718434,-995.924147
553.035295,-962.267725,-9770.718434,459.657299
553.035619,-888.247130,-9992.780217,-153.219100
553.035944,-888.247130,-10288.862594,-766.095498
553.036268,-1406.391290,-10140.821405,-383.047749
553.036592,-1184.329507,-10658.965565,76.609550
553.036916,222.061783,-10140.821405,-153.219100
553.037241,1924.535449,-9992.780217,689.485948
553.037565,2812.782580,-10140.821405,1378.971896
553.037889,2516.700203,-10436.903782,153.219100
553.038213,1776.494261,-10066.800811,229.828649
553.038537,1110.308913,-9918.759623,689.485948
553.038862,1406.391290,-10066.800811,0.000000
553.039186,1480.411884,-10436.903782,0.000000
553.039510,1036.288319,-11473.192101,536.266849
553.039834,740.205942,-11325.150913,0.000000
553.040159,-370.102971,-10140.821405,-1378.971896
553.040483,-888.247130,-9622.677246,-153.219100
553.040807,-444.123565,-9474.636058,-689.485948
553.041131,1036.288319,-9178.553681,-459.657299
553.041456,1628.453072,-8882.471304,689.485948
553.041780,1184.329507,-8660.409521,842.705048
553.042104,444.123565,-8290.306550,-919.314598
553.042428,-296.082377,-7698.141797,0.000000
553.042752,0.000000,-8734.430116,689.485948
553.043077,1036.288319,-9770.718434,-306.438199
553.043401,1628.453072,-9178.553681,459.657299
553.043725,1110.308913,-9548.656652,842.705048
553.044049,-222.061783,-9474.636058,-689.485948
553.044374,-1480.411884,-9474.636058,-1532.190996
553.044698,-2368.659014,-9178.553681,-842.705048
553.045022,-1776.494261,-8956.491898,-1072.533697
553.045346,0.000000,-8216.285956,-612.876398
553.045671,0.000000,-9326.594869,306.438199
553.045995,0.000000,-10140.821405,-689.485948
553.046319,148.041188,-9696.697840,-1608.800546
553.046643,-666.185348,-9474.636058,-383.047749
553.046968,-296.082377,-10584.944971,76.609550
553.047292,666.185348,-11325.150913,-612.876398
553.047616,1480.411884,-10214.842000,76.609550
553.047940,888.247130,-10584.944971,306.438199
553.048264,370.102971,-11325.150913,-612.876398
553.048589,-370.102971,-11843.295072,-1149.143247
553.048913,-1776.494261,-11325.150913,0.000000
553.049237,-370.102971,-10288.862594,-689.485948
553.049561,222.061783,-8956.491898,-1532.190996
553.049886,-888.247130,-9400.615463,-919.314598
553.050210,-1480.411884,-9844.739029,-1378.971896
553.050534,-1332.370696,-9992.780217,-1455.581446
553.050858,-814.226536,-9622.677246,-383.047749
553.051183,-148.041188,-8956.491898,306.438199
553.051507,222.061783,-8512.368333,-153.219100
553.051831,888.247130,-9252.574275,612.876398
553.052155,222.061783,-10140.821405,766.095498
553.052479,-518.144159,-10140.821405,0.000000
553.052804,-1702.473667,-9918.759623,-153.219100
553.053128,-2368.659014,-9696.697840,766.095498
553.053452,-592.164754,-9696.697840,766.095498
553.053776,814.226536,-9030.512492,536.266849
553.054101,296.082377,-8956.491898,766.095498
553.054425,-1184.329507,-9252.574275,76.609550
553.054749,-1924.535449,-9400.615463,0.000000
553.055073,-1850.514855,-9178.553681,229.828649
553.055398,-1110.308913,-8660.409521,383.047749
553.055722,-296.082377,-8438.347739,459.657299
553.056046,0.000000,-8290.306550,612.876398
553.056370,740.205942,-9030.512492,306.438199
553.056695,518.144159,-9474.636058,689.485948
553.057019,-592.164754,-9696.697840,919.314598
553.057343,-1110.308913,-9770.718434,766.095498
553.057667,0.000000,-9326.594869,76.609550
553.057991,1184.329507,-9400.615463,1149.143247
553.058316,1628.453072,-10658.965565,2068.457845
553.058640,1036.288319,-10881.027347,1072.533697
553.058964,814.226536,-9474.636058,689.485948
553.059288,296.082377,-8512.368333,536.266849
553.059613,740.205942,-8956.491898,-306.438199
553.059937,1258.350101,-9474.636058,-536.266849
553.060261,1850.514855,-10066.800811,766.095498
553.060585,2294.638420,-10288.862594,153.219100
553.060909,814.226536,-9696.697840,-536.266849
553.061234,-962.267725,-9918.759623,153.219100
553.061558,-1110.308913,-10732.986159,0.000000
553.061882,-370.102971,-10288.862594,-383.047749
553.062206,-518.144159,-10066.800811,612.876398
553.062530,-1036.288319,-10881.027347,612.876398
553.062855,-1036.288319,-11103.089130,76.609550
553.063179,-370.102971,-9400.615463,995.924147
553.063503,0.000000,-8290.306550,612.876398
553.063827,1036.288319,-8882.471304,76.609550
553.064151,1776.494261,-9474.636058,-459.657299
553.064476,2146.597232,-9326.594869,76.609550
553.064800,2368.659014,-9104.533087,-459.657299
553.065124,1110.308913,-9252.574275,-1072.533697
553.065448,-444.123565,-9548.656652,-229.828649
553.065773,-666.185348,-9770.718434,-842.705048
553.066097,0.000000,-9030.512492,-1608.800546
553.066421,0.000000,-9622.677246,-612.876398
553.066745,-592.164754,-10955.047942,153.219100
553.067069,-1110.308913,-10881.027347,-842.705048
553.067394,-2072.576638,-9474.636058,-459.657299
553.067718,-2738.761985,-8660.409521,153.219100
553.068042,-1332.370696,-9030.512492,-1149.143247
553.068366,296.082377,-8734.430116,-919.314598
553.068690,1332.370696,-8956.491898,0.000000
553.069015,2738.761985,-9474.636058,0.000000
553.069339,2220.617826,-9474.636058,-1149.143247
553.069663,888.247130,-9992.780217,-153.219100
553.069987,370.102971,-10584.944971,0.000000
553.070311,1110.308913,-10732.986159,-995.924147
553.070636,-888.247130,-11399.171507,-383.047749
553.070960,-3182.885551,-11251.130318,-1302.362347
553.071284,-3108.864956,-9992.780217,-2834.553343
553.071608,-2886.803174,-10066.800811,-1608.800546
553.071932,-1702.473667,-10362.883188,-536.266849
553.072257,-370.102971,-9326.594869,-1072.533697
553.072581,148.041188,-8586.388927,-229.828649
553.072905,518.144159,-8808.450710,383.047749
553.073229,1258.350101,-9252.574275,-459.657299
553.073553,1110.308913,-8882.471304,-459.657299
553.073878,592.164754,-9326.594869,0.000000
553.074202,518.144159,-9992.780217,0.000000
553.074526,740.205942,-10288.862594,-306.438199
553.074850,0.000000,-11399.171507,842.705048
553.075174,-1776.494261,-12139.377449,-842.705048
553.075499,-3108.864956,-11473.192101,-536.266849
553.075823,-4663.297435,-9770.718434,-842.705048
553.076147,-3330.926739,-9696.697840,-383.047749
553.076471,-1184.329507,-9622.677246,153.219100
553.076795,0.000000,-9474.636058,1302.362347
553.077120,666.185348,-8586.388927,1378.971896
553.077444,740.205942,-7254.018232,459.657299
553.077768,148.041188,-7550.100608,229.828649
553.078092,296.082377,-8956.491898,0.000000
553.078416,1554.432478,-9474.636058,229.828649
553.078741,1924.535449,-9474.636058,1072.533697
553.079065,1406.391290,-10436.903782,1685.410096
553.079389,444.123565,-10807.006753,612.876398
553.079713,-222.061783,-10066.800811,-229.828649
553.080037,-740.205942,-9474.636058,689.485948
553.080362,-444.123565,-9992.780217,536.266849
553.080686,518.144159,-9252.574275,459.657299
553.081010,1258.350101,-8290.306550,1685.410096
553.081334,1184.329507,-7772.162391,842.705048
553.081658,1036.288319,-7994.224174,-689.485948
553.081983,888.247130,-8512.368333,-153.219100
553.082307,1332.370696,-9474.636058,919.314598
553.082631,2368.659014,-9770.718434,459.657299
553.082955,1998.556043,-9474.636058,459.657299
553.083279,74.020594,-10955.047942,1302.362347
553.083604,-592.164754,-13249.686362,459.657299
553.083928,-1406.391290,-12879.583391,0.000000
553.084252,-2220.617826,-11621.233289,842.705048
553.084576,-1628.453072,-10807.006753,383.047749
553.084900,-518.144159,-9844.739029,-306.438199
553.085225,74.020594,-9400.615463,689.485948
553.085549,592.164754,-8586.388927,612.876398
553.085873,592.164754,-8142.265362,-229.828649
553.086197,74.020594,-7846.182985,-306.438199
553.086521,370.102971,-7772.162391,0.000000
553.086846,1554.432478,-7624.121203,-766.095498
553.087170,2072.576638,-8586.388927,-766.095498
553.087494,1332.370696,-10584.944971,459.657299
553.087818,0.000000,-11621.233289,-919.314598
553.088142,-592.164754,-10436.903782,-612.876398
553.088467,-1258.350101,-9696.697840,-459.657299
553.088791,-1332.370696,-9992.780217,-842.705048
553.089115,-148.041188,-10436.903782,-459.657299
553.089439,1184.329507,-10288.862594,459.657299
553.089764,2072.576638,-10214.842000,76.609550
553.090088,2294.638420,-9400.615463,-153.219100
553.090412,1036.288319,-9104.533087,-536.266849
553.090736,222.061783,-9178.553681,-536.266849
553.091060,444.123565,-9844.739029,-1149.143247
553.091385,370.102971,-10732.986159,-459.657299
553.091709,-1480.411884,-11843.295072,-612.876398
553.092033,-3478.967927,-11325.150913,-1685.410096
553.092357,-4515.256246,-10214.842000,-1762.019645
553.092681,-4367.215058,-10362.883188,-1991.848295
553.093006,-2738.761985,-10214.842000,-1762.019645
553.093330,-1406.391290,-9474.636058,-229.828649
553.093654,0.000000,-9178.553681,459.657299
553.093978,222.061783,-7994.224174,0.000000
553.094302,370.102971,-7328.038826,-306.438199
553.094627,0.000000,-7328.038826,0.000000
553.094951,1110.308913,-8438.347739,0.000000
553.095275,2368.659014,-8068.244768,0.000000
553.095599,1924.535449,-8660.409521,306.438199
553.095923,740.205942,-9474.636058,0.000000
553.096248,-1036.288319,-10436.903782,-995.924147
553.096572,-2442.679609,-9918.759623,-842.705048
553.096896,-3552.988522,-9770.718434,-919.314598
553.097220,-2960.823768,-9548.656652,-919.314598
553.097544,-1628.453072,-9474.636058,-306.438199
553.097869,-592.164754,-9252.574275,536.266849
553.098193,-518.144159,-8512.368333,76.609550
553.098517,0.000000,-8808.450710,0.000000
553.098841,74.020594,-9992.780217,459.657299
553.099165,1258.350101,-9844.739029,0.000000
553.099490,2812.782580,-9770.718434,842.705048
553.099814,2368.659014,-11473.192101,1685.410096
553.100138,1332.370696,-12583.501014,306.438199
553.100462,-296.082377,-11843.295072,0.000000
553.100786,-1258.350101,-10732.986159,306.438199
553.101111,-1258.350101,-11103.089130,-306.438199
553.101435,370.102971,-10510.924376,-766.095498
553.101759,1036.288319,-9326.594869,229.828649
553.102083,1406.391290,-8882.471304,229.828649
553.102407,1110.308913,-9178.553681,-612.876398
553.102732,518.144159,-8586.388927,-229.828649
553.103056,370.102971,-8660.409521,306.438199
553.103380,2072.576638,-8734.430116,306.438199
553.103704,2590.720797,-8512.368333,689.485948
553.104028,1924.535449,-9400.615463,1149.143247
553.104353,666.185348,-10658.965565,383.047749
553.104677,-740.205942,-10732.986159,-612.876398
553.105001,-1924.535449,-10658.965565,612.876398
553.105325,-1480.411884,-10658.965565,153.219100
553.105649,74.020594,-10362.883188,76.609550
553.105974,740.205942,-9992.780217,536.266849
553.106298,444.123565,-9696.697840,459.657299
553.106622,444.123565,-9030.512492,-612.876398
553.106946,74.020594,-8660.409521,-612.876398
553.107270,592.164754,-8660.409521,0.000000
553.107595,1998.556043,-8290.306550,-153.219100
553.107919,2590.720797,-8216.285956,-306.438199
553.108243,1406.391290,-9474.636058,689.485948
553.108567,-592.164754,-9844.739029,-229.828649
553.108891,-962.267725,-10362.883188,-459.657299
553.109216,-1332.370696,-10436.903782,383.047749
553.109540,-1036.288319,-10362.883188,76.609550
553.109864,222.061783,-9400.615463,153.219100
553.110188,74.020594,-8512.368333,919.314598
553.110512,370.102971,-9696.697840,383.047749
553.110837,740.205942,-9474.636058,-383.047749
553.111161,1110.308913,-9030.512492,229.828649
553.111485,1184.329507,-8808.450710,383.047749
553.111809,1702.473667,-8142.265362,-689.485948
553.112133,1258.350101,-8438.347739,153.219100
553.112458,0.000000,-10288.862594,229.828649
553.112782,-1480.411884,-10955.047942,-995.924147
553.113106,-3256.906145,-10658.965565,-153.219100
553.113430,-3849.070898,-10732.986159,459.657299
553.113755,-3775.050304,-10140.821405,-229.828649
553.114079,-3108.864956,-9474.636058,-306.438199
553.114403,-3478.967927,-9770.718434,689.485948
553.114727,-3034.844362,-10140.821405,612.876398
553.115051,-2516.700203,-9622.677246,-153.219100
553.115376,-1850.514855,-8142.265362,919.314598
553.115700,-592.164754,-7105.977043,0.000000
553.116024,1110.308913,-7624.121203,-459.657299
553.116348,1850.514855,-9030.512492,229.828649
553.116672,1924.535449,-10510.924376,0.000000
553.116997,1110.308913,-10362.883188,0.000000
553.117321,74.020594,-9770.718434,-229.828649
553.117645,-592.164754,-9844.739029,-229.828649
553.117969,-148.041188,-10510.924376,-1225.752797
553.118293,-592.164754,-10510.924376,-306.438199
553.118618,-1776.494261,-11621.233289,229.828649
553.118942,-2368.659014,-11029.068536,-459.657299
553.119266,-2368.659014,-8882.471304,-995.924147
553.119590,-1850.514855,-7846.182985,459.657299
553.119914,666.185348,-8956.491898,-153.219100
553.120239,2664.741391,-10362.883188,306.438199
553.120563,3849.070898,-9622.677246,995.924147
553.120887,3849.070898,-9400.615463,153.219100
553.121211,2516.700203,-9400.615463,-1149.143247
553.121535,518.144159,-9844.739029,-1838.629195
553.121860,-592.164754,-10807.006753,-995.924147
553.122184,222.061783,-11843.295072,-995.924147
553.122508,1184.329507,-11769.274478,-1072.533697
553.122832,1406.391290,-11103.089130,0.000000
553.123156,962.267725,-9844.739029,-995.924147
553.123481,592.164754,-9474.636058,-995.924147
553.123805,0.000000,-9178.553681,-459.657299
553.124129,296.082377,-8512.368333,0.000000
553.124453,1998.556043,-8068.244768,383.047749
553.124777,3182.885551,-7772.162391,1225.752797
553.125102,2886.803174,-8364.327145,766.095498
553.125426,1702.473667,-9030.512492,0.000000
553.125750,-592.164754,-10510.924376,-383.047749
553.126074,-1332.370696,-11029.068536,-995.924147
553.126398,-1110.308913,-10288.862594,-1378.971896
553.126723,-814.226536,-10955.047942,-229.828649
553.127047,-1628.453072,-11843.295072,-153.219100
553.127371,-2368.659014,-10807.006753,-1149.143247
553.127695,-3256.906145,-9622.677246,-1302.362347
553.128019,-2442.679609,-9400.615463,-766.095498
553.128344,-962.267725,-9252.574275,-689.485948
553.128668,1036.288319,-9178.553681,383.047749
553.128992,1702.473667,-8808.450710,1225.752797
553.129316,1110.308913,-8512.368333,1378.971896
553.129640,370.102971,-8586.388927,612.876398
553.129965,222.061783,-9030.512492,766.095498
553.130289,1406.391290,-9474.636058,153.219100
553.130613,1850.514855,-9548.656652,0.000000
553.130937,1184.329507,-9770.718434,229.828649
553.131261,592.164754,-10584.944971,689.485948
553.131586,222.061783,-10362.883188,-229.828649
553.131910,-888.247130,-9474.636058,-383.047749
553.132234,-1998.556043,-9474.636058,-153.219100
553.132558,-888.247130,-9400.615463,-383.047749
553.132882,518.144159,-9992.780217,459.657299
553.133207,148.041188,-9770.718434,919.314598
553.133531,0.000000,-9770.718434,1072.533697
553.133855,-592.164754,-9474.636058,76.609550
553.134179,-1480.411884,-9770.718434,306.438199
553.134503,-1406.391290,-10436.903782,229.828649
553.134828,-1110.308913,-10066.800811,153.219100
553.135152,-1702.473667,-10510.924376,-306.438199
553.135476,-2072.576638,-10807.006753,995.924147
553.135800,-2368.659014,-10584.944971,153.219100
553.136124,-2072.576638,-9992.780217,-153.219100
553.136449,-2146.597232,-9622.677246,0.000000
553.136773,-666.185348,-8734.430116,153.219100
553.137097,740.205942,-8882.471304,612.876398
553.137421,1184.329507,-9696.697840,919.314598
553.137746,518.144159,-9252.574275,689.485948
553.138070,0.000000,-8586.388927,229.828649
553.138394,-296.082377,-7698.141797,153.219100
553.138718,592.164754,-8586.388927,-153.219100
553.139042,1184.329507,-8734.430116,0.000000
553.139367,296.082377,-9474.636058,536.266849
553.139691,-1184.329507,-9770.718434,-612.876398
553.140015,-2368.659014,-8660.409521,-1149.143247
553.140339,-2886.803174,-8290.306550,-689.485948
553.140663,-2812.782580,-8882.471304,-1225.752797
553.140988,-1036.288319,-8734.430116,-1225.752797
553.141312,-222.061783,-7772.162391,-612.876398
553.141636,814.226536,-8290.306550,-306.438199
553.141960,1332.370696,-9474.636058,-1378.971896
553.142284,592.164754,-9326.594869,-1685.410096
553.142609,0.000000,-9548.656652,-1072.533697
553.142933,-296.082377,-10214.842000,-1455.581446
553.143257,-296.082377,-11029.068536,-2221.676944
553.143581,-888.247130,-12065.356855,-1532.190996
553.143905,-1628.453072,-12361.439231,-2451.505594
553.144230,-2072.576638,-11547.212695,-2987.772442
553.144554,-1776.494261,-11325.150913,-2528.115143
553.144878,-1480.411884,-11029.068536,-1762.019645
553.145202,0.000000,-10362.883188,-2374.896044
553.145526,740.205942,-9030.512492,-1915.238745
553.145851,1406.391290,-9400.615463,-1455.581446
553.146175,888.247130,-9918.759623,-2221.676944
553.146499,-740.205942,-9548.656652,-2451.505594
553.146823,-2368.659014,-9770.718434,-1838.629195
553.147147,-2664.741391,-9918.759623,-3140.991542
553.147472,-2516.700203,-8734.430116,-4673.182538
553.147796,-3627.009116,-8216.285956,-3753.867940
553.148120,-4959.379811,-10881.027347,-3600.648841
553.148444,-5255.462188,-11769.274478,-4596.572988
553.148768,-5329.482782,-10362.883188,-3907.087040
553.149093,-4811.338623,-9696.697840,-2451.505594
553.149417,-2368.659014,-10066.800811,-2221.676944
553.149741,370.102971,-9918.759623,-1838.629195
553.150065,1036.288319,-9400.615463,-995.924147
553.150389,1554.432478,-9696.697840,-459.657299
553.150714,1110.308913,-11769.274478,-1608.800546
553.151038,0.000000,-10955.047942,-1838.629195
553.151362,-1406.391290,-9252.574275,-2604.724693
553.151686,-2664.741391,-9474.636058,-2604.724693
553.152010,-3627.009116,-11103.089130,-3524.039291
553.152335,-4367.215058,-11251.130318,-3217.601092
553.152659,-4441.235652,-9770.718434,-2451.505594
553.152983,-3701.029710,-9474.636058,-1302.362347
553.153307,-3330.926739,-9622.677246,-2528.115143
553.153631,-4441.235652,-9030.512492,-2374.896044
553.153956,-5181.441594,-7254.018232,-1991.848295
553.154280,-4515.256246,-7846.182985,-1838.629195
553.154604,-3330.926739,-9252.574275,-1685.410096
553.154928,-1776.494261,-8734.430116,-995.924147
553.155252,-888.247130,-7328.038826,-383.047749
553.155577,-148.041188,-7624.121203,-689.485948
553.155901,740.205942,-9030.512492,-1378.971896
553.156225,-814.226536,-9326.594869,-1608.800546
553.156549,-2738.761985,-9400.615463,-1378.971896
553.156873,-4071.132681,-10214.842000,-1302.362347
553.157198,-3034.844362,-11029.068536,-1991.848295
553.157522,-2442.679609,-11029.068536,-1608.800546
553.157846,-2664.741391,-11029.068536,-612.876398
553.158170,-2368.659014,-11029.068536,-1608.800546
553.158494,-1776.494261,-10362.883188,-1762.019645
553.158818,-1480.411884,-8882.471304,-1149.143247
553.159143,-1406.391290,-9252.574275,-1225.752797
553.159467,-2590.720797,-10288.862594,-1762.019645
553.159791,-1998.556043,-9770.718434,-1532.190996
553.160115,-1554.432478,-7105.977043,-842.705048
553.160439,-1628.453072,-7550.100608,-1378.971896
553.160763,-2146.597232,-9622.677246,-2145.067394
553.161087,-2738.761985,-10881.027347,-1532.190996
553.161412,-2072.576638,-9326.594869,-1302.362347
553.161736,-1702.473667,-8216.285956,-1455.581446
553.162060,-1850.514855,-9474.636058,-1685.410096
553.162384,-3256.906145,-10881.027347,-1532.190996
553.162708,-4071.132681,-10436.903782,-2374.896044
553.163032,-4737.318029,-9326.594869,-2757.943793
553.163356,-4219.173869,-9030.512492,-2757.943793
553.163681,-2664.741391,-9548.656652,-2298.286494
553.164005,-1110.308913,-10362.883188,-1685.410096
553.164329,0.000000,-10584.944971,-2145.067394
553.164653,-222.061783,-10362.883188,-2374.896044
553.164977,-888.247130,-11325.150913,-2451.505594
553.165301,-1628.453072,-11547.212695,-2451.505594
553.165625,-444.123565,-10584.944971,-2604.724693
553.165950,222.061783,-9622.677246,-2298.286494
553.166274,-296.082377,-10807.006753,-2221.676944
553.166598,-2590.720797,-11843.295072,-2757.943793
553.166922,-4589.276840,-10807.006753,-2681.334243
553.167246,-4293.194464,-8660.409521,-2528.115143
553.167570,-3701.029710,-7254.018232,-3447.429741
553.167895,-2590.720797,-8438.347739,-3217.601092
553.168219,-1628.453072,-9548.656652,-2298.286494
553.168543,-1406.391290,-9252.574275,-2221.676944
553.168867,-1850.514855,-8068.244768,-2374.896044
553.169191,-2072.576638,-7698.141797,-2298.286494
553.169515,-1184.329507,-7698.141797,-2221.676944
553.169839,888.247130,-8660.409521,-1378.971896
553.170164,1332.370696,-10066.800811,-1762.019645
553.170488,444.123565,-11547.212695,-2145.067394
553.170812,-1184.329507,-13249.686362,-1991.848295
553.171136,-2664.741391,-13249.686362,-2221.676944
553.171460,-4441.235652,-11325.150913,-2374.896044
553.171784,-5625.565159,-9326.594869,-2681.334243
553.172108,-4589.276840,-9326.594869,-3294.210641
553.172433,-3108.864956,-9400.615463,-2757.943793
553.172757,-1110.308913,-8438.347739,-2528.115143
553.173081,-518.144159,-7254.018232,-1532.190996
553.173405,-666.185348,-7846.182985,-2145.067394
553.173729,-1036.288319,-8882.471304,-1915.238745
553.174053,-2664.741391,-9474.636058,-1685.410096
553.174377,-4441.235652,-9548.656652,-1608.800546
553.174702,-4811.338623,-9992.780217,-2221.676944
553.175026,-4145.153275,-10288.862594,-1915.238745
553.175350,-2072.576638,-9992.780217,-1149.143247
553.175674,444.123565,-9770.718434,-689.485948
553.175998,1036.288319,-10066.800811,-919.314598
553.176322,222.061783,-9992.780217,-1608.800546
553.176646,-1332.370696,-9770.718434,-1838.629195
553.176971,-3330.926739,-10214.842000,-2528.115143
553.177295,-5033.400406,-11251.130318,-2987.772442
553.177619,-5107.421000,-11325.150913,-2374.896044
553.177943,-4145.153275,-10362.883188,-2604.724693
553.178267,-2442.679609,-9770.718434,-1991.848295
553.178591,-2072.576638,-8734.430116,-2298.286494
553.178915,-1998.556043,-7920.203579,-2604.724693
553.179240,-1776.494261,-7772.162391,-2604.724693
553.179564,-2368.659014,-8956.491898,-2834.553343
553.179888,-2368.659014,-9918.759623,-2068.457845
553.180212,-2072.576638,-9992.780217,-1915.238745
553.180536,-2294.638420,-9326.594869,-1072.533697
553.180860,-2368.659014,-9622.677246,-995.924147
553.181185,-2664.741391,-10732.986159,-1685.410096
553.181509,-2886.803174,-11547.212695,-1608.800546
553.181833,-2516.700203,-11769.274478,-1532.190996
553.182157,-2368.659014,-11769.274478,-1685.410096
553.182481,-1480.411884,-10732.986159,-1608.800546
553.182805,-740.205942,-9474.636058,-1455.581446
553.183129,-370.102971,-8364.327145,-1838.629195
553.183454,-1184.329507,-7550.100608,-2987.772442
553.183778,-1184.329507,-7476.080014,-3370.820191
553.184102,-1332.370696,-7920.203579,-3217.601092
553.184426,-1258.350101,-8438.347739,-2451.505594
553.184750,-2294.638420,-9548.656652,-2451.505594
553.185074,-3849.070898,-9770.718434,-2604.724693
553.185398,-5773.606348,-9844.739029,-2528.115143
553.185723,-5699.585753,-10140.821405,-3064.381992
553.186047,-5107.421000,-11251.130318,-2451.505594
553.186371,-2886.803174,-12139.377449,-1532.190996
553.186695,-592.164754,-11843.295072,-919.314598
553.187019,814.226536,-10584.944971,-689.485948
553.187343,1480.411884,-9252.574275,0.000000
553.187667,1776.494261,-9400.615463,-1225.752797
553.187992,1850.514855,-9548.656652,-1762.019645
553.188316,2368.659014,-9178.553681,-1685.410096
553.188640,2812.782580,-9252.574275,-995.924147
553.188964,2294.638420,-9992.780217,-1455.581446
553.189288,0.000000,-9622.677246,-1302.362347
553.189612,-3108.864956,-9548.656652,-1685.410096
553.189936,-5551.544565,-10732.986159,-2987.772442
553.190261,-7031.956449,-10807.006753,-3217.601092
553.190585,-8364.327145,-10066.800811,-3217.601092
553.190909,-7624.121203,-9178.553681,-2451.505594
553.191233,-5477.523971,-8290.306550,-2068.457845
553.191557,-2812.782580,-8068.244768,-1608.800546
553.191881,-518.144159,-7994.224174,-306.438199
553.192205,1406.391290,-8734.430116,689.485948
553.192530,2294.638420,-8808.450710,536.266849
553.192854,2886.803174,-9178.553681,919.314598
553.193178,2220.617826,-9030.512492,0.000000
553.193502,1332.370696,-9770.718434,-612.876398
553.193826,0.000000,-11325.150913,-1302.362347
553.194150,-1480.411884,-11399.171507,-2145.067394
553.194475,-3256.906145,-10362.883188,-2221.676944
553.194799,-5551.544565,-9844.739029,-2451.505594
553.195123,-7179.997637,-8882.471304,-3524.039291
553.195447,-8364.327145,-8216.285956,-4060.306139
553.195771,-7920.203579,-8438.347739,-4136.915689
553.196095,-6291.750507,-8660.409521,-2757.943793
553.196419,-3849.070898,-9178.553681,-2145.067394
553.196744,-1628.453072,-9178.553681,-919.314598
553.197068,0.000000,-9252.574275,-689.485948
553.197392,1406.391290,-9326.594869,-689.485948
553.197716,1776.494261,-10807.006753,-919.314598
553.198040,1628.453072,-11473.192101,-1302.362347
553.198364,1184.329507,-11473.192101,-1532.190996
553.198688,592.164754,-11473.192101,-1838.629195
553.199013,-1184.329507,-11325.150913,-2911.162892
553.199337,-3552.988522,-10807.006753,-4213.525239
553.199661,-5847.626942,-10510.924376,-4749.792088
553.199985,-7698.141797,-9696.697840,-5286.058936
553.200309,-8660.409521,-8586.388927,-5975.544884
553.200633,-7402.059420,-8068.244768,-5209.449386
553.200957,-5033.400406,-7254.018232,-4596.572988
553.201282,-2516.700203,-8068.244768,-3677.258390
553.201606,-814.226536,-8438.347739,-2757.943793
553.201930,444.123565,-9548.656652,-2221.676944
553.202254,370.102971,-9992.780217,-1685.410096
553.202578,148.041188,-11103.089130,-1685.410096
553.202902,0.000000,-12361.439231,-1532.190996
553.203226,-592.164754,-13471.748144,-1685.410096
553.203551,-1110.308913,-13619.789333,-2068.457845
553.203875,-1554.432478,-13101.645173,-2757.943793
553.204199,-2146.597232,-11029.068536,-2987.772442
553.204523,-2738.761985,-9622.677246,-4673.182538
553.204847,-2738.761985,-8438.347739,-4596.572988
553.205171,-2072.576638,-7772.162391,-4519.963438
