#time,accel_x,accel_y,accel_z
882.653459,148.041188,-9474.636058,0.000000
882.653784,0.000000,-9770.718434,0.000000
882.654108,0.000000,-9918.759623,-229.828649
882.654432,0.000000,-9696.697840,-229.828649
882.654757,0.000000,-9548.656652,-153.219100
882.655081,222.061783,-9770.718434,76.609550
882.655405,0.000000,-9770.718434,-153.219100
882.655729,0.000000,-9770.718434,0.000000
882.656054,-296.082377,-9474.636058,-383.047749
882.656378,-592.164754,-9918.759623,0.000000
882.656702,-222.061783,-9992.780217,-153.219100
882.657027,-370.102971,-9474.636058,76.609550
882.657351,0.000000,-9770.718434,153.219100
882.657675,0.000000,-9474.636058,536.266849
882.657999,0.000000,-9696.697840,0.000000
882.658324,-148.041188,-9696.697840,0.000000
882.658648,-444.123565,-9844.739029,0.000000
882.658972,-296.082377,-9770.718434,0.000000
882.659297,-444.123565,-9474.636058,-229.828649
882.659621,-370.102971,-9474.636058,0.000000
882.659945,-296.082377,-9770.718434,76.609550
882.660270,148.041188,-9474.636058,229.828649
882.660594,148.041188,-9992.780217,-153.219100
882.660918,0.000000,-9770.718434,0.000000
882.661242,-148.041188,-9548.656652,0.000000
882.661567,0.000000,-9622.677246,0.000000
882.661891,0.000000,-9474.636058,-536.266849
882.662215,0.000000,-9326.594869,229.828649
882.662540,222.061783,-9770.718434,0.000000
882.662864,0.000000,-9918.759623,459.657299
882.663188,148.041188,-9548.656652,0.000000
882.663512,0.000000,-9770.718434,153.219100
882.663837,0.000000,-9770.718434,-383.047749
882.664161,0.000000,-9918.759623,-153.219100
882.664485,0.000000,-9918.759623,459.657299
882.664810,444.123565,-10066.800811,766.095498
882.665134,-148.041188,-9844.739029,153.219100
882.665458,-148.041188,-9622.677246,229.828649
882.665782,-592.164754,-9770.718434,383.047749
882.666107,-518.144159,-10066.800811,0.000000
882.666431,-814.226536,-9326.594869,76.609550
882.666755,-888.247130,-8734.430116,0.000000
882.667080,-518.144159,-8882.471304,766.095498
882.667404,370.102971,-9326.594869,306.438199
882.667728,222.061783,-9622.677246,995.924147
882.668053,-518.144159,-10066.800811,689.485948
882.668377,-1036.288319,-10436.903782,383.047749
882.668701,-1850.514855,-10584.944971,612.876398
882.669025,-2294.638420,-10732.986159,766.095498
882.669350,-2516.700203,-10881.027347,689.485948
882.669674,-2368.659014,-10658.965565,766.095498
882.669998,-1850.514855,-9474.636058,459.657299
882.670323,-1480.411884,-9104.533087,919.314598
882.670647,-518.144159,-9030.512492,1225.752797
882.670971,0.000000,-9252.574275,1378.971896
882.671295,-740.205942,-9474.636058,1149.143247
882.671620,-1776.494261,-9474.636058,1455.581446
882.671944,-2664.741391,-9770.718434,1149.143247
882.672268,-3034.844362,-10436.903782,995.924147
882.672593,-3330.926739,-9992.780217,2068.457845
882.672917,-3330.926739,-10658.965565,1915.238745
882.673241,-3182.885551,-10732.986159,1762.019645
882.673565,-2812.782580,-9992.780217,2068.457845
882.673890,-1850.514855,-9104.533087,1991.848295
882.674214,-1332.370696,-8586.388927,2145.067394
882.674538,-666.185348,-8660.409521,2145.067394
882.674863,-740.205942,-9400.615463,2528.115143
882.675187,-1332.370696,-9326.594869,2298.286494
882.675511,-1776.494261,-9474.636058,1915.238745
882.675836,-2886.803174,-9918.759623,2451.505594
882.676160,-3923.091493,-10510.924376,1991.848295
882.676484,-4367.215058,-10436.903782,2604.724693
882.676808,-5107.421000,-10214.842000,3064.381992
882.677133,-5403.503377,-10214.842000,2911.162892
882.677457,-5329.482782,-9844.739029,2757.943793
882.677781,-5255.462188,-9400.615463,2834.553343
882.678106,-4515.256246,-9622.677246,3064.381992
882.678430,-2812.782580,-10066.800811,3524.039291
882.678754,-888.247130,-9844.739029,4290.134789
882.679078,444.123565,-8660.409521,4749.792088
882.679403,1406.391290,-8882.471304,5286.058936
882.679727,1258.350101,-8216.285956,3983.696590
882.680051,962.267725,-8364.327145,3294.210641
882.680376,0.000000,-8660.409521,3294.210641
882.680700,-1332.370696,-8808.450710,2681.334243
882.681024,-3182.885551,-8364.327145,1838.629195
882.681348,-4589.276840,-7698.141797,229.828649
882.681673,-6883.915261,-9178.553681,0.000000
882.681997,-7550.100608,-11917.315666,919.314598
882.682321,-5625.565159,-11843.295072,1225.752797
882.682646,-3256.906145,-10066.800811,3140.991542
882.682970,-666.185348,-8586.388927,4673.182538
882.683294,2146.597232,-8660.409521,4596.572988
882.683619,4145.153275,-9548.656652,4519.963438
882.683943,4737.318029,-9474.636058,4903.011187
882.684267,4441.235652,-9918.759623,4519.963438
882.684591,2590.720797,-10140.821405,3140.991542
882.684916,-518.144159,-8586.388927,1302.362347
882.685240,-3997.112087,-8068.244768,76.609550
882.685564,-6439.791695,-9548.656652,-1532.190996
882.685889,-7179.997637,-11177.109724,-2451.505594
882.686213,-6217.729913,-11103.089130,-1762.019645
882.686537,-3849.070898,-9474.636058,-229.828649
882.686861,-1554.432478,-8808.450710,536.266849
882.687186,-1702.473667,-9104.533087,995.924147
882.687510,-2664.741391,-9474.636058,1915.238745
882.687834,-2812.782580,-10362.883188,1455.581446
882.688159,-1998.556043,-11843.295072,2528.115143
882.688483,370.102971,-12361.439231,4136.915689
882.688807,4663.297435,-12065.356855,4673.182538
882.689131,6439.791695,-11399.171507,4443.353888
882.689456,4589.276840,-10881.027347,2911.162892
882.689780,370.102971,-10436.903782,1455.581446
882.690104,-3330.926739,-9474.636058,0.000000
882.690429,-5181.441594,-8142.265362,-1532.190996
882.690753,-6217.729913,-6661.853478,-2834.553343
882.691077,-6735.874072,-7624.121203,-2145.067394
882.691401,-6439.791695,-11473.192101,-1072.533697
882.691726,-4811.338623,-12213.398043,-995.924147
882.692050,-5625.565159,-10288.862594,-842.705048
882.692374,-7105.977043,-8438.347739,766.095498
882.692699,-5477.523971,-7846.182985,459.657299
882.693023,-3034.844362,-9104.533087,919.314598
882.693347,-296.082377,-11103.089130,2834.553343
882.693672,2516.700203,-12731.542202,3907.087040
882.693996,2368.659014,-12583.501014,3907.087040
882.694320,1036.288319,-11177.109724,3830.477490
882.694644,148.041188,-9178.553681,3370.820191
882.694969,-888.247130,-8512.368333,1915.238745
882.695293,-1850.514855,-9104.533087,1072.533697
882.695617,-2738.761985,-9770.718434,536.266849
882.695942,-3775.050304,-9178.553681,459.657299
882.696266,-3997.112087,-7994.224174,536.266849
882.696590,-3627.009116,-7550.100608,1608.800546
882.696914,-2664.741391,-7772.162391,1455.581446
882.697239,-3034.844362,-7402.059420,1072.533697
882.697563,-4589.276840,-9030.512492,919.314598
882.697887,-6143.709319,-10214.842000,1378.971896
882.698212,-4441.235652,-10288.862594,1838.629195
882.698536,-1110.308913,-8660.409521,2145.067394
882.698860,740.205942,-8216.285956,1378.971896
882.699184,-592.164754,-10436.903782,1838.629195
882.699509,0.000000,-12435.459826,2834.553343
882.699833,518.144159,-11991.336260,2757.943793
882.700157,962.267725,-10066.800811,3447.429741
882.700482,1702.473667,-8956.491898,2911.162892
882.700806,1628.453072,-9548.656652,2298.286494
882.701130,-888.247130,-9992.780217,2221.676944
882.701455,-2072.576638,-10362.883188,2681.334243
882.701779,-1924.535449,-9844.739029,2374.896044
882.702103,-2368.659014,-8364.327145,1532.190996
882.702427,-4589.276840,-7105.977043,1072.533697
882.702752,-5625.565159,-7698.141797,1225.752797
882.703076,-5033.400406,-9400.615463,1532.190996
882.703400,-3330.926739,-10732.986159,612.876398
882.703725,-2146.597232,-9474.636058,383.047749
882.704049,-1110.308913,-8364.327145,1149.143247
882.704373,444.123565,-9400.615463,1608.800546
882.704697,2368.659014,-10658.965565,2451.505594
882.705022,3034.844362,-11547.212695,2451.505594
882.705346,2368.659014,-11325.150913,1532.190996
882.705670,2368.659014,-11251.130318,2221.676944
882.705995,2368.659014,-11103.089130,2757.943793
882.706319,2812.782580,-10732.986159,3370.820191
882.706643,592.164754,-10288.862594,1762.019645
882.706967,-2960.823768,-9918.759623,1072.533697
882.707292,-3775.050304,-8956.491898,689.485948
882.707616,-1406.391290,-7550.100608,76.609550
882.707940,-222.061783,-6291.750507,-153.219100
882.708265,-2294.638420,-6661.853478,-1072.533697
882.708589,-3182.885551,-7772.162391,-2068.457845
882.708913,-740.205942,-7550.100608,-1685.410096
882.709238,2368.659014,-8216.285956,-1838.629195
882.709562,2886.803174,-9474.636058,-689.485948
882.709886,1332.370696,-10881.027347,-229.828649
882.710210,740.205942,-11621.233289,0.000000
882.710535,1258.350101,-11843.295072,766.095498
882.710859,1554.432478,-11695.253884,536.266849
882.711183,0.000000,-12213.398043,229.828649
882.711508,74.020594,-11843.295072,766.095498
882.711832,2072.576638,-10066.800811,995.924147
882.712156,3849.070898,-8808.450710,536.266849
882.712480,1924.535449,-8734.430116,-153.219100
882.712805,-1628.453072,-9030.512492,-1378.971896
882.713129,-2368.659014,-8660.409521,-2451.505594
882.713453,-1628.453072,-7624.121203,-3140.991542
882.713777,-2072.576638,-9030.512492,-3677.258390
882.714102,-3182.885551,-9918.759623,-3140.991542
882.714426,-1998.556043,-10732.986159,-2757.943793
882.714750,296.082377,-10658.965565,-2451.505594
882.715074,296.082377,-10362.883188,-1455.581446
882.715398,-1406.391290,-10807.006753,76.609550
882.715722,-1702.473667,-10362.883188,153.219100
882.716046,296.082377,-9844.739029,766.095498
882.716370,1480.411884,-8882.471304,842.705048
882.716694,1776.494261,-10140.821405,1762.019645
882.717018,2368.659014,-11991.336260,1915.238745
882.717342,3478.967927,-11177.109724,1455.581446
882.717667,2368.659014,-7920.203579,306.438199
882.717991,-1258.350101,-6661.853478,-1838.629195
882.718315,-4663.297435,-8734.430116,-2834.553343
882.718639,-5181.441594,-11473.192101,-3217.601092
882.718963,-2738.761985,-11251.130318,-4213.525239
882.719287,-2442.679609,-10214.842000,-2374.896044
882.719611,-2738.761985,-9844.739029,-842.705048
882.719935,-1406.391290,-9474.636058,-1225.752797
882.720259,222.061783,-8882.471304,-689.485948
882.720583,0.000000,-8734.430116,0.000000
882.720907,0.000000,-10288.862594,919.314598
882.721232,666.185348,-11621.233289,2068.457845
882.721556,2738.761985,-9992.780217,2834.553343
882.721880,4145.153275,-7920.203579,3217.601092
882.722204,2812.782580,-8808.450710,1915.238745
882.722528,1554.432478,-10658.965565,766.095498
882.722852,2146.597232,-10955.047942,842.705048
882.723176,1776.494261,-9622.677246,-612.876398
882.723500,-666.185348,-8734.430116,-842.705048
882.723824,-2812.782580,-8956.491898,-1532.190996
882.724148,-2664.741391,-9030.512492,-1455.581446
882.724472,-1184.329507,-9104.533087,-2221.676944
882.724797,-888.247130,-8882.471304,-1608.800546
882.725121,-370.102971,-7846.182985,229.828649
882.725445,2220.617826,-8068.244768,1455.581446
882.725769,3775.050304,-8438.347739,1532.190996
882.726093,1998.556043,-9474.636058,2068.457845
882.726417,-296.082377,-10807.006753,2221.676944
882.726741,0.000000,-11473.192101,1915.238745
882.727065,370.102971,-10436.903782,1685.410096
882.727389,888.247130,-9548.656652,2221.676944
882.727713,1258.350101,-10288.862594,1762.019645
882.728037,1628.453072,-11325.150913,842.705048
882.728362,1480.411884,-9992.780217,612.876398
882.728686,296.082377,-9252.574275,-306.438199
882.729010,-1702.473667,-9918.759623,-1225.752797
882.729334,-3256.906145,-9770.718434,-1225.752797
882.729658,-2516.700203,-9178.553681,-1378.971896
882.729982,-1480.411884,-8438.347739,-1455.581446
882.730306,-1554.432478,-9400.615463,-459.657299
882.730630,-1628.453072,-10658.965565,536.266849
882.730954,-296.082377,-9622.677246,689.485948
882.731278,222.061783,-8660.409521,842.705048
882.731602,-1184.329507,-8660.409521,995.924147
882.731927,-2368.659014,-10510.924376,842.705048
882.732251,-1702.473667,-11103.089130,1225.752797
882.732575,148.041188,-9844.739029,1225.752797
882.732899,666.185348,-9474.636058,689.485948
882.733223,1110.308913,-10510.924376,1072.533697
882.733547,1554.432478,-10288.862594,536.266849
882.733871,1924.535449,-9474.636058,153.219100
882.734195,444.123565,-9548.656652,-229.828649
882.734519,-2072.576638,-10362.883188,-766.095498
882.734843,-2886.803174,-10436.903782,-1149.143247
882.735168,-1924.535449,-8586.388927,-1455.581446
882.735492,-1258.350101,-7846.182985,-995.924147
882.735816,-814.226536,-9030.512492,-612.876398
882.736140,-888.247130,-10140.821405,229.828649
882.736464,-518.144159,-9400.615463,229.828649
882.736788,-148.041188,-7920.203579,76.609550
882.737112,-1110.308913,-8364.327145,229.828649
882.737436,-740.205942,-10066.800811,229.828649
882.737760,444.123565,-10362.883188,919.314598
882.738084,2368.659014,-9474.636058,766.095498
882.738408,3034.844362,-9992.780217,229.828649
882.738733,3108.864956,-10436.903782,766.095498
882.739057,4145.153275,-9992.780217,-153.219100
882.739381,4071.132681,-9474.636058,-536.266849
882.739705,1924.535449,-9770.718434,-536.266849
882.740029,74.020594,-10732.986159,-1225.752797
882.740353,-814.226536,-10066.800811,-995.924147
882.740677,-444.123565,-8660.409521,-1149.143247
882.741001,0.000000,-8290.306550,-1302.362347
882.741325,-814.226536,-10066.800811,-1455.581446
882.741649,-592.164754,-10658.965565,-766.095498
882.741973,296.082377,-9474.636058,-229.828649
882.742298,74.020594,-9030.512492,-229.828649
882.742622,-1258.350101,-9918.759623,0.000000
882.742946,-2368.659014,-10214.842000,153.219100
882.743270,-370.102971,-10140.821405,76.609550
882.743594,740.205942,-10214.842000,229.828649
882.743918,1036.288319,-11473.192101,459.657299
882.744242,1850.514855,-11251.130318,612.876398
882.744566,2812.782580,-9770.718434,0.000000
882.744890,2664.741391,-8808.450710,-766.095498
882.745214,222.061783,-9696.697840,-919.314598
882.745538,-1924.535449,-10436.903782,-1915.238745
882.745863,-1702.473667,-10362.883188,-1685.410096
882.746187,-1332.370696,-8956.491898,-1838.629195
882.746511,-2072.576638,-9030.512492,-1915.238745
882.746835,-2812.782580,-10066.800811,-1608.800546
882.747159,-2146.597232,-9770.718434,-995.924147
882.747483,-814.226536,-9178.553681,-306.438199
882.747807,-1110.308913,-8660.409521,306.438199
882.748131,-2368.659014,-9548.656652,306.438199
882.748455,-1628.453072,-10066.800811,536.266849
882.748779,888.247130,-9918.759623,1302.362347
882.749103,2072.576638,-9326.594869,2068.457845
882.749428,2072.576638,-9844.739029,1685.410096
882.749752,2664.741391,-10066.800811,1762.019645
882.750076,3552.988522,-8364.327145,383.047749
882.750400,3182.885551,-8068.244768,229.828649
882.750724,222.061783,-9178.553681,-919.314598
882.751048,-2442.679609,-10140.821405,-1915.238745
882.751372,-2886.803174,-9252.574275,-2298.286494
882.751696,-1998.556043,-8512.368333,-1838.629195
882.752020,-2220.617826,-9178.553681,-1685.410096
882.752344,-2368.659014,-9992.780217,-459.657299
882.752668,-1110.308913,-9474.636058,689.485948
882.752993,370.102971,-8734.430116,995.924147
882.753317,518.144159,-9400.615463,1455.581446
882.753641,0.000000,-10436.903782,2298.286494
882.753965,296.082377,-9992.780217,2757.943793
882.754289,1554.432478,-9622.677246,2911.162892
882.754613,1628.453072,-9474.636058,2528.115143
882.754937,1480.411884,-10140.821405,2374.896044
882.755261,1184.329507,-10362.883188,1378.971896
882.755585,1184.329507,-9474.636058,306.438199
882.755909,444.123565,-9696.697840,-766.095498
882.756234,-1924.535449,-10436.903782,-1149.143247
882.756558,-3552.988522,-10288.862594,-1685.410096
882.756882,-3330.926739,-9474.636058,-1608.800546
882.757206,-2812.782580,-8734.430116,-1762.019645
882.757530,-2664.741391,-9770.718434,-1225.752797
882.757854,-1702.473667,-10807.006753,383.047749
882.758178,0.000000,-9992.780217,689.485948
882.758502,2072.576638,-8882.471304,1915.238745
882.758826,1554.432478,-9696.697840,2757.943793
882.759150,0.000000,-11103.089130,2987.772442
882.759474,74.020594,-11177.109724,3140.991542
882.759799,518.144159,-10214.842000,2987.772442
882.760123,962.267725,-9770.718434,2145.067394
882.760447,962.267725,-9474.636058,1762.019645
882.760771,1554.432478,-9844.739029,689.485948
882.761095,1776.494261,-9178.553681,-459.657299
882.761419,666.185348,-8882.471304,-1455.581446
882.761743,-1406.391290,-8956.491898,-2374.896044
882.762067,-2294.638420,-9030.512492,-2221.676944
882.762391,-1776.494261,-7698.141797,-2451.505594
882.762715,-666.185348,-8142.265362,-1915.238745
882.763039,-1036.288319,-9548.656652,-1302.362347
882.763364,-148.041188,-10807.006753,0.000000
882.763688,1036.288319,-9548.656652,383.047749
882.764012,1628.453072,-8956.491898,1532.190996
882.764336,814.226536,-10066.800811,1838.629195
882.764660,0.000000,-10510.924376,2604.724693
882.764984,74.020594,-10584.944971,1838.629195
882.765308,1332.370696,-9548.656652,2068.457845
882.765632,2368.659014,-9252.574275,995.924147
882.765956,2960.823768,-9400.615463,229.828649
882.766280,3330.926739,-9326.594869,-229.828649
882.766604,2738.761985,-8438.347739,-1915.238745
882.766929,1406.391290,-8512.368333,-2834.553343
882.767253,-666.185348,-9252.574275,-2834.553343
882.767577,-1554.432478,-9326.594869,-3370.820191
882.767901,-962.267725,-9030.512492,-3064.381992
882.768225,-1110.308913,-9622.677246,-2451.505594
882.768549,-1258.350101,-11177.109724,-1532.190996
882.768873,-370.102971,-11029.068536,-689.485948
882.769197,1332.370696,-9696.697840,536.266849
882.769521,666.185348,-9104.533087,1302.362347
882.769845,-518.144159,-9770.718434,919.314598
882.770169,-1702.473667,-10658.965565,1149.143247
882.770494,-1184.329507,-11473.192101,1762.019645
882.770818,148.041188,-11695.253884,1455.581446
882.771142,1110.308913,-11473.192101,1225.752797
882.771466,1036.288319,-9992.780217,1302.362347
882.771790,1332.370696,-7031.956449,-2604.724693
882.772114,-518.144159,-7402.059420,-4596.572988
882.772438,-3478.967927,-11473.192101,-3524.039291
882.772762,-3404.947333,-12731.542202,-4290.134789
882.773086,-2590.720797,-11103.089130,-3753.867940
882.773410,-2664.741391,-8734.430116,-1762.019645
882.773735,-2368.659014,-8956.491898,-2068.457845
882.774059,-2442.679609,-10732.986159,-2145.067394
882.774383,-1184.329507,-10807.006753,-383.047749
882.774707,1406.391290,-9474.636058,1532.190996
882.775031,3552.988522,-9104.533087,1991.848295
882.775355,1850.514855,-8808.450710,2681.334243
882.775679,1036.288319,-9770.718434,3600.648841
882.776003,1110.308913,-10066.800811,2834.553343
882.776327,1110.308913,-10436.903782,2068.457845
882.776651,666.185348,-10807.006753,2298.286494
882.776975,1554.432478,-7698.141797,153.219100
882.777300,2368.659014,-6291.750507,-1532.190996
882.777624,592.164754,-7994.224174,-1685.410096
882.777948,-1332.370696,-10140.821405,-2374.896044
882.778272,-2368.659014,-10436.903782,-2834.553343
882.778596,-2812.782580,-8290.306550,-2145.067394
882.778920,-2516.700203,-6661.853478,-1378.971896
882.779244,-1628.453072,-8290.306550,-1072.533697
882.779568,-444.123565,-10140.821405,-536.266849
882.779892,1184.329507,-10288.862594,1149.143247
882.780216,2886.803174,-9548.656652,2068.457845
882.780540,2590.720797,-9770.718434,3447.429741
882.780865,1406.391290,-10066.800811,3524.039291
882.781189,518.144159,-9992.780217,3677.258390
882.781513,1406.391290,-10436.903782,2681.334243
882.781837,1110.308913,-11177.109724,1302.362347
882.782161,814.226536,-10584.944971,689.485948
882.782485,1628.453072,-9622.677246,306.438199
882.782809,2664.741391,-8364.327145,-306.438199
882.783133,518.144159,-8660.409521,-1838.629195
882.783457,-2220.617826,-10288.862594,-1991.848295
882.783781,-3701.029710,-10288.862594,-2757.943793
882.784105,-2812.782580,-9030.512492,-2451.505594
882.784430,-2516.700203,-9030.512492,-1225.752797
882.784754,-1702.473667,-9992.780217,-1225.752797
882.785078,-1406.391290,-10288.862594,-306.438199
882.785402,-518.144159,-10658.965565,689.485948
882.785726,888.247130,-9992.780217,1608.800546
882.786050,296.082377,-10658.965565,2451.505594
882.786374,-518.144159,-11399.171507,2451.505594
882.786698,0.000000,-11103.089130,2068.457845
882.787022,1332.370696,-10362.883188,1608.800546
882.787346,1776.494261,-9548.656652,1378.971896
882.787670,1258.350101,-9326.594869,842.705048
882.787995,962.267725,-9252.574275,-459.657299
882.788319,888.247130,-8512.368333,-1225.752797
882.788643,-518.144159,-8142.265362,-995.924147
882.788967,-2590.720797,-9326.594869,-1685.410096
882.789291,-3256.906145,-9400.615463,-1915.238745
882.789615,-2220.617826,-8290.306550,-1915.238745
882.789939,-1628.453072,-7624.121203,-1608.800546
882.790263,-1998.556043,-8734.430116,-1302.362347
882.790587,-1184.329507,-9844.739029,-689.485948
882.790911,1554.432478,-8882.471304,612.876398
882.791235,2442.679609,-8364.327145,1532.190996
882.791560,962.267725,-9770.718434,2221.676944
882.791884,-592.164754,-11325.150913,2068.457845
882.792208,0.000000,-10955.047942,2451.505594
882.792532,1776.494261,-9770.718434,2451.505594
882.792856,2220.617826,-9474.636058,1991.848295
882.793180,2294.638420,-9844.739029,1838.629195
882.793504,2590.720797,-9178.553681,536.266849
882.793828,2664.741391,-8660.409521,0.000000
882.794152,518.144159,-8216.285956,-842.705048
882.794476,-2294.638420,-8586.388927,-2221.676944
882.794801,-3034.844362,-8364.327145,-3370.820191
882.795125,-2368.659014,-7179.997637,-2528.115143
882.795449,-740.205942,-8734.430116,-2298.286494
882.795773,-222.061783,-10362.883188,-1532.190996
882.796097,592.164754,-10362.883188,-612.876398
882.796421,1776.494261,-9474.636058,0.000000
882.796745,1406.391290,-10362.883188,383.047749
882.797069,-296.082377,-11917.315666,1149.143247
882.797393,-888.247130,-13101.645173,1455.581446
882.797717,370.102971,-12435.459826,536.266849
882.798041,1480.411884,-10955.047942,2221.676944
882.798366,1702.473667,-12213.398043,1225.752797
882.798690,2072.576638,-12509.480420,1302.362347
882.799014,2368.659014,-11029.068536,153.219100
882.799338,814.226536,-9844.739029,-1532.190996
882.799662,-1850.514855,-9178.553681,-2604.724693
882.799986,-3404.947333,-9844.739029,-3370.820191
882.800310,-3108.864956,-9696.697840,-3064.381992
882.800634,-1776.494261,-8956.491898,-3524.039291
882.800958,-2072.576638,-8512.368333,-3217.601092
882.801282,-1850.514855,-9696.697840,-2451.505594
882.801606,-296.082377,-9326.594869,-1608.800546
882.801931,1184.329507,-8290.306550,-306.438199
882.802255,740.205942,-8290.306550,919.314598
882.802579,-592.164754,-9104.533087,1532.190996
882.802903,296.082377,-10436.903782,2145.067394
882.803227,2220.617826,-9326.594869,2451.505594
882.803551,3923.091493,-9030.512492,2604.724693
882.803875,3997.112087,-9252.574275,2451.505594
882.804199,3256.906145,-9400.615463,1532.190996
882.804523,2738.761985,-9252.574275,229.828649
882.804847,888.247130,-8290.306550,-842.705048
882.805171,-1480.411884,-9104.533087,-1685.410096
882.805496,-3923.091493,-10140.821405,-2451.505594
882.805820,-3849.070898,-8956.491898,-2834.553343
882.806144,-3404.947333,-8290.306550,-2757.943793
882.806468,-3330.926739,-9178.553681,-2451.505594
882.806792,-3034.844362,-10066.800811,-1225.752797
882.807116,-1406.391290,-9474.636058,-383.047749
882.807440,74.020594,-8808.450710,766.095498
882.807764,222.061783,-9104.533087,1991.848295
882.808088,-592.164754,-10658.965565,2374.896044
882.808412,0.000000,-11399.171507,2911.162892
882.808736,1702.473667,-10510.924376,2757.943793
882.809061,2664.741391,-9622.677246,3064.381992
882.809385,3775.050304,-10140.821405,2911.162892
882.809709,3997.112087,-10066.800811,2451.505594
882.810033,3478.967927,-8808.450710,1302.362347
882.810357,1184.329507,-8290.306550,-383.047749
882.810681,-2072.576638,-10066.800811,-1455.581446
882.811005,-3330.926739,-10807.006753,-2374.896044
882.811329,-2664.741391,-9474.636058,-2834.553343
882.811653,-2664.741391,-8660.409521,-2451.505594
882.811977,-2886.803174,-9326.594869,-1532.190996
882.812302,-2220.617826,-10510.924376,-1225.752797
882.812626,0.000000,-10214.842000,-459.657299
882.812950,740.205942,-9474.636058,612.876398
882.813274,0.000000,-10288.862594,2298.286494
882.813598,-814.226536,-11917.315666,2834.553343
882.813922,-222.061783,-12213.398043,2911.162892
882.814246,1036.288319,-11399.171507,2987.772442
882.814571,1850.514855,-10584.944971,2068.457845
882.814895,2220.617826,-10732.986159,1915.238745
882.815219,2368.659014,-11547.212695,1302.362347
882.815544,2590.720797,-10066.800811,229.828649
882.815868,148.041188,-8882.471304,-766.095498
882.816192,-2960.823768,-9030.512492,-1762.019645
882.816517,-3627.009116,-9178.553681,-2757.943793
882.816841,-2294.638420,-7328.038826,-2987.772442
882.817165,-1480.411884,-6587.832884,-2145.067394
882.817489,-222.061783,-7402.059420,-1072.533697
882.817814,1480.411884,-8364.327145,383.047749
882.818138,2738.761985,-8216.285956,766.095498
882.818462,2368.659014,-8068.244768,1302.362347
882.818787,814.226536,-9178.553681,1991.848295
882.819111,444.123565,-10140.821405,1915.238745
882.819435,1480.411884,-9992.780217,2681.334243
882.819760,2960.823768,-9548.656652,2604.724693
882.820084,3627.009116,-9622.677246,2451.505594
882.820408,2960.823768,-10584.944971,1378.971896
882.820733,2146.597232,-9548.656652,0.000000
882.821057,740.205942,-8660.409521,-1378.971896
882.821381,-1258.350101,-8882.471304,-1838.629195
882.821706,-2442.679609,-9474.636058,-2374.896044
882.822030,-3034.844362,-8660.409521,-1915.238745
882.822354,-1998.556043,-8142.265362,-2604.724693
882.822679,-1776.494261,-7994.224174,-2451.505594
882.823003,-1110.308913,-10140.821405,-1762.019645
882.823327,0.000000,-10066.800811,-995.924147
882.823651,814.226536,-8882.471304,-383.047749
882.823976,-148.041188,-9030.512492,306.438199
882.824300,-1628.453072,-10288.862594,612.876398
882.824624,-814.226536,-11473.192101,842.705048
882.824949,0.000000,-10658.965565,1072.533697
882.825273,1702.473667,-10214.842000,1149.143247
882.825597,2072.576638,-10732.986159,842.705048
882.825922,2146.597232,-10881.027347,536.266849
882.826246,2294.638420,-10436.903782,-383.047749
882.826570,444.123565,-9992.780217,-1685.410096
882.826895,-2516.700203,-10436.903782,-2298.286494
882.827219,-3923.091493,-11029.068536,-2604.724693
882.827543,-3182.885551,-10584.944971,-3294.210641
882.827868,-2294.638420,-9474.636058,-2911.162892
882.828192,-1776.494261,-9918.759623,-2298.286494
882.828516,-1998.556043,-10658.965565,-1915.238745
882.828841,-1332.370696,-10066.800811,-1225.752797
882.829165,-592.164754,-9770.718434,-229.828649
882.829489,-1332.370696,-9474.636058,-306.438199
882.829814,-2146.597232,-9844.739029,306.438199
882.830138,-1628.453072,-10288.862594,229.828649
882.830462,370.102971,-10066.800811,766.095498
882.830786,1480.411884,-9696.697840,995.924147
882.831111,2368.659014,-10066.800811,1455.581446
882.831435,3552.988522,-9622.677246,1072.533697
882.831759,4367.215058,-8882.471304,306.438199
882.832084,3404.947333,-8512.368333,536.266849
882.832408,1406.391290,-9622.677246,0.000000
882.832732,-296.082377,-10436.903782,-995.924147
882.833057,-962.267725,-9400.615463,-1378.971896
882.833381,-1332.370696,-7920.203579,-1455.581446
882.833705,-1332.370696,-8512.368333,-1149.143247
882.834030,-962.267725,-9844.739029,-689.485948
882.834354,0.000000,-9400.615463,-1225.752797
882.834678,-444.123565,-8364.327145,-229.828649
882.835003,-2146.597232,-9326.594869,76.609550
882.835327,-3034.844362,-10140.821405,536.266849
882.835651,-2368.659014,-10214.842000,1072.533697
882.835976,0.000000,-9696.697840,1532.190996
882.836300,1406.391290,-9474.636058,1838.629195
882.836624,2220.617826,-9918.759623,2221.676944
882.836948,2960.823768,-10362.883188,1991.848295
882.837273,3034.844362,-9326.594869,766.095498
882.837597,962.267725,-8734.430116,306.438199
882.837921,-1184.329507,-9696.697840,-229.828649
882.838246,-2146.597232,-9992.780217,-689.485948
882.838570,-1850.514855,-8956.491898,-1149.143247
882.838894,-1776.494261,-7624.121203,-1072.533697
882.839219,-2516.700203,-8216.285956,-766.095498
882.839543,-1628.453072,-9104.533087,-612.876398
882.839867,0.000000,-9400.615463,459.657299
882.840192,740.205942,-8956.491898,842.705048
882.840516,-296.082377,-9474.636058,919.314598
882.840840,-1332.370696,-10214.842000,919.314598
882.841165,0.000000,-9918.759623,1225.752797
882.841489,1850.514855,-10362.883188,1532.190996
882.841813,2368.659014,-10288.862594,1608.800546
882.842138,1924.535449,-10584.944971,1915.238745
882.842462,1924.535449,-10362.883188,995.924147
882.842786,1702.473667,-10288.862594,153.219100
882.843111,-370.102971,-10066.800811,-153.219100
882.843435,-2368.659014,-10362.883188,-383.047749
882.843759,-2368.659014,-10436.903782,-689.485948
882.844083,-1036.288319,-9474.636058,-536.266849
882.844408,-518.144159,-9030.512492,-689.485948
882.844732,-888.247130,-9104.533087,-459.657299
882.845056,74.020594,-9918.759623,-229.828649
882.845381,888.247130,-9252.574275,76.609550
882.845705,666.185348,-8808.450710,689.485948
882.846029,74.020594,-9770.718434,76.609550
882.846354,148.041188,-9918.759623,459.657299
882.846678,1184.329507,-9178.553681,612.876398
882.847002,2516.700203,-9104.533087,536.266849
882.847327,1850.514855,-9030.512492,612.876398
882.847651,1628.453072,-9548.656652,689.485948
882.847975,2294.638420,-9770.718434,306.438199
882.848300,1702.473667,-9030.512492,-766.095498
882.848624,-518.144159,-9474.636058,-229.828649
882.848948,-2294.638420,-9918.759623,-766.095498
882.849273,-1702.473667,-9548.656652,-1991.848295
882.849597,-1554.432478,-9030.512492,-2068.457845
882.849921,-1998.556043,-9104.533087,-1838.629195
882.850246,-1406.391290,-10955.047942,-995.924147
882.850570,222.061783,-10807.006753,-1302.362347
882.850894,370.102971,-9326.594869,0.000000
882.851218,-740.205942,-8808.450710,-459.657299
882.851543,-1702.473667,-11029.068536,-459.657299
882.851867,-1332.370696,-11547.212695,-306.438199
882.852191,814.226536,-10881.027347,0.000000
882.852516,1924.535449,-9844.739029,459.657299
882.852840,1850.514855,-10436.903782,383.047749
882.853164,2294.638420,-10881.027347,459.657299
882.853489,2442.679609,-9474.636058,-842.705048
882.853813,1258.350101,-9030.512492,-1532.190996
882.854137,-1110.308913,-10066.800811,-2374.896044
882.854462,-2368.659014,-10214.842000,-2374.896044
882.854786,-1406.391290,-9474.636058,-2298.286494
882.855110,-666.185348,-8808.450710,-1991.848295
882.855435,-740.205942,-9474.636058,-1455.581446
882.855759,-444.123565,-10510.924376,-306.438199
882.856083,814.226536,-10288.862594,-229.828649
882.856408,1332.370696,-9178.553681,-153.219100
882.856732,222.061783,-8956.491898,459.657299
882.857056,-1184.329507,-10436.903782,383.047749
882.857380,-370.102971,-10807.006753,383.047749
882.857705,740.205942,-9622.677246,459.657299
882.858029,1406.391290,-8956.491898,689.485948
882.858353,1850.514855,-10140.821405,229.828649
882.858678,1628.453072,-9844.739029,0.000000
882.859002,1998.556043,-8882.471304,-76.609550
882.859326,592.164754,-8956.491898,-612.876398
882.859651,-1702.473667,-9696.697840,-1149.143247
882.859975,-2886.803174,-9400.615463,-1685.410096
882.860299,-1924.535449,-8586.388927,-1378.971896
882.860624,-888.247130,-9030.512492,-1072.533697
882.860948,-814.226536,-9474.636058,-229.828649
882.861272,0.000000,-9770.718434,689.485948
882.861597,1036.288319,-8808.450710,995.924147
882.861921,888.247130,-8808.450710,1225.752797
882.862245,-444.123565,-9400.615463,1302.362347
882.862570,-962.267725,-9918.759623,1378.971896
882.862894,-444.123565,-10066.800811,1532.190996
882.863218,296.082377,-9474.636058,689.485948
882.863543,74.020594,-8882.471304,459.657299
882.863867,74.020594,-9252.574275,306.438199
882.864191,962.267725,-10066.800811,153.219100
882.864515,666.185348,-9622.677246,-306.438199
882.864840,-1628.453072,-9474.636058,-459.657299
882.865164,-3627.009116,-9844.739029,-612.876398
882.865488,-3108.864956,-9696.697840,-383.047749
882.865813,-1850.514855,-9696.697840,-536.266849
882.866137,-1036.288319,-9474.636058,306.438199
882.866461,-888.247130,-10140.821405,1302.362347
882.866786,222.061783,-11029.068536,1915.238745
882.867110,1258.350101,-10362.883188,1915.238745
882.867434,888.247130,-9104.533087,1685.410096
882.867759,-740.205942,-9622.677246,1455.581446
882.868083,-962.267725,-10807.006753,1302.362347
882.868407,74.020594,-10510.924376,689.485948
882.868732,444.123565,-8956.491898,459.657299
882.869056,814.226536,-9400.615463,459.657299
882.869380,814.226536,-10288.862594,153.219100
882.869705,1554.432478,-9918.759623,0.000000
882.870029,1258.350101,-9326.594869,-153.219100
882.870353,-222.061783,-9622.677246,-612.876398
882.870677,-1628.453072,-9474.636058,-842.705048
882.871002,-740.205942,-9992.780217,306.438199
882.871326,0.000000,-8734.430116,0.000000
882.871650,0.000000,-8660.409521,766.095498
882.871975,296.082377,-9918.759623,1072.533697
882.872299,888.247130,-9770.718434,1225.752797
882.872623,1332.370696,-8956.491898,995.924147
882.872948,962.267725,-9030.512492,1072.533697
882.873272,74.020594,-9252.574275,842.705048
882.873596,-370.102971,-9918.759623,459.657299
882.873921,666.185348,-9252.574275,153.219100
882.874245,666.185348,-8734.430116,-383.047749
882.874569,1036.288319,-9548.656652,-536.266849
882.874894,1998.556043,-9844.739029,-766.095498
882.875218,2294.638420,-9104.533087,-1149.143247
882.875542,1924.535449,-8438.347739,-995.924147
882.875867,-370.102971,-9104.533087,-1608.800546
882.876191,-1406.391290,-9992.780217,-1378.971896
882.876515,-1110.308913,-9696.697840,-1685.410096
882.876840,-740.205942,-9030.512492,-1685.410096
882.877164,-592.164754,-8956.491898,-1225.752797
882.877488,-370.102971,-9844.739029,-383.047749
882.877812,222.061783,-9770.718434,-536.266849
882.878137,814.226536,-9326.594869,-842.705048
882.878461,-592.164754,-9400.615463,-919.314598
882.878785,-1850.514855,-10214.842000,-306.438199
882.879110,-962.267725,-10955.047942,-766.095498
882.879434,148.041188,-9918.759623,-919.314598
882.879758,222.061783,-9326.594869,-919.314598
882.880083,296.082377,-10732.986159,-1302.362347
882.880407,1554.432478,-11399.171507,-995.924147
882.880731,2368.659014,-9918.759623,-1072.533697
882.881056,740.205942,-9252.574275,-1608.800546
882.881380,-1776.494261,-10362.883188,-1991.848295
882.881704,-2590.720797,-11251.130318,-2451.505594
882.882029,-1850.514855,-10362.883188,-2374.896044
882.882353,-1184.329507,-10362.883188,-2221.676944
882.882677,-1924.535449,-10436.903782,-2145.067394
882.883002,-1110.308913,-10510.924376,-459.657299
882.883326,518.144159,-10510.924376,-229.828649
882.883650,1258.350101,-9548.656652,-76.609550
882.883975,-370.102971,-9474.636058,229.828649
882.884299,-962.267725,-10584.944971,383.047749
882.884623,0.000000,-10955.047942,766.095498
882.884947,1332.370696,-9400.615463,995.924147
882.885272,1406.391290,-8142.265362,766.095498
882.885596,1406.391290,-8734.430116,842.705048
882.885920,1998.556043,-9178.553681,0.000000
882.886245,2368.659014,-8882.471304,-536.266849
882.886569,370.102971,-8438.347739,-459.657299
882.886893,-1850.514855,-9104.533087,-1225.752797
882.887218,-2442.679609,-9474.636058,-995.924147
882.887542,-1184.329507,-8808.450710,-459.657299
882.887866,-592.164754,-8438.347739,-459.657299
882.888191,-1332.370696,-9326.594869,-459.657299
882.888515,-814.226536,-10140.821405,612.876398
882.888839,740.205942,-9918.759623,1608.800546
882.889164,962.267725,-9474.636058,2068.457845
882.889488,0.000000,-9770.718434,2221.676944
882.889812,-370.102971,-10288.862594,2528.115143
882.890137,0.000000,-10214.842000,2374.896044
882.890461,1332.370696,-9696.697840,2604.724693
882.890785,740.205942,-9104.533087,1608.800546
882.891109,296.082377,-9104.533087,1302.362347
882.891434,740.205942,-9104.533087,306.438199
882.891758,740.205942,-8364.327145,-689.485948
882.892082,-1406.391290,-8290.306550,-1225.752797
882.892407,-3108.864956,-9474.636058,-1149.143247
882.892731,-2812.782580,-9474.636058,-1225.752797
882.893055,-1628.453072,-8808.450710,-536.266849
882.893380,-740.205942,-8660.409521,-76.609550
882.893704,-888.247130,-9696.697840,459.657299
882.894028,-222.061783,-10510.924376,1149.143247
882.894353,1036.288319,-9770.718434,1378.971896
882.894677,962.267725,-9178.553681,2221.676944
882.895001,222.061783,-10288.862594,2834.553343
882.895326,-518.144159,-11843.295072,2221.676944
882.895650,296.082377,-11547.212695,2911.162892
882.895974,444.123565,-10288.862594,1532.190996
882.896299,0.000000,-9770.718434,689.485948
882.896623,0.000000,-10436.903782,-229.828649
882.896947,814.226536,-10066.800811,-919.314598
882.897272,592.164754,-8956.491898,-2145.067394
882.897596,-1332.370696,-9178.553681,-2528.115143
882.897920,-2220.617826,-10436.903782,-2451.505594
882.898244,-1554.432478,-9400.615463,-2451.505594
882.898569,-592.164754,-8290.306550,-1838.629195
882.898893,-296.082377,-8586.388927,-1302.362347
882.899217,0.000000,-9696.697840,0.000000
882.899542,1110.308913,-10140.821405,306.438199
882.899866,1924.535449,-8734.430116,1378.971896
882.900190,1554.432478,-8364.327145,2145.067394
882.900515,0.000000,-9844.739029,1532.190996
882.900839,0.000000,-10436.903782,1455.581446
882.901163,666.185348,-9622.677246,842.705048
882.901488,888.247130,-8438.347739,229.828649
882.901812,592.164754,-8586.388927,-459.657299
882.902136,1110.308913,-9474.636058,-842.705048
882.902461,1702.473667,-9400.615463,-2987.772442
882.902785,1184.329507,-9326.594869,-3370.820191
882.903109,-1110.308913,-9400.615463,-3830.477490
882.903434,-2368.659014,-10214.842000,-3524.039291
882.903758,-1776.494261,-10510.924376,-2987.772442
882.904082,-592.164754,-9918.759623,-2757.943793
882.904407,-962.267725,-9918.759623,-1685.410096
882.904731,-148.041188,-10732.986159,-995.924147
882.905055,888.247130,-10510.924376,-612.876398
882.905379,1406.391290,-9992.780217,842.705048
882.905704,0.000000,-10140.821405,1225.752797
882.906028,-888.247130,-11325.150913,1378.971896
882.906352,-444.123565,-11769.274478,1072.533697
882.906677,518.144159,-10214.842000,459.657299
882.907001,1110.308913,-8586.388927,-459.657299
882.907325,1776.494261,-9252.574275,-1072.533697
882.907650,1924.535449,-9844.739029,-1532.190996
882.907974,1924.535449,-9400.615463,-2374.896044
882.908298,148.041188,-9178.553681,-3294.210641
882.908623,-2072.576638,-9992.780217,-3140.991542
882.908947,-2590.720797,-11029.068536,-3140.991542
882.909271,-1184.329507,-10436.903782,-2528.115143
882.909596,-740.205942,-9622.677246,-1225.752797
882.909920,-592.164754,-10362.883188,-536.266849
882.910244,592.164754,-11029.068536,995.924147
882.910569,2220.617826,-10732.986159,1302.362347
882.910893,2220.617826,-9992.780217,2298.286494
882.911217,814.226536,-9844.739029,2834.553343
882.911541,296.082377,-10510.924376,2757.943793
882.911866,518.144159,-10510.924376,2374.896044
882.912190,444.123565,-9326.594869,1378.971896
882.912514,296.082377,-7476.080014,1149.143247
882.912839,814.226536,-8512.368333,459.657299
882.913163,1036.288319,-9178.553681,-383.047749
882.913487,666.185348,-7698.141797,-1225.752797
882.913812,-740.205942,-6883.915261,-1915.238745
882.914136,-3108.864956,-7772.162391,-2221.676944
882.914460,-3849.070898,-8956.491898,-1225.752797
882.914784,-1924.535449,-8216.285956,-1225.752797
882.915109,-888.247130,-8216.285956,229.828649
882.915433,-1036.288319,-9252.574275,383.047749
882.915757,-148.041188,-9770.718434,1378.971896
882.916081,1332.370696,-9696.697840,2298.286494
882.916405,1480.411884,-9696.697840,2528.115143
882.916729,0.000000,-10510.924376,2068.457845
882.917053,0.000000,-11325.150913,1915.238745
882.917377,444.123565,-11177.109724,1608.800546
882.917701,962.267725,-9918.759623,1838.629195
882.918025,74.020594,-9548.656652,1072.533697
882.918350,0.000000,-10066.800811,0.000000
882.918674,0.000000,-9918.759623,-1225.752797
882.918998,-814.226536,-9326.594869,-2145.067394
882.919322,-2368.659014,-9252.574275,-2298.286494
882.919646,-3923.091493,-9992.780217,-2757.943793
882.919970,-2738.761985,-10140.821405,-2528.115143
882.920294,-1554.432478,-9622.677246,-2068.457845
882.920618,-1184.329507,-10140.821405,-995.924147
882.920942,-740.205942,-11621.233289,153.219100
882.921266,1110.308913,-11991.336260,1532.190996
882.921591,2664.741391,-10584.944971,2068.457845
882.921915,3034.844362,-10436.903782,2221.676944
882.922239,592.164754,-11103.089130,2681.334243
882.922563,592.164754,-12287.418637,2374.896044
882.922887,1406.391290,-11473.192101,2068.457845
882.923211,1628.453072,-9400.615463,1455.581446
882.923535,1258.350101,-9252.574275,1072.533697
882.923859,1406.391290,-9770.718434,459.657299
882.924183,1628.453072,-9030.512492,-383.047749
882.924507,0.000000,-7328.038826,-1378.971896
882.924831,-2960.823768,-8068.244768,-2451.505594
882.925156,-4071.132681,-8808.450710,-2528.115143
882.925480,-2886.803174,-8512.368333,-2374.896044
882.925804,-1332.370696,-7402.059420,-1608.800546
882.926128,-1406.391290,-7846.182985,-689.485948
882.926452,-1480.411884,-9474.636058,0.000000
882.926776,592.164754,-9992.780217,612.876398
882.927100,2442.679609,-8290.306550,1915.238745
882.927424,1406.391290,-8512.368333,2451.505594
882.927748,0.000000,-10658.965565,2604.724693
882.928072,0.000000,-11473.192101,2451.505594
882.928397,1924.535449,-10288.862594,2221.676944
882.928721,2368.659014,-8956.491898,919.314598
882.929045,2146.597232,-9474.636058,995.924147
882.929369,2590.720797,-9918.759623,229.828649
882.929693,3256.906145,-9622.677246,-689.485948
882.930017,1332.370696,-8216.285956,-2221.676944
882.930341,-1776.494261,-8290.306550,-2604.724693
882.930665,-2664.741391,-9474.636058,-3217.601092
882.930989,-1776.494261,-9030.512492,-3294.210641
882.931313,-1036.288319,-7772.162391,-2834.553343
882.931638,-1850.514855,-8216.285956,-2068.457845
882.931962,-1406.391290,-10510.924376,-1302.362347
882.932286,296.082377,-10436.903782,-1149.143247
882.932610,444.123565,-8956.491898,-306.438199
882.932934,-888.247130,-9400.615463,0.000000
882.933258,-2368.659014,-11399.171507,383.047749
882.933582,-1332.370696,-12361.439231,612.876398
882.933906,1036.288319,-11621.233289,612.876398
882.934230,2442.679609,-9622.677246,766.095498
882.934554,3256.906145,-11029.068536,383.047749
882.934879,4071.132681,-11621.233289,-306.438199
882.935203,3627.009116,-10658.965565,-1532.190996
882.935527,888.247130,-10066.800811,-2451.505594
882.935851,-2072.576638,-11029.068536,-3217.601092
882.936175,-2516.700203,-11399.171507,-3217.601092
882.936499,-1036.288319,-9622.677246,-3370.820191
882.936823,-1258.350101,-8734.430116,-2757.943793
882.937147,-2442.679609,-9622.677246,-2604.724693
882.937471,-1998.556043,-10584.944971,-1762.019645
882.937795,-222.061783,-9770.718434,-229.828649
882.938120,0.000000,-8808.450710,0.000000
882.938444,-1110.308913,-8586.388927,1072.533697
882.938768,-1924.535449,-9918.759623,2298.286494
882.939092,-592.164754,-11251.130318,1838.629195
882.939416,814.226536,-9474.636058,1685.410096
882.939740,1776.494261,-8882.471304,1838.629195
882.940064,2664.741391,-9474.636058,2068.457845
882.940388,3775.050304,-9918.759623,1072.533697
882.940712,3108.864956,-9252.574275,-153.219100
882.941036,296.082377,-8438.347739,-766.095498
882.941361,-2294.638420,-9696.697840,-1685.410096
882.941685,-2738.761985,-9696.697840,-2604.724693
882.942009,-1924.535449,-7846.182985,-1685.410096
882.942333,-1702.473667,-7254.018232,-1149.143247
882.942657,-1628.453072,-9030.512492,-383.047749
882.942981,-962.267725,-9844.739029,0.000000
882.943305,74.020594,-8438.347739,842.705048
882.943629,518.144159,-7550.100608,1455.581446
882.943953,-1924.535449,-8882.471304,2604.724693
882.944277,-1924.535449,-10510.924376,3064.381992
882.944602,-518.144159,-10436.903782,2834.553343
882.944926,666.185348,-9770.718434,2451.505594
882.945250,1110.308913,-9548.656652,2451.505594
882.945574,2368.659014,-10288.862594,1915.238745
882.945898,3627.009116,-9992.780217,1915.238745
882.946222,2516.700203,-9622.677246,1149.143247
882.946546,0.000000,-10140.821405,0.000000
882.946870,-2368.659014,-10436.903782,-1225.752797
882.947194,-2516.700203,-10436.903782,-1532.190996
882.947518,-1702.473667,-9770.718434,-1685.410096
882.947842,-1702.473667,-9326.594869,-1532.190996
882.948167,-1332.370696,-10362.883188,0.000000
882.948491,0.000000,-10881.027347,612.876398
882.948815,1258.350101,-9844.739029,1072.533697
882.949139,740.205942,-9326.594869,2374.896044
882.949463,-1628.453072,-10362.883188,2834.553343
882.949787,-962.267725,-11621.233289,1915.238745
882.950111,222.061783,-10214.842000,2068.457845
882.950435,1036.288319,-8808.450710,1991.848295
882.950759,1480.411884,-9104.533087,1762.019645
882.951083,2220.617826,-10140.821405,689.485948
882.951408,2368.659014,-8660.409521,0.000000
882.951732,1184.329507,-7772.162391,-459.657299
882.952056,-962.267725,-8734.430116,-1455.581446
882.952380,-2294.638420,-9548.656652,-1608.800546
882.952704,-1702.473667,-9104.533087,-1915.238745
882.953028,-222.061783,-8364.327145,-1378.971896
882.953352,-222.061783,-9178.553681,-995.924147
882.953676,0.000000,-9992.780217,-689.485948
882.954000,1036.288319,-8956.491898,306.438199
882.954324,1332.370696,-8216.285956,689.485948
882.954649,148.041188,-8808.450710,919.314598
882.954973,-1332.370696,-10584.944971,919.314598
882.955297,-1332.370696,-10732.986159,536.266849
882.955621,0.000000,-8956.491898,459.657299
882.955945,1110.308913,-8142.265362,0.000000
882.956269,1258.350101,-9252.574275,76.609550
882.956593,2146.597232,-10140.821405,-229.828649
882.956917,2738.761985,-9030.512492,-383.047749
882.957241,1850.514855,-8882.471304,-1378.971896
882.957565,0.000000,-9770.718434,-2068.457845
882.957890,-1036.288319,-10436.903782,-2451.505594
882.958214,-592.164754,-10066.800811,-2604.724693
882.958538,296.082377,-9252.574275,-2681.334243
882.958862,74.020594,-10066.800811,-1991.848295
882.959186,0.000000,-11399.171507,-1762.019645
882.959510,0.000000,-10436.903782,-1149.143247
882.959834,-370.102971,-9326.594869,-1608.800546
882.960158,-2368.659014,-9770.718434,-1532.190996
882.960482,-3404.947333,-12213.398043,-689.485948
882.960806,-2072.576638,-12731.542202,-459.657299
882.961131,0.000000,-10510.924376,-306.438199
882.961455,814.226536,-9696.697840,-919.314598
882.961779,1258.350101,-11251.130318,-383.047749
882.962103,2220.617826,-11843.295072,0.000000
882.962427,3182.885551,-10732.986159,-459.657299
882.962751,1628.453072,-9326.594869,-995.924147
882.963075,-1332.370696,-9918.759623,-1762.019645
882.963399,-2516.700203,-10140.821405,-2451.505594
882.963723,-1332.370696,-9770.718434,-2374.896044
882.964047,-666.185348,-8734.430116,-2221.676944
882.964372,-1406.391290,-8956.491898,-1608.800546
882.964696,-1110.308913,-9400.615463,-1149.143247
882.965020,370.102971,-8808.450710,-1225.752797
882.965344,814.226536,-8216.285956,-536.266849
882.965668,-592.164754,-8734.430116,0.000000
882.965992,-1036.288319,-10066.800811,689.485948
882.966316,74.020594,-10214.842000,1149.143247
882.966640,1998.556043,-8808.450710,1838.629195
882.966964,2146.597232,-8808.450710,2068.457845
882.967288,2072.576638,-9992.780217,1608.800546
882.967613,2590.720797,-10362.883188,2068.457845
882.967937,1776.494261,-8660.409521,842.705048
882.968261,-296.082377,-7846.182985,459.657299
882.968585,-2664.741391,-8956.491898,-459.657299
882.968909,-3552.988522,-9622.677246,-689.485948
882.969233,-2442.679609,-8882.471304,-919.314598
882.969557,-1850.514855,-8142.265362,-766.095498
882.969881,-1776.494261,-8882.471304,0.000000
882.970205,-518.144159,-8956.491898,-766.095498
882.970529,814.226536,-8364.327145,1072.533697
882.970853,1036.288319,-8734.430116,1072.533697
882.971178,-370.102971,-9548.656652,1072.533697
882.971502,-518.144159,-10881.027347,1991.848295
882.971826,1036.288319,-10214.842000,2145.067394
882.972150,2368.659014,-8586.388927,1838.629195
882.972474,1702.473667,-9400.615463,2145.067394
882.972798,1406.391290,-10807.006753,2604.724693
882.973122,1554.432478,-10658.965565,2068.457845
882.973446,1332.370696,-9474.636058,766.095498
882.973770,-1406.391290,-8586.388927,536.266849
882.974094,-3256.906145,-9844.739029,-383.047749
882.974419,-2886.803174,-10362.883188,-1762.019645
882.974743,-1554.432478,-9696.697840,-1149.143247
882.975067,-1924.535449,-9696.697840,-153.219100
882.975391,-1332.370696,-10584.944971,-383.047749
882.975715,-370.102971,-11251.130318,-229.828649
882.976039,518.144159,-10436.903782,76.609550
882.976363,222.061783,-10658.965565,383.047749
882.976687,-1036.288319,-12509.480420,612.876398
882.977011,-1332.370696,-12805.562797,1838.629195
882.977335,74.020594,-10881.027347,2451.505594
882.977660,1628.453072,-10362.883188,1685.410096
882.977984,1110.308913,-10066.800811,1532.190996
882.978308,740.205942,-11177.109724,1762.019645
882.978632,1258.350101,-10140.821405,612.876398
882.978956,888.247130,-8660.409521,76.609550
882.979280,-1332.370696,-8216.285956,0.000000
882.979604,-2368.659014,-8956.491898,-536.266849
882.979928,-1332.370696,-8660.409521,-1149.143247
882.980252,148.041188,-8290.306550,-1302.362347
882.980576,-444.123565,-8068.244768,0.000000
882.980901,0.000000,-9178.553681,-459.657299
882.981225,1332.370696,-8808.450710,-153.219100
882.981549,2368.659014,-7772.162391,459.657299
882.981873,1850.514855,-8586.388927,919.314598
882.982197,0.000000,-9474.636058,766.095498
882.982521,296.082377,-10140.821405,1455.581446
882.982845,888.247130,-8808.450710,1378.971896
882.983169,1628.453072,-8660.409521,919.314598
882.983493,888.247130,-9548.656652,1072.533697
882.983817,1110.308913,-10214.842000,689.485948
882.984142,1628.453072,-9252.574275,-229.828649
882.984466,148.041188,-7994.224174,-1072.533697
882.984790,-1554.432478,-9252.574275,-1685.410096
882.985114,-2590.720797,-9844.739029,-2221.676944
882.985438,-888.247130,-9252.574275,-2681.334243
882.985762,-666.185348,-8660.409521,-2451.505594
882.986086,-740.205942,-9474.636058,-1838.629195
882.986410,-148.041188,-10955.047942,-1378.971896
882.986734,888.247130,-10436.903782,-1302.362347
882.987058,666.185348,-9326.594869,-306.438199
882.987383,-740.205942,-9548.656652,-612.876398
882.987707,-1332.370696,-11621.233289,0.000000
882.988031,-148.041188,-11769.274478,-459.657299
882.988355,592.164754,-9918.759623,-459.657299
882.988679,222.061783,-9474.636058,0.000000
882.989003,444.123565,-10658.965565,-306.438199
882.989327,1628.453072,-10658.965565,-689.485948
882.989651,1406.391290,-9252.574275,-1302.362347
882.989975,-296.082377,-9030.512492,-1915.238745
882.990299,-2442.679609,-10436.903782,-2068.457845
882.990624,-3108.864956,-11103.089130,-2911.162892
882.990948,-1554.432478,-10140.821405,-3217.601092
882.991272,-888.247130,-9400.615463,-2451.505594
882.991596,-1036.288319,-10807.006753,-1685.410096
882.991920,-148.041188,-11843.295072,-1149.143247
882.992244,1110.308913,-10955.047942,-842.705048
882.992568,370.102971,-10362.883188,-153.219100
882.992892,-518.144159,-11029.068536,0.000000
882.993216,-740.205942,-11621.233289,306.438199
882.993540,1110.308913,-11103.089130,995.924147
882.993865,1924.535449,-9474.636058,919.314598
882.994189,1554.432478,-9252.574275,689.485948
882.994513,1554.432478,-9770.718434,612.876398
882.994837,2664.741391,-9400.615463,612.876398
882.995161,2146.597232,-7698.141797,-306.438199
882.995485,0.000000,-7476.080014,383.047749
882.995809,-2072.576638,-8660.409521,-612.876398
882.996133,-2294.638420,-8882.471304,-995.924147
882.996457,-814.226536,-7920.203579,-306.438199
882.996781,-444.123565,-7772.162391,383.047749
882.997105,-518.144159,-8364.327145,536.266849
882.997430,370.102971,-8512.368333,1225.752797
882.997754,888.247130,-8068.244768,1378.971896
882.998078,518.144159,-8734.430116,1991.848295
882.998402,-814.226536,-9918.759623,1762.019645
882.998726,-1332.370696,-10436.903782,2298.286494
882.999050,-666.185348,-9548.656652,2068.457845
882.999374,-370.102971,-8586.388927,1608.800546
882.999698,-592.164754,-9252.574275,1455.581446
883.000022,0.000000,-10510.924376,1608.800546
883.000346,1332.370696,-10066.800811,995.924147
883.000671,666.185348,-9400.615463,306.438199
883.000995,-1850.514855,-9622.677246,0.000000
883.001319,-3552.988522,-10658.965565,-229.828649
883.001643,-2886.803174,-10066.800811,-459.657299
883.001967,-1702.473667,-9104.533087,0.000000
883.002291,-814.226536,-9918.759623,536.266849
883.002615,-222.061783,-10510.924376,1532.190996
883.002939,1110.308913,-10807.006753,1762.019645
883.003263,1998.556043,-9844.739029,1762.019645
883.003587,592.164754,-9548.656652,1915.238745
883.003912,-1480.411884,-10658.965565,1455.581446
883.004236,-1406.391290,-10955.047942,1302.362347
883.004560,0.000000,-10288.862594,689.485948
883.004884,1036.288319,-9252.574275,919.314598
883.005208,814.226536,-9474.636058,459.657299
883.005532,962.267725,-9844.739029,76.609550
883.005856,1406.391290,-9474.636058,0.000000
883.006180,1110.308913,-9622.677246,-153.219100
883.006504,-592.164754,-9918.759623,-612.876398
883.006828,-1406.391290,-9770.718434,0.000000
883.007153,0.000000,-9326.594869,-536.266849
883.007477,1258.350101,-9400.615463,-536.266849
883.007801,1406.391290,-10288.862594,383.047749
883.008125,1184.329507,-10362.883188,766.095498
883.008449,1628.453072,-9548.656652,842.705048
883.008773,1776.494261,-8512.368333,689.485948
883.009097,666.185348,-8660.409521,919.314598
883.009421,-1110.308913,-9474.636058,766.095498
883.009745,-370.102971,-10140.821405,0.000000
883.010069,-592.164754,-8216.285956,-536.266849
883.010394,-518.144159,-7476.080014,-612.876398
883.010718,0.000000,-8956.491898,-689.485948
883.011042,1258.350101,-8956.491898,-766.095498
883.011366,2294.638420,-7920.203579,-1225.752797
883.011690,518.144159,-7402.059420,-1225.752797
883.012014,-962.267725,-9104.533087,-1762.019645
883.012338,-888.247130,-10288.862594,-919.314598
883.012662,222.061783,-10140.821405,-995.924147
883.012986,1258.350101,-9252.574275,-1378.971896
883.013310,296.082377,-9622.677246,-995.924147
883.013635,222.061783,-11029.068536,-919.314598
883.013959,1110.308913,-10807.006753,-919.314598
883.014283,888.247130,-10436.903782,-383.047749
883.014607,-592.164754,-10955.047942,0.000000
883.014931,-1554.432478,-11325.150913,-766.095498
883.015255,-1554.432478,-10658.965565,-1532.190996
883.015579,-444.123565,-9992.780217,-1838.629195
883.015903,-296.082377,-10807.006753,-1685.410096
883.016227,74.020594,-11843.295072,-1225.752797
883.016552,1406.391290,-10881.027347,-1685.410096
883.016876,1406.391290,-9770.718434,-1685.410096
883.017200,-296.082377,-9474.636058,-2604.724693
883.017524,-1850.514855,-10732.986159,-2757.943793
883.017848,-1554.432478,-12139.377449,-2221.676944
883.018172,-296.082377,-11399.171507,-2298.286494
883.018496,0.000000,-10066.800811,-1915.238745
883.018820,0.000000,-9992.780217,-1455.581446
883.019145,1110.308913,-11177.109724,-459.657299
883.019469,2294.638420,-10362.883188,-459.657299
883.019793,1332.370696,-9326.594869,0.000000
883.020117,-592.164754,-9696.697840,536.266849
883.020441,-814.226536,-10658.965565,383.047749
883.020765,444.123565,-9474.636058,383.047749
883.021089,888.247130,-8438.347739,306.438199
883.021413,1184.329507,-9030.512492,842.705048
883.021738,592.164754,-9548.656652,-306.438199
883.022062,1110.308913,-8882.471304,0.000000
883.022386,1184.329507,-7402.059420,-612.876398
883.022710,-1184.329507,-7550.100608,-1225.752797
883.023034,-2812.782580,-9030.512492,-1532.190996
883.023358,-2442.679609,-9030.512492,-1455.581446
883.023682,-1184.329507,-8364.327145,-689.485948
883.024006,-888.247130,-8142.265362,306.438199
883.024331,-1184.329507,-9252.574275,1072.533697
883.024655,518.144159,-9622.677246,1838.629195
883.024979,1406.391290,-8734.430116,2221.676944
883.025303,592.164754,-8290.306550,2528.115143
883.025627,-740.205942,-9548.656652,2911.162892
883.025951,-888.247130,-10807.006753,2911.162892
883.026275,148.041188,-9474.636058,3140.991542
883.026599,444.123565,-8364.327145,2987.772442
883.026924,444.123565,-8216.285956,1685.410096
883.027248,518.144159,-8586.388927,306.438199
883.027572,888.247130,-8808.450710,383.047749
883.027896,222.061783,-8660.409521,-229.828649
883.028220,-1258.350101,-9252.574275,-383.047749
883.028544,-2738.761985,-9622.677246,-383.047749
883.028868,-2072.576638,-9178.553681,-306.438199
883.029192,-518.144159,-9474.636058,0.000000
883.029517,-962.267725,-10658.965565,153.219100
883.029841,-518.144159,-11843.295072,1915.238745
883.030165,518.144159,-11621.233289,2221.676944
883.030489,1406.391290,-10436.903782,2681.334243
883.030813,74.020594,-10214.842000,2757.943793
883.031137,-1332.370696,-11325.150913,2681.334243
883.031461,-1258.350101,-11547.212695,2374.896044
883.031785,-666.185348,-10881.027347,2145.067394
883.032110,-370.102971,-9252.574275,1532.190996
883.032434,-592.164754,-9400.615463,766.095498
883.032758,0.000000,-10214.842000,459.657299
883.033082,740.205942,-10362.883188,0.000000
883.033406,0.000000,-9474.636058,-383.047749
883.033730,-1480.411884,-9252.574275,-1072.533697
883.034054,-1998.556043,-9696.697840,-306.438199
883.034378,0.000000,-9400.615463,0.000000
883.034703,1554.432478,-9474.636058,229.828649
883.035027,1258.350101,-9548.656652,612.876398
883.035351,1184.329507,-9918.759623,842.705048
883.035675,2146.597232,-9548.656652,1149.143247
883.035999,2590.720797,-8586.388927,1532.190996
883.036323,1850.514855,-8290.306550,2451.505594
883.036647,296.082377,-9178.553681,1608.800546
883.036971,-222.061783,-9326.594869,1302.362347
883.037296,-814.226536,-7846.182985,153.219100
883.037620,-296.082377,-7402.059420,0.000000
883.037944,0.000000,-8142.265362,-306.438199
883.038268,1036.288319,-8882.471304,-995.924147
883.038592,666.185348,-8364.327145,-1762.019645
883.038916,-370.102971,-8438.347739,-2298.286494
883.039240,-1924.535449,-9400.615463,-2451.505594
883.039564,-1776.494261,-9844.739029,-2681.334243
883.039889,-740.205942,-9178.553681,-2681.334243
883.040213,-370.102971,-9400.615463,-2757.943793
883.040537,-296.082377,-10732.986159,-1685.410096
883.040861,740.205942,-12583.501014,-459.657299
883.041185,2368.659014,-12065.356855,459.657299
883.041509,1628.453072,-10436.903782,0.000000
883.041833,296.082377,-10362.883188,0.000000
883.042157,-1036.288319,-11399.171507,-306.438199
883.042482,-592.164754,-11621.233289,-536.266849
883.042806,-222.061783,-10510.924376,-919.314598
883.043130,296.082377,-9696.697840,-1302.362347
883.043454,666.185348,-9622.677246,-1608.800546
883.043778,1480.411884,-9178.553681,-2374.896044
883.044102,592.164754,-8956.491898,-3370.820191
883.044426,-666.185348,-9400.615463,-3217.601092
883.044750,-2368.659014,-11251.130318,-3217.601092
883.045075,-2516.700203,-11103.089130,-3370.820191
883.045399,-1258.350101,-10214.842000,-2834.553343
883.045723,0.000000,-10436.903782,-2145.067394
883.046047,1258.350101,-12139.377449,-1072.533697
883.046371,2442.679609,-12065.356855,0.000000
883.046695,3108.864956,-10955.047942,995.924147
883.047019,2220.617826,-9844.739029,1455.581446
883.047343,740.205942,-10214.842000,1685.410096
883.047668,0.000000,-10510.924376,1225.752797
883.047992,-222.061783,-9844.739029,995.924147
883.048316,-1258.350101,-8364.327145,459.657299
883.048640,-1406.391290,-8142.265362,76.609550
883.048964,-740.205942,-8068.244768,-612.876398
883.049288,222.061783,-7772.162391,-1225.752797
883.049612,-962.267725,-6809.894666,-1991.848295
883.049936,-2516.700203,-7402.059420,-2604.724693
883.050261,-3034.844362,-8438.347739,-1838.629195
883.050585,-1036.288319,-8734.430116,-1302.362347
883.050909,444.123565,-7846.182985,-1072.533697
883.051233,1110.308913,-8290.306550,1225.752797
883.051557,1554.432478,-9918.759623,1072.533697
883.051881,3182.885551,-10732.986159,2221.676944
883.052205,3997.112087,-10140.821405,2528.115143
883.052529,2368.659014,-9992.780217,3370.820191
883.052854,296.082377,-10510.924376,3447.429741
883.053178,-814.226536,-11769.274478,2604.724693
883.053502,-962.267725,-10214.842000,2298.286494
883.053826,-1850.514855,-9104.533087,1455.581446
883.054150,-2146.597232,-9696.697840,842.705048
883.054474,-1406.391290,-9622.677246,0.000000
883.054798,-666.185348,-8808.450710,-383.047749
883.055122,-1480.411884,-8882.471304,-306.438199
883.055447,-3182.885551,-9474.636058,-995.924147
883.055771,-3552.988522,-10584.944971,-229.828649
883.056095,-2294.638420,-10066.800811,0.000000
883.056419,-814.226536,-9474.636058,76.609550
883.056743,-148.041188,-10436.903782,842.705048
883.057067,1036.288319,-11917.315666,2068.457845
883.057391,2738.761985,-11769.274478,2757.943793
883.057715,3182.885551,-10510.924376,3294.210641
883.058040,1628.453072,-10362.883188,3447.429741
883.058364,-592.164754,-10955.047942,2068.457845
883.058688,-1332.370696,-10881.027347,2374.896044
883.059012,-1110.308913,-9400.615463,1685.410096
883.059336,-1036.288319,-8216.285956,1225.752797
883.059660,-740.205942,-8364.327145,1072.533697
883.059984,0.000000,-8512.368333,612.876398
883.060308,296.082377,-7476.080014,0.000000
883.060633,-888.247130,-6735.874072,-536.266849
883.060957,-2812.782580,-8142.265362,-689.485948
883.061281,-2886.803174,-9474.636058,-1225.752797
883.061605,-1554.432478,-9030.512492,-689.485948
883.061929,74.020594,-8512.368333,306.438199
883.062253,592.164754,-9252.574275,536.266849
883.062577,1776.494261,-9992.780217,995.924147
883.062901,3108.864956,-9474.636058,1149.143247
883.063226,3108.864956,-8956.491898,2068.457845
883.063550,1554.432478,-9770.718434,2068.457845
883.063874,222.061783,-10436.903782,1838.629195
883.064198,296.082377,-9844.739029,1532.190996
883.064522,666.185348,-8660.409521,919.314598
883.064846,1036.288319,-8364.327145,1149.143247
883.065170,1184.329507,-9178.553681,919.314598
883.065494,1776.494261,-8956.491898,0.000000
883.065819,1480.411884,-7846.182985,-1455.581446
883.066143,0.000000,-7772.162391,-2451.505594
883.066467,-1554.432478,-9400.615463,-2451.505594
883.066791,-1702.473667,-10436.903782,-3140.991542
883.067115,-962.267725,-10288.862594,-3140.991542
883.067439,-592.164754,-9918.759623,-2681.334243
883.067763,444.123565,-10881.027347,-1685.410096
883.068087,1628.453072,-12065.356855,-1838.629195
883.068412,3182.885551,-11843.295072,-383.047749
883.068736,2220.617826,-11029.068536,0.000000
883.069060,0.000000,-11917.315666,0.000000
883.069384,-1332.370696,-12731.542202,0.000000
883.069708,-148.041188,-11991.336260,0.000000
883.070032,814.226536,-10584.944971,-612.876398
883.070356,518.144159,-10288.862594,-842.705048
883.070680,370.102971,-10584.944971,-1149.143247
883.071005,1036.288319,-10066.800811,-1991.848295
883.071329,0.000000,-8808.450710,-2911.162892
883.071653,-1924.535449,-8660.409521,-3983.696590
883.071977,-3627.009116,-9178.553681,-4366.744339
883.072301,-2590.720797,-9918.759623,-4213.525239
883.072625,-888.247130,-9844.739029,-3600.648841
883.072949,-148.041188,-9400.615463,-3294.210641
883.073273,0.000000,-9992.780217,-1685.410096
883.073598,1480.411884,-10807.006753,-995.924147
883.073922,2368.659014,-10140.821405,-229.828649
883.074246,1628.453072,-10066.800811,766.095498
883.074570,0.000000,-10362.883188,1378.971896
883.074894,-518.144159,-11103.089130,1149.143247
883.075218,-148.041188,-10362.883188,689.485948
883.075542,0.000000,-8882.471304,842.705048
883.075866,370.102971,-8734.430116,-229.828649
883.076191,1036.288319,-8956.491898,-153.219100
883.076515,666.185348,-8290.306550,-919.314598
883.076839,-518.144159,-7476.080014,-1762.019645
883.077163,-2812.782580,-7698.141797,-2374.896044
883.077487,-3478.967927,-8808.450710,-1991.848295
883.077811,-1924.535449,-9104.533087,-1378.971896
883.078135,0.000000,-7994.224174,-1455.581446
883.078459,148.041188,-8438.347739,-1149.143247
883.078784,222.061783,-9548.656652,612.876398
883.079108,1850.514855,-10955.047942,1149.143247
883.079432,2516.700203,-10066.800811,1685.410096
883.079756,1554.432478,-9474.636058,2451.505594
883.080080,222.061783,-10510.924376,2911.162892
883.080404,296.082377,-10732.986159,2911.162892
883.080728,962.267725,-9992.780217,2911.162892
883.081052,444.123565,-9178.553681,2221.676944
883.081377,0.000000,-9400.615463,1838.629195
883.081701,-222.061783,-9696.697840,842.705048
883.082025,-444.123565,-9104.533087,612.876398
883.082349,-1480.411884,-8734.430116,-153.219100
883.082673,-3108.864956,-9622.677246,-229.828649
883.082997,-3330.926739,-9844.739029,-689.485948
883.083321,-1998.556043,-8882.471304,-689.485948
883.083645,-370.102971,-9030.512492,153.219100
883.083970,0.000000,-10288.862594,842.705048
883.084294,444.123565,-11103.089130,1608.800546
883.084618,1702.473667,-10658.965565,2068.457845
883.084942,2590.720797,-9918.759623,2451.505594
883.085266,1258.350101,-10584.944971,2987.772442
883.085590,-888.247130,-11325.150913,3370.820191
883.085914,-666.185348,-10732.986159,2757.943793
883.086238,0.000000,-9622.677246,2681.334243
883.086563,222.061783,-9770.718434,2298.286494
883.086887,0.000000,-9992.780217,1838.629195
883.087211,0.000000,-9622.677246,919.314598
883.087535,-592.164754,-8290.306550,842.705048
883.087859,-1628.453072,-8364.327145,-612.876398
883.088183,-3108.864956,-8438.347739,-306.438199
883.088507,-2812.782580,-9252.574275,-459.657299
883.088831,-666.185348,-8808.450710,-306.438199
883.089156,592.164754,-8364.327145,-229.828649
883.089480,666.185348,-9030.512492,459.657299
883.089804,1258.350101,-9844.739029,919.314598
883.090128,2590.720797,-9918.759623,1302.362347
883.090452,2294.638420,-9252.574275,1608.800546
883.090776,1036.288319,-9252.574275,1455.581446
883.091100,148.041188,-9918.759623,2068.457845
883.091424,592.164754,-9992.780217,1455.581446
883.091749,962.267725,-9030.512492,689.485948
883.092073,592.164754,-8512.368333,612.876398
883.092397,370.102971,-9474.636058,536.266849
883.092721,740.205942,-9326.594869,-229.828649
883.093045,518.144159,-7402.059420,-1378.971896
883.093369,-1406.391290,-7031.956449,-2221.676944
883.093693,-2516.700203,-8882.471304,-2911.162892
883.094017,-2368.659014,-10955.047942,-3140.991542
883.094342,-1406.391290,-9548.656652,-2834.553343
883.094666,-1628.453072,-8290.306550,-2604.724693
883.094990,-1554.432478,-9770.718434,-1149.143247
883.095314,1036.288319,-11473.192101,-1072.533697
883.095638,2738.761985,-10436.903782,-459.657299
883.095962,2146.597232,-10732.986159,-383.047749
883.096286,74.020594,-11251.130318,-306.438199
883.096610,-370.102971,-12287.418637,-229.828649
883.096935,222.061783,-11177.109724,-306.438199
883.097259,0.000000,-9918.759623,-689.485948
883.097583,-444.123565,-9844.739029,-919.314598
883.097907,-888.247130,-10362.883188,-1378.971896
883.098231,444.123565,-10436.903782,-2145.067394
883.098555,-148.041188,-9252.574275,-3064.381992
883.098879,-1258.350101,-8956.491898,-2911.162892
883.099203,-2072.576638,-10510.924376,-2681.334243
883.099528,-1258.350101,-10732.986159,-3064.381992
883.099852,-148.041188,-9474.636058,-2451.505594
883.100176,-518.144159,-9252.574275,-2298.286494
883.100500,148.041188,-11103.089130,-1378.971896
883.100824,1628.453072,-11251.130318,-383.047749
883.101148,3256.906145,-10584.944971,306.438199
883.101472,2294.638420,-9918.759623,612.876398
883.101796,74.020594,-10214.842000,153.219100
883.102121,-444.123565,-10510.924376,-306.438199
883.102445,592.164754,-9770.718434,153.219100
883.102769,592.164754,-9400.615463,229.828649
883.103093,518.144159,-8956.491898,153.219100
883.103417,666.185348,-9252.574275,-306.438199
883.103741,1184.329507,-8512.368333,-766.095498
883.104065,666.185348,-7994.224174,-1225.752797
883.104389,-370.102971,-8438.347739,-1072.533697
883.104714,-1332.370696,-9622.677246,-612.876398
883.105038,-1110.308913,-9178.553681,-536.266849
883.105362,0.000000,-8068.244768,-383.047749
883.105686,0.000000,-8142.265362,76.609550
883.106010,-222.061783,-9400.615463,76.609550
883.106334,740.205942,-9548.656652,919.314598
883.106658,1480.411884,-9178.553681,1072.533697
883.106982,222.061783,-8734.430116,1532.190996
883.107307,-1184.329507,-9622.677246,1762.019645
883.107631,-1480.411884,-9696.697840,1532.190996
883.107955,-740.205942,-9474.636058,919.314598
883.108279,-1036.288319,-9400.615463,766.095498
883.108603,-592.164754,-9992.780217,995.924147
883.108927,222.061783,-10140.821405,1225.752797
883.109251,962.267725,-9252.574275,766.095498
883.109575,296.082377,-8660.409521,1072.533697
883.109900,-888.247130,-9622.677246,919.314598
883.110224,-1702.473667,-10658.965565,0.000000
883.110548,-1184.329507,-9770.718434,766.095498
883.110872,-962.267725,-9178.553681,536.266849
883.111196,-1036.288319,-9770.718434,536.266849
883.111520,-814.226536,-10807.006753,1302.362347
883.111844,148.041188,-10510.924376,1455.581446
883.112168,444.123565,-9548.656652,1455.581446
883.112493,-888.247130,-9548.656652,1762.019645
883.112817,-2368.659014,-10288.862594,1455.581446
883.113141,-962.267725,-10140.821405,1455.581446
883.113465,-444.123565,-9548.656652,995.924147
883.113789,-444.123565,-9622.677246,1072.533697
883.114113,-666.185348,-10436.903782,1225.752797
883.114437,370.102971,-10584.944971,995.924147
883.114761,1036.288319,-9252.574275,995.924147
883.115086,74.020594,-8808.450710,76.609550
883.115410,-1554.432478,-9548.656652,0.000000
883.115734,-1776.494261,-10436.903782,-306.438199
883.116058,-518.144159,-10140.821405,76.609550
883.116382,518.144159,-9104.533087,536.266849
883.116706,0.000000,-9030.512492,0.000000
883.117030,296.082377,-9252.574275,76.609550
883.117354,1332.370696,-9178.553681,229.828649
883.117679,1332.370696,-8882.471304,229.828649
883.118003,-666.185348,-9178.553681,459.657299
883.118327,-1184.329507,-9400.615463,612.876398
883.118651,-370.102971,-8364.327145,0.000000
883.118975,1406.391290,-8142.265362,76.609550
883.119299,1406.391290,-8956.491898,229.828649
883.119623,1702.473667,-9548.656652,383.047749
883.119948,1850.514855,-9104.533087,-229.828649
883.120272,1258.350101,-8142.265362,-536.266849
883.120596,-222.061783,-8068.244768,-1149.143247
883.120920,-1332.370696,-9622.677246,-612.876398
883.121244,-592.164754,-10066.800811,-1378.971896
883.121568,0.000000,-9474.636058,-1762.019645
883.121892,0.000000,-8882.471304,-1149.143247
883.122216,444.123565,-10140.821405,-1149.143247
883.122541,1258.350101,-11103.089130,-842.705048
883.122865,1850.514855,-10732.986159,-919.314598
883.123189,814.226536,-9622.677246,-919.314598
883.123513,-296.082377,-10510.924376,0.000000
883.123837,-592.164754,-11695.253884,-919.314598
883.124161,518.144159,-10510.924376,-1072.533697
883.124485,1480.411884,-9548.656652,-766.095498
883.124810,1332.370696,-10658.965565,-995.924147
883.125134,1628.453072,-11103.089130,-842.705048
883.125458,1998.556043,-9770.718434,-1685.410096
883.125782,666.185348,-8734.430116,-2221.676944
883.126106,-888.247130,-9770.718434,-2528.115143
883.126430,-2220.617826,-10732.986159,-2528.115143
883.126754,-1480.411884,-10732.986159,-2221.676944
883.127078,-518.144159,-9770.718434,-2451.505594
883.127403,-444.123565,-10066.800811,-1838.629195
883.127727,-296.082377,-11251.130318,-995.924147
883.128051,1184.329507,-11621.233289,-919.314598
883.128375,1480.411884,-10362.883188,-229.828649
883.128699,148.041188,-9696.697840,-306.438199
883.129023,-1184.329507,-10955.047942,-383.047749
883.129347,-1628.453072,-11473.192101,-459.657299
883.129672,-666.185348,-10140.821405,-459.657299
883.129996,222.061783,-9178.553681,0.000000
883.130320,0.000000,-9030.512492,-612.876398
883.130644,296.082377,-9474.636058,-229.828649
883.130968,666.185348,-8290.306550,-1072.533697
883.131292,-148.041188,-7772.162391,-1532.190996
883.131616,-2146.597232,-8438.347739,-1608.800546
883.131941,-2664.741391,-9474.636058,-1302.362347
883.132265,-1332.370696,-8142.265362,-995.924147
883.132589,-518.144159,-7105.977043,-689.485948
883.132913,296.082377,-7846.182985,459.657299
883.133237,740.205942,-9548.656652,1072.533697
883.133561,1924.535449,-9918.759623,995.924147
883.133885,1776.494261,-9030.512492,1685.410096
883.134209,296.082377,-8882.471304,1532.190996
883.134534,-1036.288319,-10066.800811,1072.533697
883.134858,-1036.288319,-10288.862594,1225.752797
883.135182,-296.082377,-9548.656652,842.705048
883.135506,0.000000,-9104.533087,919.314598
883.135830,0.000000,-9696.697840,383.047749
883.136154,222.061783,-9844.739029,306.438199
883.136478,592.164754,-9104.533087,0.000000
883.136803,-370.102971,-9326.594869,0.000000
883.137127,-2146.597232,-10362.883188,-153.219100
883.137451,-2146.597232,-11103.089130,153.219100
883.137775,-814.226536,-10066.800811,383.047749
883.138099,-296.082377,-9622.677246,766.095498
883.138423,-444.123565,-10658.965565,1991.848295
883.138747,370.102971,-11843.295072,2298.286494
883.139071,1332.370696,-11103.089130,2374.896044
883.139396,740.205942,-9696.697840,2374.896044
883.139720,-740.205942,-10066.800811,1838.629195
883.140044,-1406.391290,-10881.027347,2451.505594
883.140368,-592.164754,-10510.924376,1455.581446
883.140692,-222.061783,-9178.553681,1608.800546
883.141016,-370.102971,-9104.533087,995.924147
883.141340,-148.041188,-9474.636058,383.047749
883.141665,370.102971,-9030.512492,229.828649
883.141989,1036.288319,-8956.491898,536.266849
883.142313,0.000000,-8956.491898,76.609550
883.142637,-1628.453072,-10288.862594,919.314598
883.142961,-1332.370696,-10214.842000,995.924147
883.143285,0.000000,-9252.574275,919.314598
883.143609,370.102971,-8734.430116,1149.143247
883.143934,370.102971,-9400.615463,1685.410096
883.144258,1036.288319,-10066.800811,2068.457845
883.144582,1628.453072,-9326.594869,1762.019645
883.144906,962.267725,-8068.244768,2068.457845
883.145230,-814.226536,-8290.306550,1455.581446
883.145554,-1776.494261,-9696.697840,919.314598
883.145878,-962.267725,-9474.636058,0.000000
883.146202,-148.041188,-8068.244768,-153.219100
883.146527,222.061783,-7698.141797,-306.438199
883.146851,1110.308913,-8882.471304,-459.657299
883.147175,2368.659014,-9474.636058,-459.657299
883.147499,2590.720797,-8438.347739,-612.876398
883.147823,1332.370696,-8734.430116,-1225.752797
883.148147,-592.164754,-9844.739029,-1608.800546
883.148471,-296.082377,-9992.780217,-1685.410096
883.148796,222.061783,-9770.718434,-1378.971896
883.149120,148.041188,-9770.718434,-995.924147
883.149444,666.185348,-10881.027347,-153.219100
883.149768,1110.308913,-10658.965565,0.000000
883.150092,1628.453072,-10140.821405,-306.438199
883.150416,666.185348,-9696.697840,-536.266849
883.150740,-1332.370696,-10140.821405,-766.095498
883.151064,-1702.473667,-10955.047942,-1072.533697
883.151389,-888.247130,-10436.903782,-2298.286494
883.151713,-814.226536,-9030.512492,-2298.286494
883.152037,-666.185348,-9992.780217,-2221.676944
883.152361,-222.061783,-10510.924376,-2987.772442
883.152685,666.185348,-10214.842000,-3294.210641
883.153009,0.000000,-9696.697840,-3217.601092
883.153333,-1554.432478,-10140.821405,-3294.210641
883.153658,-1702.473667,-11547.212695,-2834.553343
883.153982,-148.041188,-11325.150913,-2298.286494
883.154306,1258.350101,-10510.924376,-1532.190996
883.154630,1554.432478,-10288.862594,-766.095498
883.154954,1258.350101,-11325.150913,-612.876398
883.155278,1406.391290,-11325.150913,-306.438199
883.155602,1554.432478,-10214.842000,0.000000
883.155927,0.000000,-9770.718434,-306.438199
883.156251,-1776.494261,-10510.924376,0.000000
883.156575,-1036.288319,-10066.800811,-459.657299
883.156899,-296.082377,-8438.347739,-1532.190996
883.157223,-1036.288319,-7624.121203,-1608.800546
883.157547,-888.247130,-8438.347739,-995.924147
883.157871,0.000000,-9474.636058,-1532.190996
883.158195,592.164754,-8364.327145,-1762.019645
883.158520,74.020594,-7179.997637,-1532.190996
883.158844,-1332.370696,-8660.409521,-995.924147
883.159168,-740.205942,-10584.944971,-995.924147
883.159492,592.164754,-9548.656652,-306.438199
883.159816,1480.411884,-8586.388927,0.000000
883.160140,1480.411884,-9252.574275,459.657299
883.160464,1702.473667,-10510.924376,919.314598
883.160789,2590.720797,-10658.965565,1685.410096
883.161113,2590.720797,-9844.739029,1685.410096
883.161437,1110.308913,-9696.697840,1685.410096
883.161761,-592.164754,-10732.986159,1455.581446
883.162085,-1332.370696,-11251.130318,1225.752797
883.162409,-518.144159,-9474.636058,689.485948
883.162733,-1110.308913,-8216.285956,536.266849
883.163057,-1258.350101,-9104.533087,459.657299
883.163382,0.000000,-9622.677246,0.000000
883.163706,0.000000,-8956.491898,-306.438199
883.164030,-1036.288319,-7846.182985,-229.828649
883.164354,-2368.659014,-8808.450710,-536.266849
883.164678,-2368.659014,-9918.759623,-995.924147
883.165002,-1110.308913,-9474.636058,153.219100
883.165326,-444.123565,-8512.368333,689.485948
883.165651,0.000000,-10140.821405,1532.190996
883.165975,888.247130,-11621.233289,2451.505594
883.166299,1924.535449,-10732.986159,2528.115143
883.166623,1480.411884,-9844.739029,3140.991542
883.166947,0.000000,-9992.780217,2834.553343
883.167271,-1554.432478,-10584.944971,2451.505594
883.167595,-1776.494261,-10288.862594,1762.019645
883.167920,-1554.432478,-9104.533087,919.314598
883.168244,-1110.308913,-9104.533087,766.095498
883.168568,-1332.370696,-9030.512492,229.828649
883.168892,-518.144159,-9030.512492,0.000000
883.169216,-148.041188,-8438.347739,-612.876398
883.169540,-1406.391290,-8734.430116,-1455.581446
883.169864,-2516.700203,-9622.677246,-689.485948
883.170188,-1554.432478,-10288.862594,0.000000
883.170513,-296.082377,-9474.636058,0.000000
883.170837,518.144159,-9252.574275,842.705048
883.171161,1036.288319,-10436.903782,1685.410096
883.171485,2146.597232,-11177.109724,2451.505594
883.171809,3182.885551,-10362.883188,2681.334243
883.172133,2960.823768,-9252.574275,2604.724693
883.172457,888.247130,-9474.636058,2604.724693
883.172782,-814.226536,-9992.780217,1915.238745
883.173106,-1184.329507,-8956.491898,612.876398
883.173430,-1332.370696,-7698.141797,0.000000
883.173754,-1480.411884,-7476.080014,-536.266849
883.174078,-592.164754,-8364.327145,-995.924147
883.174402,518.144159,-8068.244768,-1915.238745
883.174726,666.185348,-7772.162391,-2068.457845
883.175050,-666.185348,-8734.430116,-2145.067394
883.175375,-888.247130,-9992.780217,-1762.019645
883.175699,222.061783,-10214.842000,-1532.190996
883.176023,1628.453072,-9770.718434,-1072.533697
883.176347,1924.535449,-9992.780217,-383.047749
883.176671,2294.638420,-11473.192101,536.266849
883.176995,3552.988522,-12139.377449,536.266849
883.177319,3627.009116,-11177.109724,1072.533697
883.177644,1998.556043,-10214.842000,1302.362347
883.177968,-518.144159,-11177.109724,919.314598
883.178292,-1850.514855,-11621.233289,-153.219100
883.178616,-2146.597232,-9918.759623,-919.314598
883.178940,-2368.659014,-8734.430116,-1915.238745
883.179264,-3182.885551,-9178.553681,-2298.286494
883.179588,-1850.514855,-9622.677246,-2451.505594
883.179913,-740.205942,-8660.409521,-3064.381992
883.180237,-518.144159,-8216.285956,-3753.867940
883.180561,-1998.556043,-8956.491898,-4060.306139
883.180885,-1998.556043,-10658.965565,-3524.039291
883.181209,0.000000,-10658.965565,-2681.334243
883.181533,1776.494261,-9844.739029,-1838.629195
883.181857,2294.638420,-10066.800811,-689.485948
883.182181,2738.761985,-11843.295072,383.047749
883.182506,3997.112087,-11547.212695,0.000000
883.182830,4219.173869,-10436.903782,919.314598
883.183154,2368.659014,-10288.862594,766.095498
883.183478,74.020594,-11695.253884,766.095498
883.183802,-1036.288319,-11621.233289,0.000000
883.184126,-2146.597232,-9844.739029,-995.924147
883.184450,-2812.782580,-8364.327145,-1915.238745
883.184775,-2442.679609,-9030.512492,-2528.115143
883.185099,-1628.453072,-9178.553681,-2911.162892
883.185423,-444.123565,-8808.450710,-2987.772442
883.185747,-962.267725,-7994.224174,-3140.991542
883.186071,-2368.659014,-8956.491898,-3217.601092
883.186395,-2220.617826,-10362.883188,-2681.334243
883.186719,-592.164754,-10288.862594,-2145.067394
883.187043,740.205942,-9474.636058,-842.705048
883.187368,1258.350101,-9622.677246,536.266849
883.187692,2442.679609,-11547.212695,1455.581446
883.188016,3701.029710,-11399.171507,1838.629195
883.188340,3627.009116,-9696.697840,2145.067394
883.188664,1702.473667,-9844.739029,2604.724693
883.188988,-370.102971,-10584.944971,2451.505594
883.189312,-1406.391290,-9844.739029,1149.143247
883.189637,-1776.494261,-8364.327145,459.657299
883.189961,-1628.453072,-7698.141797,0.000000
883.190285,-1332.370696,-8216.285956,0.000000
883.190609,0.000000,-8438.347739,0.000000
883.190933,74.020594,-7698.141797,-612.876398
883.191257,-1258.350101,-7402.059420,-842.705048
883.191581,-2516.700203,-8660.409521,-459.657299
883.191906,-2072.576638,-9548.656652,-766.095498
883.192230,-814.226536,-9400.615463,0.000000
883.192554,-296.082377,-9474.636058,766.095498
883.192878,0.000000,-10955.047942,1838.629195
883.193202,1258.350101,-11991.336260,2757.943793
883.193526,2738.761985,-11251.130318,3217.601092
883.193850,1924.535449,-9770.718434,2987.772442
883.194174,-370.102971,-10214.842000,2068.457845
883.194499,-2220.617826,-10658.965565,2221.676944
883.194823,-1850.514855,-11029.068536,1991.848295
883.195147,-1702.473667,-9548.656652,1608.800546
883.195471,-1258.350101,-9326.594869,1685.410096
883.195795,-888.247130,-9844.739029,766.095498
883.196119,222.061783,-9474.636058,229.828649
883.196443,148.041188,-8734.430116,383.047749
883.196768,-1184.329507,-9030.512492,-383.047749
883.197092,-2146.597232,-9770.718434,229.828649
883.197416,-1184.329507,-10288.862594,0.000000
883.197740,148.041188,-8956.491898,76.609550
883.198064,518.144159,-8808.450710,459.657299
883.198388,740.205942,-10066.800811,1302.362347
883.198712,2294.638420,-10362.883188,2221.676944
883.199036,3034.844362,-9474.636058,2528.115143
883.199361,2220.617826,-8068.244768,2298.286494
883.199685,518.144159,-9548.656652,2681.334243
883.200009,-814.226536,-10732.986159,1838.629195
883.200333,-666.185348,-9548.656652,995.924147
883.200657,-444.123565,-8364.327145,766.095498
883.200981,-296.082377,-8068.244768,153.219100
883.201305,296.082377,-9178.553681,153.219100
883.201630,1332.370696,-8956.491898,-306.438199
883.201954,1480.411884,-7624.121203,-1072.533697
883.202278,74.020594,-7624.121203,-2298.286494
883.202602,-1554.432478,-8956.491898,-2068.457845
883.202926,-666.185348,-9622.677246,-2604.724693
883.203250,444.123565,-9474.636058,-2374.896044
883.203574,666.185348,-9400.615463,-1685.410096
883.203899,1258.350101,-10658.965565,-1149.143247
883.204223,3182.885551,-11769.274478,-766.095498
883.204547,3034.844362,-10066.800811,-536.266849
883.204871,1332.370696,-9622.677246,229.828649
883.205195,-1258.350101,-10807.006753,-306.438199
883.205519,-1628.453072,-11991.336260,-689.485948
883.205843,-1036.288319,-10807.006753,-995.924147
883.206167,-148.041188,-9548.656652,-1072.533697
883.206492,0.000000,-9844.739029,-995.924147
883.206816,888.247130,-10807.006753,-1915.238745
883.207140,1110.308913,-9400.615463,-3064.381992
883.207464,-370.102971,-8586.388927,-3217.601092
883.207788,-2368.659014,-9548.656652,-3600.648841
883.208112,-3330.926739,-11103.089130,-3600.648841
883.208436,-2442.679609,-9992.780217,-3830.477490
883.208761,-814.226536,-9474.636058,-2911.162892
883.209085,0.000000,-10436.903782,-2681.334243
883.209409,740.205942,-11843.295072,-1608.800546
883.209733,2368.659014,-11843.295072,-612.876398
883.210057,3256.906145,-10584.944971,306.438199
883.210381,1628.453072,-10140.821405,459.657299
883.210705,0.000000,-10881.027347,689.485948
883.211029,-370.102971,-10881.027347,536.266849
883.211354,0.000000,-9474.636058,0.000000
883.211678,-148.041188,-8734.430116,0.000000
883.212002,0.000000,-9326.594869,229.828649
883.212326,1036.288319,-8660.409521,-459.657299
883.212650,518.144159,-7994.224174,-612.876398
883.212974,-740.205942,-7550.100608,-995.924147
883.213298,-2516.700203,-7994.224174,-1838.629195
883.213623,-3108.864956,-9622.677246,-1838.629195
883.213947,-1406.391290,-9548.656652,-1991.848295
883.214271,-518.144159,-8290.306550,-1762.019645
883.214595,0.000000,-8808.450710,-612.876398
883.214919,1406.391290,-10436.903782,612.876398
883.215243,3256.906145,-11251.130318,1149.143247
883.215567,2442.679609,-9326.594869,1225.752797
883.215892,370.102971,-9770.718434,1991.848295
883.216216,-888.247130,-10881.027347,2145.067394
883.216540,0.000000,-10955.047942,1915.238745
883.216864,222.061783,-9770.718434,2145.067394
883.217188,-666.185348,-9104.533087,1685.410096
883.217513,-666.185348,-9030.512492,1685.410096
883.217837,-592.164754,-8808.450710,1072.533697
883.218161,-592.164754,-8142.265362,-383.047749
883.218485,-2368.659014,-7624.121203,-766.095498
883.218809,-4071.132681,-8586.388927,-1455.581446
883.219134,-3182.885551,-9548.656652,-1685.410096
883.219458,-1628.453072,-8956.491898,-1225.752797
883.219782,0.000000,-9178.553681,-536.266849
883.220106,0.000000,-10362.883188,612.876398
883.220430,2220.617826,-11325.150913,1302.362347
883.220755,3256.906145,-10436.903782,1991.848295
883.221079,2886.803174,-10140.821405,2221.676944
883.221403,1184.329507,-11251.130318,2298.286494
883.221727,592.164754,-12287.418637,2604.724693
883.222051,1258.350101,-11473.192101,2604.724693
883.222376,1184.329507,-9622.677246,2374.896044
883.222700,296.082377,-9622.677246,2451.505594
883.223024,-296.082377,-10140.821405,1608.800546
883.223348,-740.205942,-9178.553681,459.657299
883.223672,-1776.494261,-8290.306550,-536.266849
883.223997,-3478.967927,-8290.306550,-1225.752797
883.224321,-3923.091493,-8956.491898,-1378.971896
883.224645,-2294.638420,-8734.430116,-995.924147
883.224969,-888.247130,-7846.182985,-766.095498
883.225293,0.000000,-8216.285956,0.000000
883.225618,518.144159,-9400.615463,612.876398
883.225942,1924.535449,-10288.862594,1378.971896
883.226266,3627.009116,-9474.636058,1685.410096
883.226590,2812.782580,-9178.553681,1838.629195
883.226914,888.247130,-10140.821405,2068.457845
883.227239,592.164754,-10732.986159,1915.238745
883.227563,1702.473667,-10658.965565,1915.238745
883.227887,888.247130,-9474.636058,1455.581446
883.228211,-148.041188,-9326.594869,1072.533697
883.228536,-666.185348,-9252.574275,229.828649
883.228860,-444.123565,-8438.347739,-536.266849
883.229184,-1036.288319,-7476.080014,-1608.800546
883.229508,-2590.720797,-7994.224174,-1915.238745
883.229832,-3256.906145,-9474.636058,-1685.410096
883.230157,-1628.453072,-8956.491898,-2145.067394
883.230481,-148.041188,-7772.162391,-1225.752797
883.230805,962.267725,-8882.471304,-995.924147
883.231129,1924.535449,-10732.986159,-536.266849
883.231453,3034.844362,-11103.089130,-153.219100
883.231778,3034.844362,-10584.944971,919.314598
883.232102,1332.370696,-10140.821405,612.876398
883.232426,-296.082377,-11473.192101,612.876398
883.232750,148.041188,-11843.295072,0.000000
883.233074,370.102971,-10436.903782,-995.924147
883.233399,-296.082377,-9992.780217,-1225.752797
883.233723,-814.226536,-10658.965565,-995.924147
883.234047,222.061783,-11325.150913,-1225.752797
883.234371,888.247130,-9548.656652,-1378.971896
883.234695,148.041188,-8660.409521,-3064.381992
883.235020,-2146.597232,-9104.533087,-1915.238745
883.235344,-1998.556043,-11103.089130,-2987.772442
883.235668,-740.205942,-11029.068536,-2145.067394
883.235992,0.000000,-9918.759623,-1685.410096
883.236316,0.000000,-10214.842000,-1532.190996
883.236641,444.123565,-11325.150913,-919.314598
883.236965,1258.350101,-10584.944971,-1455.581446
883.237289,666.185348,-9104.533087,-842.705048
883.237613,-666.185348,-9474.636058,-766.095498
883.237937,-1702.473667,-11029.068536,-612.876398
883.238262,-814.226536,-10584.944971,0.000000
883.238586,222.061783,-8882.471304,76.609550
883.238910,222.061783,-8734.430116,229.828649
883.239234,-148.041188,-9474.636058,0.000000
883.239558,444.123565,-9252.574275,-536.266849
883.239883,518.144159,-7698.141797,-612.876398
883.240207,-814.226536,-7328.038826,-383.047749
883.240531,-1776.494261,-8808.450710,-1072.533697
883.240855,-2072.576638,-9400.615463,-995.924147
883.241180,-1110.308913,-8586.388927,-1225.752797
883.241504,-666.185348,-8142.265362,-689.485948
883.241828,0.000000,-9104.533087,-612.876398
883.242152,666.185348,-10066.800811,536.266849
883.242476,1628.453072,-9548.656652,612.876398
883.242801,518.144159,-8808.450710,153.219100
883.243125,-1332.370696,-9400.615463,689.485948
883.243449,-1554.432478,-10955.047942,1072.533697
883.243773,-592.164754,-10955.047942,689.485948
883.244097,370.102971,-9548.656652,919.314598
883.244422,222.061783,-9178.553681,1302.362347
883.244746,444.123565,-10214.842000,1149.143247
883.245070,1332.370696,-10288.862594,995.924147
883.245394,1258.350101,-9030.512492,766.095498
883.245718,-740.205942,-8512.368333,306.438199
883.246043,-2220.617826,-9992.780217,0.000000
883.246367,-1702.473667,-10362.883188,-229.828649
883.246691,-370.102971,-9474.636058,0.000000
883.247015,-222.061783,-9178.553681,306.438199
883.247339,-370.102971,-10066.800811,995.924147
883.247664,222.061783,-10732.986159,842.705048
883.247988,1554.432478,-9548.656652,842.705048
883.248312,888.247130,-9104.533087,995.924147
883.248636,-814.226536,-10214.842000,842.705048
883.248960,-1110.308913,-10807.006753,536.266849
883.249285,0.000000,-10140.821405,1608.800546
883.249609,1258.350101,-9548.656652,1762.019645
883.249933,1998.556043,-10362.883188,2145.067394
883.250257,1850.514855,-10658.965565,1762.019645
883.250581,1850.514855,-9622.677246,1685.410096
883.250906,1258.350101,-9252.574275,1072.533697
883.251230,-962.267725,-9400.615463,689.485948
883.251554,-2220.617826,-9992.780217,459.657299
883.251878,-2146.597232,-9474.636058,0.000000
883.252202,-1332.370696,-8290.306550,-306.438199
883.252527,-1036.288319,-7994.224174,-306.438199
883.252851,-666.185348,-9178.553681,-229.828649
883.253175,444.123565,-9326.594869,229.828649
883.253499,1184.329507,-8290.306550,459.657299
883.253824,222.061783,-8068.244768,766.095498
883.254148,-1184.329507,-9104.533087,689.485948
883.254472,-962.267725,-9918.759623,1149.143247
883.254796,444.123565,-8512.368333,-153.219100
883.255120,518.144159,-7698.141797,0.000000
883.255445,1480.411884,-9104.533087,689.485948
883.255769,1702.473667,-10066.800811,536.266849
883.256093,2294.638420,-9770.718434,612.876398
883.256417,1110.308913,-8586.388927,0.000000
883.256741,-888.247130,-9474.636058,-919.314598
883.257066,-2294.638420,-10510.924376,-1838.629195
883.257390,-1332.370696,-10214.842000,-1991.848295
883.257714,-518.144159,-9474.636058,-2068.457845
883.258038,-1258.350101,-9992.780217,-1072.533697
883.258362,-296.082377,-11251.130318,-459.657299
883.258687,962.267725,-11547.212695,-612.876398
883.259011,1332.370696,-10510.924376,-919.314598
883.259335,-222.061783,-10066.800811,-919.314598
883.259659,-1554.432478,-11325.150913,0.000000
883.259983,-814.226536,-11991.336260,-919.314598
883.260308,1110.308913,-10436.903782,-306.438199
883.260632,1332.370696,-10066.800811,153.219100
883.260956,1406.391290,-10584.944971,-383.047749
883.261280,1998.556043,-10955.047942,-842.705048
883.261604,2072.576638,-10066.800811,-995.924147
883.261929,-148.041188,-9474.636058,-1225.752797
883.262253,-2516.700203,-10955.047942,-1838.629195
883.262577,-2812.782580,-10732.986159,-1915.238745
883.262901,-1998.556043,-9844.739029,-2451.505594
883.263225,-814.226536,-8882.471304,-1838.629195
883.263550,-370.102971,-9252.574275,-1532.190996
883.263874,74.020594,-10066.800811,-1072.533697
883.264198,962.267725,-9548.656652,-612.876398
883.264522,1036.288319,-8882.471304,306.438199
883.264846,0.000000,-9326.594869,383.047749
883.265171,-518.144159,-10584.944971,-229.828649
883.265495,-296.082377,-10066.800811,536.266849
883.265819,148.041188,-8660.409521,0.000000
883.266143,148.041188,-8512.368333,-383.047749
883.266468,444.123565,-9326.594869,306.438199
883.266792,1406.391290,-9252.574275,153.219100
883.267116,1554.432478,-7624.121203,-229.828649
883.267440,-296.082377,-7179.997637,-689.485948
883.267764,-2368.659014,-8290.306550,-995.924147
883.268089,-1998.556043,-9400.615463,-1072.533697
883.268413,-444.123565,-8882.471304,-1149.143247
883.268737,0.000000,-8068.244768,-383.047749
883.269061,0.000000,-9104.533087,76.609550
883.269385,148.041188,-10140.821405,153.219100
883.269710,1406.391290,-9844.739029,919.314598
883.270034,1554.432478,-9844.739029,689.485948
883.270358,-148.041188,-10362.883188,766.095498
883.270682,-1110.308913,-11103.089130,1072.533697
883.271006,-444.123565,-10881.027347,919.314598
883.271331,444.123565,-9918.759623,536.266849
883.271655,222.061783,-10288.862594,0.000000
883.271979,0.000000,-10658.965565,766.095498
883.272303,592.164754,-10288.862594,0.000000
883.272627,0.000000,-9474.636058,-306.438199
883.272952,-1850.514855,-9474.636058,-306.438199
883.273276,-3256.906145,-10510.924376,-766.095498
883.273600,-2590.720797,-10955.047942,-842.705048
883.273924,-1036.288319,-9696.697840,-689.485948
883.274248,0.000000,-9326.594869,919.314598
883.274573,888.247130,-10584.944971,1225.752797
883.274897,1554.432478,-10955.047942,1149.143247
883.275221,1924.535449,-10288.862594,2298.286494
883.275545,1110.308913,-9474.636058,1302.362347
883.275869,-666.185348,-9992.780217,1302.362347
883.276194,-1332.370696,-10362.883188,1072.533697
883.276518,-444.123565,-9696.697840,536.266849
883.276842,0.000000,-8882.471304,306.438199
883.277166,-148.041188,-9030.512492,383.047749
883.277491,814.226536,-9696.697840,0.000000
883.277815,518.144159,-9252.574275,0.000000
883.278139,0.000000,-8364.327145,-306.438199
883.278463,-1480.411884,-8956.491898,0.000000
883.278787,-2072.576638,-10214.842000,76.609550
883.279112,-962.267725,-9474.636058,306.438199
883.279436,740.205942,-8438.347739,1532.190996
883.279760,1184.329507,-8956.491898,1608.800546
883.280084,1184.329507,-10140.821405,1149.143247
883.280408,1036.288319,-9844.739029,1149.143247
883.280733,592.164754,-9030.512492,1149.143247
883.281057,0.000000,-9400.615463,766.095498
883.281381,-1628.453072,-9992.780217,306.438199
883.281705,-1628.453072,-9992.780217,995.924147
883.282029,-962.267725,-8586.388927,383.047749
883.282354,370.102971,-8438.347739,-383.047749
883.282678,814.226536,-8956.491898,153.219100
883.283002,1776.494261,-9104.533087,459.657299
883.283326,2590.720797,-8586.388927,153.219100
883.283650,1554.432478,-7846.182985,0.000000
883.283975,-222.061783,-8142.265362,-383.047749
883.284299,-1110.308913,-9474.636058,-919.314598
883.284623,-1036.288319,-9474.636058,-1302.362347
883.284947,-962.267725,-9030.512492,-995.924147
883.285271,-148.041188,-9770.718434,-459.657299
883.285596,814.226536,-10955.047942,229.828649
883.285920,1776.494261,-11325.150913,383.047749
883.286244,740.205942,-9622.677246,153.219100
883.286568,-444.123565,-10140.821405,-612.876398
883.286892,-1258.350101,-11843.295072,-76.609550
883.287217,-962.267725,-11473.192101,-229.828649
883.287541,0.000000,-9992.780217,-229.828649
883.287865,0.000000,-9622.677246,0.000000
883.288189,370.102971,-11251.130318,0.000000
883.288513,1258.350101,-10955.047942,-383.047749
883.288838,1480.411884,-9474.636058,-1378.971896
883.289162,-222.061783,-8586.388927,-1685.410096
883.289486,-2368.659014,-9474.636058,-1762.019645
883.289810,-1924.535449,-10510.924376,-1762.019645
883.290135,-962.267725,-9770.718434,-1455.581446
883.290459,-370.102971,-8882.471304,-1072.533697
883.290783,-370.102971,-9474.636058,-842.705048
883.291107,518.144159,-9770.718434,0.000000
883.291431,1924.535449,-9252.574275,229.828649
883.291756,1850.514855,-8882.471304,383.047749
883.292080,296.082377,-9474.636058,919.314598
883.292404,-518.144159,-10510.924376,1378.971896
883.292728,-148.041188,-9844.739029,459.657299
883.293052,444.123565,-8956.491898,-306.438199
883.293377,592.164754,-8956.491898,-229.828649
883.293701,740.205942,-9844.739029,-459.657299
883.294025,1332.370696,-9474.636058,-383.047749
883.294349,1110.308913,-7772.162391,-1378.971896
883.294673,-592.164754,-8438.347739,-1991.848295
883.294998,-2294.638420,-9474.636058,-2451.505594
883.295322,-1924.535449,-10214.842000,-2298.286494
883.295646,-1110.308913,-9548.656652,-1915.238745
883.295970,-444.123565,-9474.636058,-383.047749
883.296294,148.041188,-10510.924376,536.266849
883.296619,814.226536,-10881.027347,919.314598
883.296943,1924.535449,-10214.842000,919.314598
883.297267,1776.494261,-9548.656652,1149.143247
883.297591,518.144159,-10436.903782,1532.190996
883.297915,0.000000,-11399.171507,1532.190996
883.298240,0.000000,-10584.944971,1149.143247
883.298564,0.000000,-8734.430116,536.266849
883.298888,-666.185348,-8660.409521,-459.657299
883.299212,-1036.288319,-9622.677246,-1149.143247
883.299536,518.144159,-9918.759623,-1302.362347
883.299861,296.082377,-9252.574275,-1072.533697
883.300185,-1554.432478,-9104.533087,-1149.143247
883.300509,-2516.700203,-9548.656652,-1378.971896
883.300833,-1850.514855,-9622.677246,-1608.800546
883.301157,-962.267725,-9696.697840,-766.095498
883.301482,-444.123565,-10732.986159,459.657299
883.301806,0.000000,-11177.109724,1532.190996
883.302130,518.144159,-10436.903782,1532.190996
883.302454,1258.350101,-10140.821405,2298.286494
883.302779,444.123565,-10214.842000,1991.848295
883.303103,-740.205942,-11029.068536,2374.896044
883.303427,-740.205942,-11029.068536,2451.505594
883.303751,-74.020594,-9770.718434,2068.457845
883.304075,444.123565,-8660.409521,2145.067394
883.304400,592.164754,-8438.347739,1378.971896
883.304724,296.082377,-9104.533087,1072.533697
883.305048,592.164754,-8586.388927,-229.828649
883.305372,-740.205942,-7328.038826,-1072.533697
883.305696,-2368.659014,-7920.203579,-995.924147
883.306021,-2294.638420,-9178.553681,-153.219100
883.306345,0.000000,-8512.368333,0.000000
883.306669,814.226536,-7624.121203,76.609550
883.306993,888.247130,-8512.368333,1072.533697
883.307317,740.205942,-9622.677246,1762.019645
883.307642,1924.535449,-9622.677246,2757.943793
883.307966,2812.782580,-8882.471304,3217.601092
883.308290,2368.659014,-9400.615463,3294.210641
883.308614,592.164754,-10658.965565,3294.210641
883.308938,0.000000,-10658.965565,2604.724693
883.309263,-222.061783,-9030.512492,2068.457845
883.309587,-296.082377,-8808.450710,536.266849
883.309911,-1036.288319,-9326.594869,-536.266849
883.310235,-666.185348,-9844.739029,-1072.533697
883.310559,0.000000,-9252.574275,-1991.848295
883.310884,-592.164754,-8290.306550,-2911.162892
883.311208,-2072.576638,-9178.553681,-1991.848295
883.311532,-1998.556043,-10510.924376,-2145.067394
883.311856,-666.185348,-9844.739029,-2528.115143
883.312180,518.144159,-9622.677246,-1378.971896
883.312505,666.185348,-10510.924376,0.000000
883.312829,2072.576638,-12287.418637,689.485948
883.313153,2812.782580,-12509.480420,1532.190996
883.313477,2812.782580,-10881.027347,1225.752797
883.313801,1184.329507,-9770.718434,1685.410096
883.314126,0.000000,-11251.130318,153.219100
883.314450,-666.185348,-11103.089130,-306.438199
883.314774,-592.164754,-9918.759623,-1149.143247
883.315098,-518.144159,-9326.594869,-1762.019645
883.315423,-296.082377,-9548.656652,-2451.505594
883.315747,0.000000,-9474.636058,-2451.505594
883.316071,0.000000,-8586.388927,-3753.867940
883.316395,-1554.432478,-8512.368333,-3907.087040
883.316719,-2812.782580,-10288.862594,-3217.601092
883.317044,-2294.638420,-11029.068536,-2681.334243
883.317368,-666.185348,-10362.883188,-2298.286494
883.317692,-370.102971,-9474.636058,-1455.581446
883.318016,-518.144159,-10214.842000,-229.828649
883.318341,444.123565,-11399.171507,306.438199
883.318665,2072.576638,-11325.150913,1225.752797
883.318989,1776.494261,-9252.574275,1685.410096
883.319313,666.185348,-9474.636058,995.924147
883.319638,0.000000,-10066.800811,689.485948
883.319962,222.061783,-9622.677246,306.438199
883.320286,666.185348,-8438.347739,-689.485948
883.320610,518.144159,-7846.182985,-383.047749
883.320934,666.185348,-8586.388927,-1072.533697
883.321259,1850.514855,-8438.347739,-995.924147
883.321583,1776.494261,-7624.121203,-1378.971896
883.321907,-296.082377,-7846.182985,-1762.019645
883.322231,-1924.535449,-8956.491898,-1378.971896
883.322556,-1924.535449,-9030.512492,-1302.362347
883.322880,-962.267725,-8512.368333,-1455.581446
883.323204,-592.164754,-8660.409521,76.609550
883.323528,-666.185348,-9622.677246,1378.971896
883.323853,518.144159,-10732.986159,1685.410096
883.324177,1258.350101,-9992.780217,1378.971896
883.324501,740.205942,-9474.636058,1915.238745
883.324825,-518.144159,-10436.903782,2298.286494
883.325150,-666.185348,-11843.295072,1378.971896
883.325474,-370.102971,-11103.089130,1225.752797
883.325798,-666.185348,-9622.677246,0.000000
883.326122,-1036.288319,-10288.862594,153.219100
883.326446,0.000000,-10658.965565,-459.657299
883.326771,962.267725,-10288.862594,-383.047749
883.327095,888.247130,-9622.677246,-459.657299
883.327419,-592.164754,-9918.759623,-995.924147
883.327743,-1554.432478,-10288.862594,-383.047749
883.328068,-1332.370696,-9844.739029,-919.314598
883.328392,-370.102971,-9252.574275,0.000000
883.328716,-814.226536,-8956.491898,383.047749
883.329040,-962.267725,-10732.986159,995.924147
883.329365,222.061783,-10881.027347,1532.190996
883.329689,1554.432478,-9548.656652,1608.800546
883.330013,666.185348,-9400.615463,2298.286494
883.330337,-814.226536,-10658.965565,1991.848295
883.330662,-2072.576638,-10214.842000,1608.800546
883.330986,-1184.329507,-9326.594869,2068.457845
883.331310,-444.123565,-8512.368333,1455.581446
883.331634,518.144159,-9326.594869,995.924147
883.331958,1406.391290,-9992.780217,612.876398
883.332283,2516.700203,-8956.491898,229.828649
883.332607,2294.638420,-7994.224174,-459.657299
883.332931,370.102971,-8586.388927,-153.219100
883.333255,-814.226536,-9770.718434,-689.485948
883.333580,-296.082377,-10214.842000,0.000000
883.333904,-296.082377,-9252.574275,229.828649
883.334228,-370.102971,-8882.471304,612.876398
883.334552,296.082377,-9918.759623,995.924147
883.334877,1332.370696,-10140.821405,1455.581446
883.335201,1850.514855,-8734.430116,1608.800546
883.335525,-370.102971,-8364.327145,1915.238745
883.335849,-1924.535449,-9400.615463,1685.410096
883.336174,-1776.494261,-9548.656652,842.705048
883.336498,-1184.329507,-8290.306550,306.438199
883.336822,-370.102971,-7328.038826,383.047749
883.337146,666.185348,-9030.512492,842.705048
883.337470,1924.535449,-10214.842000,1225.752797
883.337795,2442.679609,-9326.594869,153.219100
883.338119,1258.350101,-8660.409521,0.000000
883.338443,-296.082377,-9400.615463,-1225.752797
883.338767,-1110.308913,-10732.986159,-1225.752797
883.339092,-1480.411884,-10362.883188,-1455.581446
883.339416,-1998.556043,-9474.636058,-1685.410096
883.339740,-1998.556043,-10510.924376,-995.924147
883.340064,-666.185348,-11325.150913,-689.485948
883.340389,1702.473667,-10436.903782,-153.219100
883.340713,1110.308913,-8734.430116,-306.438199
883.341037,-740.205942,-9844.739029,0.000000
883.341361,-1184.329507,-11473.192101,306.438199
883.341686,-296.082377,-11621.233289,919.314598
883.342010,1110.308913,-9992.780217,766.095498
883.342334,1184.329507,-8808.450710,459.657299
883.342658,2072.576638,-10362.883188,383.047749
883.342983,2368.659014,-10584.944971,76.609550
883.343307,1628.453072,-9992.780217,-1072.533697
883.343631,-370.102971,-9400.615463,-2068.457845
883.343955,-2368.659014,-9622.677246,-2681.334243
883.344279,-2368.659014,-9844.739029,-3140.991542
883.344604,-1480.411884,-9326.594869,-3217.601092
883.344928,-592.164754,-9030.512492,-2604.724693
883.345252,-1110.308913,-9844.739029,-2298.286494
883.345576,-518.144159,-10214.842000,-1762.019645
883.345901,1110.308913,-9474.636058,-1149.143247
883.346225,666.185348,-8660.409521,-612.876398
883.346549,-888.247130,-9918.759623,306.438199
883.346873,-1702.473667,-11547.212695,995.924147
883.347198,-444.123565,-11251.130318,76.609550
883.347522,1184.329507,-9474.636058,306.438199
883.347846,1702.473667,-8956.491898,689.485948
883.348170,3701.029710,-9622.677246,0.000000
883.348495,3849.070898,-9918.759623,-306.438199
883.348819,2220.617826,-8956.491898,-1762.019645
883.349143,-592.164754,-8586.388927,-2451.505594
883.349467,-2294.638420,-9622.677246,-2681.334243
883.349791,-1924.535449,-9104.533087,-3064.381992
883.350116,-814.226536,-9030.512492,-2374.896044
883.350440,-148.041188,-9030.512492,-1991.848295
883.350764,-148.041188,-10066.800811,-842.705048
883.351088,296.082377,-10436.903782,0.000000
883.351413,518.144159,-9326.594869,76.609550
883.351737,-888.247130,-9178.553681,919.314598
883.352061,-2368.659014,-10807.006753,1685.410096
883.352385,-2146.597232,-11621.233289,1762.019645
883.352710,222.061783,-11177.109724,2145.067394
883.353034,1554.432478,-9474.636058,2068.457845
883.353358,2072.576638,-9474.636058,2298.286494
883.353682,2294.638420,-9474.636058,842.705048
883.354007,1850.514855,-8808.450710,0.000000
883.354331,74.020594,-9252.574275,-995.924147
883.354655,-2072.576638,-9918.759623,-1302.362347
883.354979,-2516.700203,-10658.965565,-1378.971896
883.355303,-1924.535449,-9696.697840,-919.314598
883.355628,-1258.350101,-8734.430116,-689.485948
883.355952,-444.123565,-9696.697840,-229.828649
883.356276,0.000000,-10881.027347,1149.143247
883.356600,814.226536,-10584.944971,1991.848295
883.356925,1776.494261,-9326.594869,3370.820191
883.357249,370.102971,-9178.553681,3294.210641
883.357573,-592.164754,-10066.800811,3064.381992
883.357897,-1036.288319,-10140.821405,2298.286494
883.358222,-1036.288319,-9030.512492,1762.019645
883.358546,-814.226536,-8438.347739,1378.971896
883.358870,-666.185348,-8956.491898,919.314598
883.359194,0.000000,-9252.574275,612.876398
883.359519,592.164754,-9030.512492,153.219100
883.359843,-592.164754,-8882.471304,0.000000
883.360167,-2146.597232,-9770.718434,153.219100
883.360491,-2960.823768,-9696.697840,76.609550
883.360815,-1258.350101,-9178.553681,306.438199
883.361140,444.123565,-8364.327145,689.485948
883.361464,1554.432478,-8660.409521,1608.800546
883.361788,2442.679609,-9696.697840,2604.724693
883.362112,3330.926739,-8808.450710,2528.115143
883.362437,2812.782580,-8068.244768,2911.162892
883.362761,518.144159,-8068.244768,1915.238745
883.363085,-1184.329507,-9696.697840,1455.581446
883.363409,-1110.308913,-9400.615463,995.924147
883.363734,0.000000,-8438.347739,383.047749
883.364058,74.020594,-8660.409521,766.095498
883.364382,814.226536,-9178.553681,766.095498
883.364706,1110.308913,-9474.636058,-306.438199
883.365031,1110.308913,-8438.347739,-383.047749
883.365355,-296.082377,-8512.368333,-1532.190996
883.365679,-1406.391290,-10066.800811,-1149.143247
883.366003,-888.247130,-11399.171507,-995.924147
883.366328,148.041188,-10658.965565,-766.095498
883.366652,1036.288319,-9622.677246,-1072.533697
883.366976,222.061783,-10584.944971,-229.828649
883.367300,370.102971,-11399.171507,-842.705048
883.367624,444.123565,-10881.027347,-995.924147
883.367949,-666.185348,-10436.903782,-1378.971896
883.368273,-2368.659014,-10807.006753,-1072.533697
883.368597,-2960.823768,-11695.253884,-1072.533697
883.368921,-1480.411884,-11177.109724,-1225.752797
883.369246,0.000000,-9696.697840,-1378.971896
883.369570,444.123565,-9622.677246,-689.485948
883.369894,1406.391290,-10584.944971,-766.095498
883.370218,1776.494261,-10510.924376,-1455.581446
883.370543,888.247130,-8808.450710,-1838.629195
883.370867,0.000000,-8660.409521,-2374.896044
883.371191,-1110.308913,-10066.800811,-2298.286494
883.371515,-592.164754,-11621.233289,-2298.286494
883.371840,444.123565,-10732.986159,-2298.286494
883.372164,148.041188,-8734.430116,-1838.629195
883.372488,-222.061783,-9622.677246,-1532.190996
883.372812,-148.041188,-10584.944971,-2068.457845
883.373136,222.061783,-9844.739029,-2298.286494
883.373461,-592.164754,-9030.512492,-1455.581446
883.373785,-1406.391290,-9548.656652,-995.924147
883.374109,-1628.453072,-10584.944971,-612.876398
883.374433,-518.144159,-9252.574275,-919.314598
883.374758,296.082377,-8068.244768,-766.095498
883.375082,888.247130,-9030.512492,-306.438199
883.375406,1110.308913,-9844.739029,-612.876398
883.375730,2220.617826,-9252.574275,76.609550
883.376055,2294.638420,-7846.182985,-229.828649
883.376379,740.205942,-8660.409521,0.000000
883.376703,-296.082377,-9844.739029,-919.314598
883.377027,-370.102971,-9696.697840,-1225.752797
883.377352,0.000000,-8734.430116,-1072.533697
883.377676,0.000000,-9030.512492,-689.485948
883.378000,148.041188,-9252.574275,0.000000
883.378324,962.267725,-9252.574275,459.657299
883.378648,370.102971,-8882.471304,229.828649
883.378973,-592.164754,-8956.491898,-153.219100
883.379297,-1850.514855,-9918.759623,76.609550
883.379621,-1480.411884,-10140.821405,459.657299
883.379945,-296.082377,-9474.636058,1378.971896
883.380270,148.041188,-9030.512492,1302.362347
883.380594,296.082377,-9844.739029,1608.800546
883.380918,1110.308913,-10732.986159,2068.457845
883.381242,1480.411884,-10658.965565,1608.800546
883.381567,0.000000,-9548.656652,689.485948
883.381891,-1850.514855,-9770.718434,536.266849
883.382215,-2294.638420,-11399.171507,766.095498
883.382539,-1480.411884,-10807.006753,536.266849
883.382864,-1258.350101,-10066.800811,612.876398
883.383188,-1258.350101,-9548.656652,1072.533697
883.383512,-740.205942,-10658.965565,842.705048
883.383836,962.267725,-11029.068536,1302.362347
883.384160,1406.391290,-9474.636058,1455.581446
883.384485,0.000000,-9252.574275,1532.190996
883.384809,-1628.453072,-10436.903782,1378.971896
883.385133,-1554.432478,-10066.800811,689.485948
883.385457,-296.082377,-8882.471304,1762.019645
883.385782,592.164754,-8512.368333,1685.410096
883.386106,592.164754,-9918.759623,1838.629195
883.386430,1258.350101,-9918.759623,1762.019645
883.386754,1184.329507,-9104.533087,1378.971896
883.387079,296.082377,-8734.430116,1302.362347
883.387403,-1036.288319,-9548.656652,1072.533697
883.387727,-1406.391290,-10288.862594,766.095498
883.388051,-296.082377,-9030.512492,459.657299
883.388376,-148.041188,-8586.388927,0.000000
883.388700,-592.164754,-9844.739029,306.438199
883.389024,296.082377,-10881.027347,919.314598
883.389348,1480.411884,-9844.739029,995.924147
883.389673,1184.329507,-8808.450710,766.095498
883.389997,-740.205942,-8734.430116,306.438199
883.390321,-1998.556043,-9770.718434,612.876398
883.390645,-740.205942,-9844.739029,1225.752797
883.390969,666.185348,-8882.471304,919.314598
883.391294,1776.494261,-8068.244768,766.095498
883.391618,1332.370696,-8512.368333,689.485948
883.391942,1258.350101,-9104.533087,536.266849
883.392266,888.247130,-7920.203579,0.000000
883.392591,-592.164754,-7698.141797,-306.438199
883.392915,-2146.597232,-9326.594869,-612.876398
883.393239,-1628.453072,-9770.718434,-919.314598
883.393563,-296.082377,-8882.471304,-1149.143247
883.393888,74.020594,-8290.306550,-1149.143247
883.394212,592.164754,-9696.697840,-612.876398
883.394536,2294.638420,-11399.171507,-229.828649
883.394860,3478.967927,-11029.068536,536.266849
883.395185,2368.659014,-9474.636058,536.266849
883.395509,-444.123565,-10066.800811,-612.876398
883.395833,-1850.514855,-11473.192101,-1149.143247
883.396157,-2072.576638,-11029.068536,-1225.752797
883.396481,-1184.329507,-10214.842000,-1455.581446
883.396806,-370.102971,-10066.800811,-766.095498
883.397130,0.000000,-10584.944971,-1149.143247
883.397454,888.247130,-10140.821405,-1608.800546
883.397778,962.267725,-9030.512492,-2374.896044
883.398103,-666.185348,-9178.553681,-2757.943793
883.398427,-2886.803174,-10510.924376,-2987.772442
883.398751,-2664.741391,-11103.089130,-2834.553343
883.399075,-1850.514855,-9770.718434,-2451.505594
883.399400,-1110.308913,-9474.636058,-2451.505594
883.399724,-370.102971,-10658.965565,-1455.581446
883.400048,1110.308913,-11843.295072,-842.705048
883.400372,2442.679609,-10807.006753,-612.876398
883.400697,1776.494261,-9622.677246,-766.095498
883.401021,296.082377,-10140.821405,-383.047749
883.401345,-370.102971,-10807.006753,-612.876398
883.401669,0.000000,-10140.821405,-842.705048
883.401993,148.041188,-9400.615463,-919.314598
883.402318,296.082377,-9178.553681,-919.314598
883.402642,1406.391290,-9622.677246,-919.314598
883.402966,2516.700203,-9400.615463,-1378.971896
883.403290,1702.473667,-8586.388927,-1149.143247
883.403615,-296.082377,-9326.594869,-1149.143247
883.403939,-1850.514855,-10362.883188,-1838.629195
883.404263,-1480.411884,-9992.780217,-1991.848295
883.404587,666.185348,-8660.409521,-1072.533697
883.404912,1998.556043,-8882.471304,76.609550
883.405236,2368.659014,-10288.862594,612.876398
883.405560,2368.659014,-9992.780217,1225.752797
883.405884,1480.411884,-8956.491898,766.095498
883.406209,0.000000,-9400.615463,459.657299
883.406533,-1554.432478,-10214.842000,383.047749
883.406857,-1480.411884,-10066.800811,1072.533697
883.407181,-1184.329507,-9252.574275,459.657299
883.407505,-814.226536,-8660.409521,306.438199
883.407830,-1184.329507,-9400.615463,306.438199
883.408154,-148.041188,-9622.677246,-229.828649
883.408478,222.061783,-8734.430116,-153.219100
883.408802,-592.164754,-8438.347739,-153.219100
883.409127,-1776.494261,-9400.615463,612.876398
883.409451,-1850.514855,-10214.842000,919.314598
883.409775,-592.164754,-9622.677246,995.924147
883.410099,222.061783,-9104.533087,1302.362347
883.410424,222.061783,-9918.759623,1685.410096
883.410748,518.144159,-10510.924376,1838.629195
883.411072,1332.370696,-10140.821405,2298.286494
883.411396,888.247130,-9474.636058,2068.457845
883.411721,-1184.329507,-9326.594869,1762.019645
883.412045,-3108.864956,-10584.944971,1455.581446
883.412369,-3108.864956,-10584.944971,919.314598
883.412693,-1998.556043,-8956.491898,306.438199
883.413018,-1110.308913,-8586.388927,766.095498
883.413342,-740.205942,-9548.656652,1225.752797
883.413666,444.123565,-10066.800811,689.485948
883.413990,888.247130,-8882.471304,766.095498
883.414314,0.000000,-8956.491898,1149.143247
883.414639,-1110.308913,-10362.883188,919.314598
883.414963,-1258.350101,-10807.006753,842.705048
883.415287,0.000000,-8734.430116,919.314598
883.415611,888.247130,-8882.471304,1532.190996
883.415936,1184.329507,-10436.903782,1762.019645
883.416260,1850.514855,-10807.006753,2451.505594
883.416584,2294.638420,-9622.677246,2528.115143
883.416908,1406.391290,-8586.388927,1685.410096
883.417232,-444.123565,-9178.553681,1532.190996
883.417557,-1776.494261,-9474.636058,1838.629195
883.417881,-888.247130,-9622.677246,1149.143247
883.418205,0.000000,-8216.285956,229.828649
883.418529,148.041188,-7846.182985,536.266849
883.418853,296.082377,-8956.491898,306.438199
883.419177,1406.391290,-9030.512492,-383.047749
883.419501,1702.473667,-8586.388927,-689.485948
883.419825,148.041188,-8068.244768,-766.095498
883.420149,-1406.391290,-9474.636058,-1072.533697
883.420474,-814.226536,-10510.924376,-919.314598
883.420798,444.123565,-9622.677246,-1149.143247
883.421122,1554.432478,-9252.574275,76.609550
883.421446,1036.288319,-9918.759623,0.000000
883.421770,1702.473667,-10584.944971,-153.219100
883.422094,1998.556043,-9770.718434,76.609550
883.422418,814.226536,-9622.677246,0.000000
883.422742,-740.205942,-10807.006753,383.047749
883.423066,-1554.432478,-11769.274478,-842.705048
883.423390,-1258.350101,-10510.924376,-1072.533697
883.423715,-888.247130,-8956.491898,-2451.505594
883.424039,-740.205942,-9844.739029,-2221.676944
883.424363,0.000000,-11103.089130,-2451.505594
883.424687,1110.308913,-10436.903782,-2757.943793
883.425011,740.205942,-8882.471304,-2911.162892
883.425335,-444.123565,-9474.636058,-2911.162892
883.425659,-1480.411884,-11103.089130,-2604.724693
883.425983,-370.102971,-11029.068536,-2604.724693
883.426307,-222.061783,-9696.697840,-2528.115143
883.426632,74.020594,-9918.759623,-1608.800546
883.426956,0.000000,-11103.089130,-1225.752797
883.427280,666.185348,-11103.089130,-766.095498
883.427604,740.205942,-9770.718434,-612.876398
883.427928,-296.082377,-9474.636058,-1149.143247
883.428252,-1924.535449,-10066.800811,-1838.629195
883.428576,-2072.576638,-10214.842000,-612.876398
883.428900,-592.164754,-9548.656652,-1455.581446
883.429224,814.226536,-8660.409521,-1685.410096
883.429549,1184.329507,-9178.553681,-1532.190996
883.429873,2294.638420,-9696.697840,-1378.971896
883.430197,3404.947333,-9474.636058,-995.924147
883.430521,2960.823768,-9252.574275,-919.314598
883.430845,1110.308913,-9622.677246,-612.876398
883.431169,-444.123565,-10510.924376,-1072.533697
883.431493,-296.082377,-10140.821405,-1225.752797
883.431817,74.020594,-8882.471304,-919.314598
883.432141,0.000000,-9770.718434,229.828649
883.432466,0.000000,-10214.842000,766.095498
883.432790,0.000000,-9252.574275,153.219100
883.433114,-296.082377,-7772.162391,459.657299
883.433438,-1998.556043,-7698.141797,0.000000
883.433762,-2738.761985,-9770.718434,306.438199
883.434086,-2294.638420,-10140.821405,919.314598
883.434410,-1628.453072,-8882.471304,766.095498
883.434734,-962.267725,-8142.265362,612.876398
883.435058,-962.267725,-8734.430116,1072.533697
883.435382,518.144159,-9992.780217,995.924147
883.435707,1850.514855,-9918.759623,229.828649
883.436031,666.185348,-9696.697840,76.609550
883.436355,-814.226536,-10362.883188,76.609550
883.436679,-1406.391290,-10510.924376,0.000000
883.437003,-518.144159,-9770.718434,0.000000
883.437327,296.082377,-9474.636058,919.314598
883.437651,-296.082377,-10288.862594,1685.410096
883.437975,0.000000,-11251.130318,1991.848295
883.438299,1110.308913,-9918.759623,1915.238745
883.438624,888.247130,-8512.368333,2298.286494
883.438948,-962.267725,-9104.533087,2451.505594
883.439272,-2368.659014,-10362.883188,2298.286494
883.439596,-2146.597232,-9992.780217,2451.505594
883.439920,-1036.288319,-8586.388927,2221.676944
883.440244,-740.205942,-7772.162391,1685.410096
883.440568,0.000000,-8364.327145,995.924147
883.440892,0.000000,-8364.327145,383.047749
883.441216,148.041188,-9030.512492,-383.047749
883.441541,-962.267725,-8956.491898,-1225.752797
883.441865,-2146.597232,-9474.636058,-612.876398
883.442189,-592.164754,-10362.883188,-306.438199
883.442513,1184.329507,-9992.780217,-76.609550
883.442837,1998.556043,-9770.718434,0.000000
883.443161,2220.617826,-10732.986159,1149.143247
883.443485,2590.720797,-11917.315666,1915.238745
883.443809,3775.050304,-11177.109724,2834.553343
883.444133,3034.844362,-9844.739029,2911.162892
883.444458,1110.308913,-10214.842000,2145.067394
883.444782,0.000000,-10807.006753,1455.581446
883.445106,-666.185348,-10362.883188,1225.752797
883.445430,-888.247130,-8808.450710,153.219100
883.445754,-2220.617826,-7402.059420,-995.924147
883.446078,-2294.638420,-7698.141797,-1455.581446
883.446402,-518.144159,-8142.265362,-1685.410096
883.446726,296.082377,-7698.141797,-2221.676944
883.447050,-296.082377,-7772.162391,-1915.238745
883.447374,-1702.473667,-8660.409521,-2068.457845
883.447699,-518.144159,-9770.718434,-1532.190996
883.448023,1332.370696,-9474.636058,-1072.533697
883.448347,1850.514855,-9548.656652,229.828649
883.448671,2072.576638,-11251.130318,766.095498
883.448995,3034.844362,-11547.212695,919.314598
883.449319,3478.967927,-10510.924376,1302.362347
883.449643,2072.576638,-10362.883188,1991.848295
883.449967,0.000000,-10955.047942,1685.410096
883.450291,-1998.556043,-11103.089130,612.876398
883.450616,-2220.617826,-9548.656652,-536.266849
883.450940,-2516.700203,-8734.430116,-1378.971896
883.451264,-2738.761985,-9548.656652,-2145.067394
883.451588,-1702.473667,-10066.800811,-1608.800546
883.451912,0.000000,-9326.594869,-2451.505594
883.452236,444.123565,-8216.285956,-2681.334243
883.452560,-1406.391290,-8660.409521,-3217.601092
883.452884,-2590.720797,-10955.047942,-2681.334243
883.453208,-2442.679609,-10881.027347,-2528.115143
883.453533,-1850.514855,-9622.677246,-2451.505594
883.453857,-1480.411884,-9400.615463,-1608.800546
883.454181,-148.041188,-10436.903782,-842.705048
883.454505,1480.411884,-10658.965565,-229.828649
883.454829,2072.576638,-9474.636058,76.609550
883.455153,518.144159,-8956.491898,306.438199
883.455477,-370.102971,-10214.842000,-306.438199
883.455801,-666.185348,-10436.903782,-612.876398
883.456125,0.000000,-9548.656652,-1072.533697
883.456450,814.226536,-9030.512492,-1455.581446
883.456774,1406.391290,-9474.636058,-1225.752797
883.457098,2886.803174,-10584.944971,-1608.800546
883.457422,3849.070898,-10732.986159,-1991.848295
883.457746,3478.967927,-10140.821405,-1685.410096
883.458070,1628.453072,-10214.842000,-2451.505594
883.458394,148.041188,-10955.047942,-2374.896044
883.458718,370.102971,-10807.006753,-1838.629195
883.459042,518.144159,-9992.780217,-1532.190996
883.459366,0.000000,-9696.697840,-383.047749
883.459691,0.000000,-10362.883188,0.000000
883.460015,222.061783,-10214.842000,612.876398
883.460339,740.205942,-9992.780217,689.485948
883.460663,-1184.329507,-8882.471304,1149.143247
883.460987,-2886.803174,-9696.697840,919.314598
883.461311,-3108.864956,-9622.677246,689.485948
883.461635,-2294.638420,-8956.491898,536.266849
883.461959,-1406.391290,-8734.430116,383.047749
883.462283,0.000000,-9326.594869,229.828649
883.462608,1258.350101,-9326.594869,383.047749
883.462932,2294.638420,-8956.491898,0.000000
