#time,accel_x,accel_y,accel_z
609.552800,-444.123565,-9474.636058,229.828649
609.553124,-296.082377,-9474.636058,919.314598
609.553448,0.000000,-9622.677246,153.219100
609.553772,-296.082377,-9548.656652,0.000000
609.554096,-296.082377,-9622.677246,0.000000
609.554420,-296.082377,-9696.697840,-153.219100
609.554744,0.000000,-9918.759623,0.000000
609.555069,0.000000,-9696.697840,-306.438199
609.555393,296.082377,-9696.697840,766.095498
609.555717,0.000000,-9400.615463,0.000000
609.556041,0.000000,-9400.615463,383.047749
609.556365,0.000000,-9622.677246,0.000000
609.556689,0.000000,-9696.697840,153.219100
609.557013,0.000000,-9770.718434,0.000000
609.557337,74.020594,-9770.718434,-229.828649
609.557661,-222.061783,-9696.697840,76.609550
609.557985,0.000000,-9474.636058,-689.485948
609.558309,222.061783,-9696.697840,76.609550
609.558633,296.082377,-9770.718434,-459.657299
609.558957,0.000000,-9548.656652,0.000000
609.559281,0.000000,-9548.656652,0.000000
609.559605,148.041188,-9770.718434,-306.438199
609.559929,592.164754,-9918.759623,153.219100
609.560253,296.082377,-9474.636058,612.876398
609.560577,370.102971,-9696.697840,306.438199
609.560901,222.061783,-9178.553681,229.828649
609.561225,74.020594,-9622.677246,76.609550
609.561549,0.000000,-9474.636058,0.000000
609.561873,0.000000,-9474.636058,0.000000
609.562197,0.000000,-9622.677246,76.609550
609.562521,0.000000,-9548.656652,459.657299
609.562845,518.144159,-9474.636058,76.609550
609.563169,962.267725,-9696.697840,0.000000
609.563493,888.247130,-9622.677246,383.047749
609.563817,592.164754,-9918.759623,306.438199
609.564141,0.000000,-10214.842000,153.219100
609.564465,-962.267725,-10362.883188,0.000000
609.564789,-1554.432478,-9622.677246,-153.219100
609.565113,-1406.391290,-8956.491898,0.000000
609.565437,-592.164754,-9696.697840,383.047749
609.565761,814.226536,-9770.718434,842.705048
609.566085,1036.288319,-9400.615463,689.485948
609.566409,1332.370696,-9104.533087,459.657299
609.566733,1036.288319,-9548.656652,383.047749
609.567057,740.205942,-9696.697840,0.000000
609.567381,222.061783,-9696.697840,-612.876398
609.567705,-740.205942,-9548.656652,-153.219100
609.568029,-1184.329507,-10140.821405,-306.438199
609.568353,-1036.288319,-10214.842000,229.828649
609.568677,-222.061783,-10658.965565,536.266849
609.569001,1184.329507,-9918.759623,1455.581446
609.569325,2220.617826,-9696.697840,1685.410096
609.569650,2812.782580,-9696.697840,1608.800546
609.569974,2812.782580,-9918.759623,1532.190996
609.570298,2220.617826,-9622.677246,1225.752797
609.570622,1998.556043,-9178.553681,1072.533697
609.570946,1110.308913,-9178.553681,536.266849
609.571270,222.061783,-9400.615463,-229.828649
609.571594,-296.082377,-9696.697840,-383.047749
609.571918,-740.205942,-9844.739029,0.000000
609.572242,0.000000,-9696.697840,612.876398
609.572566,1332.370696,-9844.739029,1378.971896
609.572890,2886.803174,-9548.656652,1455.581446
609.573214,4663.297435,-9844.739029,2834.553343
609.573538,4811.338623,-9548.656652,2604.724693
609.573862,4885.359217,-10214.842000,2987.772442
609.574186,4441.235652,-10288.862594,2451.505594
609.574510,3627.009116,-9918.759623,1915.238745
609.574834,2664.741391,-9770.718434,1838.629195
609.575158,1480.411884,-10140.821405,1149.143247
609.575482,814.226536,-10288.862594,842.705048
609.575806,814.226536,-10066.800811,1302.362347
609.576130,1850.514855,-9474.636058,2145.067394
609.576454,3701.029710,-9030.512492,2528.115143
609.576778,4663.297435,-8882.471304,3677.258390
609.577102,5255.462188,-8956.491898,4596.572988
609.577426,4959.379811,-10436.903782,4903.011187
609.577750,4071.132681,-10214.842000,4826.401637
609.578074,2516.700203,-9696.697840,4596.572988
609.578398,666.185348,-9104.533087,3294.210641
609.578722,-518.144159,-9326.594869,2757.943793
609.579046,-1184.329507,-8734.430116,2451.505594
609.579370,-1628.453072,-8142.265362,1608.800546
609.579694,-740.205942,-7402.059420,1838.629195
609.580018,0.000000,-6883.915261,2451.505594
609.580342,814.226536,-6661.853478,2834.553343
609.580666,2220.617826,-6661.853478,3294.210641
609.580990,3256.906145,-7254.018232,3983.696590
609.581314,4441.235652,-8216.285956,4213.525239
609.581638,5255.462188,-10066.800811,5362.668486
609.581962,4959.379811,-10658.965565,5132.839837
609.582286,3849.070898,-11843.295072,4749.792088
609.582610,1480.411884,-12213.398043,3524.039291
609.582934,-962.267725,-12065.356855,2451.505594
609.583258,-2442.679609,-11695.253884,1762.019645
609.583582,-2516.700203,-10584.944971,919.314598
609.583906,-1184.329507,-9622.677246,1225.752797
609.584231,222.061783,-7846.182985,1608.800546
609.584555,2590.720797,-7624.121203,1915.238745
609.584879,3775.050304,-7476.080014,1762.019645
609.585203,4145.153275,-7328.038826,1532.190996
609.585527,3775.050304,-8438.347739,1915.238745
609.585851,3108.864956,-10807.006753,2834.553343
609.586175,2294.638420,-12287.418637,2374.896044
609.586499,740.205942,-11917.315666,2528.115143
609.586823,-518.144159,-11621.233289,1608.800546
609.587147,-518.144159,-11103.089130,995.924147
609.587471,592.164754,-11029.068536,689.485948
609.587795,1702.473667,-9918.759623,76.609550
609.588119,2368.659014,-8734.430116,229.828649
609.588443,2812.782580,-8290.306550,919.314598
609.588767,3108.864956,-8808.450710,689.485948
609.589091,2220.617826,-8438.347739,229.828649
609.589415,1998.556043,-8364.327145,-229.828649
609.589739,2516.700203,-8438.347739,-459.657299
609.590063,4589.276840,-9992.780217,153.219100
609.590387,6439.791695,-11991.336260,1915.238745
609.590711,7254.018232,-13175.665768,2528.115143
609.591035,5551.544565,-12879.583391,2681.334243
609.591359,2886.803174,-12509.480420,1455.581446
609.591683,296.082377,-11917.315666,919.314598
609.592007,-1480.411884,-10955.047942,153.219100
609.592331,-962.267725,-9400.615463,536.266849
609.592655,814.226536,-7994.224174,842.705048
609.592979,2368.659014,-7772.162391,1072.533697
609.593303,2220.617826,-7254.018232,766.095498
609.593627,1702.473667,-6439.791695,536.266849
609.593951,1480.411884,-5403.503377,0.000000
609.594275,1924.535449,-6217.729913,-306.438199
609.594599,2516.700203,-7920.203579,383.047749
609.594923,3182.885551,-9770.718434,2451.505594
609.595247,3256.906145,-11399.171507,2681.334243
609.595571,2368.659014,-10881.027347,2451.505594
609.595895,1554.432478,-9696.697840,2681.334243
609.596219,1554.432478,-9918.759623,2681.334243
609.596543,2146.597232,-10807.006753,2528.115143
609.596867,1184.329507,-10510.924376,2374.896044
609.597191,-296.082377,-9918.759623,1838.629195
609.597515,-962.267725,-9104.533087,919.314598
609.597839,0.000000,-8290.306550,1455.581446
609.598163,1702.473667,-7698.141797,1378.971896
609.598487,3034.844362,-9400.615463,1685.410096
609.598812,1924.535449,-9622.677246,1455.581446
609.599136,222.061783,-9770.718434,689.485948
609.599460,-888.247130,-9770.718434,1225.752797
609.599784,222.061783,-10362.883188,1991.848295
609.600108,2960.823768,-11695.253884,3447.429741
609.600432,4293.194464,-11843.295072,4366.744339
609.600756,4811.338623,-11473.192101,4213.525239
609.601080,3478.967927,-9844.739029,3983.696590
609.601404,3478.967927,-10881.027347,3907.087040
609.601728,2368.659014,-11177.109724,3140.991542
609.602052,740.205942,-10362.883188,2451.505594
609.602376,-592.164754,-9030.512492,1762.019645
609.602700,-518.144159,-8290.306550,1225.752797
609.603024,1332.370696,-8808.450710,1225.752797
609.603348,2442.679609,-9474.636058,919.314598
609.603672,2812.782580,-9030.512492,1685.410096
609.603996,2960.823768,-8290.306550,1991.848295
609.604320,3108.864956,-8734.430116,2451.505594
609.604644,4219.173869,-10288.862594,3370.820191
609.604968,4737.318029,-11695.253884,4826.401637
609.605292,4885.359217,-11399.171507,5132.839837
609.605616,3997.112087,-10510.924376,5209.449386
609.605940,3627.009116,-9918.759623,5132.839837
609.606264,3775.050304,-10140.821405,4749.792088
609.606588,3256.906145,-10140.821405,3753.867940
609.606912,2146.597232,-8660.409521,2911.162892
609.607236,518.144159,-7402.059420,2145.067394
609.607560,-1184.329507,-7105.977043,1455.581446
609.607884,-1998.556043,-7254.018232,612.876398
609.608208,0.000000,-6735.874072,1302.362347
609.608532,2516.700203,-6439.791695,1532.190996
609.608856,3849.070898,-7402.059420,1991.848295
609.609180,4441.235652,-7698.141797,2757.943793
609.609504,5699.585753,-8808.450710,3907.087040
609.609828,5921.647536,-9030.512492,4290.134789
609.610152,4737.318029,-9770.718434,4979.620737
609.610476,3034.844362,-11843.295072,5209.449386
609.610800,2664.741391,-12139.377449,3983.696590
609.611124,2812.782580,-10510.924376,3524.039291
609.611448,1998.556043,-9844.739029,2681.334243
609.611772,-296.082377,-10362.883188,1378.971896
609.612096,-1776.494261,-11325.150913,459.657299
609.612420,-2886.803174,-9844.739029,-383.047749
609.612744,-3701.029710,-8438.347739,-995.924147
609.613068,-3330.926739,-8364.327145,-1225.752797
609.613393,-740.205942,-8734.430116,-1149.143247
609.613717,2886.803174,-9178.553681,536.266849
609.614041,5773.606348,-9918.759623,2681.334243
609.614365,7698.141797,-9326.594869,2911.162892
609.614689,8068.244768,-11473.192101,3830.477490
609.615013,6735.874072,-12657.521608,4826.401637
609.615337,5773.606348,-11177.109724,4443.353888
609.615661,4293.194464,-11621.233289,4136.915689
609.615985,1998.556043,-12953.603985,2145.067394
609.616309,-444.123565,-12435.459826,0.000000
609.616633,-1998.556043,-9548.656652,-536.266849
609.616957,-2886.803174,-8956.491898,-1455.581446
609.617281,-3923.091493,-9918.759623,-2528.115143
609.617605,-3849.070898,-8512.368333,-2834.553343
609.617929,-3108.864956,-6291.750507,-2221.676944
609.618253,-1110.308913,-7328.038826,-1608.800546
609.618577,1850.514855,-8882.471304,306.438199
609.618901,5921.647536,-9326.594869,2374.896044
609.619225,8364.327145,-9622.677246,4366.744339
609.619549,8882.471304,-9178.553681,4519.963438
609.619873,7994.224174,-9548.656652,3983.696590
609.620197,5477.523971,-11325.150913,4519.963438
609.620521,2738.761985,-12731.542202,4519.963438
609.620845,666.185348,-11843.295072,3447.429741
609.621169,-1850.514855,-9252.574275,1762.019645
609.621493,-3108.864956,-8734.430116,689.485948
609.621817,-3404.947333,-9400.615463,-1838.629195
609.622141,-2220.617826,-7846.182985,-2298.286494
609.622465,-1628.453072,-5847.626942,-1991.848295
609.622789,-1554.432478,-5847.626942,-2145.067394
609.623113,0.000000,-6587.832884,-1608.800546
609.623437,2960.823768,-6291.750507,459.657299
609.623761,6661.853478,-7698.141797,2068.457845
609.624086,7846.182985,-9770.718434,2604.724693
609.624410,6143.709319,-11399.171507,2681.334243
609.624734,4737.318029,-10658.965565,3753.867940
609.625058,4071.132681,-10436.903782,4060.306139
609.625382,2368.659014,-12213.398043,3753.867940
609.625706,888.247130,-12361.439231,2451.505594
609.626030,-370.102971,-11251.130318,1455.581446
609.626354,-148.041188,-10807.006753,766.095498
609.626678,1702.473667,-9400.615463,153.219100
609.627002,1702.473667,-9104.533087,-306.438199
609.627326,0.000000,-10510.924376,-766.095498
609.627650,-1332.370696,-10584.944971,-1838.629195
609.627974,-2442.679609,-10140.821405,-1915.238745
609.628298,-3108.864956,-9474.636058,-2221.676944
609.628622,-2516.700203,-9622.677246,-1608.800546
609.628946,-444.123565,-10436.903782,0.000000
609.629270,1554.432478,-10732.986159,2221.676944
609.629594,2886.803174,-11399.171507,3447.429741
609.629918,2738.761985,-10807.006753,3677.258390
609.630242,2368.659014,-9622.677246,3830.477490
609.630566,1776.494261,-9400.615463,4136.915689
609.630890,1554.432478,-8956.491898,2987.772442
609.631214,0.000000,-9400.615463,3447.429741
609.631538,-2368.659014,-9326.594869,1762.019645
609.631862,-2886.803174,-7179.997637,-306.438199
609.632186,-2738.761985,-6069.688724,-842.705048
609.632510,-2220.617826,-7772.162391,-766.095498
609.632834,-1554.432478,-7846.182985,-1762.019645
609.633158,-1776.494261,-7846.182985,-842.705048
609.633482,-1110.308913,-7031.956449,842.705048
609.633806,1776.494261,-8216.285956,1608.800546
609.634131,3701.029710,-10288.862594,2681.334243
609.634455,4589.276840,-10288.862594,3830.477490
609.634779,3627.009116,-10140.821405,3983.696590
609.635103,1628.453072,-10658.965565,3370.820191
609.635427,518.144159,-10510.924376,2068.457845
609.635751,-1776.494261,-10436.903782,1762.019645
609.636075,-2442.679609,-9622.677246,612.876398
609.636399,-3256.906145,-9030.512492,-919.314598
609.636723,-3108.864956,-8956.491898,-2145.067394
609.637047,-1554.432478,-7994.224174,-1532.190996
609.637371,222.061783,-9252.574275,-919.314598
609.637695,1554.432478,-9770.718434,-306.438199
609.638019,740.205942,-9252.574275,-689.485948
609.638343,-740.205942,-9548.656652,0.000000
609.638667,-518.144159,-10732.986159,306.438199
609.638991,444.123565,-11621.233289,536.266849
609.639315,1332.370696,-11769.274478,1149.143247
609.639639,1998.556043,-11843.295072,1532.190996
609.639963,2220.617826,-10881.027347,919.314598
609.640287,1924.535449,-9548.656652,-153.219100
609.640611,222.061783,-9696.697840,-1302.362347
609.640935,-1184.329507,-9548.656652,-2221.676944
609.641259,-1480.411884,-8882.471304,-2911.162892
609.641583,-1702.473667,-9400.615463,-2834.553343
609.641907,148.041188,-9770.718434,-1991.848295
609.642231,2368.659014,-10362.883188,-1455.581446
609.642555,2960.823768,-11251.130318,-1225.752797
609.642879,2368.659014,-10881.027347,-766.095498
609.643203,1554.432478,-10732.986159,-1225.752797
609.643527,666.185348,-10732.986159,-1378.971896
609.643852,-518.144159,-11029.068536,-689.485948
609.644176,-1924.535449,-11251.130318,-153.219100
609.644500,-2220.617826,-10436.903782,-1378.971896
609.644824,-3256.906145,-9474.636058,-2298.286494
609.645148,-3923.091493,-8290.306550,-2757.943793
609.645472,-2664.741391,-8438.347739,-1838.629195
609.645796,-888.247130,-8808.450710,-1608.800546
609.646120,-370.102971,-7920.203579,-1455.581446
609.646444,-666.185348,-7550.100608,-1149.143247
609.646768,-444.123565,-8216.285956,-995.924147
609.647092,666.185348,-9696.697840,-842.705048
609.647416,1184.329507,-9474.636058,306.438199
609.647740,666.185348,-8660.409521,76.609550
609.648064,0.000000,-8660.409521,-383.047749
609.648388,-1332.370696,-9696.697840,-612.876398
609.648712,-2146.597232,-9992.780217,-383.047749
609.649036,-3034.844362,-10066.800811,0.000000
609.649360,-3182.885551,-10140.821405,-536.266849
609.649684,-2590.720797,-9548.656652,-919.314598
609.650008,740.205942,-8586.388927,-153.219100
609.650332,3256.906145,-9326.594869,995.924147
609.650656,3775.050304,-10732.986159,1302.362347
609.650980,2886.803174,-11029.068536,536.266849
609.651304,740.205942,-10066.800811,0.000000
609.651628,0.000000,-11177.109724,153.219100
609.651952,592.164754,-12583.501014,842.705048
609.652276,740.205942,-12509.480420,919.314598
609.652600,-296.082377,-10214.842000,383.047749
609.652924,-1850.514855,-9178.553681,689.485948
609.653248,-2220.617826,-10288.862594,1302.362347
609.653572,-1702.473667,-9474.636058,536.266849
609.653897,-1110.308913,-8290.306550,1762.019645
609.654221,-1258.350101,-7772.162391,1915.238745
609.654545,-1628.453072,-8734.430116,919.314598
609.654869,-2146.597232,-8882.471304,459.657299
609.655193,-1406.391290,-8142.265362,1378.971896
609.655517,0.000000,-8734.430116,1608.800546
609.655841,1036.288319,-8956.491898,0.000000
609.656165,444.123565,-7994.224174,153.219100
609.656489,1332.370696,-8438.347739,612.876398
609.656813,3108.864956,-10140.821405,919.314598
609.657137,3404.947333,-11325.150913,1149.143247
609.657461,1924.535449,-10288.862594,1378.971896
609.657785,666.185348,-9474.636058,1225.752797
609.658109,444.123565,-10214.842000,1072.533697
609.658433,1036.288319,-10288.862594,1149.143247
609.658757,1184.329507,-10288.862594,1915.238745
609.659081,0.000000,-9844.739029,1532.190996
609.659405,0.000000,-9696.697840,766.095498
609.659729,-740.205942,-9622.677246,76.609550
609.660053,-814.226536,-9252.574275,-612.876398
609.660377,-592.164754,-8956.491898,0.000000
609.660701,-148.041188,-9474.636058,-995.924147
609.661025,-592.164754,-9622.677246,-842.705048
609.661349,-296.082377,-9030.512492,-536.266849
609.661673,666.185348,-9030.512492,0.000000
609.661997,1702.473667,-9844.739029,383.047749
609.662321,2368.659014,-10214.842000,76.609550
609.662645,1406.391290,-9474.636058,383.047749
609.662969,888.247130,-9030.512492,229.828649
609.663293,1184.329507,-9474.636058,995.924147
609.663617,2072.576638,-10140.821405,1838.629195
609.663942,1406.391290,-10288.862594,1762.019645
609.664266,-222.061783,-8808.450710,229.828649
609.664590,-1406.391290,-8660.409521,-689.485948
609.664914,-444.123565,-9252.574275,-766.095498
609.665238,148.041188,-10214.842000,0.000000
609.665562,-296.082377,-10288.862594,-229.828649
609.665886,-1258.350101,-8956.491898,-612.876398
609.666210,-1554.432478,-8512.368333,-1762.019645
609.666534,-666.185348,-9252.574275,-2221.676944
609.666858,-370.102971,-10658.965565,-1225.752797
609.667182,148.041188,-10807.006753,-459.657299
609.667506,-296.082377,-9696.697840,-536.266849
609.667830,-1628.453072,-9326.594869,-229.828649
609.668154,-1184.329507,-9474.636058,-383.047749
609.668478,-222.061783,-10140.821405,-383.047749
609.668802,-296.082377,-10436.903782,229.828649
609.669126,-814.226536,-10214.842000,229.828649
609.669450,-1184.329507,-9918.759623,-229.828649
609.669774,-1924.535449,-9622.677246,-536.266849
609.670098,-1554.432478,-9474.636058,-995.924147
609.670422,-1628.453072,-9696.697840,-1532.190996
609.670746,-1924.535449,-9844.739029,-2298.286494
609.671070,-1998.556043,-10066.800811,-1532.190996
609.671394,-740.205942,-9992.780217,-995.924147
609.671718,-296.082377,-9770.718434,-536.266849
609.672042,222.061783,-9844.739029,-459.657299
609.672366,148.041188,-9474.636058,-306.438199
609.672690,148.041188,-9548.656652,-306.438199
609.673014,666.185348,-9770.718434,-153.219100
609.673338,444.123565,-8734.430116,229.828649
609.673662,518.144159,-9326.594869,153.219100
609.673987,296.082377,-10140.821405,-153.219100
609.674311,666.185348,-10066.800811,-842.705048
609.674635,1406.391290,-9474.636058,-1225.752797
609.674959,1924.535449,-9474.636058,-1072.533697
609.675283,2738.761985,-10140.821405,-689.485948
609.675607,2442.679609,-10214.842000,383.047749
609.675931,2738.761985,-10214.842000,689.485948
609.676255,1776.494261,-9622.677246,-612.876398
609.676579,740.205942,-9992.780217,-842.705048
609.676903,148.041188,-10732.986159,-229.828649
609.677227,370.102971,-11177.109724,306.438199
609.677551,0.000000,-9992.780217,-306.438199
609.677875,-814.226536,-9548.656652,-383.047749
609.678199,-518.144159,-9992.780217,306.438199
609.678523,222.061783,-10510.924376,-536.266849
609.678847,0.000000,-9992.780217,-536.266849
609.679171,-1480.411884,-9104.533087,0.000000
609.679495,-1702.473667,-8956.491898,-842.705048
609.679819,-1036.288319,-9178.553681,-766.095498
609.680143,0.000000,-9326.594869,689.485948
609.680467,74.020594,-8290.306550,766.095498
609.680791,740.205942,-8956.491898,76.609550
609.681115,-222.061783,-9178.553681,459.657299
609.681439,74.020594,-8808.450710,1302.362347
609.681763,518.144159,-9548.656652,1378.971896
609.682087,-444.123565,-9622.677246,842.705048
609.682411,-1776.494261,-8734.430116,766.095498
609.682735,-1776.494261,-8438.347739,536.266849
609.683059,-222.061783,-9474.636058,612.876398
609.683383,0.000000,-9992.780217,1685.410096
609.683707,-222.061783,-9474.636058,1072.533697
609.684032,-962.267725,-9030.512492,153.219100
609.684356,-1628.453072,-9104.533087,76.609550
609.684680,-592.164754,-8734.430116,-536.266849
609.685004,222.061783,-9918.759623,689.485948
609.685328,444.123565,-9696.697840,383.047749
609.685652,-222.061783,-8734.430116,0.000000
609.685976,-962.267725,-8660.409521,229.828649
609.686300,-296.082377,-10436.903782,459.657299
609.686624,-296.082377,-10436.903782,1149.143247
609.686948,-296.082377,-10214.842000,1149.143247
609.687272,-888.247130,-9400.615463,612.876398
609.687596,-1332.370696,-9030.512492,153.219100
609.687920,-962.267725,-9770.718434,689.485948
609.688244,222.061783,-9696.697840,689.485948
609.688568,1406.391290,-10362.883188,306.438199
609.688892,888.247130,-8586.388927,76.609550
609.689216,814.226536,-9178.553681,-612.876398
609.689540,1110.308913,-9622.677246,-766.095498
609.689864,1554.432478,-10584.944971,-612.876398
609.690188,740.205942,-11547.212695,-459.657299
609.690512,148.041188,-11399.171507,-612.876398
609.690836,74.020594,-10881.027347,-153.219100
609.691160,666.185348,-10214.842000,-153.219100
609.691484,1702.473667,-10807.006753,-306.438199
609.691808,2072.576638,-11029.068536,229.828649
609.692132,1998.556043,-10955.047942,-306.438199
609.692456,1036.288319,-10214.842000,-306.438199
609.692780,0.000000,-9918.759623,0.000000
609.693104,74.020594,-9696.697840,-919.314598
609.693428,-296.082377,-10066.800811,-153.219100
609.693752,-1406.391290,-9696.697840,-995.924147
609.694077,-1332.370696,-9474.636058,-1378.971896
609.694401,-740.205942,-9474.636058,-612.876398
609.694725,1332.370696,-9844.739029,306.438199
609.695049,2590.720797,-10066.800811,766.095498
609.695373,1850.514855,-10066.800811,1378.971896
609.695697,0.000000,-8808.450710,-229.828649
609.696021,-1924.535449,-7476.080014,-1149.143247
609.696345,-2442.679609,-7624.121203,-1532.190996
609.696669,-2072.576638,-8882.471304,-229.828649
609.696993,-1110.308913,-9622.677246,689.485948
609.697317,-592.164754,-8438.347739,536.266849
609.697641,-592.164754,-6439.791695,536.266849
609.697965,518.144159,-7105.977043,153.219100
609.698289,740.205942,-8808.450710,-459.657299
609.698613,148.041188,-9400.615463,-1072.533697
609.698937,-1480.411884,-8660.409521,-459.657299
609.699261,-1332.370696,-8586.388927,-1072.533697
609.699585,-444.123565,-10214.842000,-842.705048
609.699909,-370.102971,-10807.006753,-536.266849
609.700233,-1036.288319,-10732.986159,-1915.238745
609.700557,-2368.659014,-11473.192101,-2374.896044
609.700881,-2220.617826,-11251.130318,-1762.019645
609.701205,222.061783,-11473.192101,-459.657299
609.701529,1036.288319,-11621.233289,306.438199
609.701853,962.267725,-11177.109724,-229.828649
609.702177,370.102971,-10732.986159,-229.828649
609.702501,888.247130,-10807.006753,0.000000
609.702825,1258.350101,-11029.068536,-306.438199
609.703149,370.102971,-10140.821405,-689.485948
609.703473,-814.226536,-9622.677246,-229.828649
609.703798,-2072.576638,-9918.759623,-919.314598
609.704122,-2590.720797,-10510.924376,-1762.019645
609.704446,-2146.597232,-10214.842000,-1378.971896
609.704770,-666.185348,-10066.800811,-459.657299
609.705094,814.226536,-9400.615463,-306.438199
609.705418,1776.494261,-8956.491898,842.705048
609.705742,2294.638420,-8734.430116,306.438199
609.706066,2368.659014,-8364.327145,-459.657299
609.706390,1776.494261,-9844.739029,229.828649
609.706714,740.205942,-10214.842000,995.924147
609.707038,518.144159,-10214.842000,842.705048
609.707362,592.164754,-9474.636058,1225.752797
609.707686,1184.329507,-8882.471304,306.438199
609.708010,1332.370696,-9548.656652,153.219100
609.708334,1036.288319,-9770.718434,0.000000
609.708658,444.123565,-8956.491898,76.609550
609.708982,-296.082377,-8734.430116,76.609550
609.709306,-740.205942,-8882.471304,229.828649
609.709630,-1184.329507,-9178.553681,0.000000
609.709954,-962.267725,-8808.450710,229.828649
609.710278,-1036.288319,-8734.430116,229.828649
609.710602,-1924.535449,-9548.656652,1149.143247
609.710926,-666.185348,-9548.656652,1225.752797
609.711250,666.185348,-8882.471304,1302.362347
609.711574,1110.308913,-9104.533087,1991.848295
609.711898,1258.350101,-8734.430116,1991.848295
609.712222,74.020594,-8882.471304,1532.190996
609.712546,-1036.288319,-9104.533087,689.485948
609.712870,-1110.308913,-8734.430116,229.828649
609.713194,-888.247130,-8586.388927,0.000000
609.713518,-1406.391290,-8586.388927,-689.485948
609.713843,-1776.494261,-8068.244768,-459.657299
609.714167,-814.226536,-8660.409521,-306.438199
609.714491,0.000000,-9474.636058,-229.828649
609.714815,74.020594,-9252.574275,-306.438199
609.715139,0.000000,-8734.430116,-536.266849
609.715463,370.102971,-10288.862594,153.219100
609.715787,2146.597232,-11325.150913,229.828649
609.716111,3108.864956,-11547.212695,1532.190996
609.716435,2368.659014,-11843.295072,1991.848295
609.716759,888.247130,-11547.212695,153.219100
609.717084,-814.226536,-11177.109724,-459.657299
609.717408,-1036.288319,-11843.295072,0.000000
609.717732,-666.185348,-12287.418637,-536.266849
609.718056,-888.247130,-11399.171507,-612.876398
609.718381,-1702.473667,-8956.491898,-1685.410096
609.718705,-1628.453072,-9252.574275,-1762.019645
609.719029,74.020594,-10436.903782,-1685.410096
609.719353,814.226536,-10066.800811,-995.924147
609.719678,74.020594,-9326.594869,-766.095498
609.720002,-666.185348,-8734.430116,-995.924147
609.720326,-1702.473667,-8882.471304,-1072.533697
609.720650,-1850.514855,-9992.780217,76.609550
609.720975,-740.205942,-10584.944971,153.219100
609.721299,-518.144159,-9770.718434,76.609550
609.721623,296.082377,-9104.533087,0.000000
609.721947,1702.473667,-9474.636058,229.828649
609.722271,2960.823768,-9844.739029,-306.438199
609.722596,3552.988522,-9474.636058,-689.485948
609.722920,1702.473667,-9696.697840,229.828649
609.723244,-592.164754,-10436.903782,-1149.143247
609.723568,-1480.411884,-10881.027347,-766.095498
609.723893,-444.123565,-10140.821405,-612.876398
609.724217,444.123565,-9548.656652,-995.924147
609.724541,444.123565,-9844.739029,-153.219100
609.724865,0.000000,-9844.739029,-1302.362347
609.725190,-962.267725,-9030.512492,-153.219100
609.725514,-1406.391290,-8586.388927,0.000000
609.725838,-1036.288319,-9400.615463,76.609550
609.726162,-1332.370696,-9104.533087,0.000000
609.726487,-1332.370696,-8142.265362,-306.438199
609.726811,-1332.370696,-7772.162391,383.047749
609.727135,-814.226536,-8142.265362,-153.219100
609.727459,0.000000,-8438.347739,0.000000
609.727784,370.102971,-8882.471304,536.266849
609.728108,444.123565,-8956.491898,0.000000
609.728432,666.185348,-8438.347739,-383.047749
609.728756,1036.288319,-8216.285956,-383.047749
609.729081,1184.329507,-9474.636058,536.266849
609.729405,1480.411884,-10510.924376,919.314598
609.729729,1110.308913,-9992.780217,383.047749
609.730053,0.000000,-9400.615463,0.000000
609.730377,-740.205942,-9178.553681,-612.876398
609.730702,-814.226536,-9104.533087,-1378.971896
609.731026,-666.185348,-10807.006753,459.657299
609.731350,-740.205942,-11843.295072,76.609550
609.731674,-1184.329507,-10288.862594,-536.266849
609.731999,-2368.659014,-9104.533087,-1225.752797
609.732323,-1110.308913,-9030.512492,-2145.067394
609.732647,814.226536,-10584.944971,-1455.581446
609.732971,1702.473667,-11251.130318,-1072.533697
609.733296,888.247130,-10807.006753,-459.657299
609.733620,-222.061783,-11251.130318,0.000000
609.733944,-592.164754,-11177.109724,-995.924147
609.734268,-296.082377,-11029.068536,-459.657299
609.734593,-592.164754,-11769.274478,-919.314598
609.734917,-814.226536,-10807.006753,-1532.190996
609.735241,-592.164754,-10066.800811,-229.828649
609.735565,592.164754,-10362.883188,306.438199
609.735890,1628.453072,-10436.903782,536.266849
609.736214,444.123565,-11251.130318,459.657299
609.736538,-2368.659014,-10807.006753,-306.438199
609.736862,-3108.864956,-8808.450710,-1532.190996
609.737187,-2146.597232,-8290.306550,-919.314598
609.737511,592.164754,-9030.512492,612.876398
609.737835,1850.514855,-9548.656652,612.876398
609.738159,888.247130,-9030.512492,229.828649
609.738483,-592.164754,-8808.450710,-459.657299
609.738808,-370.102971,-9030.512492,-536.266849
609.739132,0.000000,-9104.533087,0.000000
609.739456,-1036.288319,-9548.656652,459.657299
609.739780,-1924.535449,-8882.471304,229.828649
609.740105,-592.164754,-8734.430116,-229.828649
609.740429,1184.329507,-8438.347739,76.609550
609.740753,2220.617826,-9326.594869,919.314598
609.741077,2368.659014,-9770.718434,1532.190996
609.741402,2442.679609,-8586.388927,1455.581446
609.741726,1628.453072,-7846.182985,919.314598
609.742050,518.144159,-8068.244768,306.438199
609.742374,518.144159,-9622.677246,766.095498
609.742699,1776.494261,-10214.842000,459.657299
609.743023,2294.638420,-8882.471304,919.314598
609.743347,1184.329507,-7920.203579,383.047749
609.743671,74.020594,-7846.182985,-459.657299
609.743996,-740.205942,-9030.512492,383.047749
609.744320,-1184.329507,-10362.883188,-153.219100
609.744644,-1184.329507,-10066.800811,153.219100
609.744968,-1628.453072,-9030.512492,229.828649
609.745293,-1406.391290,-8956.491898,306.438199
609.745617,148.041188,-9252.574275,0.000000
609.745941,814.226536,-9696.697840,766.095498
609.746265,666.185348,-10066.800811,919.314598
609.746589,148.041188,-10955.047942,-153.219100
609.746914,0.000000,-10955.047942,-229.828649
609.747238,148.041188,-9696.697840,229.828649
609.747562,444.123565,-11695.253884,766.095498
609.747886,-518.144159,-11473.192101,-919.314598
609.748211,-1628.453072,-9696.697840,-1149.143247
609.748535,-2664.741391,-9918.759623,-919.314598
609.748859,-1480.411884,-10807.006753,-1762.019645
609.749183,0.000000,-10881.027347,-842.705048
609.749508,0.000000,-10288.862594,0.000000
609.749832,-222.061783,-10140.821405,-383.047749
609.750156,0.000000,-10362.883188,-995.924147
609.750480,740.205942,-9252.574275,-536.266849
609.750805,1332.370696,-10066.800811,153.219100
609.751129,1480.411884,-9992.780217,612.876398
609.751453,1554.432478,-9178.553681,229.828649
609.751777,740.205942,-8660.409521,229.828649
609.752102,518.144159,-8734.430116,-306.438199
609.752426,0.000000,-9474.636058,0.000000
609.752750,-1036.288319,-9400.615463,-306.438199
609.753074,-1998.556043,-9326.594869,-689.485948
609.753399,-2220.617826,-8438.347739,-842.705048
609.753723,-1110.308913,-8586.388927,-1149.143247
609.754047,-592.164754,-9400.615463,-1072.533697
609.754371,-1628.453072,-9696.697840,-1378.971896
609.754695,-2294.638420,-9326.594869,-919.314598
609.755020,-2368.659014,-9474.636058,-1149.143247
609.755344,-1184.329507,-9844.739029,-536.266849
609.755668,0.000000,-10288.862594,612.876398
609.755992,1480.411884,-10881.027347,153.219100
609.756317,1258.350101,-10658.965565,-459.657299
609.756641,740.205942,-9770.718434,-536.266849
609.756965,1554.432478,-10140.821405,0.000000
609.757289,2146.597232,-11547.212695,229.828649
609.757614,2294.638420,-11769.274478,995.924147
609.757938,814.226536,-10510.924376,536.266849
609.758262,0.000000,-10214.842000,0.000000
609.758586,222.061783,-9548.656652,-1762.019645
609.758911,0.000000,-9104.533087,-1225.752797
609.759235,-592.164754,-9400.615463,-842.705048
609.759559,-1258.350101,-9474.636058,-306.438199
609.759883,-1628.453072,-9400.615463,-689.485948
609.760208,-1332.370696,-7994.224174,-842.705048
609.760532,-222.061783,-7402.059420,-612.876398
609.760856,444.123565,-8512.368333,-153.219100
609.761180,296.082377,-9104.533087,-153.219100
609.761504,-444.123565,-8808.450710,-153.219100
609.761829,-222.061783,-9030.512492,-459.657299
609.762153,148.041188,-9770.718434,306.438199
609.762477,1036.288319,-10807.006753,842.705048
609.762801,1998.556043,-9992.780217,689.485948
609.763126,1332.370696,-9992.780217,383.047749
609.763450,740.205942,-10214.842000,383.047749
609.763774,592.164754,-11325.150913,306.438199
609.764098,740.205942,-11177.109724,536.266849
609.764423,0.000000,-9622.677246,-536.266849
609.764747,-962.267725,-9178.553681,-1149.143247
609.765071,-1554.432478,-8808.450710,-612.876398
609.765395,-962.267725,-9992.780217,-229.828649
609.765720,0.000000,-10510.924376,0.000000
609.766044,518.144159,-8734.430116,-383.047749
609.766368,0.000000,-8512.368333,-229.828649
609.766692,0.000000,-9178.553681,-459.657299
609.767017,814.226536,-9474.636058,-306.438199
609.767341,962.267725,-9770.718434,306.438199
609.767665,1036.288319,-9696.697840,766.095498
609.767989,666.185348,-10066.800811,459.657299
609.768314,1110.308913,-9918.759623,0.000000
609.768638,1036.288319,-9844.739029,536.266849
609.768962,0.000000,-10362.883188,76.609550
609.769286,-1480.411884,-10436.903782,-306.438199
609.769610,-1998.556043,-10436.903782,153.219100
609.769935,-1702.473667,-9992.780217,0.000000
609.770259,-740.205942,-9252.574275,306.438199
609.770583,-370.102971,-9918.759623,612.876398
609.770907,0.000000,-10584.944971,459.657299
609.771232,-814.226536,-9992.780217,0.000000
609.771556,-1110.308913,-9252.574275,0.000000
609.771880,-666.185348,-9400.615463,229.828649
609.772204,-814.226536,-10362.883188,995.924147
609.772529,-1258.350101,-11399.171507,919.314598
609.772853,-1406.391290,-9770.718434,919.314598
609.773177,-370.102971,-7994.224174,0.000000
609.773501,740.205942,-7920.203579,536.266849
609.773826,1924.535449,-9104.533087,459.657299
609.774150,2294.638420,-9030.512492,536.266849
609.774474,962.267725,-8216.285956,229.828649
609.774798,74.020594,-8512.368333,0.000000
609.775123,296.082377,-9178.553681,-459.657299
609.775447,592.164754,-9400.615463,-306.438199
609.775771,0.000000,-8808.450710,-383.047749
609.776095,-666.185348,-9622.677246,-459.657299
609.776420,148.041188,-10066.800811,-995.924147
609.776744,1850.514855,-9400.615463,-766.095498
609.777068,2146.597232,-9844.739029,0.000000
609.777392,1998.556043,-9696.697840,842.705048
609.777716,1110.308913,-9992.780217,229.828649
609.778041,148.041188,-9844.739029,766.095498
609.778365,370.102971,-10436.903782,229.828649
609.778689,296.082377,-10362.883188,229.828649
609.779013,-222.061783,-10066.800811,76.609550
609.779338,-1776.494261,-9622.677246,-536.266849
609.779662,-2516.700203,-10436.903782,-1149.143247
609.779986,-1628.453072,-9770.718434,-842.705048
609.780310,-1184.329507,-10214.842000,-766.095498
609.780635,-1110.308913,-10288.862594,-2145.067394
609.780959,-962.267725,-9770.718434,-1302.362347
609.781283,-518.144159,-9252.574275,-1991.848295
609.781607,-740.205942,-9326.594869,-1608.800546
609.781932,-296.082377,-10066.800811,-306.438199
609.782256,1110.308913,-9918.759623,-689.485948
609.782580,592.164754,-9844.739029,-612.876398
609.782904,-296.082377,-10066.800811,306.438199
609.783229,814.226536,-9178.553681,0.000000
609.783553,1702.473667,-9918.759623,-459.657299
609.783877,814.226536,-10807.006753,229.828649
609.784201,814.226536,-9548.656652,-383.047749
609.784526,1332.370696,-9326.594869,-1149.143247
609.784850,1480.411884,-9622.677246,0.000000
609.785174,1480.411884,-9696.697840,229.828649
609.785498,74.020594,-10584.944971,0.000000
609.785822,-2368.659014,-10214.842000,-612.876398
609.786147,-3997.112087,-9252.574275,-919.314598
609.786471,-2368.659014,-8956.491898,-1685.410096
609.786795,-814.226536,-9030.512492,-1302.362347
609.787119,-1036.288319,-9400.615463,-689.485948
609.787444,-1628.453072,-8586.388927,0.000000
609.787768,-1850.514855,-9030.512492,76.609550
609.788092,-2146.597232,-9178.553681,-306.438199
609.788416,-814.226536,-8586.388927,-306.438199
609.788741,740.205942,-9696.697840,0.000000
609.789065,1258.350101,-9622.677246,229.828649
609.789389,518.144159,-10066.800811,766.095498
609.789713,518.144159,-10066.800811,536.266849
609.790038,814.226536,-10066.800811,153.219100
609.790362,1702.473667,-10658.965565,459.657299
609.790686,2368.659014,-11029.068536,612.876398
609.791010,2664.741391,-10436.903782,-229.828649
609.791335,2072.576638,-9992.780217,0.000000
609.791659,2072.576638,-10066.800811,612.876398
609.791983,1924.535449,-11473.192101,0.000000
609.792307,518.144159,-11621.233289,0.000000
609.792632,-1406.391290,-10510.924376,-383.047749
609.792956,-2812.782580,-9326.594869,-1302.362347
609.793280,-2294.638420,-8882.471304,-1225.752797
609.793604,-1924.535449,-9918.759623,0.000000
609.793928,-2220.617826,-10140.821405,-459.657299
609.794253,-2294.638420,-8734.430116,-153.219100
609.794577,-2220.617826,-8068.244768,-766.095498
609.794901,-1110.308913,-8882.471304,0.000000
609.795225,370.102971,-9918.759623,689.485948
609.795550,370.102971,-9622.677246,919.314598
609.795874,-888.247130,-8660.409521,689.485948
609.796198,-518.144159,-8586.388927,536.266849
609.796522,1184.329507,-8882.471304,383.047749
609.796847,2220.617826,-10214.842000,842.705048
609.797171,2516.700203,-9844.739029,842.705048
609.797495,1776.494261,-8438.347739,306.438199
609.797819,814.226536,-9030.512492,0.000000
609.798144,518.144159,-9696.697840,-306.438199
609.798468,666.185348,-9770.718434,306.438199
609.798792,962.267725,-9474.636058,536.266849
609.799116,-1110.308913,-9474.636058,-689.485948
609.799441,-1924.535449,-9474.636058,-919.314598
609.799765,-1702.473667,-8882.471304,-919.314598
609.800089,-740.205942,-9474.636058,0.000000
609.800413,0.000000,-10066.800811,306.438199
609.800737,74.020594,-9474.636058,0.000000
609.801062,-592.164754,-9030.512492,-459.657299
609.801386,-370.102971,-8660.409521,-536.266849
609.801710,888.247130,-9622.677246,-459.657299
609.802034,1628.453072,-10362.883188,-995.924147
609.802359,370.102971,-10584.944971,0.000000
609.802683,-1110.308913,-10584.944971,0.000000
609.803007,-740.205942,-10214.842000,-842.705048
609.803331,-740.205942,-10584.944971,-383.047749
609.803656,-370.102971,-9918.759623,-536.266849
609.803980,1406.391290,-10510.924376,0.000000
609.804304,1924.535449,-10362.883188,306.438199
609.804628,2294.638420,-9622.677246,76.609550
609.804953,1998.556043,-9770.718434,76.609550
609.805277,1406.391290,-9918.759623,-229.828649
609.805601,0.000000,-9622.677246,0.000000
609.805925,-296.082377,-10362.883188,0.000000
609.806250,-444.123565,-9918.759623,-536.266849
609.806574,-740.205942,-10436.903782,-153.219100
609.806898,-370.102971,-10807.006753,0.000000
609.807222,148.041188,-10362.883188,306.438199
609.807547,0.000000,-10214.842000,766.095498
609.807871,0.000000,-8808.450710,-153.219100
609.808195,222.061783,-7624.121203,-153.219100
609.808519,-370.102971,-8216.285956,-383.047749
609.808843,-962.267725,-9474.636058,0.000000
609.809168,-1110.308913,-9696.697840,0.000000
609.809492,-1036.288319,-9400.615463,153.219100
609.809816,-666.185348,-8882.471304,459.657299
609.810140,-592.164754,-9178.553681,842.705048
609.810465,0.000000,-8808.450710,459.657299
609.810789,222.061783,-9178.553681,1378.971896
609.811113,444.123565,-9622.677246,995.924147
609.811437,1110.308913,-9622.677246,919.314598
609.811762,666.185348,-10066.800811,1302.362347
609.812086,74.020594,-10066.800811,689.485948
609.812410,-1036.288319,-9474.636058,76.609550
609.812734,-2146.597232,-9622.677246,-536.266849
609.813059,-2368.659014,-9770.718434,-536.266849
609.813383,-1702.473667,-9992.780217,0.000000
609.813707,0.000000,-9992.780217,229.828649
609.814031,1110.308913,-8734.430116,0.000000
609.814356,1924.535449,-8142.265362,229.828649
609.814680,2220.617826,-9400.615463,76.609550
609.815004,1924.535449,-9770.718434,229.828649
609.815328,1184.329507,-9474.636058,-229.828649
609.815653,-518.144159,-9326.594869,0.000000
609.815977,-1036.288319,-9622.677246,0.000000
609.816301,-1110.308913,-10214.842000,-306.438199
609.816625,-1036.288319,-10288.862594,-536.266849
609.816950,-1924.535449,-9696.697840,-1072.533697
609.817274,-1998.556043,-9992.780217,-1302.362347
609.817598,-1332.370696,-10362.883188,-1225.752797
609.817922,-296.082377,-10288.862594,-689.485948
609.818247,74.020594,-10214.842000,383.047749
609.818571,0.000000,-9400.615463,-153.219100
609.818895,-1036.288319,-9770.718434,-842.705048
609.819219,-888.247130,-10658.965565,0.000000
609.819544,888.247130,-11473.192101,612.876398
609.819868,1702.473667,-10881.027347,612.876398
609.820192,1480.411884,-9474.636058,-383.047749
609.820517,1332.370696,-7994.224174,-1838.629195
609.820841,1924.535449,-8734.430116,-1149.143247
609.821165,1406.391290,-9844.739029,-383.047749
609.821489,1776.494261,-10288.862594,383.047749
609.821814,1480.411884,-10288.862594,1302.362347
609.822138,1036.288319,-9252.574275,0.000000
609.822462,0.000000,-8142.265362,-1149.143247
609.822787,-296.082377,-8364.327145,-612.876398
609.823111,0.000000,-10066.800811,-229.828649
609.823435,-296.082377,-10732.986159,153.219100
609.823759,-888.247130,-9770.718434,766.095498
609.824084,-1036.288319,-9030.512492,689.485948
609.824408,-518.144159,-9622.677246,-612.876398
609.824732,74.020594,-10658.965565,-229.828649
609.825056,74.020594,-11251.130318,229.828649
609.825381,-222.061783,-10436.903782,-229.828649
609.825705,-666.185348,-9104.533087,-536.266849
609.826029,-740.205942,-8808.450710,0.000000
609.826354,740.205942,-9844.739029,-229.828649
609.826678,962.267725,-11473.192101,459.657299
609.827002,0.000000,-11029.068536,1378.971896
609.827326,-222.061783,-9548.656652,1072.533697
609.827651,0.000000,-8216.285956,1302.362347
609.827975,-296.082377,-8290.306550,612.876398
609.828299,-1184.329507,-8586.388927,612.876398
609.828624,-2368.659014,-7402.059420,306.438199
609.828948,-2590.720797,-6809.894666,-1072.533697
609.829272,-1628.453072,-6809.894666,-842.705048
609.829596,-296.082377,-8216.285956,153.219100
609.829921,740.205942,-9400.615463,153.219100
609.830245,296.082377,-9548.656652,-153.219100
609.830569,-1258.350101,-9252.574275,0.000000
609.830893,-1480.411884,-9474.636058,-995.924147
609.831218,-222.061783,-10436.903782,-383.047749
609.831542,444.123565,-11325.150913,842.705048
609.831866,814.226536,-11103.089130,536.266849
609.832191,0.000000,-11399.171507,0.000000
609.832515,-1184.329507,-11621.233289,-153.219100
609.832839,-518.144159,-11177.109724,-306.438199
609.833163,222.061783,-11177.109724,-689.485948
609.833488,-370.102971,-10436.903782,229.828649
609.833812,-888.247130,-9474.636058,-1149.143247
609.834136,-1258.350101,-9326.594869,-919.314598
609.834461,-592.164754,-9770.718434,-612.876398
609.834785,222.061783,-10584.944971,0.000000
609.835109,444.123565,-9696.697840,-1149.143247
609.835433,-148.041188,-8586.388927,-766.095498
609.835758,-296.082377,-8438.347739,-1225.752797
609.836082,888.247130,-9178.553681,-1378.971896
609.836406,1554.432478,-9178.553681,-306.438199
609.836730,1258.350101,-9252.574275,0.000000
609.837055,1776.494261,-9252.574275,153.219100
609.837379,1776.494261,-9326.594869,-153.219100
609.837703,2442.679609,-8586.388927,-536.266849
609.838028,2664.741391,-9844.739029,919.314598
609.838352,2368.659014,-11325.150913,229.828649
609.838676,1258.350101,-10955.047942,383.047749
609.839000,222.061783,-10658.965565,-612.876398
609.839325,148.041188,-10436.903782,-306.438199
609.839649,0.000000,-11325.150913,-612.876398
609.839973,0.000000,-12139.377449,-612.876398
609.840297,-666.185348,-11251.130318,0.000000
609.840622,-1406.391290,-9844.739029,-1608.800546
609.840946,-1924.535449,-10140.821405,-1378.971896
609.841270,-1332.370696,-9770.718434,-229.828649
609.841595,592.164754,-9770.718434,0.000000
609.841919,666.185348,-9696.697840,153.219100
609.842243,296.082377,-8956.491898,766.095498
609.842567,962.267725,-8068.244768,306.438199
609.842892,2220.617826,-8512.368333,1378.971896
609.843216,1702.473667,-9178.553681,1685.410096
609.843540,592.164754,-8956.491898,1532.190996
609.843865,-592.164754,-8512.368333,612.876398
609.844189,-1110.308913,-8660.409521,536.266849
609.844513,-666.185348,-8956.491898,689.485948
609.844837,-518.144159,-8882.471304,229.828649
609.845162,-1924.535449,-8142.265362,0.000000
609.845486,-2960.823768,-7772.162391,153.219100
609.845810,-2220.617826,-7772.162391,0.000000
609.846134,-1110.308913,-9178.553681,536.266849
609.846459,-1850.514855,-10066.800811,459.657299
609.846783,-2368.659014,-9622.677246,0.000000
609.847107,-1924.535449,-9548.656652,689.485948
609.847432,-518.144159,-9844.739029,842.705048
609.847756,444.123565,-10732.986159,1608.800546
609.848080,444.123565,-10658.965565,1378.971896
609.848404,740.205942,-9992.780217,1532.190996
609.848729,666.185348,-10584.944971,153.219100
609.849053,148.041188,-9770.718434,0.000000
609.849377,0.000000,-9252.574275,229.828649
609.849702,0.000000,-10140.821405,229.828649
609.850026,0.000000,-9918.759623,0.000000
609.850350,0.000000,-9400.615463,-306.438199
609.850674,-222.061783,-8808.450710,-842.705048
609.850999,222.061783,-9770.718434,-383.047749
609.851323,0.000000,-10436.903782,-536.266849
609.851647,-222.061783,-9770.718434,-536.266849
609.851971,-592.164754,-9400.615463,-612.876398
609.852296,-296.082377,-9474.636058,-536.266849
609.852620,962.267725,-9622.677246,-612.876398
609.852944,1924.535449,-10140.821405,0.000000
609.853269,1480.411884,-10288.862594,-76.609550
609.853593,1184.329507,-10436.903782,306.438199
609.853917,1332.370696,-10732.986159,0.000000
609.854241,1184.329507,-11251.130318,383.047749
609.854566,592.164754,-11103.089130,-153.219100
609.854890,-666.185348,-10510.924376,-995.924147
609.855214,-1184.329507,-10214.842000,-459.657299
609.855539,-740.205942,-10510.924376,-383.047749
609.855863,666.185348,-10066.800811,-766.095498
609.856187,222.061783,-9622.677246,-995.924147
609.856511,-592.164754,-9400.615463,-1072.533697
609.856836,-666.185348,-9770.718434,-995.924147
609.857160,0.000000,-8882.471304,-1608.800546
609.857484,148.041188,-8734.430116,-612.876398
609.857808,444.123565,-8808.450710,153.219100
609.858133,1480.411884,-9252.574275,0.000000
609.858457,1554.432478,-8882.471304,0.000000
609.858781,1406.391290,-7920.203579,-459.657299
609.859106,1554.432478,-8068.244768,0.000000
609.859430,1554.432478,-8660.409521,0.000000
609.859754,1628.453072,-9400.615463,1149.143247
609.860078,1036.288319,-9918.759623,1149.143247
609.860403,0.000000,-9474.636058,383.047749
609.860727,-962.267725,-8882.471304,383.047749
609.861051,-2146.597232,-8956.491898,0.000000
609.861376,-2368.659014,-9548.656652,-306.438199
609.861700,-2516.700203,-9992.780217,0.000000
609.862024,-2368.659014,-9474.636058,383.047749
609.862348,-1998.556043,-8882.471304,383.047749
609.862673,-518.144159,-9400.615463,1378.971896
609.862997,740.205942,-10362.883188,1991.848295
609.863321,962.267725,-10288.862594,1838.629195
609.863645,0.000000,-9400.615463,459.657299
609.863970,-1110.308913,-8216.285956,-229.828649
609.864294,-1776.494261,-8290.306550,-919.314598
609.864618,-2442.679609,-9474.636058,0.000000
609.864943,-2368.659014,-10732.986159,229.828649
609.865267,-2294.638420,-10584.944971,153.219100
609.865591,-1110.308913,-9474.636058,612.876398
609.865915,74.020594,-9252.574275,536.266849
609.866240,592.164754,-9992.780217,0.000000
609.866564,518.144159,-9992.780217,-459.657299
609.866888,222.061783,-9696.697840,-153.219100
609.867212,370.102971,-10066.800811,0.000000
609.867537,296.082377,-10288.862594,229.828649
609.867861,148.041188,-10362.883188,-536.266849
609.868185,-592.164754,-10436.903782,-689.485948
609.868510,-592.164754,-11251.130318,-1378.971896
609.868834,-592.164754,-11843.295072,-612.876398
609.869158,-296.082377,-11843.295072,0.000000
609.869482,-370.102971,-10584.944971,-306.438199
609.869807,-518.144159,-9992.780217,-689.485948
609.870131,-518.144159,-10362.883188,0.000000
609.870455,148.041188,-9992.780217,-842.705048
609.870780,1406.391290,-9326.594869,-689.485948
609.871104,1480.411884,-9252.574275,0.000000
609.871428,1924.535449,-9918.759623,229.828649
609.871752,1850.514855,-10140.821405,0.000000
609.872077,1480.411884,-9252.574275,0.000000
609.872401,1406.391290,-8216.285956,0.000000
609.872725,2368.659014,-8734.430116,-995.924147
609.873049,2812.782580,-9030.512492,-76.609550
609.873374,3478.967927,-9252.574275,1378.971896
609.873698,3034.844362,-9178.553681,459.657299
609.874022,1924.535449,-9030.512492,-153.219100
609.874347,296.082377,-9474.636058,-919.314598
609.874671,-814.226536,-9548.656652,-612.876398
609.874995,-814.226536,-10140.821405,-919.314598
609.875319,-1850.514855,-9696.697840,-383.047749
609.875644,-1184.329507,-9400.615463,153.219100
609.875968,370.102971,-9844.739029,536.266849
609.876292,814.226536,-10214.842000,459.657299
609.876617,814.226536,-9844.739029,536.266849
609.876941,0.000000,-9030.512492,229.828649
609.877265,-518.144159,-8956.491898,153.219100
609.877589,-666.185348,-9326.594869,229.828649
609.877914,-1406.391290,-9400.615463,306.438199
609.878238,-2072.576638,-9326.594869,459.657299
609.878562,-2590.720797,-9178.553681,229.828649
609.878886,-1776.494261,-9474.636058,0.000000
609.879211,-1036.288319,-9474.636058,536.266849
609.879535,-814.226536,-8660.409521,842.705048
609.879859,-1332.370696,-7698.141797,383.047749
609.880184,-2072.576638,-7772.162391,-383.047749
609.880508,-1332.370696,-9474.636058,229.828649
609.880832,-296.082377,-10362.883188,919.314598
609.881156,0.000000,-10214.842000,1302.362347
609.881481,-222.061783,-9992.780217,1149.143247
609.881805,-1554.432478,-9844.739029,383.047749
609.882129,-1776.494261,-9622.677246,-612.876398
609.882454,-2146.597232,-10732.986159,153.219100
609.882778,-888.247130,-11621.233289,229.828649
609.883102,0.000000,-10510.924376,306.438199
609.883426,296.082377,-9622.677246,229.828649
609.883751,296.082377,-8956.491898,-153.219100
609.884075,-222.061783,-10288.862594,-153.219100
609.884399,-888.247130,-10732.986159,-536.266849
609.884723,-1406.391290,-10510.924376,-459.657299
609.885048,-2960.823768,-9622.677246,-383.047749
609.885372,-1480.411884,-9326.594869,-689.485948
609.885696,-370.102971,-9844.739029,-306.438199
609.886021,1850.514855,-10658.965565,306.438199
609.886345,3330.926739,-10140.821405,0.000000
609.886669,3849.070898,-9474.636058,306.438199
609.886993,4071.132681,-9474.636058,459.657299
609.887318,4071.132681,-9622.677246,0.000000
609.887642,4219.173869,-10584.944971,383.047749
609.887966,1776.494261,-10584.944971,76.609550
609.888290,-296.082377,-11029.068536,-919.314598
609.888615,-1184.329507,-9622.677246,-1149.143247
609.888939,-222.061783,-9918.759623,0.000000
609.889263,962.267725,-10214.842000,-229.828649
609.889588,814.226536,-9844.739029,-306.438199
609.889912,0.000000,-9104.533087,153.219100
609.890236,0.000000,-7994.224174,0.000000
609.890560,0.000000,-8216.285956,-536.266849
609.890885,-296.082377,-8808.450710,306.438199
609.891209,-888.247130,-8734.430116,689.485948
609.891533,-1110.308913,-9030.512492,-229.828649
609.891858,-296.082377,-8956.491898,0.000000
609.892182,814.226536,-9104.533087,842.705048
609.892506,2146.597232,-9918.759623,459.657299
609.892830,1850.514855,-9918.759623,995.924147
609.893155,0.000000,-9252.574275,1532.190996
609.893479,-444.123565,-9252.574275,766.095498
609.893803,-222.061783,-9326.594869,459.657299
609.894127,0.000000,-8734.430116,842.705048
609.894452,-222.061783,-7402.059420,995.924147
609.894776,-962.267725,-7698.141797,0.000000
609.895100,-2442.679609,-7624.121203,229.828649
609.895425,-2738.761985,-8142.265362,919.314598
609.895749,-2516.700203,-9474.636058,919.314598
609.896073,-2516.700203,-9030.512492,76.609550
609.896397,-2442.679609,-9252.574275,229.828649
609.896722,-1406.391290,-9770.718434,536.266849
609.897046,370.102971,-10807.006753,1225.752797
609.897370,888.247130,-10881.027347,766.095498
609.897695,370.102971,-10362.883188,459.657299
609.898019,-888.247130,-9696.697840,-612.876398
609.898343,-1036.288319,-10881.027347,-995.924147
609.898667,-1110.308913,-11843.295072,-383.047749
609.898992,-222.061783,-12287.418637,766.095498
609.899316,592.164754,-11399.171507,995.924147
609.899640,74.020594,-10288.862594,536.266849
609.899964,-666.185348,-9474.636058,-689.485948
609.900289,-370.102971,-9178.553681,-1072.533697
609.900613,0.000000,-10362.883188,-1225.752797
609.900937,-148.041188,-10510.924376,-689.485948
609.901262,-222.061783,-9770.718434,0.000000
609.901586,-222.061783,-9548.656652,-536.266849
609.901910,-74.020594,-9474.636058,-919.314598
609.902234,296.082377,-9696.697840,-1838.629195
609.902559,444.123565,-10510.924376,-1072.533697
609.902883,666.185348,-10584.944971,-919.314598
609.903207,1702.473667,-10140.821405,-995.924147
609.903532,1702.473667,-9474.636058,0.000000
609.903856,2220.617826,-10140.821405,229.828649
609.904180,1924.535449,-11473.192101,-229.828649
609.904504,222.061783,-11325.150913,-459.657299
609.904829,-814.226536,-9474.636058,-612.876398
609.905153,-666.185348,-9178.553681,-689.485948
609.905477,74.020594,-9992.780217,-306.438199
609.905801,666.185348,-9992.780217,0.000000
609.906126,148.041188,-9252.574275,-842.705048
609.906450,-296.082377,-8290.306550,-766.095498
609.906774,370.102971,-8882.471304,-306.438199
609.907099,1702.473667,-9474.636058,153.219100
609.907423,2368.659014,-9252.574275,459.657299
609.907747,2220.617826,-8438.347739,842.705048
609.908071,962.267725,-8808.450710,383.047749
609.908396,1258.350101,-8882.471304,-153.219100
609.908720,1036.288319,-8882.471304,459.657299
609.909044,296.082377,-9326.594869,919.314598
609.909369,74.020594,-9400.615463,919.314598
609.909693,0.000000,-8512.368333,459.657299
609.910017,-222.061783,-7994.224174,0.000000
609.910341,-1554.432478,-8660.409521,0.000000
609.910666,-1924.535449,-8808.450710,76.609550
609.910990,-1628.453072,-8290.306550,-229.828649
609.911314,-1702.473667,-7920.203579,0.000000
609.911638,-740.205942,-8512.368333,229.828649
609.911963,0.000000,-9622.677246,383.047749
609.912287,-814.226536,-11251.130318,229.828649
609.912611,-2294.638420,-10955.047942,76.609550
609.912936,-2442.679609,-10807.006753,536.266849
609.913260,-1850.514855,-10214.842000,-229.828649
609.913584,-888.247130,-10732.986159,0.000000
609.913908,0.000000,-11325.150913,-229.828649
609.914233,0.000000,-11621.233289,306.438199
609.914557,296.082377,-11251.130318,306.438199
609.914881,296.082377,-10214.842000,766.095498
609.915205,518.144159,-9474.636058,383.047749
609.915530,444.123565,-9474.636058,229.828649
609.915854,-592.164754,-10066.800811,76.609550
609.916178,-1554.432478,-9844.739029,-536.266849
609.916503,-1184.329507,-8660.409521,-842.705048
609.916827,-444.123565,-8882.471304,153.219100
609.917151,666.185348,-9104.533087,76.609550
609.917475,592.164754,-7920.203579,0.000000
609.917800,-962.267725,-7994.224174,0.000000
609.918124,-1406.391290,-9252.574275,-689.485948
609.918448,-518.144159,-10066.800811,-536.266849
609.918772,444.123565,-10362.883188,229.828649
609.919097,518.144159,-9474.636058,612.876398
609.919421,592.164754,-9474.636058,689.485948
609.919745,888.247130,-10658.965565,383.047749
609.920069,1332.370696,-10732.986159,0.000000
609.920394,1480.411884,-10584.944971,459.657299
609.920718,518.144159,-9992.780217,-306.438199
609.921042,-296.082377,-10584.944971,-306.438199
609.921366,-666.185348,-10584.944971,-995.924147
609.921691,370.102971,-10066.800811,-1225.752797
609.922015,296.082377,-9918.759623,-1072.533697
609.922339,296.082377,-8882.471304,-459.657299
609.922663,-148.041188,-9104.533087,-612.876398
609.922988,-222.061783,-9770.718434,0.000000
609.923312,74.020594,-9696.697840,-383.047749
609.923636,444.123565,-9548.656652,-153.219100
609.923960,740.205942,-9400.615463,0.000000
609.924285,814.226536,-9104.533087,-612.876398
609.924609,962.267725,-9178.553681,-153.219100
609.924933,1554.432478,-8586.388927,76.609550
609.925257,1702.473667,-9622.677246,306.438199
609.925582,962.267725,-10066.800811,0.000000
609.925906,0.000000,-9400.615463,-306.438199
609.926230,-888.247130,-8808.450710,0.000000
609.926554,-2072.576638,-8290.306550,-1532.190996
609.926878,-3330.926739,-8660.409521,-1378.971896
609.927203,-3552.988522,-9548.656652,-1149.143247
609.927527,-962.267725,-10584.944971,76.609550
609.927851,1258.350101,-11325.150913,842.705048
609.928175,1406.391290,-10140.821405,1072.533697
609.928500,518.144159,-9104.533087,842.705048
609.928824,0.000000,-10288.862594,842.705048
609.929148,-444.123565,-10658.965565,0.000000
609.929472,-148.041188,-10955.047942,536.266849
609.929797,0.000000,-9178.553681,919.314598
609.930121,814.226536,-9474.636058,1072.533697
609.930445,1480.411884,-10288.862594,1302.362347
609.930769,814.226536,-10066.800811,919.314598
609.931094,-444.123565,-9918.759623,995.924147
609.931418,-962.267725,-8882.471304,76.609550
609.931742,-296.082377,-7994.224174,-995.924147
609.932066,0.000000,-8290.306550,153.219100
609.932391,-296.082377,-8068.244768,229.828649
609.932715,-222.061783,-8142.265362,459.657299
609.933039,-222.061783,-8882.471304,612.876398
609.933363,74.020594,-9622.677246,995.924147
609.933688,370.102971,-9252.574275,1302.362347
609.934012,0.000000,-8882.471304,612.876398
609.934336,-666.185348,-8734.430116,-306.438199
609.934660,-592.164754,-9252.574275,-306.438199
609.934985,-222.061783,-10658.965565,0.000000
609.935309,74.020594,-11547.212695,766.095498
609.935633,1332.370696,-10584.944971,842.705048
609.935957,1036.288319,-10214.842000,842.705048
609.936282,370.102971,-10732.986159,383.047749
609.936606,-962.267725,-11473.192101,-612.876398
609.936930,-1924.535449,-11621.233289,-995.924147
609.937254,-2368.659014,-9992.780217,-1455.581446
609.937579,-2146.597232,-9474.636058,-1532.190996
609.937903,-814.226536,-9844.739029,-383.047749
609.938227,1036.288319,-10584.944971,153.219100
609.938551,2146.597232,-11547.212695,153.219100
609.938876,1628.453072,-9992.780217,0.000000
609.939200,1036.288319,-9622.677246,-229.828649
609.939524,518.144159,-9548.656652,-612.876398
609.939848,0.000000,-10288.862594,-689.485948
609.940173,148.041188,-10066.800811,0.000000
609.940497,814.226536,-10140.821405,229.828649
609.940821,1036.288319,-10436.903782,229.828649
609.941145,962.267725,-9770.718434,76.609550
609.941470,296.082377,-9030.512492,-1685.410096
609.941794,888.247130,-8882.471304,-1378.971896
609.942118,666.185348,-9474.636058,-612.876398
609.942442,74.020594,-9622.677246,-689.485948
609.942767,-888.247130,-8882.471304,-383.047749
609.943091,-1406.391290,-8660.409521,-383.047749
609.943415,-1110.308913,-9252.574275,-306.438199
609.943739,-1480.411884,-9474.636058,459.657299
609.944064,-814.226536,-8660.409521,306.438199
609.944388,-592.164754,-8068.244768,153.219100
609.944712,444.123565,-7920.203579,229.828649
609.945036,1332.370696,-8586.388927,153.219100
609.945360,444.123565,-9030.512492,0.000000
609.945685,0.000000,-9252.574275,0.000000
609.946009,0.000000,-9326.594869,229.828649
609.946333,1036.288319,-9474.636058,689.485948
609.946657,814.226536,-9696.697840,689.485948
609.946982,-148.041188,-9326.594869,76.609550
609.947306,-1258.350101,-9992.780217,-842.705048
609.947630,-1406.391290,-9474.636058,-842.705048
609.947954,-518.144159,-9474.636058,-612.876398
609.948279,296.082377,-10214.842000,-306.438199
609.948603,592.164754,-10066.800811,0.000000
609.948927,74.020594,-8734.430116,-1225.752797
609.949251,-370.102971,-9030.512492,-612.876398
609.949576,-1258.350101,-9622.677246,-1072.533697
609.949900,-1924.535449,-10732.986159,-612.876398
609.950224,-1776.494261,-10807.006753,-766.095498
609.950548,-1036.288319,-10362.883188,0.000000
609.950873,0.000000,-10584.944971,0.000000
609.951197,-296.082377,-10436.903782,-1225.752797
609.951521,222.061783,-11547.212695,459.657299
609.951845,814.226536,-11621.233289,306.438199
609.952170,1110.308913,-10658.965565,76.609550
609.952494,888.247130,-10214.842000,229.828649
609.952818,962.267725,-9844.739029,-306.438199
609.953142,962.267725,-9474.636058,-612.876398
609.953467,222.061783,-9918.759623,-766.095498
609.953791,-740.205942,-10288.862594,-306.438199
609.954115,-1036.288319,-9770.718434,-766.095498
609.954439,-592.164754,-9252.574275,-766.095498
609.954764,-148.041188,-9474.636058,0.000000
609.955088,740.205942,-9474.636058,-536.266849
609.955412,1184.329507,-9178.553681,0.000000
609.955736,592.164754,-8882.471304,-383.047749
609.956061,518.144159,-9104.533087,536.266849
609.956385,444.123565,-9696.697840,76.609550
609.956709,1184.329507,-9548.656652,0.000000
609.957033,740.205942,-9474.636058,-306.438199
609.957358,-148.041188,-10214.842000,-766.095498
609.957682,-370.102971,-10436.903782,-1149.143247
609.958006,74.020594,-10732.986159,0.000000
609.958330,666.185348,-10732.986159,0.000000
609.958655,1184.329507,-10807.006753,0.000000
609.958979,444.123565,-9622.677246,-153.219100
609.959303,-296.082377,-10140.821405,-229.828649
609.959627,-740.205942,-11029.068536,0.000000
609.959952,-1480.411884,-11325.150913,76.609550
609.960276,-2294.638420,-9918.759623,995.924147
609.960600,-1924.535449,-8438.347739,229.828649
609.960924,-1850.514855,-7920.203579,383.047749
609.961249,-1258.350101,-7698.141797,612.876398
609.961573,-962.267725,-8438.347739,842.705048
609.961897,-1036.288319,-8660.409521,1225.752797
609.962221,-592.164754,-7179.997637,459.657299
609.962546,0.000000,-7031.956449,689.485948
609.962870,814.226536,-7994.224174,459.657299
609.963194,1628.453072,-9030.512492,229.828649
609.963518,1480.411884,-9474.636058,919.314598
609.963842,1332.370696,-9474.636058,919.314598
609.964167,1110.308913,-9178.553681,995.924147
609.964491,740.205942,-9474.636058,1302.362347
609.964815,740.205942,-9992.780217,995.924147
609.965139,1110.308913,-10510.924376,1685.410096
609.965464,1702.473667,-10732.986159,1991.848295
609.965788,370.102971,-8956.491898,842.705048
609.966112,-148.041188,-7624.121203,0.000000
609.966436,-1998.556043,-8068.244768,0.000000
609.966761,-2738.761985,-9622.677246,-766.095498
609.967085,-2886.803174,-10362.883188,-1225.752797
609.967409,-2960.823768,-9696.697840,-383.047749
609.967733,-2220.617826,-8808.450710,-536.266849
609.968058,-1998.556043,-9474.636058,-1149.143247
609.968382,-1184.329507,-9326.594869,76.609550
609.968706,-222.061783,-9770.718434,-383.047749
609.969030,1258.350101,-10584.944971,-612.876398
609.969355,2886.803174,-10658.965565,0.000000
609.969679,4441.235652,-10510.924376,842.705048
609.970003,4663.297435,-10362.883188,919.314598
609.970327,2960.823768,-10955.047942,-229.828649
609.970652,888.247130,-11177.109724,-1072.533697
609.970976,148.041188,-10807.006753,-842.705048
609.971300,1184.329507,-12287.418637,-1225.752797
609.971624,1776.494261,-11917.315666,-919.314598
609.971949,1628.453072,-10807.006753,-1072.533697
609.972273,814.226536,-10362.883188,-1302.362347
609.972597,0.000000,-10807.006753,-1915.238745
609.972921,-1258.350101,-10732.986159,-1149.143247
609.973246,-1924.535449,-10288.862594,-459.657299
609.973570,-1554.432478,-9548.656652,-689.485948
609.973894,-2072.576638,-9030.512492,-1838.629195
609.974218,-1480.411884,-9178.553681,-1149.143247
609.974543,-370.102971,-10436.903782,76.609550
609.974867,592.164754,-10658.965565,919.314598
609.975191,1406.391290,-9622.677246,612.876398
609.975515,1480.411884,-8882.471304,1378.971896
609.975840,962.267725,-8142.265362,0.000000
609.976164,740.205942,-8808.450710,306.438199
609.976488,0.000000,-8956.491898,689.485948
609.976812,-370.102971,-8660.409521,689.485948
609.977137,-296.082377,-8660.409521,536.266849
609.977461,-1036.288319,-8364.327145,76.609550
609.977785,-1406.391290,-7698.141797,0.000000
609.978109,-2146.597232,-7624.121203,153.219100
609.978434,-2886.803174,-8364.327145,-459.657299
609.978758,-3404.947333,-8290.306550,-766.095498
609.979082,-2516.700203,-7550.100608,-459.657299
609.979406,-740.205942,-8438.347739,383.047749
609.979731,370.102971,-9474.636058,842.705048
609.980055,888.247130,-10436.903782,459.657299
609.980379,-592.164754,-9326.594869,0.000000
609.980703,-1184.329507,-9548.656652,0.000000
609.981028,-1258.350101,-10807.006753,76.609550
609.981352,-148.041188,-10955.047942,0.000000
609.981676,888.247130,-10140.821405,612.876398
609.982000,1110.308913,-9622.677246,0.000000
609.982324,814.226536,-9104.533087,-383.047749
609.982649,148.041188,-10436.903782,-229.828649
609.982973,0.000000,-10140.821405,0.000000
609.983297,-1184.329507,-9696.697840,-229.828649
609.983621,-2590.720797,-9770.718434,-995.924147
609.983946,-2146.597232,-9030.512492,-842.705048
609.984270,-666.185348,-9770.718434,-995.924147
609.984594,0.000000,-10288.862594,-1225.752797
609.984918,666.185348,-10066.800811,306.438199
609.985243,888.247130,-10214.842000,-306.438199
609.985567,1628.453072,-10288.862594,76.609550
609.985891,2220.617826,-9770.718434,-612.876398
609.986215,1332.370696,-10288.862594,-306.438199
609.986540,518.144159,-10955.047942,-995.924147
609.986864,0.000000,-10955.047942,-1685.410096
609.987188,-296.082377,-10214.842000,-1225.752797
609.987512,1036.288319,-9844.739029,-229.828649
609.987837,1998.556043,-10584.944971,-306.438199
609.988161,1480.411884,-10881.027347,0.000000
609.988485,888.247130,-10066.800811,-229.828649
609.988809,1110.308913,-9696.697840,-459.657299
609.989134,1184.329507,-9992.780217,-306.438199
609.989458,1036.288319,-10140.821405,0.000000
609.989782,-296.082377,-10510.924376,-383.047749
609.990106,-444.123565,-9622.677246,-459.657299
609.990431,518.144159,-9548.656652,-306.438199
609.990755,518.144159,-9252.574275,0.000000
609.991079,148.041188,-9252.574275,-689.485948
609.991403,-740.205942,-8956.491898,0.000000
609.991728,-1480.411884,-9548.656652,0.000000
609.992052,-518.144159,-9992.780217,153.219100
609.992376,-592.164754,-9770.718434,0.000000
609.992700,-1110.308913,-9030.512492,0.000000
609.993025,-1110.308913,-8142.265362,1072.533697
609.993349,-444.123565,-9178.553681,383.047749
609.993673,0.000000,-9474.636058,459.657299
609.993997,-148.041188,-9696.697840,612.876398
609.994322,-444.123565,-9622.677246,536.266849
609.994646,-592.164754,-9178.553681,153.219100
609.994970,-1110.308913,-9770.718434,536.266849
609.995294,-666.185348,-9696.697840,536.266849
609.995619,-296.082377,-9918.759623,459.657299
609.995943,1036.288319,-10436.903782,1455.581446
609.996267,1258.350101,-9770.718434,536.266849
609.996591,0.000000,-8734.430116,459.657299
609.996916,-1850.514855,-8956.491898,0.000000
609.997240,-1924.535449,-9104.533087,-306.438199
609.997564,-1702.473667,-10214.842000,76.609550
609.997888,-74.020594,-10214.842000,459.657299
609.998213,-296.082377,-8586.388927,766.095498
609.998537,0.000000,-8512.368333,0.000000
609.998861,592.164754,-9252.574275,919.314598
609.999185,888.247130,-10436.903782,1149.143247
609.999510,222.061783,-9622.677246,1225.752797
609.999834,-666.185348,-8586.388927,1149.143247
610.000158,-962.267725,-8216.285956,-383.047749
610.000482,0.000000,-8142.265362,-1532.190996
610.000806,-296.082377,-8586.388927,0.000000
610.001131,222.061783,-9770.718434,306.438199
610.001455,592.164754,-9622.677246,0.000000
610.001779,296.082377,-8660.409521,-766.095498
610.002103,444.123565,-8512.368333,-919.314598
610.002428,740.205942,-9918.759623,-689.485948
610.002752,814.226536,-11621.233289,-919.314598
610.003076,148.041188,-11695.253884,0.000000
610.003400,-148.041188,-10584.944971,-536.266849
610.003725,518.144159,-10362.883188,-766.095498
610.004049,814.226536,-10807.006753,-995.924147
610.004373,888.247130,-11695.253884,-995.924147
610.004697,592.164754,-11251.130318,-1378.971896
610.005022,592.164754,-11325.150913,-919.314598
610.005346,1184.329507,-11695.253884,-536.266849
610.005670,1036.288319,-11695.253884,0.000000
610.005994,1480.411884,-11843.295072,-383.047749
610.006319,222.061783,-10584.944971,-1225.752797
610.006643,-1184.329507,-9696.697840,-1608.800546
610.006967,-1184.329507,-9770.718434,-1532.190996
610.007291,222.061783,-10362.883188,-383.047749
610.007616,666.185348,-10362.883188,-383.047749
610.007940,-296.082377,-8216.285956,-459.657299
610.008264,-1332.370696,-7476.080014,0.000000
610.008588,-1332.370696,-8956.491898,-612.876398
610.008913,-370.102971,-9548.656652,0.000000
610.009237,148.041188,-8512.368333,766.095498
610.009561,74.020594,-7920.203579,1685.410096
610.009885,296.082377,-8364.327145,76.609550
610.010210,148.041188,-8956.491898,76.609550
610.010534,-222.061783,-8660.409521,919.314598
610.010858,0.000000,-9548.656652,612.876398
610.011182,-518.144159,-10066.800811,306.438199
610.011507,-1184.329507,-9474.636058,-153.219100
610.011831,-1332.370696,-9178.553681,-153.219100
610.012155,-814.226536,-9474.636058,0.000000
610.012479,-592.164754,-10436.903782,0.000000
610.012804,-222.061783,-10288.862594,612.876398
610.013128,-1332.370696,-9548.656652,536.266849
610.013452,-888.247130,-9400.615463,612.876398
610.013776,-518.144159,-8734.430116,0.000000
610.014101,-814.226536,-9104.533087,0.000000
610.014425,-518.144159,-9770.718434,153.219100
610.014749,444.123565,-10362.883188,842.705048
610.015073,444.123565,-9030.512492,459.657299
610.015398,222.061783,-8734.430116,153.219100
610.015722,0.000000,-9252.574275,-153.219100
610.016046,-1332.370696,-10066.800811,-1225.752797
610.016370,-2146.597232,-10140.821405,-995.924147
610.016695,-1332.370696,-9252.574275,-689.485948
610.017019,592.164754,-8216.285956,-689.485948
610.017343,1924.535449,-9104.533087,0.000000
610.017667,1998.556043,-9696.697840,689.485948
610.017991,2146.597232,-10140.821405,995.924147
610.018315,1554.432478,-10214.842000,-383.047749
610.018640,814.226536,-10436.903782,0.000000
610.018964,592.164754,-10510.924376,-306.438199
610.019288,-148.041188,-10807.006753,-612.876398
610.019612,-1258.350101,-10214.842000,-842.705048
610.019936,-666.185348,-9992.780217,-842.705048
610.020260,296.082377,-10214.842000,-1455.581446
610.020585,666.185348,-9992.780217,-383.047749
610.020909,740.205942,-9918.759623,-536.266849
610.021233,1480.411884,-9474.636058,-689.485948
610.021557,666.185348,-9474.636058,-536.266849
610.021881,592.164754,-9622.677246,-766.095498
610.022205,592.164754,-10807.006753,0.000000
610.022530,888.247130,-11547.212695,383.047749
610.022854,1110.308913,-10362.883188,0.000000
610.023178,1184.329507,-10066.800811,0.000000
610.023502,888.247130,-9992.780217,-536.266849
610.023826,1258.350101,-10066.800811,76.609550
610.024150,666.185348,-11029.068536,459.657299
610.024474,74.020594,-9770.718434,-153.219100
610.024799,-888.247130,-9030.512492,153.219100
610.025123,-1406.391290,-9770.718434,153.219100
610.025447,-666.185348,-10658.965565,0.000000
610.025771,0.000000,-10066.800811,536.266849
610.026095,-296.082377,-8956.491898,842.705048
610.026419,-1036.288319,-9030.512492,1378.971896
610.026744,-1406.391290,-9252.574275,536.266849
610.027068,-1776.494261,-7920.203579,1302.362347
610.027392,-1184.329507,-7846.182985,842.705048
610.027716,0.000000,-8364.327145,536.266849
610.028040,0.000000,-8512.368333,0.000000
610.028364,-814.226536,-8882.471304,383.047749
610.028689,-666.185348,-8660.409521,689.485948
610.029013,-518.144159,-9252.574275,229.828649
610.029337,-1184.329507,-9548.656652,229.828649
610.029661,-2294.638420,-9844.739029,-229.828649
610.029985,-1332.370696,-9400.615463,-919.314598
610.030309,1036.288319,-9844.739029,612.876398
610.030633,2516.700203,-10955.047942,1072.533697
610.030958,2590.720797,-10807.006753,1378.971896
610.031282,2220.617826,-9326.594869,995.924147
610.031606,1628.453072,-8956.491898,-229.828649
610.031930,740.205942,-9992.780217,-612.876398
610.032254,-888.247130,-11029.068536,-383.047749
610.032578,-1110.308913,-11103.089130,-689.485948
610.032903,-1480.411884,-10214.842000,-612.876398
610.033227,-1332.370696,-9770.718434,0.000000
610.033551,-592.164754,-10362.883188,-383.047749
610.033875,-1110.308913,-10214.842000,-1378.971896
610.034199,-1258.350101,-9252.574275,-1532.190996
610.034523,0.000000,-8438.347739,-1149.143247
610.034847,222.061783,-8956.491898,-842.705048
610.035172,296.082377,-8734.430116,-995.924147
610.035496,222.061783,-9474.636058,612.876398
610.035820,148.041188,-9622.677246,-919.314598
610.036144,-222.061783,-9400.615463,-1608.800546
610.036468,-148.041188,-8956.491898,-1532.190996
610.036792,962.267725,-8882.471304,-1072.533697
610.037117,2590.720797,-10807.006753,-842.705048
610.037441,2516.700203,-10881.027347,-306.438199
610.037765,3034.844362,-10214.842000,0.000000
610.038089,1628.453072,-10140.821405,-1225.752797
610.038413,1036.288319,-10214.842000,-995.924147
610.038737,148.041188,-11029.068536,-689.485948
610.039062,-740.205942,-11177.109724,-1149.143247
610.039386,-1702.473667,-10436.903782,-842.705048
610.039710,-1776.494261,-10288.862594,-1991.848295
610.040034,-1332.370696,-10510.924376,-1378.971896
610.040358,-1184.329507,-10214.842000,-612.876398
610.040682,-1258.350101,-9400.615463,0.000000
610.041006,-666.185348,-8882.471304,612.876398
610.041331,0.000000,-8956.491898,-153.219100
610.041655,0.000000,-8216.285956,-229.828649
610.041979,-1036.288319,-8216.285956,0.000000
610.042303,-1628.453072,-9474.636058,0.000000
610.042627,-1776.494261,-9770.718434,153.219100
610.042951,-1628.453072,-9844.739029,995.924147
610.043276,-444.123565,-9548.656652,1455.581446
610.043600,148.041188,-9696.697840,1302.362347
610.043924,666.185348,-9622.677246,919.314598
610.044248,1036.288319,-8660.409521,842.705048
610.044572,740.205942,-8364.327145,-689.485948
610.044896,666.185348,-7920.203579,0.000000
610.045220,296.082377,-8290.306550,1302.362347
610.045545,74.020594,-9326.594869,1149.143247
610.045869,-370.102971,-9548.656652,612.876398
610.046193,-1258.350101,-10066.800811,229.828649
610.046517,-1776.494261,-9400.615463,229.828649
610.046841,-962.267725,-9474.636058,0.000000
610.047165,222.061783,-9696.697840,689.485948
610.047490,518.144159,-9992.780217,383.047749
610.047814,666.185348,-9918.759623,153.219100
610.048138,518.144159,-9622.677246,689.485948
610.048462,592.164754,-10510.924376,766.095498
610.048786,740.205942,-10658.965565,306.438199
610.049110,0.000000,-9770.718434,459.657299
610.049435,-814.226536,-9844.739029,306.438199
610.049759,-592.164754,-10584.944971,0.000000
610.050083,-592.164754,-11029.068536,0.000000
610.050407,444.123565,-10362.883188,0.000000
610.050731,1036.288319,-9400.615463,0.000000
610.051055,740.205942,-9252.574275,-1072.533697
610.051379,1110.308913,-9400.615463,-1302.362347
610.051704,592.164754,-9474.636058,-1608.800546
610.052028,1036.288319,-10436.903782,0.000000
610.052352,1110.308913,-10140.821405,-153.219100
610.052676,1036.288319,-9252.574275,-459.657299
610.053000,740.205942,-8956.491898,-536.266849
610.053324,666.185348,-9992.780217,76.609550
610.053649,1110.308913,-11177.109724,-153.219100
610.053973,1036.288319,-9548.656652,-229.828649
610.054297,222.061783,-8290.306550,-229.828649
610.054621,444.123565,-9252.574275,0.000000
610.054945,814.226536,-9326.594869,-995.924147
610.055269,0.000000,-9178.553681,-919.314598
610.055593,-666.185348,-9548.656652,-766.095498
610.055918,-1110.308913,-9992.780217,-766.095498
610.056242,-962.267725,-9622.677246,-1378.971896
610.056566,-592.164754,-8660.409521,0.000000
610.056890,74.020594,-9104.533087,459.657299
610.057214,148.041188,-10807.006753,-153.219100
610.057538,-518.144159,-10362.883188,76.609550
610.057863,-592.164754,-9400.615463,76.609550
610.058187,-296.082377,-8882.471304,306.438199
610.058511,-296.082377,-9548.656652,536.266849
610.058835,-1184.329507,-9622.677246,153.219100
610.059159,-1776.494261,-8734.430116,76.609550
610.059483,-1554.432478,-9474.636058,306.438199
610.059808,-814.226536,-9770.718434,383.047749
610.060132,-444.123565,-9844.739029,0.000000
610.060456,-1184.329507,-9474.636058,76.609550
610.060780,-1184.329507,-9622.677246,0.000000
610.061104,-370.102971,-9474.636058,-689.485948
610.061428,740.205942,-9252.574275,459.657299
610.061752,1036.288319,-9178.553681,995.924147
610.062077,740.205942,-9696.697840,612.876398
610.062401,74.020594,-10584.944971,0.000000
610.062725,0.000000,-10658.965565,-306.438199
610.063049,74.020594,-10436.903782,-612.876398
610.063373,296.082377,-10807.006753,689.485948
610.063697,592.164754,-11177.109724,842.705048
610.064022,962.267725,-9844.739029,76.609550
610.064346,0.000000,-9104.533087,-536.266849
610.064670,-1258.350101,-9252.574275,-842.705048
610.064994,-1036.288319,-10658.965565,-1378.971896
610.065318,-1110.308913,-10807.006753,-689.485948
610.065642,-1702.473667,-9696.697840,0.000000
610.065967,-1554.432478,-9474.636058,-306.438199
610.066291,-1110.308913,-8290.306550,-1378.971896
610.066615,-666.185348,-9104.533087,-1302.362347
610.066939,148.041188,-9474.636058,-459.657299
610.067263,888.247130,-8956.491898,-1378.971896
610.067587,740.205942,-8734.430116,-383.047749
610.067911,1554.432478,-8956.491898,-766.095498
610.068236,2516.700203,-8882.471304,-1302.362347
610.068560,1998.556043,-10066.800811,-536.266849
610.068884,888.247130,-10584.944971,-229.828649
610.069208,592.164754,-10140.821405,-1225.752797
610.069532,1036.288319,-9992.780217,-1072.533697
610.069856,962.267725,-9178.553681,-306.438199
610.070181,1258.350101,-10288.862594,-306.438199
610.070505,1110.308913,-10584.944971,-1225.752797
610.070829,148.041188,-9622.677246,-1455.581446
610.071153,0.000000,-8734.430116,-1149.143247
610.071477,592.164754,-9252.574275,-1149.143247
610.071801,1036.288319,-9918.759623,-689.485948
610.072125,1258.350101,-9770.718434,-536.266849
610.072450,74.020594,-9326.594869,-842.705048
610.072774,222.061783,-9474.636058,-689.485948
610.073098,74.020594,-9918.759623,-153.219100
610.073422,-296.082377,-10584.944971,766.095498
610.073746,-518.144159,-10658.965565,995.924147
610.074070,-592.164754,-9844.739029,612.876398
610.074395,-1036.288319,-9770.718434,612.876398
610.074719,-1406.391290,-9474.636058,766.095498
610.075043,-518.144159,-10436.903782,1532.190996
610.075367,-222.061783,-9622.677246,1532.190996
610.075691,-962.267725,-8882.471304,1455.581446
610.076015,-1554.432478,-8660.409521,919.314598
610.076340,-1332.370696,-9178.553681,1455.581446
610.076664,-1258.350101,-9844.739029,1455.581446
610.076988,-666.185348,-9474.636058,1378.971896
610.077312,-1258.350101,-8882.471304,1455.581446
610.077636,-1036.288319,-9400.615463,1685.410096
610.077960,-592.164754,-10510.924376,2298.286494
610.078284,592.164754,-10732.986159,1685.410096
610.078609,518.144159,-9400.615463,1685.410096
610.078933,444.123565,-9104.533087,1685.410096
610.079257,518.144159,-9252.574275,306.438199
610.079581,518.144159,-8068.244768,995.924147
610.079905,-592.164754,-8290.306550,1455.581446
610.080229,-444.123565,-9548.656652,1225.752797
610.080554,-370.102971,-10436.903782,689.485948
610.080878,-592.164754,-9326.594869,536.266849
610.081202,-518.144159,-7698.141797,383.047749
610.081526,-148.041188,-8882.471304,-153.219100
610.081850,-148.041188,-10214.842000,-459.657299
610.082174,-1258.350101,-9992.780217,-229.828649
610.082498,-1480.411884,-9992.780217,-229.828649
610.082823,-222.061783,-9844.739029,-536.266849
610.083147,740.205942,-10066.800811,-612.876398
610.083471,666.185348,-10732.986159,-229.828649
610.083795,518.144159,-10584.944971,-383.047749
610.084119,296.082377,-10140.821405,-1072.533697
610.084443,444.123565,-10214.842000,-1685.410096
610.084768,1406.391290,-10807.006753,-1532.190996
610.085092,1628.453072,-10214.842000,-1608.800546
610.085416,1110.308913,-9992.780217,-1378.971896
610.085740,666.185348,-10140.821405,-1302.362347
610.086064,1184.329507,-9918.759623,-1302.362347
610.086388,1924.535449,-10288.862594,-919.314598
610.086713,1850.514855,-9844.739029,-919.314598
610.087037,1776.494261,-9918.759623,-1225.752797
610.087361,1776.494261,-9622.677246,-1762.019645
610.087685,1332.370696,-9400.615463,-2145.067394
610.088009,592.164754,-9622.677246,-1915.238745
610.088333,666.185348,-9696.697840,-1378.971896
610.088657,1258.350101,-10436.903782,-383.047749
610.088982,1110.308913,-10881.027347,-612.876398
610.089306,1554.432478,-9326.594869,-1072.533697
610.089630,666.185348,-9030.512492,-995.924147
610.089954,0.000000,-10214.842000,-1455.581446
610.090278,-814.226536,-10584.944971,-1149.143247
610.090602,-1184.329507,-10436.903782,-536.266849
610.090927,-1110.308913,-10140.821405,766.095498
610.091251,-962.267725,-10658.965565,842.705048
610.091575,-1332.370696,-9474.636058,-536.266849
610.091899,-2072.576638,-8068.244768,0.000000
610.092223,-2886.803174,-8438.347739,76.609550
610.092547,-2146.597232,-9474.636058,-459.657299
610.092871,-1258.350101,-9252.574275,766.095498
610.093196,-370.102971,-8290.306550,1149.143247
610.093520,-592.164754,-7994.224174,1532.190996
610.093844,-1850.514855,-9252.574275,919.314598
610.094168,-1480.411884,-9548.656652,689.485948
610.094492,-1258.350101,-9770.718434,1455.581446
610.094816,-296.082377,-9992.780217,1225.752797
610.095141,74.020594,-9474.636058,1302.362347
610.095465,0.000000,-9030.512492,1685.410096
610.095789,296.082377,-9326.594869,1225.752797
610.096113,296.082377,-10214.842000,1608.800546
610.096437,-444.123565,-9252.574275,536.266849
610.096761,-814.226536,-7846.182985,1225.752797
610.097086,-1110.308913,-8808.450710,1149.143247
610.097410,-962.267725,-9104.533087,0.000000
610.097734,-1628.453072,-8808.450710,0.000000
610.098058,-3182.885551,-9400.615463,76.609550
610.098382,-3108.864956,-9918.759623,-766.095498
610.098706,-2664.741391,-9770.718434,-306.438199
610.099030,-1036.288319,-9622.677246,689.485948
610.099355,518.144159,-9548.656652,229.828649
610.099679,1702.473667,-10510.924376,0.000000
610.100003,1924.535449,-10436.903782,229.828649
610.100327,2294.638420,-9548.656652,0.000000
610.100651,2664.741391,-9696.697840,-612.876398
610.100975,2812.782580,-10584.944971,689.485948
610.101300,3404.947333,-10955.047942,76.609550
610.101624,2960.823768,-10436.903782,0.000000
610.101948,888.247130,-9548.656652,-995.924147
610.102272,0.000000,-9178.553681,-1762.019645
610.102596,592.164754,-9474.636058,-1608.800546
610.102920,1554.432478,-10288.862594,-1915.238745
610.103244,1184.329507,-10066.800811,-766.095498
610.103569,-296.082377,-9622.677246,-766.095498
610.103893,-814.226536,-10584.944971,-1302.362347
610.104217,-962.267725,-10807.006753,-995.924147
610.104541,-370.102971,-11251.130318,-995.924147
610.104865,-518.144159,-10584.944971,-919.314598
610.105189,-592.164754,-9992.780217,-689.485948
610.105514,0.000000,-9770.718434,-229.828649
610.105838,814.226536,-9992.780217,-153.219100
610.106162,1702.473667,-9844.739029,229.828649
610.106486,2220.617826,-9622.677246,76.609550
610.106810,1702.473667,-9770.718434,919.314598
610.107134,1258.350101,-9844.739029,612.876398
610.107459,518.144159,-8808.450710,76.609550
610.107783,-1702.473667,-8142.265362,306.438199
610.108107,-2368.659014,-8512.368333,-76.609550
610.108431,-2146.597232,-8660.409521,76.609550
610.108755,-2072.576638,-8068.244768,76.609550
610.109079,-1554.432478,-7402.059420,612.876398
610.109403,-592.164754,-7402.059420,842.705048
610.109728,74.020594,-7920.203579,459.657299
610.110052,-296.082377,-8512.368333,995.924147
610.110376,-888.247130,-8956.491898,1072.533697
610.110700,-222.061783,-8586.388927,919.314598
610.111024,0.000000,-8808.450710,1225.752797
610.111348,-666.185348,-9844.739029,536.266849
610.111673,-1776.494261,-10955.047942,612.876398
610.111997,-1702.473667,-11251.130318,612.876398
610.112321,-1184.329507,-10658.965565,0.000000
610.112645,-740.205942,-10288.862594,0.000000
610.112969,-666.185348,-10584.944971,842.705048
610.113293,222.061783,-10140.821405,0.000000
610.113618,518.144159,-9992.780217,306.438199
610.113942,-370.102971,-10510.924376,536.266849
610.114266,-592.164754,-11177.109724,-229.828649
610.114590,-1036.288319,-10658.965565,-306.438199
610.114914,-1406.391290,-9696.697840,-306.438199
610.115238,-962.267725,-9696.697840,-689.485948
610.115562,-296.082377,-10955.047942,76.609550
610.115887,-148.041188,-11103.089130,-76.609550
610.116211,592.164754,-10362.883188,383.047749
610.116535,1406.391290,-8956.491898,-229.828649
610.116859,1702.473667,-8660.409521,-689.485948
610.117183,1850.514855,-9252.574275,-766.095498
610.117507,2516.700203,-9400.615463,-842.705048
610.117832,1850.514855,-9548.656652,76.609550
610.118156,592.164754,-9622.677246,-383.047749
610.118480,518.144159,-10288.862594,-536.266849
610.118804,0.000000,-10066.800811,-995.924147
610.119128,-444.123565,-9474.636058,-1455.581446
610.119452,-518.144159,-9474.636058,-1225.752797
610.119776,0.000000,-9992.780217,-536.266849
610.120100,1332.370696,-10362.883188,-229.828649
610.120425,1924.535449,-9178.553681,229.828649
610.120749,1702.473667,-8734.430116,-689.485948
610.121073,1184.329507,-9770.718434,0.000000
610.121397,148.041188,-11325.150913,0.000000
610.121721,-814.226536,-10584.944971,-383.047749
610.122045,-1850.514855,-8882.471304,-612.876398
610.122369,-1406.391290,-8438.347739,-459.657299
610.122693,-370.102971,-9178.553681,-612.876398
610.123018,296.082377,-9326.594869,-153.219100
610.123342,370.102971,-8956.491898,689.485948
610.123666,-148.041188,-8660.409521,612.876398
610.123990,-814.226536,-8734.430116,-306.438199
610.124314,-1702.473667,-8808.450710,306.438199
610.124638,-1258.350101,-9252.574275,1072.533697
610.124962,0.000000,-9474.636058,1225.752797
610.125286,296.082377,-9400.615463,612.876398
610.125611,0.000000,-9178.553681,689.485948
610.125935,1036.288319,-10140.821405,842.705048
610.126259,814.226536,-10140.821405,536.266849
610.126583,0.000000,-9844.739029,76.609550
610.126907,-296.082377,-9474.636058,0.000000
610.127231,74.020594,-10140.821405,-153.219100
610.127555,-222.061783,-10584.944971,612.876398
610.127880,-592.164754,-10955.047942,536.266849
610.128204,-814.226536,-10807.006753,689.485948
610.128528,-1332.370696,-10140.821405,383.047749
610.128852,-1554.432478,-9918.759623,612.876398
610.129176,-1332.370696,-9992.780217,1455.581446
610.129500,-148.041188,-10066.800811,1225.752797
610.129824,296.082377,-9104.533087,1072.533697
610.130148,444.123565,-8808.450710,1378.971896
610.130473,814.226536,-8290.306550,383.047749
610.130797,592.164754,-9326.594869,766.095498
610.131121,222.061783,-10214.842000,842.705048
610.131445,-148.041188,-10066.800811,1072.533697
610.131769,-740.205942,-9696.697840,383.047749
610.132093,-1110.308913,-9326.594869,0.000000
610.132417,-444.123565,-8956.491898,-306.438199
610.132741,222.061783,-9252.574275,0.000000
610.133066,1036.288319,-9326.594869,229.828649
610.133390,592.164754,-8956.491898,0.000000
610.133714,1332.370696,-8660.409521,153.219100
610.134038,1850.514855,-8956.491898,536.266849
610.134362,1406.391290,-9548.656652,229.828649
610.134686,296.082377,-9992.780217,0.000000
610.135010,-444.123565,-10214.842000,-1302.362347
610.135334,0.000000,-10214.842000,-229.828649
610.135659,666.185348,-10881.027347,-383.047749
610.135983,518.144159,-10955.047942,0.000000
610.136307,592.164754,-10288.862594,0.000000
610.136631,444.123565,-10362.883188,-1072.533697
610.136955,370.102971,-9844.739029,-1455.581446
610.137279,1036.288319,-9104.533087,-612.876398
610.137603,1554.432478,-9474.636058,0.000000
610.137928,1258.350101,-9918.759623,-459.657299
610.138252,-296.082377,-9474.636058,-153.219100
610.138576,-1184.329507,-8956.491898,-383.047749
610.138900,-1184.329507,-9178.553681,-766.095498
610.139224,-1110.308913,-9622.677246,-689.485948
610.139548,-1036.288319,-9400.615463,-612.876398
610.139872,-518.144159,-9178.553681,-459.657299
610.140196,296.082377,-9696.697840,459.657299
610.140521,962.267725,-10362.883188,459.657299
610.140845,740.205942,-9770.718434,0.000000
610.141169,444.123565,-9252.574275,-229.828649
610.141493,74.020594,-9326.594869,0.000000
610.141817,518.144159,-8956.491898,0.000000
610.142141,-592.164754,-8734.430116,229.828649
610.142465,-1702.473667,-9400.615463,76.609550
610.142789,-2146.597232,-9474.636058,-919.314598
610.143114,-1776.494261,-9326.594869,-689.485948
610.143438,-1110.308913,-9104.533087,-612.876398
610.143762,-444.123565,-9622.677246,0.000000
610.144086,-296.082377,-9844.739029,-306.438199
610.144410,-1258.350101,-9918.759623,-383.047749
610.144734,-2738.761985,-10807.006753,-306.438199
610.145058,-2516.700203,-11177.109724,-766.095498
610.145382,-1850.514855,-11769.274478,0.000000
610.145707,-1036.288319,-10658.965565,76.609550
610.146031,592.164754,-9474.636058,383.047749
610.146355,1776.494261,-9400.615463,536.266849
610.146679,2072.576638,-9548.656652,-612.876398
610.147003,1184.329507,-9326.594869,-842.705048
610.147327,444.123565,-9104.533087,-612.876398
610.147651,-370.102971,-8586.388927,-1072.533697
610.147976,-1850.514855,-9474.636058,-1072.533697
610.148300,-2664.741391,-9474.636058,-1378.971896
610.148624,-3108.864956,-9104.533087,-1608.800546
610.148948,-2886.803174,-9474.636058,-1072.533697
610.149272,-2146.597232,-9400.615463,-1225.752797
610.149596,-592.164754,-9326.594869,76.609550
610.149920,444.123565,-8364.327145,-306.438199
610.150244,1406.391290,-8438.347739,383.047749
610.150569,814.226536,-9400.615463,459.657299
610.150893,-222.061783,-9918.759623,-536.266849
610.151217,-1776.494261,-9622.677246,-1149.143247
610.151541,-2516.700203,-9622.677246,-1532.190996
610.151865,-2368.659014,-8956.491898,-1762.019645
610.152189,-1406.391290,-10140.821405,-1991.848295
610.152513,-592.164754,-11325.150913,-1455.581446
610.152837,0.000000,-10881.027347,-1302.362347
610.153162,0.000000,-10807.006753,-1762.019645
610.153486,0.000000,-9770.718434,-1685.410096
610.153810,296.082377,-9474.636058,-1685.410096
610.154134,-222.061783,-10288.862594,-1608.800546
610.154458,-1480.411884,-11103.089130,-1149.143247
610.154782,-2442.679609,-10584.944971,-1455.581446
610.155106,-2516.700203,-11251.130318,-1302.362347
610.155430,-1850.514855,-10066.800811,-1455.581446
610.155755,-1628.453072,-10066.800811,-2145.067394
610.156079,-2368.659014,-10288.862594,-1991.848295
610.156403,-2960.823768,-9548.656652,-1991.848295
610.156727,-2664.741391,-9474.636058,-1378.971896
610.157051,-1332.370696,-8216.285956,-1302.362347
610.157375,-222.061783,-7550.100608,-1685.410096
610.157699,-148.041188,-8734.430116,-1762.019645
610.158023,-962.267725,-9770.718434,-1608.800546
610.158348,-2294.638420,-10881.027347,-1915.238745
610.158672,-4515.256246,-10214.842000,-2374.896044
610.158996,-5329.482782,-8290.306550,-2451.505594
610.159320,-5773.606348,-7920.203579,-2911.162892
610.159644,-4959.379811,-8882.471304,-2834.553343
610.159968,-4737.318029,-10066.800811,-2451.505594
610.160292,-4885.359217,-11177.109724,-1838.629195
610.160617,-4515.256246,-10510.924376,-1991.848295
610.160941,-3330.926739,-9400.615463,-1608.800546
610.161265,-2368.659014,-9696.697840,-766.095498
610.161589,-1406.391290,-10658.965565,-766.095498
610.161913,-888.247130,-11399.171507,-1225.752797
610.162237,74.020594,-11325.150913,-459.657299
610.162561,592.164754,-10510.924376,-766.095498
610.162885,518.144159,-9400.615463,-1455.581446
610.163210,-740.205942,-8438.347739,-2221.676944
610.163534,-3034.844362,-8438.347739,-2757.943793
610.163858,-4663.297435,-9474.636058,-3370.820191
610.164182,-5921.647536,-9918.759623,-2987.772442
610.164506,-6069.688724,-9252.574275,-2604.724693
610.164830,-4811.338623,-8438.347739,-2528.115143
610.165154,-3775.050304,-8142.265362,-1608.800546
610.165478,-2368.659014,-9252.574275,-1685.410096
610.165803,-2072.576638,-9326.594869,-1685.410096
610.166127,-1702.473667,-9030.512492,-1532.190996
610.166451,-1480.411884,-8956.491898,-1072.533697
610.166775,-592.164754,-9326.594869,-995.924147
610.167099,444.123565,-10066.800811,-536.266849
610.167423,814.226536,-9844.739029,-1685.410096
610.167747,444.123565,-10732.986159,-2068.457845
610.168071,0.000000,-11991.336260,-2451.505594
610.168396,-296.082377,-10807.006753,-3370.820191
610.168720,-1702.473667,-9474.636058,-3370.820191
610.169044,-2590.720797,-9252.574275,-2604.724693
610.169368,-2738.761985,-10140.821405,-3370.820191
610.169692,-2516.700203,-9030.512492,-3830.477490
610.170016,-2886.803174,-8734.430116,-2604.724693
610.170340,-2368.659014,-9622.677246,-3140.991542
610.170665,-1924.535449,-9474.636058,-4060.306139
610.170989,-1998.556043,-8956.491898,-2681.334243
610.171313,-2368.659014,-9696.697840,-2221.676944
610.171637,-1702.473667,-11399.171507,-3140.991542
610.171961,-1258.350101,-12065.356855,-2298.286494
610.172285,-444.123565,-11177.109724,-2221.676944
610.172609,1776.494261,-10807.006753,-2298.286494
610.172933,3182.885551,-11769.274478,-2298.286494
610.173258,2516.700203,-11621.233289,-2221.676944
610.173582,1332.370696,-10362.883188,-1991.848295
610.173906,-666.185348,-9696.697840,-1685.410096
610.174230,-1702.473667,-9622.677246,-2298.286494
610.174554,-2442.679609,-9622.677246,-2834.553343
610.174878,-4145.153275,-8586.388927,-2451.505594
610.175202,-4293.194464,-8660.409521,-2374.896044
610.175526,-3849.070898,-9474.636058,-2451.505594
610.175851,-4219.173869,-9104.533087,-2604.724693
610.176175,-5403.503377,-7994.224174,-2451.505594
610.176499,-6513.812290,-8808.450710,-2221.676944
610.176823,-5329.482782,-9252.574275,-2604.724693
610.177147,-2812.782580,-9696.697840,-1455.581446
610.177471,-1480.411884,-9770.718434,-536.266849
610.177795,-1184.329507,-10436.903782,0.000000
610.178119,592.164754,-10732.986159,0.000000
610.178444,2516.700203,-10140.821405,383.047749
610.178768,1258.350101,-9548.656652,-229.828649
610.179092,-2812.782580,-10214.842000,-1302.362347
610.179416,-5033.400406,-10732.986159,-1072.533697
610.179740,-5921.647536,-10066.800811,-1915.238745
610.180064,-6883.915261,-8512.368333,-2451.505594
610.180388,-7994.224174,-8068.244768,-2911.162892
610.180712,-8586.388927,-8808.450710,-2451.505594
610.181037,-7254.018232,-8068.244768,-2911.162892
610.181361,-4737.318029,-6883.915261,-1378.971896
610.181685,-3330.926739,-6957.935855,-1838.629195
610.182009,-2960.823768,-8512.368333,-1149.143247
610.182333,-2738.761985,-9770.718434,-766.095498
610.182657,-2442.679609,-9474.636058,-536.266849
610.182981,-1184.329507,-9030.512492,-689.485948
610.183306,592.164754,-9770.718434,153.219100
610.183630,1628.453072,-10362.883188,612.876398
610.183954,2886.803174,-10955.047942,0.000000
610.184278,1924.535449,-9992.780217,-689.485948
610.184602,-740.205942,-10436.903782,-919.314598
610.184926,-2368.659014,-11399.171507,-1225.752797
610.185250,-2220.617826,-10362.883188,-1762.019645
610.185574,-1036.288319,-8290.306550,-1838.629195
610.185899,-2072.576638,-7772.162391,-1838.629195
610.186223,-3478.967927,-9326.594869,-2528.115143
610.186547,-4663.297435,-10510.924376,-2221.676944
610.186871,-5181.441594,-8290.306550,-5439.278036
610.187195,-4811.338623,-8660.409521,-5515.887586
610.187519,-4071.132681,-12361.439231,-3600.648841
610.187843,-592.164754,-13841.851115,-4060.306139
610.188167,962.267725,-11917.315666,-3294.210641
610.188492,962.267725,-9622.677246,-1302.362347
610.188816,1776.494261,-9326.594869,-2451.505594
610.189140,2664.741391,-9474.636058,-2528.115143
610.189464,3775.050304,-9030.512492,-766.095498
610.189788,5181.441594,-8808.450710,0.000000
610.190112,4071.132681,-10881.027347,-536.266849
610.190436,-666.185348,-12065.356855,-689.485948
610.190760,-4145.153275,-11547.212695,-919.314598
610.191085,-6439.791695,-9622.677246,-2451.505594
610.191409,-7402.059420,-9400.615463,-4596.572988
610.191733,-7920.203579,-9770.718434,-4673.182538
610.192057,-5773.606348,-9030.512492,-4136.915689
610.192381,-2220.617826,-8660.409521,-3447.429741
610.192705,-962.267725,-8882.471304,-3140.991542
610.193029,-1480.411884,-8808.450710,-2681.334243
610.193354,-2368.659014,-8586.388927,-2834.553343
610.193678,-1924.535449,-10066.800811,-2681.334243
610.194002,-2294.638420,-10214.842000,-2451.505594
610.194326,-2812.782580,-11029.068536,-1915.238745
610.194650,-1850.514855,-11177.109724,-1532.190996
610.194974,-296.082377,-11547.212695,-689.485948
610.195298,444.123565,-11103.089130,0.000000
610.195622,222.061783,-9844.739029,-612.876398
610.195947,-1110.308913,-9104.533087,-1838.629195
610.196271,-2442.679609,-9326.594869,-1685.410096
610.196595,-3701.029710,-9178.553681,-2374.896044
610.196919,-5033.400406,-8586.388927,-2834.553343
610.197243,-5847.626942,-8068.244768,-2911.162892
610.197567,-5847.626942,-8290.306550,-2911.162892
610.197891,-4663.297435,-8438.347739,-2911.162892
610.198215,-3108.864956,-8438.347739,-2757.943793
610.198540,-2294.638420,-7772.162391,-2987.772442
610.198864,-1332.370696,-8290.306550,-2451.505594
610.199188,-1184.329507,-9104.533087,-2145.067394
610.199512,-1480.411884,-10140.821405,-1608.800546
610.199836,-1554.432478,-10732.986159,-1149.143247
610.200160,-1850.514855,-10955.047942,-919.314598
610.200484,-1850.514855,-10140.821405,-459.657299
610.200808,-2294.638420,-10658.965565,-612.876398
610.201133,-2812.782580,-12287.418637,-536.266849
610.201457,-3552.988522,-11843.295072,-1302.362347
610.201781,-3997.112087,-10881.027347,-1455.581446
610.202105,-3701.029710,-10362.883188,-1915.238745
610.202429,-2590.720797,-9622.677246,-2604.724693
610.202753,-1554.432478,-8068.244768,-2987.772442
610.203077,-740.205942,-7550.100608,-3830.477490
610.203402,-592.164754,-7105.977043,-2987.772442
610.203726,-814.226536,-7772.162391,-2757.943793
610.204050,-1110.308913,-8586.388927,-2528.115143
610.204374,-1924.535449,-9104.533087,-2451.505594
610.204698,-3404.947333,-9474.636058,-2451.505594
610.205022,-4219.173869,-9918.759623,-2604.724693
610.205346,-4515.256246,-10066.800811,-2604.724693
610.205670,-4293.194464,-9918.759623,-2987.772442
610.205995,-3775.050304,-10288.862594,-2374.896044
610.206319,-2368.659014,-12361.439231,-766.095498
610.206643,0.000000,-12435.459826,-383.047749
610.206967,1110.308913,-10881.027347,-919.314598
610.207291,1184.329507,-9030.512492,-1378.971896
610.207615,1184.329507,-8808.450710,-2221.676944
610.207939,2516.700203,-9770.718434,-2451.505594
610.208263,2960.823768,-10436.903782,-1915.238745
610.208588,3108.864956,-10140.821405,-612.876398
610.208912,1628.453072,-9696.697840,-612.876398
610.209236,-962.267725,-10140.821405,-1685.410096
610.209560,-4293.194464,-10436.903782,-2528.115143
610.209884,-6883.915261,-10362.883188,-2757.943793
610.210208,-7846.182985,-10436.903782,-3294.210641
610.210532,-7476.080014,-10362.883188,-2145.067394
610.210856,-5699.585753,-9030.512492,-1762.019645
610.211181,-2738.761985,-7772.162391,-1685.410096
610.211505,-888.247130,-7772.162391,-766.095498
610.211829,222.061783,-8660.409521,-612.876398
610.212153,1258.350101,-8956.491898,0.000000
610.212477,1924.535449,-8882.471304,919.314598
610.212801,2590.720797,-9030.512492,1455.581446
610.213125,3108.864956,-9326.594869,306.438199
610.213449,1776.494261,-9696.697840,-919.314598
610.213774,-148.041188,-10510.924376,-1838.629195
610.214098,-2590.720797,-11325.150913,-1991.848295
610.214422,-5033.400406,-10658.965565,-2451.505594
610.214746,-7254.018232,-9030.512492,-2528.115143
610.215070,-8364.327145,-8808.450710,-3983.696590
610.215394,-8882.471304,-8512.368333,-4290.134789
610.215718,-7994.224174,-8068.244768,-3447.429741
610.216043,-5847.626942,-8364.327145,-2451.505594
610.216367,-3701.029710,-9252.574275,-1455.581446
610.216691,-1554.432478,-9770.718434,-995.924147
610.217015,148.041188,-9178.553681,-459.657299
610.217339,1702.473667,-9474.636058,-689.485948
610.217663,1628.453072,-9918.759623,-1532.190996
610.217987,1184.329507,-10658.965565,-1302.362347
610.218311,888.247130,-11399.171507,-1225.752797
610.218635,0.000000,-11029.068536,-1991.848295
610.218960,-1924.535449,-10436.903782,-3140.991542
610.219284,-4219.173869,-9992.780217,-3983.696590
610.219608,-6365.771101,-9252.574275,-4826.401637
610.219932,-7254.018232,-9474.636058,-4979.620737
610.220256,-7105.977043,-8290.306550,-4903.011187
610.220580,-5773.606348,-7624.121203,-4596.572988
610.220904,-3627.009116,-7698.141797,-3907.087040
610.221228,-1850.514855,-8142.265362,-3370.820191
610.221552,-740.205942,-9252.574275,-2834.553343
610.221876,-740.205942,-10288.862594,-2451.505594
610.222200,-962.267725,-11325.150913,-2068.457845
610.222524,-1110.308913,-11991.336260,-1991.848295
610.222848,-1554.432478,-11991.336260,-2221.676944
610.223172,-2886.803174,-12731.542202,-2221.676944
610.223496,-3034.844362,-14063.912898,-2757.943793
610.223820,-2368.659014,-13323.706956,-3370.820191
610.224144,-888.247130,-10436.903782,-4136.915689
610.224468,74.020594,-8290.306550,-3907.087040
610.224792,296.082377,-7698.141797,-3524.039291
610.225116,-370.102971,-7476.080014,-4213.525239
610.225441,-1258.350101,-8068.244768,-3217.601092
610.225765,-3330.926739,-9252.574275,-3830.477490
610.226089,-4737.318029,-8512.368333,-4290.134789
610.226413,-5255.462188,-8142.265362,-3677.258390
610.226737,-4959.379811,-8068.244768,-3217.601092
610.227061,-3552.988522,-8808.450710,-2681.334243
610.227385,-2516.700203,-10140.821405,-1838.629195
610.227709,-1628.453072,-10732.986159,-842.705048
610.228033,-1332.370696,-10584.944971,-1608.800546
610.228357,-1850.514855,-10807.006753,-1149.143247
610.228681,-1702.473667,-11843.295072,-1532.190996
610.229005,-1628.453072,-11473.192101,-1915.238745
610.229329,0.000000,-10140.821405,-2451.505594
610.229653,1776.494261,-9030.512492,-2221.676944
610.229977,2886.803174,-9252.574275,-1608.800546
610.230301,2812.782580,-9992.780217,-1608.800546
610.230625,444.123565,-9992.780217,-2145.067394
610.230949,-3404.947333,-9252.574275,-2604.724693
610.231273,-6291.750507,-8216.285956,-3447.429741
610.231597,-7179.997637,-7550.100608,-3370.820191
610.231922,-6143.709319,-7550.100608,-2451.505594
610.232246,-4219.173869,-8660.409521,-2451.505594
610.232570,-3478.967927,-10732.986159,-689.485948
610.232894,-3701.029710,-11251.130318,76.609550
610.233218,-3627.009116,-11325.150913,76.609550
610.233542,-2664.741391,-9992.780217,0.000000
610.233866,0.000000,-9474.636058,-306.438199
610.234190,1998.556043,-9770.718434,-153.219100
610.234514,3404.947333,-9770.718434,-306.438199
610.234838,3849.070898,-9992.780217,0.000000
610.235162,3330.926739,-9326.594869,0.000000
610.235486,2072.576638,-8364.327145,-995.924147
610.235810,74.020594,-8068.244768,-1685.410096
610.236134,-3330.926739,-8586.388927,-2451.505594
610.236458,-7402.059420,-10288.862594,-3064.381992
610.236782,-10362.883188,-11251.130318,-3294.210641
610.237106,-9548.656652,-10881.027347,-2757.943793
610.237430,-7254.018232,-8660.409521,-2221.676944
610.237754,-5033.400406,-9030.512492,-1608.800546
610.238078,-4811.338623,-10140.821405,-1455.581446
610.238403,-4589.276840,-11029.068536,-995.924147
610.238727,-2960.823768,-11695.253884,0.000000
610.239051,666.185348,-11399.171507,536.266849
610.239375,4515.256246,-10436.903782,459.657299
610.239699,7179.997637,-8734.430116,842.705048
610.240023,7328.038826,-8586.388927,-153.219100
610.240347,5107.421000,-9474.636058,-459.657299
610.240671,1924.535449,-11399.171507,-995.924147
610.240995,-1924.535449,-11029.068536,-2221.676944
610.241319,-5403.503377,-9252.574275,-3370.820191
610.241643,-8808.450710,-7402.059420,-3907.087040
610.241967,-10288.862594,-7920.203579,-4826.401637
610.242291,-10584.944971,-9474.636058,-5132.839837
610.242615,-10066.800811,-8364.327145,-5209.449386
610.242939,-8290.306550,-6513.812290,-3907.087040
610.243263,-5181.441594,-7402.059420,-2451.505594
610.243587,-2146.597232,-8364.327145,-1991.848295
610.243911,-592.164754,-8882.471304,-1302.362347
610.244235,-148.041188,-9770.718434,-612.876398
610.244560,1480.411884,-11843.295072,-229.828649
610.244884,5699.585753,-12805.562797,612.876398
610.245208,8660.409521,-11251.130318,612.876398
610.245532,8438.347739,-10214.842000,536.266849
610.245856,4885.359217,-11917.315666,-612.876398
610.246180,666.185348,-13619.789333,-3064.381992
610.246504,-3478.967927,-12509.480420,-4136.915689
610.246828,-7476.080014,-9252.574275,-5209.449386
610.247152,-11103.089130,-8586.388927,-5362.668486
610.247476,-11325.150913,-9104.533087,-6358.592633
610.247800,-8882.471304,-7698.141797,-6665.030833
610.248124,-7550.100608,-5773.606348,-5439.278036
610.248448,-6217.729913,-6883.915261,-4136.915689
610.248772,-4589.276840,-9030.512492,-3753.867940
610.249096,-1702.473667,-8882.471304,-3140.991542
610.249420,888.247130,-7846.182985,-1455.581446
610.249744,1924.535449,-10584.944971,-459.657299
610.250068,2812.782580,-14508.036463,-229.828649
610.250392,3404.947333,-13693.809927,-459.657299
610.250716,3701.029710,-11029.068536,-383.047749
610.251041,3701.029710,-11843.295072,-536.266849
610.251365,2146.597232,-12435.459826,-2374.896044
610.251689,-888.247130,-11399.171507,-2834.553343
610.252013,-4145.153275,-10288.862594,-2757.943793
610.252337,-5625.565159,-10510.924376,-4596.572988
610.252661,-5995.668130,-9622.677246,-4519.963438
610.252985,-6217.729913,-7476.080014,-3830.477490
610.253309,-6217.729913,-5477.523971,-4366.744339
610.253633,-5403.503377,-5625.565159,-5132.839837
610.253957,-5477.523971,-6809.894666,-4749.792088
610.254281,-4737.318029,-8142.265362,-3524.039291
610.254605,-3108.864956,-8956.491898,-2221.676944
610.254929,-740.205942,-9548.656652,-1915.238745
610.255253,222.061783,-10436.903782,-1072.533697
610.255577,1036.288319,-11325.150913,0.000000
610.255901,1258.350101,-11991.336260,-306.438199
610.256225,1480.411884,-12435.459826,-1149.143247
610.256549,1258.350101,-11843.295072,-1608.800546
610.256873,518.144159,-10807.006753,-1225.752797
610.257197,0.000000,-10066.800811,-1149.143247
610.257522,-444.123565,-9400.615463,-1838.629195
610.257846,-370.102971,-8364.327145,-2068.457845
610.258170,-1702.473667,-6883.915261,-3447.429741
610.258494,-2590.720797,-7179.997637,-3830.477490
610.258818,-3849.070898,-8512.368333,-3370.820191
610.259142,-5625.565159,-9622.677246,-3064.381992
610.259466,-7179.997637,-9474.636058,-2757.943793
610.259790,-8142.265362,-9918.759623,-2681.334243
610.260114,-7328.038826,-11251.130318,-3677.258390
610.260438,-5773.606348,-10955.047942,-2451.505594
610.260762,-4515.256246,-11547.212695,-1838.629195
610.261086,-2664.741391,-11621.233289,-2451.505594
610.261410,-518.144159,-10510.924376,-842.705048
610.261734,1406.391290,-11251.130318,612.876398
610.262058,2220.617826,-11251.130318,76.609550
610.262382,2072.576638,-10436.903782,306.438199
610.262706,2072.576638,-10807.006753,1532.190996
610.263030,2738.761985,-10955.047942,0.000000
610.263354,3256.906145,-10436.903782,153.219100
610.263678,2368.659014,-9770.718434,842.705048
610.264003,296.082377,-8142.265362,-1762.019645
610.264327,-2960.823768,-8216.285956,-2681.334243
610.264651,-7105.977043,-11103.089130,-2068.457845
610.264975,-6735.874072,-11547.212695,-2987.772442
610.265299,-5255.462188,-8586.388927,-3600.648841
610.265623,-5847.626942,-7031.956449,-995.924147
610.265947,-4145.153275,-7698.141797,-1225.752797
610.266271,-1924.535449,-9178.553681,-995.924147
610.266595,222.061783,-8956.491898,766.095498
610.266919,3256.906145,-7772.162391,1838.629195
610.267243,5107.421000,-8586.388927,2221.676944
610.267567,5107.421000,-9400.615463,2451.505594
610.267891,3627.009116,-10436.903782,3064.381992
610.268215,1850.514855,-10658.965565,2145.067394
610.268539,296.082377,-10066.800811,1455.581446
610.268863,-962.267725,-10436.903782,1072.533697
610.269187,-1480.411884,-8660.409521,-1685.410096
610.269511,-3404.947333,-7920.203579,-842.705048
610.269835,-6143.709319,-11029.068536,0.000000
610.270159,-5921.647536,-10658.965565,-2374.896044
610.270484,-6661.853478,-8808.450710,-1608.800546
610.270808,-6143.709319,-7772.162391,-536.266849
610.271132,-2960.823768,-7402.059420,-1072.533697
610.271456,0.000000,-8734.430116,0.000000
610.271780,2368.659014,-7476.080014,919.314598
610.272104,5477.523971,-7031.956449,766.095498
610.272428,6217.729913,-9622.677246,612.876398
610.272752,6069.688724,-10881.027347,1072.533697
610.273076,6069.688724,-9992.780217,1991.848295
610.273400,5699.585753,-10510.924376,2451.505594
610.273724,4515.256246,-11621.233289,995.924147
610.274048,2368.659014,-11843.295072,-229.828649
610.274372,1258.350101,-10362.883188,459.657299
610.274696,222.061783,-9992.780217,0.000000
610.275020,-1036.288319,-11029.068536,-1149.143247
610.275344,-2664.741391,-9622.677246,-1762.019645
610.275668,-2812.782580,-9030.512492,-1532.190996
610.275992,-1480.411884,-8438.347739,-2681.334243
610.276316,-1332.370696,-9030.512492,-2451.505594
610.276640,-2516.700203,-9622.677246,-2145.067394
610.276965,-2368.659014,-9252.574275,-2834.553343
610.277289,-2368.659014,-9918.759623,-2451.505594
610.277613,-2072.576638,-10214.842000,-2604.724693
610.277937,-444.123565,-9992.780217,-1225.752797
610.278261,222.061783,-10881.027347,-919.314598
610.278585,444.123565,-11843.295072,-306.438199
610.278909,814.226536,-13471.748144,842.705048
610.279233,2294.638420,-13027.624579,536.266849
610.279557,2960.823768,-11177.109724,919.314598
610.279881,2072.576638,-11029.068536,536.266849
610.280205,-370.102971,-9992.780217,-612.876398
610.280529,-2442.679609,-8586.388927,-2451.505594
610.280853,-3997.112087,-8956.491898,-3370.820191
610.281177,-3701.029710,-10584.944971,-2145.067394
610.281501,-1702.473667,-9992.780217,-3677.258390
610.281825,-1258.350101,-8586.388927,-2681.334243
610.282149,-1258.350101,-8438.347739,-995.924147
610.282473,-148.041188,-9474.636058,-1072.533697
610.282797,740.205942,-9844.739029,-1532.190996
610.283122,-962.267725,-9622.677246,-383.047749
610.283446,-666.185348,-8586.388927,306.438199
610.283770,814.226536,-8734.430116,306.438199
610.284094,888.247130,-9992.780217,1378.971896
610.284418,-518.144159,-10288.862594,1302.362347
610.284742,-962.267725,-9770.718434,1608.800546
610.285066,-1110.308913,-9178.553681,536.266849
610.285390,-2146.597232,-7772.162391,612.876398
610.285714,-2442.679609,-6809.894666,-919.314598
610.286038,-1184.329507,-7328.038826,-1302.362347
610.286362,-296.082377,-8882.471304,0.000000
610.286686,1184.329507,-9622.677246,-153.219100
610.287010,1924.535449,-9104.533087,153.219100
610.287334,1628.453072,-9622.677246,842.705048
610.287658,2590.720797,-10732.986159,689.485948
610.287982,3034.844362,-10436.903782,-383.047749
610.288306,2220.617826,-11325.150913,76.609550
610.288630,1554.432478,-11251.130318,1149.143247
610.288954,1258.350101,-10658.965565,1302.362347
610.289278,444.123565,-9696.697840,1378.971896
610.289603,0.000000,-8364.327145,1225.752797
610.289927,740.205942,-8956.491898,383.047749
610.290251,1924.535449,-9326.594869,153.219100
610.290575,1702.473667,-9548.656652,1149.143247
610.290899,888.247130,-9696.697840,1378.971896
610.291223,222.061783,-9474.636058,842.705048
610.291547,-370.102971,-9252.574275,-153.219100
610.291871,222.061783,-9178.553681,0.000000
610.292195,1406.391290,-10436.903782,383.047749
610.292519,1702.473667,-11325.150913,689.485948
610.292843,592.164754,-10140.821405,0.000000
610.293167,-370.102971,-9030.512492,153.219100
610.293491,-740.205942,-9622.677246,-383.047749
610.293815,-296.082377,-10658.965565,-383.047749
610.294139,0.000000,-10214.842000,459.657299
610.294463,-370.102971,-8660.409521,306.438199
610.294787,-1036.288319,-8142.265362,-306.438199
610.295111,-1258.350101,-8734.430116,0.000000
610.295435,-1110.308913,-9770.718434,0.000000
610.295759,-444.123565,-10066.800811,383.047749
610.296084,0.000000,-10214.842000,689.485948
610.296408,74.020594,-9992.780217,0.000000
610.296732,740.205942,-9548.656652,229.828649
610.297056,1776.494261,-9474.636058,76.609550
610.297380,1480.411884,-10066.800811,-842.705048
610.297704,-370.102971,-10510.924376,-995.924147
610.298028,-814.226536,-10214.842000,-689.485948
610.298352,-814.226536,-10436.903782,-766.095498
610.298676,-444.123565,-9770.718434,-1149.143247
610.299000,-666.185348,-9622.677246,-306.438199
610.299324,-1184.329507,-10288.862594,-383.047749
610.299648,-1702.473667,-10066.800811,-919.314598
610.299972,-1628.453072,-8586.388927,0.000000
610.300296,-148.041188,-8734.430116,612.876398
610.300620,1036.288319,-8512.368333,0.000000
610.300944,888.247130,-9178.553681,76.609550
610.301268,-592.164754,-10066.800811,0.000000
610.301592,-1406.391290,-10436.903782,-1072.533697
610.301916,-1776.494261,-10510.924376,-919.314598
610.302240,-2294.638420,-10066.800811,-995.924147
610.302565,-1406.391290,-9844.739029,-1225.752797
610.302889,-444.123565,-10362.883188,-766.095498
610.303213,-592.164754,-10732.986159,-689.485948
610.303537,-1036.288319,-10066.800811,-919.314598
610.303861,-1036.288319,-9844.739029,-842.705048
610.304185,-370.102971,-10066.800811,-383.047749
610.304509,518.144159,-10066.800811,-229.828649
610.304833,888.247130,-8956.491898,-306.438199
610.305157,1258.350101,-8142.265362,-383.047749
610.305481,518.144159,-9252.574275,0.000000
610.305805,-148.041188,-9474.636058,-459.657299
610.306129,-370.102971,-9104.533087,-229.828649
610.306453,666.185348,-8586.388927,0.000000
610.306777,2368.659014,-8364.327145,-153.219100
610.307101,2442.679609,-8956.491898,76.609550
610.307425,2146.597232,-8586.388927,-383.047749
610.307749,1036.288319,-9622.677246,612.876398
610.308073,962.267725,-9252.574275,-306.438199
610.308397,1258.350101,-9104.533087,-842.705048
610.308721,296.082377,-9104.533087,-459.657299
610.309046,0.000000,-9400.615463,-536.266849
610.309370,-814.226536,-9474.636058,-919.314598
610.309694,-518.144159,-9474.636058,-1149.143247
610.310018,-592.164754,-9178.553681,-1838.629195
610.310342,0.000000,-9770.718434,-1225.752797
610.310666,814.226536,-10362.883188,-1302.362347
610.310990,814.226536,-10732.986159,0.000000
610.311314,222.061783,-11695.253884,0.000000
610.311638,-222.061783,-11621.233289,-536.266849
610.311962,-592.164754,-11843.295072,-383.047749
610.312286,-592.164754,-10510.924376,-306.438199
610.312610,0.000000,-11325.150913,-383.047749
610.312934,-222.061783,-11843.295072,-459.657299
610.313258,-222.061783,-10807.006753,-1072.533697
610.313582,-148.041188,-9992.780217,-229.828649
610.313906,0.000000,-9622.677246,-1378.971896
610.314230,-296.082377,-9548.656652,-766.095498
610.314554,-1036.288319,-9548.656652,-919.314598
610.314878,-1184.329507,-9400.615463,-1225.752797
610.315202,-1628.453072,-10510.924376,-842.705048
610.315527,-1776.494261,-10732.986159,-612.876398
610.315851,-1776.494261,-9622.677246,0.000000
610.316175,-1776.494261,-9400.615463,842.705048
610.316499,-1554.432478,-9622.677246,689.485948
610.316823,-592.164754,-9474.636058,766.095498
610.317147,1332.370696,-8882.471304,919.314598
610.317471,1628.453072,-8808.450710,919.314598
610.317795,1406.391290,-8956.491898,1225.752797
610.318119,148.041188,-8512.368333,459.657299
610.318443,-1258.350101,-8438.347739,536.266849
610.318767,-1924.535449,-9030.512492,689.485948
610.319091,-1702.473667,-8956.491898,-842.705048
610.319415,-2146.597232,-8216.285956,0.000000
610.319740,-2442.679609,-8216.285956,229.828649
610.320064,-2072.576638,-8586.388927,0.000000
610.320388,-740.205942,-9030.512492,76.609550
610.320712,0.000000,-8882.471304,842.705048
610.321036,740.205942,-9030.512492,1455.581446
610.321360,1184.329507,-9252.574275,1302.362347
610.321684,1702.473667,-9178.553681,1685.410096
610.322009,1776.494261,-8956.491898,1149.143247
610.322333,1406.391290,-9622.677246,1072.533697
610.322657,1850.514855,-11029.068536,1072.533697
610.322981,2146.597232,-10140.821405,689.485948
610.323305,1998.556043,-9326.594869,842.705048
610.323629,1628.453072,-9474.636058,383.047749
610.323954,962.267725,-9696.697840,-689.485948
610.324278,-370.102971,-9696.697840,-383.047749
610.324602,-740.205942,-9252.574275,-1225.752797
610.324926,-370.102971,-8586.388927,-1302.362347
610.325250,-370.102971,-9252.574275,-766.095498
610.325574,-148.041188,-9918.759623,-459.657299
610.325898,-222.061783,-9474.636058,-383.047749
610.326223,296.082377,-9326.594869,-536.266849
610.326547,296.082377,-10140.821405,383.047749
610.326871,1554.432478,-11325.150913,536.266849
610.327195,2664.741391,-10288.862594,0.000000
610.327519,1776.494261,-8956.491898,0.000000
610.327843,814.226536,-9622.677246,-842.705048
610.328168,296.082377,-11399.171507,-1302.362347
610.328492,814.226536,-11843.295072,-76.609550
610.328816,888.247130,-11547.212695,229.828649
610.329140,74.020594,-11251.130318,-229.828649
610.329464,-1184.329507,-11029.068536,-1455.581446
610.329788,-1776.494261,-10288.862594,-1532.190996
610.330112,-1702.473667,-10955.047942,-1225.752797
610.330437,-1406.391290,-10436.903782,-2298.286494
610.330761,-962.267725,-10140.821405,-1608.800546
610.331085,-888.247130,-9474.636058,-459.657299
610.331409,0.000000,-9178.553681,-1455.581446
610.331733,-666.185348,-9918.759623,-1149.143247
610.332057,-1776.494261,-9918.759623,-1225.752797
610.332382,-1628.453072,-9622.677246,-842.705048
610.332706,-1110.308913,-9918.759623,-612.876398
610.333030,0.000000,-10362.883188,306.438199
610.333354,444.123565,-10658.965565,766.095498
610.333678,222.061783,-10066.800811,229.828649
610.334002,-962.267725,-9622.677246,-383.047749
610.334327,-1924.535449,-9548.656652,-459.657299
610.334651,-2368.659014,-9548.656652,-842.705048
610.334975,-1628.453072,-9030.512492,-229.828649
610.335299,-666.185348,-8956.491898,0.000000
610.335623,-962.267725,-8808.450710,-536.266849
610.335947,-2590.720797,-8586.388927,-842.705048
610.336271,-3108.864956,-9030.512492,-919.314598
610.336596,-2220.617826,-9326.594869,-919.314598
610.336920,-814.226536,-8734.430116,-459.657299
610.337244,222.061783,-8290.306550,-229.828649
610.337568,518.144159,-8438.347739,-689.485948
610.337892,1406.391290,-7994.224174,-459.657299
610.338216,2812.782580,-8364.327145,0.000000
610.338541,3552.988522,-8882.471304,-76.609550
610.338865,3330.926739,-9918.759623,766.095498
610.339189,2886.803174,-10955.047942,1532.190996
610.339513,3478.967927,-10955.047942,1762.019645
610.339837,2072.576638,-11473.192101,1762.019645
610.340161,888.247130,-10807.006753,459.657299
610.340485,148.041188,-9992.780217,-306.438199
610.340810,74.020594,-9770.718434,-306.438199
610.341134,1258.350101,-9622.677246,-153.219100
610.341458,1628.453072,-9622.677246,306.438199
610.341782,814.226536,-9696.697840,612.876398
610.342106,-1110.308913,-9030.512492,0.000000
610.342430,-2368.659014,-8364.327145,-1149.143247
610.342755,-2738.761985,-7698.141797,-995.924147
610.343079,-1554.432478,-8512.368333,-612.876398
610.343403,-518.144159,-9548.656652,76.609550
610.343727,148.041188,-9474.636058,689.485948
610.344051,666.185348,-9178.553681,1532.190996
610.344375,1184.329507,-9252.574275,1455.581446
610.344699,1998.556043,-9696.697840,689.485948
610.345024,1332.370696,-9178.553681,689.485948
610.345348,1184.329507,-9178.553681,766.095498
610.345672,518.144159,-10436.903782,383.047749
610.345996,0.000000,-10510.924376,0.000000
610.346320,0.000000,-10510.924376,0.000000
610.346644,0.000000,-11325.150913,-383.047749
610.346969,0.000000,-11473.192101,-612.876398
610.347293,0.000000,-10584.944971,-612.876398
610.347617,74.020594,-10214.842000,153.219100
610.347941,0.000000,-11103.089130,0.000000
610.348265,-2294.638420,-11103.089130,0.000000
610.348589,-3701.029710,-10214.842000,0.000000
610.348913,-3849.070898,-10584.944971,0.000000
610.349238,-2368.659014,-10732.986159,-383.047749
610.349562,-888.247130,-10214.842000,842.705048
610.349886,-1850.514855,-10066.800811,919.314598
610.350210,-2146.597232,-9548.656652,229.828649
610.350534,-2960.823768,-9178.553681,76.609550
610.350858,-2294.638420,-8734.430116,612.876398
610.351183,-444.123565,-8660.409521,-383.047749
610.351507,370.102971,-8364.327145,-1149.143247
610.351831,444.123565,-7550.100608,-536.266849
610.352155,296.082377,-8586.388927,0.000000
610.352479,370.102971,-9252.574275,-1149.143247
610.352803,-444.123565,-8882.471304,-383.047749
610.353128,-444.123565,-9104.533087,612.876398
610.353452,1110.308913,-10214.842000,536.266849
610.353776,2368.659014,-9844.739029,459.657299
610.354100,2960.823768,-8068.244768,536.266849
610.354424,3256.906145,-8142.265362,536.266849
610.354748,3330.926739,-9252.574275,766.095498
610.355072,3034.844362,-9696.697840,1072.533697
610.355397,2590.720797,-8808.450710,1225.752797
610.355721,1480.411884,-8438.347739,459.657299
610.356045,296.082377,-9474.636058,-536.266849
610.356369,-666.185348,-10436.903782,-459.657299
610.356693,-1110.308913,-10658.965565,0.000000
610.357017,-2368.659014,-9326.594869,-766.095498
610.357342,-2368.659014,-7920.203579,-1302.362347
610.357666,-1110.308913,-8142.265362,-383.047749
610.357990,666.185348,-9178.553681,-536.266849
610.358314,1184.329507,-9104.533087,-229.828649
610.358638,1036.288319,-8660.409521,306.438199
610.358962,814.226536,-8734.430116,383.047749
610.359286,1036.288319,-9030.512492,0.000000
610.359611,1406.391290,-9474.636058,536.266849
610.359935,1776.494261,-9548.656652,1455.581446
610.360259,1628.453072,-10658.965565,459.657299
610.360583,592.164754,-11547.212695,76.609550
610.360907,148.041188,-10436.903782,-306.438199
610.361231,0.000000,-10436.903782,-306.438199
610.361556,0.000000,-9992.780217,-1378.971896
610.361880,-740.205942,-10658.965565,-995.924147
610.362204,-1406.391290,-11621.233289,-1378.971896
610.362528,-1924.535449,-10955.047942,-1762.019645
610.362852,-1776.494261,-11473.192101,-1302.362347
610.363176,-1628.453072,-11251.130318,-1149.143247
610.363500,-740.205942,-11843.295072,-383.047749
610.363825,0.000000,-13397.727550,842.705048
610.364149,222.061783,-13397.727550,536.266849
610.364473,-296.082377,-12139.377449,919.314598
610.364797,-1258.350101,-10807.006753,612.876398
610.365121,-1332.370696,-10288.862594,0.000000
610.365445,-1406.391290,-10362.883188,0.000000
610.365770,-814.226536,-9622.677246,0.000000
610.366094,-740.205942,-9622.677246,689.485948
610.366418,-1850.514855,-9030.512492,-612.876398
