#time,accel_x,accel_y,accel_z
888.469688,-370.102971,-9178.553681,-383.047749
888.470012,148.041188,-9696.697840,76.609550
888.470336,0.000000,-9770.718434,0.000000
888.470660,0.000000,-9696.697840,0.000000
888.470985,-148.041188,-9696.697840,0.000000
888.471309,-222.061783,-9548.656652,0.000000
888.471633,0.000000,-9326.594869,229.828649
888.471957,74.020594,-9770.718434,0.000000
888.472281,0.000000,-9474.636058,76.609550
888.472605,-74.020594,-9770.718434,-153.219100
888.472929,-148.041188,-9622.677246,-383.047749
888.473253,-148.041188,-9844.739029,0.000000
888.473577,0.000000,-9548.656652,0.000000
888.473901,0.000000,-9696.697840,0.000000
888.474226,296.082377,-9548.656652,0.000000
888.474550,-148.041188,-9400.615463,-76.609550
888.474874,-222.061783,-9770.718434,76.609550
888.475198,-148.041188,-9696.697840,0.000000
888.475522,74.020594,-9844.739029,153.219100
888.475846,74.020594,-9770.718434,0.000000
888.476170,74.020594,-9400.615463,0.000000
888.476494,148.041188,-9252.574275,0.000000
888.476818,148.041188,-9474.636058,-383.047749
888.477143,0.000000,-9548.656652,0.000000
888.477467,-74.020594,-9622.677246,0.000000
888.477791,74.020594,-9992.780217,76.609550
888.478115,148.041188,-9844.739029,0.000000
888.478439,74.020594,-9622.677246,0.000000
888.478763,-444.123565,-9400.615463,459.657299
888.479087,-296.082377,-9252.574275,0.000000
888.479411,148.041188,-10066.800811,459.657299
888.479735,444.123565,-9918.759623,612.876398
888.480059,444.123565,-9770.718434,459.657299
888.480384,0.000000,-9696.697840,0.000000
888.480708,-740.205942,-9770.718434,0.000000
888.481032,-962.267725,-9918.759623,0.000000
888.481356,-814.226536,-9770.718434,-306.438199
888.481680,-814.226536,-9178.553681,383.047749
888.482004,-370.102971,-8586.388927,842.705048
888.482328,0.000000,-9178.553681,536.266849
888.482652,444.123565,-9918.759623,1072.533697
888.482976,-148.041188,-10436.903782,842.705048
888.483300,-740.205942,-10436.903782,459.657299
888.483625,-1184.329507,-10066.800811,536.266849
888.483949,-2072.576638,-10066.800811,766.095498
888.484273,-2664.741391,-10214.842000,919.314598
888.484597,-2368.659014,-10510.924376,842.705048
888.484921,-2590.720797,-9696.697840,459.657299
888.485245,-1776.494261,-9252.574275,612.876398
888.485569,-888.247130,-8882.471304,919.314598
888.485893,-148.041188,-8586.388927,1378.971896
888.486217,0.000000,-8808.450710,1685.410096
888.486542,-962.267725,-9474.636058,1455.581446
888.486866,-2590.720797,-9400.615463,1072.533697
888.487190,-3701.029710,-10362.883188,1149.143247
888.487514,-3552.988522,-10955.047942,1072.533697
888.487838,-3849.070898,-10881.027347,1378.971896
888.488162,-3552.988522,-11103.089130,1685.410096
888.488486,-2886.803174,-10584.944971,1608.800546
888.488810,-2442.679609,-10214.842000,1302.362347
888.489134,-1702.473667,-9400.615463,1378.971896
888.489458,-592.164754,-8438.347739,2068.457845
888.489783,-222.061783,-8734.430116,2221.676944
888.490107,-74.020594,-9252.574275,2221.676944
888.490431,-1110.308913,-9474.636058,1915.238745
888.490755,-2368.659014,-9474.636058,2145.067394
888.491079,-3034.844362,-10066.800811,1991.848295
888.491403,-3923.091493,-10658.965565,1991.848295
888.491727,-4737.318029,-10362.883188,2298.286494
888.492051,-5329.482782,-10658.965565,3064.381992
888.492375,-5181.441594,-10436.903782,2834.553343
888.492699,-4515.256246,-9918.759623,3064.381992
888.493024,-4515.256246,-9326.594869,2911.162892
888.493348,-3330.926739,-9474.636058,3370.820191
888.493672,-1554.432478,-9992.780217,3753.867940
888.493996,74.020594,-9622.677246,4903.011187
888.494320,1702.473667,-8734.430116,5209.449386
888.494644,2294.638420,-8290.306550,4826.401637
888.494968,1776.494261,-8290.306550,4136.915689
888.495292,1110.308913,-8438.347739,3830.477490
888.495616,148.041188,-8364.327145,3447.429741
888.495941,-1480.411884,-8290.306550,2374.896044
888.496265,-4367.215058,-7254.018232,1302.362347
888.496589,-7105.977043,-8290.306550,-153.219100
888.496913,-8734.430116,-11325.150913,689.485948
888.497237,-7031.956449,-12287.418637,995.924147
888.497561,-4737.318029,-10732.986159,2451.505594
888.497885,-3627.009116,-9178.553681,4749.792088
888.498209,-148.041188,-8068.244768,4443.353888
888.498533,2590.720797,-8586.388927,4443.353888
888.498857,4071.132681,-9622.677246,5132.839837
888.499182,5625.565159,-10214.842000,6435.202183
888.499506,4589.276840,-10732.986159,5132.839837
888.499830,1702.473667,-9622.677246,4136.915689
888.500154,-1480.411884,-8068.244768,3217.601092
888.500478,-4737.318029,-7105.977043,306.438199
888.500802,-7105.977043,-7550.100608,-2757.943793
888.501126,-9400.615463,-10881.027347,-2451.505594
888.501450,-7105.977043,-11473.192101,-1991.848295
888.501774,-2812.782580,-9918.759623,-919.314598
888.502098,-2442.679609,-9178.553681,1455.581446
888.502423,-3256.906145,-8808.450710,1991.848295
888.502747,-3552.988522,-9770.718434,1302.362347
888.503071,-3627.009116,-10214.842000,1072.533697
888.503395,-1924.535449,-10584.944971,2757.943793
888.503719,2812.782580,-11473.192101,4366.744339
888.504043,7179.997637,-12509.480420,4519.963438
888.504367,7254.018232,-11547.212695,4673.182538
888.504691,4071.132681,-9918.759623,3217.601092
888.505015,-444.123565,-9326.594869,919.314598
888.505340,-4737.318029,-9844.739029,-1225.752797
888.505664,-7031.956449,-7846.182985,-2911.162892
888.505988,-6365.771101,-6069.688724,-3447.429741
888.506312,-5995.668130,-8364.327145,-2145.067394
888.506636,-4885.359217,-11843.295072,-1915.238745
888.506960,-4515.256246,-11843.295072,-1991.848295
888.507284,-5773.606348,-10066.800811,-153.219100
888.507608,-6439.791695,-8808.450710,0.000000
888.507932,-4737.318029,-9252.574275,0.000000
888.508256,-1554.432478,-9992.780217,1915.238745
888.508581,1480.411884,-11695.253884,2987.772442
888.508905,3701.029710,-13989.892304,3830.477490
888.509229,3627.009116,-13693.809927,3294.210641
888.509553,1628.453072,-11251.130318,3217.601092
888.509877,74.020594,-9548.656652,2451.505594
888.510201,-1332.370696,-9030.512492,383.047749
888.510525,-2590.720797,-9474.636058,536.266849
888.510849,-4219.173869,-9178.553681,229.828649
888.511173,-4737.318029,-8586.388927,-995.924147
888.511497,-5403.503377,-8364.327145,0.000000
888.511822,-4737.318029,-7402.059420,612.876398
888.512146,-3182.885551,-7328.038826,612.876398
888.512470,-3701.029710,-8216.285956,612.876398
888.512794,-5329.482782,-9178.553681,1072.533697
888.513118,-6069.688724,-9918.759623,1838.629195
888.513442,-3478.967927,-10807.006753,2451.505594
888.513766,-148.041188,-9030.512492,3064.381992
888.514090,1628.453072,-9252.574275,2987.772442
888.514414,1628.453072,-10140.821405,3600.648841
888.514739,1332.370696,-11177.109724,4060.306139
888.515063,1776.494261,-10732.986159,4136.915689
888.515387,1924.535449,-9326.594869,3907.087040
888.515711,1110.308913,-8882.471304,2604.724693
888.516035,-2072.576638,-9030.512492,2374.896044
888.516359,-4367.215058,-9400.615463,2374.896044
888.516683,-5625.565159,-9696.697840,1608.800546
888.517007,-4885.359217,-7994.224174,1072.533697
888.517331,-4367.215058,-5921.647536,689.485948
888.517655,-3923.091493,-5403.503377,1149.143247
888.517980,-2886.803174,-7328.038826,2221.676944
888.518304,-1184.329507,-9474.636058,2757.943793
888.518628,-592.164754,-9844.739029,1991.848295
888.518952,-1702.473667,-8882.471304,1072.533697
888.519276,-2220.617826,-9992.780217,2221.676944
888.519600,-444.123565,-11621.233289,2604.724693
888.519924,2368.659014,-13101.645173,3370.820191
888.520248,2886.803174,-13027.624579,3064.381992
888.520572,1702.473667,-11991.336260,2451.505594
888.520896,1406.391290,-11029.068536,2528.115143
888.521221,2664.741391,-10510.924376,1608.800546
888.521545,1406.391290,-10288.862594,1685.410096
888.521869,-1998.556043,-9918.759623,689.485948
888.522193,-3997.112087,-9918.759623,0.000000
888.522517,-2886.803174,-9326.594869,0.000000
888.522841,-1110.308913,-8956.491898,0.000000
888.523165,-1776.494261,-8438.347739,-153.219100
888.523489,-3923.091493,-9474.636058,-919.314598
888.523813,-3034.844362,-10362.883188,-459.657299
888.524138,-222.061783,-9104.533087,-1072.533697
888.524462,1776.494261,-8882.471304,-612.876398
888.524786,2220.617826,-9696.697840,536.266849
888.525110,2664.741391,-10510.924376,689.485948
888.525434,4071.132681,-10140.821405,1072.533697
888.525758,4441.235652,-9104.533087,1532.190996
888.526082,3034.844362,-9548.656652,1302.362347
888.526406,1554.432478,-11473.192101,1455.581446
888.526730,1036.288319,-11029.068536,76.609550
888.527054,518.144159,-9178.553681,153.219100
888.527379,-1258.350101,-8586.388927,153.219100
888.527703,-3182.885551,-9622.677246,-612.876398
888.528027,-3478.967927,-9030.512492,-1225.752797
888.528351,-2886.803174,-6291.750507,-2757.943793
888.528675,-1776.494261,-6513.812290,-2757.943793
888.528999,-518.144159,-7920.203579,-2298.286494
888.529323,444.123565,-8808.450710,-1991.848295
888.529647,1406.391290,-7624.121203,-1378.971896
888.529971,444.123565,-7698.141797,-995.924147
888.530295,-814.226536,-10288.862594,-459.657299
888.530619,-740.205942,-12287.418637,-459.657299
888.530944,-296.082377,-10732.986159,-612.876398
888.531268,0.000000,-10510.924376,229.828649
888.531592,-666.185348,-12361.439231,536.266849
888.531916,-444.123565,-12953.603985,0.000000
888.532240,518.144159,-11473.192101,0.000000
888.532564,370.102971,-9696.697840,-612.876398
888.532888,-740.205942,-9844.739029,-1532.190996
888.533212,-1628.453072,-10436.903782,-1532.190996
888.533536,-1480.411884,-9474.636058,-1838.629195
888.533860,-666.185348,-8364.327145,-2528.115143
888.534184,-444.123565,-9770.718434,-3064.381992
888.534508,-370.102971,-10362.883188,-3140.991542
888.534832,148.041188,-9622.677246,-2068.457845
888.535156,296.082377,-9178.553681,-1532.190996
888.535480,-888.247130,-9844.739029,-1302.362347
888.535804,-1702.473667,-10658.965565,-919.314598
888.536128,-1036.288319,-10066.800811,0.000000
888.536452,0.000000,-8956.491898,689.485948
888.536776,1258.350101,-9918.759623,1378.971896
888.537100,2368.659014,-10584.944971,1685.410096
888.537424,3404.947333,-9918.759623,1608.800546
888.537749,3997.112087,-8956.491898,1378.971896
888.538073,3256.906145,-9622.677246,536.266849
888.538397,1258.350101,-10140.821405,229.828649
888.538721,0.000000,-9844.739029,-1072.533697
888.539045,-666.185348,-9770.718434,-1378.971896
888.539369,-518.144159,-9844.739029,-1455.581446
888.539693,0.000000,-10584.944971,-1838.629195
888.540017,0.000000,-9696.697840,-1685.410096
888.540341,-888.247130,-8512.368333,-995.924147
888.540665,-2146.597232,-8364.327145,-919.314598
888.540989,-2738.761985,-8586.388927,459.657299
888.541313,-2516.700203,-8142.265362,306.438199
888.541637,-1628.453072,-7476.080014,1302.362347
888.541961,148.041188,-8142.265362,1838.629195
888.542285,1332.370696,-9104.533087,2145.067394
888.542609,2738.761985,-9400.615463,2221.676944
888.542933,2368.659014,-8512.368333,2298.286494
888.543257,1184.329507,-9844.739029,1762.019645
888.543581,0.000000,-10807.006753,536.266849
888.543905,-296.082377,-10807.006753,0.000000
888.544229,-148.041188,-10362.883188,-612.876398
888.544554,-666.185348,-10732.986159,-842.705048
888.544878,-740.205942,-11029.068536,-995.924147
888.545202,-222.061783,-9918.759623,-995.924147
888.545526,0.000000,-9622.677246,153.219100
888.545850,-1554.432478,-10288.862594,229.828649
888.546174,-3330.926739,-10288.862594,-459.657299
888.546498,-3627.009116,-9770.718434,536.266849
888.546822,-2960.823768,-9696.697840,995.924147
888.547146,-1554.432478,-10140.821405,1378.971896
888.547470,-296.082377,-10214.842000,1915.238745
888.547794,666.185348,-9844.739029,1532.190996
888.548118,2072.576638,-8660.409521,1378.971896
888.548442,1554.432478,-9474.636058,1149.143247
888.548766,-74.020594,-11103.089130,536.266849
888.549090,-1184.329507,-10881.027347,-306.438199
888.549414,-370.102971,-9548.656652,-459.657299
888.549738,518.144159,-9252.574275,-306.438199
888.550062,1110.308913,-10288.862594,0.000000
888.550386,1184.329507,-9992.780217,-306.438199
888.550710,1628.453072,-9474.636058,0.000000
888.551034,592.164754,-9104.533087,153.219100
888.551359,-518.144159,-9696.697840,459.657299
888.551683,-1036.288319,-9400.615463,689.485948
888.552007,-740.205942,-8734.430116,766.095498
888.552331,0.000000,-9474.636058,1072.533697
888.552655,740.205942,-10140.821405,1225.752797
888.552979,1850.514855,-9696.697840,766.095498
888.553303,2664.741391,-8364.327145,919.314598
888.553627,1776.494261,-8660.409521,153.219100
888.553951,814.226536,-9918.759623,-459.657299
888.554275,0.000000,-9844.739029,-459.657299
888.554599,-148.041188,-9326.594869,-459.657299
888.554923,-148.041188,-9178.553681,-1608.800546
888.555247,370.102971,-10066.800811,-842.705048
888.555571,1480.411884,-9622.677246,-842.705048
888.555895,1406.391290,-8808.450710,-995.924147
888.556219,0.000000,-8882.471304,-842.705048
888.556543,-1258.350101,-9326.594869,-995.924147
888.556867,-1702.473667,-9622.677246,-919.314598
888.557191,-1554.432478,-8956.491898,-612.876398
888.557515,-1554.432478,-8808.450710,306.438199
888.557839,0.000000,-10288.862594,0.000000
888.558164,1702.473667,-10658.965565,-459.657299
888.558488,1998.556043,-9400.615463,-842.705048
888.558812,1110.308913,-9252.574275,-689.485948
888.559136,74.020594,-10584.944971,-1225.752797
888.559460,-518.144159,-11695.253884,-1685.410096
888.559784,-814.226536,-10510.924376,-2451.505594
888.560108,-592.164754,-9622.677246,-2451.505594
888.560432,-666.185348,-11177.109724,-2451.505594
888.560756,0.000000,-11399.171507,-2374.896044
888.561080,888.247130,-10214.842000,-2068.457845
888.561404,-444.123565,-8882.471304,-1149.143247
888.561728,-1702.473667,-10436.903782,-1149.143247
888.562052,-1998.556043,-11399.171507,-1149.143247
888.562376,-1628.453072,-9696.697840,-536.266849
888.562700,-666.185348,-8882.471304,0.000000
888.563024,74.020594,-9474.636058,536.266849
888.563348,1480.411884,-10214.842000,536.266849
888.563672,2812.782580,-9178.553681,536.266849
888.563996,2294.638420,-8438.347739,153.219100
888.564320,962.267725,-9400.615463,-842.705048
888.564644,-296.082377,-10140.821405,-1302.362347
888.564969,-1110.308913,-9030.512492,-1608.800546
888.565293,-814.226536,-8364.327145,-1378.971896
888.565617,-222.061783,-10066.800811,-1455.581446
888.565941,1110.308913,-10584.944971,-459.657299
888.566265,1776.494261,-9326.594869,-612.876398
888.566589,814.226536,-9326.594869,383.047749
888.566913,-222.061783,-10140.821405,919.314598
888.567237,-1184.329507,-10584.944971,995.924147
888.567561,-1998.556043,-9400.615463,2145.067394
888.567885,-1776.494261,-8734.430116,2374.896044
888.568209,-370.102971,-9696.697840,2221.676944
888.568533,666.185348,-10066.800811,2834.553343
888.568857,1406.391290,-9252.574275,2911.162892
888.569181,962.267725,-8438.347739,1378.971896
888.569505,-666.185348,-8734.430116,76.609550
888.569829,-3034.844362,-9696.697840,-842.705048
888.570153,-3330.926739,-9474.636058,-842.705048
888.570477,-2664.741391,-9474.636058,-1532.190996
888.570801,-2220.617826,-9770.718434,-766.095498
888.571125,-888.247130,-9918.759623,0.000000
888.571449,1036.288319,-9548.656652,153.219100
888.571774,888.247130,-8956.491898,689.485948
888.572098,0.000000,-9474.636058,1455.581446
888.572422,-740.205942,-10510.924376,2374.896044
888.572746,-370.102971,-10214.842000,2987.772442
888.573070,0.000000,-8956.491898,3217.601092
888.573394,592.164754,-9474.636058,2911.162892
888.573718,1406.391290,-10362.883188,2681.334243
888.574042,1924.535449,-9474.636058,1455.581446
888.574366,1332.370696,-7624.121203,153.219100
888.574690,74.020594,-8216.285956,0.000000
888.575014,-1332.370696,-9400.615463,-1302.362347
888.575338,-1776.494261,-9030.512492,-2221.676944
888.575662,-2072.576638,-8586.388927,-2298.286494
888.575986,-1258.350101,-9696.697840,-1378.971896
888.576310,148.041188,-11103.089130,-1378.971896
888.576634,1406.391290,-10584.944971,-919.314598
888.576958,2072.576638,-8956.491898,459.657299
888.577282,1998.556043,-9770.718434,1302.362347
888.577606,888.247130,-11695.253884,1455.581446
888.577930,-444.123565,-11103.089130,2145.067394
888.578254,0.000000,-9548.656652,2911.162892
888.578579,444.123565,-9474.636058,2451.505594
888.578903,1850.514855,-10807.006753,1532.190996
888.579227,3182.885551,-9474.636058,919.314598
888.579551,3552.988522,-8586.388927,306.438199
888.579875,2146.597232,-9104.533087,-1225.752797
888.580199,74.020594,-9104.533087,-1991.848295
888.580523,-1776.494261,-8882.471304,-2298.286494
888.580847,-1702.473667,-8364.327145,-3370.820191
888.581171,-1110.308913,-9252.574275,-2834.553343
888.581495,-592.164754,-10732.986159,-1915.238745
888.581819,888.247130,-9918.759623,-1455.581446
888.582143,1480.411884,-8808.450710,-766.095498
888.582467,962.267725,-9178.553681,383.047749
888.582791,-592.164754,-10732.986159,1225.752797
888.583115,-1258.350101,-11177.109724,1149.143247
888.583439,-1554.432478,-9474.636058,842.705048
888.583763,-2368.659014,-10288.862594,1455.581446
888.584087,-1036.288319,-12139.377449,1532.190996
888.584411,1998.556043,-12139.377449,1302.362347
888.584735,3404.947333,-9474.636058,1532.190996
888.585059,1776.494261,-6069.688724,-2528.115143
888.585384,-1924.535449,-7550.100608,-3600.648841
888.585708,-3775.050304,-10807.006753,-4290.134789
888.586032,-2886.803174,-11103.089130,-4979.620737
888.586356,-2738.761985,-9992.780217,-3600.648841
888.586680,-2590.720797,-9844.739029,-2528.115143
888.587004,-1184.329507,-9770.718434,-3370.820191
888.587328,148.041188,-9400.615463,-2145.067394
888.587652,666.185348,-8734.430116,-919.314598
888.587976,592.164754,-9844.739029,612.876398
888.588300,370.102971,-10436.903782,459.657299
888.588624,962.267725,-9400.615463,842.705048
888.588948,1184.329507,-8956.491898,2298.286494
888.589272,2072.576638,-11177.109724,2145.067394
888.589596,3108.864956,-11917.315666,919.314598
888.589920,3404.947333,-10140.821405,995.924147
888.590244,2072.576638,-5995.668130,-2068.457845
888.590568,222.061783,-7476.080014,-3217.601092
888.590892,-1850.514855,-11251.130318,-3447.429741
888.591216,-1480.411884,-11621.233289,-3830.477490
888.591540,-1924.535449,-10732.986159,-3064.381992
888.591864,-3256.906145,-9770.718434,-2374.896044
888.592189,-2220.617826,-8808.450710,-2451.505594
888.592513,-740.205942,-8956.491898,-1532.190996
888.592837,74.020594,-9400.615463,-689.485948
888.593161,518.144159,-10881.027347,1072.533697
888.593485,888.247130,-11251.130318,1762.019645
888.593809,962.267725,-9474.636058,3064.381992
888.594133,814.226536,-7772.162391,3217.601092
888.594457,740.205942,-8068.244768,3600.648841
888.594781,888.247130,-10658.965565,2451.505594
888.595105,1480.411884,-10732.986159,2451.505594
888.595429,2072.576638,-8364.327145,1225.752797
888.595753,1628.453072,-7179.997637,229.828649
888.596077,222.061783,-7698.141797,-1149.143247
888.596401,-1702.473667,-8512.368333,-1532.190996
888.596725,-2664.741391,-9252.574275,-1532.190996
888.597049,-2812.782580,-9770.718434,-1685.410096
888.597373,-2368.659014,-9104.533087,-1225.752797
888.597697,-666.185348,-8438.347739,-612.876398
888.598021,222.061783,-8660.409521,0.000000
888.598345,444.123565,-10436.903782,842.705048
888.598669,-814.226536,-11399.171507,1915.238745
888.598994,-1332.370696,-11103.089130,3370.820191
888.599318,-518.144159,-10881.027347,3677.258390
888.599642,222.061783,-11177.109724,4060.306139
888.599966,1406.391290,-11917.315666,4136.915689
888.600290,2664.741391,-11695.253884,3140.991542
888.600614,2368.659014,-9696.697840,2451.505594
888.600938,1110.308913,-8290.306550,689.485948
888.601262,-1110.308913,-9104.533087,-459.657299
888.601586,-2368.659014,-9622.677246,-995.924147
888.601910,-2368.659014,-9622.677246,-2681.334243
888.602234,-2442.679609,-9326.594869,-2834.553343
888.602558,-2072.576638,-9030.512492,-1838.629195
888.602882,-814.226536,-8956.491898,-1762.019645
888.603206,-444.123565,-9030.512492,-1149.143247
888.603530,-1184.329507,-8882.471304,-153.219100
888.603854,-814.226536,-10066.800811,1302.362347
888.604178,-518.144159,-10510.924376,2221.676944
888.604502,0.000000,-10362.883188,2604.724693
888.604826,370.102971,-9622.677246,3370.820191
888.605150,2072.576638,-10584.944971,3753.867940
888.605475,3256.906145,-10807.006753,3677.258390
888.605799,4219.173869,-10140.821405,3830.477490
888.606123,3997.112087,-8882.471304,2987.772442
888.606447,2664.741391,-7698.141797,76.609550
888.606771,-444.123565,-7254.018232,-1991.848295
888.607095,-2294.638420,-8290.306550,-2987.772442
888.607419,-2220.617826,-9474.636058,-4443.353888
888.607743,-2294.638420,-9622.677246,-3830.477490
888.608067,-1924.535449,-8438.347739,-2298.286494
888.608391,-1406.391290,-7920.203579,-2374.896044
888.608715,-2072.576638,-9178.553681,-2451.505594
888.609039,-2664.741391,-10362.883188,-995.924147
888.609363,-1702.473667,-10584.944971,76.609550
888.609687,148.041188,-10362.883188,1302.362347
888.610011,666.185348,-10436.903782,2604.724693
888.610335,1850.514855,-11325.150913,3447.429741
888.610659,3330.926739,-11547.212695,2987.772442
888.610983,4145.153275,-11103.089130,2604.724693
888.611307,4071.132681,-10436.903782,1762.019645
888.611631,2960.823768,-9326.594869,1072.533697
888.611955,1924.535449,-7105.977043,-2911.162892
888.612280,-1184.329507,-7179.997637,-3983.696590
888.612604,-3478.967927,-10214.842000,-4903.011187
888.612928,-2664.741391,-11769.274478,-7048.078582
888.613252,-3108.864956,-10362.883188,-5592.497135
888.613576,-3627.009116,-8438.347739,-3983.696590
888.613900,-2886.803174,-8882.471304,-3447.429741
888.614224,-2368.659014,-11621.233289,-3907.087040
888.614548,-1554.432478,-10658.965565,-1302.362347
888.614872,-222.061783,-10066.800811,0.000000
888.615196,1184.329507,-10955.047942,1608.800546
888.615520,2294.638420,-11695.253884,2451.505594
888.615844,3849.070898,-11621.233289,3524.039291
888.616168,5255.462188,-10362.883188,3217.601092
888.616492,5995.668130,-11399.171507,2681.334243
888.616816,5477.523971,-12139.377449,1991.848295
888.617140,3404.947333,-7476.080014,-1072.533697
888.617464,888.247130,-4737.318029,-4060.306139
888.617788,-3182.885551,-8734.430116,-4136.915689
888.618112,-3330.926739,-12065.356855,-5592.497135
888.618436,-1332.370696,-10807.006753,-5745.716235
888.618760,-3478.967927,-7772.162391,-3753.867940
888.619085,-4811.338623,-7031.956449,-2911.162892
888.619409,-3997.112087,-9548.656652,-2374.896044
888.619733,-3627.009116,-10658.965565,-1532.190996
888.620057,-2368.659014,-9474.636058,536.266849
888.620381,74.020594,-9844.739029,2298.286494
888.620705,1776.494261,-11695.253884,2987.772442
888.621029,2590.720797,-12657.521608,4673.182538
888.621353,4219.173869,-11177.109724,4826.401637
888.621677,4737.318029,-10955.047942,4290.134789
888.622001,3627.009116,-11843.295072,3907.087040
888.622325,2442.679609,-10066.800811,2834.553343
888.622649,2738.761985,-6439.791695,1915.238745
888.622973,74.020594,-2664.741391,-4673.182538
888.623297,-4737.318029,-6513.812290,-3524.039291
888.623621,-5847.626942,-12657.521608,-1838.629195
888.623945,-1924.535449,-11621.233289,-4979.620737
888.624269,-3552.988522,-7994.224174,-1685.410096
888.624593,-7328.038826,-7031.956449,2221.676944
888.624917,-4441.235652,-7920.203579,-536.266849
888.625241,-2960.823768,-10066.800811,-766.095498
888.625565,-2738.761985,-8660.409521,2221.676944
888.625890,1702.473667,-8364.327145,4903.011187
888.626214,6661.853478,-12435.459826,5209.449386
888.626538,6587.832884,-12435.459826,7201.297681
888.626862,5773.606348,-9474.636058,7737.564530
888.627186,4811.338623,-9770.718434,4979.620737
888.627510,2368.659014,-11399.171507,2834.553343
888.627834,-518.144159,-9030.512492,-153.219100
888.628158,-1924.535449,-4663.297435,-3983.696590
888.628482,-2516.700203,-8364.327145,-2374.896044
888.628806,-1998.556043,-12731.542202,-3294.210641
888.629130,-814.226536,-10362.883188,-3294.210641
888.629454,-3923.091493,-8438.347739,-153.219100
888.629778,-5181.441594,-7698.141797,-1608.800546
888.630102,-5107.421000,-8734.430116,-2298.286494
888.630426,-3552.988522,-9030.512492,-536.266849
888.630747,1406.391290,-8364.327145,1915.238745
888.631072,5033.400406,-10732.986159,3524.039291
888.631396,6143.709319,-12139.377449,3907.087040
888.631720,6143.709319,-9844.739029,5515.887586
888.632044,5699.585753,-9252.574275,4596.572988
888.632369,3849.070898,-11029.068536,2834.553343
888.632693,1332.370696,-11917.315666,-153.219100
888.633017,222.061783,-9992.780217,-1225.752797
888.633342,0.000000,-8808.450710,-1685.410096
888.633666,296.082377,-10436.903782,-3294.210641
888.633990,-1184.329507,-10214.842000,-3983.696590
888.634314,-2442.679609,-9030.512492,-2681.334243
888.634639,-3923.091493,-9030.512492,-4213.525239
888.634963,-5773.606348,-9030.512492,-3600.648841
888.635287,-5847.626942,-9400.615463,-1915.238745
888.635611,-2368.659014,-9178.553681,-306.438199
888.635936,-148.041188,-8882.471304,-689.485948
888.636260,222.061783,-10140.821405,1149.143247
888.636584,1628.453072,-10658.965565,2374.896044
888.636908,4293.194464,-10362.883188,2528.115143
888.637233,4219.173869,-10436.903782,2298.286494
888.637557,2294.638420,-10436.903782,1532.190996
888.637881,1110.308913,-10288.862594,-689.485948
888.638205,666.185348,-10140.821405,-1685.410096
888.638530,222.061783,-9178.553681,-1915.238745
888.638854,74.020594,-8586.388927,-3140.991542
888.639178,74.020594,-9252.574275,-2987.772442
888.639503,0.000000,-9474.636058,-3600.648841
888.639827,-1480.411884,-8586.388927,-3677.258390
888.640151,-3034.844362,-8068.244768,-3830.477490
888.640475,-4515.256246,-9104.533087,-2834.553343
888.640800,-3256.906145,-9696.697840,-1532.190996
888.641124,-1036.288319,-9548.656652,-842.705048
888.641448,74.020594,-9622.677246,1378.971896
888.641772,1406.391290,-11029.068536,1608.800546
888.642097,3330.926739,-11473.192101,1455.581446
888.642421,3701.029710,-10436.903782,2068.457845
888.642745,2960.823768,-10214.842000,1455.581446
888.643069,1850.514855,-11325.150913,306.438199
888.643394,148.041188,-10881.027347,0.000000
888.643718,-592.164754,-9770.718434,-1378.971896
888.644042,-74.020594,-9548.656652,-1915.238745
888.644366,-148.041188,-9992.780217,-3217.601092
888.644691,-370.102971,-9474.636058,-2834.553343
888.645015,-1036.288319,-8290.306550,-2451.505594
888.645339,-2442.679609,-8586.388927,-2451.505594
888.645664,-4145.153275,-9548.656652,-1608.800546
888.645988,-3627.009116,-9548.656652,-995.924147
888.646312,-2368.659014,-9326.594869,-153.219100
888.646636,-1480.411884,-9696.697840,383.047749
888.646961,592.164754,-11029.068536,1991.848295
888.647285,2886.803174,-11029.068536,2911.162892
888.647609,3775.050304,-9548.656652,2987.772442
888.647933,1850.514855,-9030.512492,3217.601092
888.648258,0.000000,-10362.883188,1991.848295
888.648582,592.164754,-11251.130318,689.485948
888.648906,0.000000,-9844.739029,153.219100
888.649230,0.000000,-9474.636058,229.828649
888.649555,592.164754,-10362.883188,0.000000
888.649879,1258.350101,-10140.821405,306.438199
888.650203,-296.082377,-8586.388927,76.609550
888.650527,-2812.782580,-7476.080014,-229.828649
888.650852,-3923.091493,-8438.347739,-689.485948
888.651176,-3923.091493,-9474.636058,0.000000
888.651500,-2072.576638,-8216.285956,536.266849
888.651824,-222.061783,-7698.141797,1991.848295
888.652149,1258.350101,-9030.512492,2911.162892
888.652473,3108.864956,-9844.739029,2757.943793
888.652797,3627.009116,-8512.368333,3217.601092
888.653122,2590.720797,-8068.244768,3524.039291
888.653446,1480.411884,-9918.759623,3217.601092
888.653770,962.267725,-10732.986159,2681.334243
888.654094,740.205942,-9622.677246,2374.896044
888.654419,296.082377,-9030.512492,1302.362347
888.654743,222.061783,-9696.697840,612.876398
888.655067,592.164754,-9548.656652,-153.219100
888.655391,518.144159,-8734.430116,0.000000
888.655716,-1036.288319,-8142.265362,-689.485948
888.656040,-2960.823768,-9178.553681,-995.924147
888.656364,-4219.173869,-9770.718434,-919.314598
888.656688,-2960.823768,-9622.677246,-766.095498
888.657013,-2146.597232,-9474.636058,0.000000
888.657337,-1036.288319,-10436.903782,766.095498
888.657661,814.226536,-10881.027347,1455.581446
888.657985,2664.741391,-10510.924376,2451.505594
888.658310,3552.988522,-10362.883188,2145.067394
888.658634,2368.659014,-10807.006753,2374.896044
888.658958,1628.453072,-11103.089130,1149.143247
888.659283,888.247130,-9844.739029,0.000000
888.659607,-148.041188,-8882.471304,-842.705048
888.659931,-370.102971,-9326.594869,-1532.190996
888.660255,740.205942,-10214.842000,-1378.971896
888.660580,1184.329507,-9696.697840,-1838.629195
888.660904,-740.205942,-8882.471304,-2221.676944
888.661228,-3182.885551,-9030.512492,-1915.238745
888.661552,-3701.029710,-10140.821405,-1915.238745
888.661877,-2960.823768,-10436.903782,-1762.019645
888.662201,-2220.617826,-9104.533087,-995.924147
888.662525,-814.226536,-9992.780217,153.219100
888.662849,962.267725,-11621.233289,459.657299
888.663174,2664.741391,-10436.903782,995.924147
888.663498,2220.617826,-9548.656652,536.266849
888.663822,1110.308913,-9992.780217,306.438199
888.664146,1036.288319,-11695.253884,-383.047749
888.664471,444.123565,-11177.109724,-766.095498
888.664795,148.041188,-9252.574275,-1378.971896
888.665119,-518.144159,-9326.594869,-1762.019645
888.665443,-370.102971,-10881.027347,-2987.772442
888.665768,296.082377,-10140.821405,-2298.286494
888.666092,148.041188,-8586.388927,-2145.067394
888.666416,-1258.350101,-9030.512492,-1991.848295
888.666741,-1850.514855,-9770.718434,-2068.457845
888.667065,-1480.411884,-8882.471304,-1685.410096
888.667389,-888.247130,-8068.244768,-842.705048
888.667713,-370.102971,-9400.615463,-842.705048
888.668038,1036.288319,-9696.697840,-153.219100
888.668362,3108.864956,-8734.430116,0.000000
888.668686,3034.844362,-8142.265362,-612.876398
888.669010,1554.432478,-9252.574275,-536.266849
888.669335,444.123565,-10140.821405,-842.705048
888.669659,296.082377,-9918.759623,-1378.971896
888.669983,296.082377,-9400.615463,-1149.143247
888.670307,-148.041188,-9252.574275,-1378.971896
888.670632,1184.329507,-10288.862594,-1149.143247
888.670956,1332.370696,-10362.883188,-612.876398
888.671280,666.185348,-9474.636058,-995.924147
888.671604,-1184.329507,-9474.636058,-919.314598
888.671929,-2294.638420,-10140.821405,-766.095498
888.672253,-1702.473667,-9770.718434,-383.047749
888.672577,-1480.411884,-9030.512492,-536.266849
888.672902,-1258.350101,-9474.636058,0.000000
888.673226,-370.102971,-10288.862594,153.219100
888.673550,666.185348,-10584.944971,0.000000
888.673874,666.185348,-9474.636058,459.657299
888.674199,-518.144159,-9622.677246,995.924147
888.674523,-1258.350101,-10955.047942,842.705048
888.674847,-888.247130,-11177.109724,536.266849
888.675171,-814.226536,-9474.636058,919.314598
888.675496,0.000000,-9400.615463,1608.800546
888.675820,740.205942,-10955.047942,1915.238745
888.676144,1480.411884,-11029.068536,2068.457845
888.676468,1184.329507,-9326.594869,1762.019645
888.676793,0.000000,-8660.409521,1762.019645
888.677117,-1184.329507,-9992.780217,1838.629195
888.677441,-2220.617826,-10214.842000,1149.143247
888.677765,-1924.535449,-9178.553681,1072.533697
888.678090,-2072.576638,-8364.327145,1302.362347
888.678414,-740.205942,-9992.780217,842.705048
888.678738,814.226536,-10436.903782,536.266849
888.679063,1110.308913,-9030.512492,919.314598
888.679387,148.041188,-8808.450710,1378.971896
888.679711,-666.185348,-10436.903782,919.314598
888.680035,-370.102971,-10881.027347,1608.800546
888.680360,444.123565,-9030.512492,1608.800546
888.680684,592.164754,-8512.368333,1225.752797
888.681008,518.144159,-9548.656652,1685.410096
888.681332,1554.432478,-10584.944971,2298.286494
888.681657,2072.576638,-9326.594869,2221.676944
888.681981,888.247130,-7772.162391,2068.457845
888.682305,-518.144159,-8512.368333,1225.752797
888.682629,-1628.453072,-8882.471304,995.924147
888.682954,-962.267725,-8956.491898,0.000000
888.683278,-962.267725,-8734.430116,229.828649
888.683602,-444.123565,-8734.430116,306.438199
888.683926,962.267725,-9030.512492,-229.828649
888.684251,1702.473667,-8734.430116,-766.095498
888.684575,666.185348,-8364.327145,-306.438199
888.684899,-148.041188,-9548.656652,229.828649
888.685223,-666.185348,-10214.842000,-612.876398
888.685548,-370.102971,-9474.636058,0.000000
888.685872,0.000000,-8808.450710,383.047749
888.686196,740.205942,-9992.780217,612.876398
888.686521,1776.494261,-10955.047942,612.876398
888.686845,2146.597232,-10066.800811,1225.752797
888.687169,888.247130,-9178.553681,536.266849
888.687493,-1110.308913,-9696.697840,306.438199
888.687818,-2220.617826,-9770.718434,-689.485948
888.688142,-1998.556043,-9474.636058,-842.705048
888.688466,-1480.411884,-9326.594869,-1072.533697
888.688790,-814.226536,-9918.759623,-1915.238745
888.689115,592.164754,-9992.780217,-1378.971896
888.689439,1702.473667,-8734.430116,-1838.629195
888.689763,1258.350101,-9770.718434,-1532.190996
888.690087,-1184.329507,-10881.027347,-1915.238745
888.690412,-2368.659014,-11547.212695,-2451.505594
888.690736,-2146.597232,-9992.780217,-2374.896044
888.691060,-1258.350101,-10066.800811,-1838.629195
888.691384,-296.082377,-11399.171507,-1072.533697
888.691709,1184.329507,-11103.089130,-612.876398
888.692033,2368.659014,-10140.821405,153.219100
888.692357,1480.411884,-8808.450710,76.609550
888.692682,0.000000,-9844.739029,-536.266849
888.693006,-888.247130,-11251.130318,-766.095498
888.693330,-370.102971,-10732.986159,-919.314598
888.693654,0.000000,-9622.677246,-1302.362347
888.693979,444.123565,-10288.862594,-1455.581446
888.694303,1258.350101,-10658.965565,-1838.629195
888.694627,1850.514855,-10214.842000,-1532.190996
888.694951,1554.432478,-9474.636058,-1608.800546
888.695276,0.000000,-9992.780217,-1762.019645
888.695600,-1184.329507,-10881.027347,-2145.067394
888.695924,-1036.288319,-9770.718434,-1915.238745
888.696248,-592.164754,-8512.368333,-1762.019645
888.696573,0.000000,-9548.656652,-995.924147
888.696897,296.082377,-10881.027347,-766.095498
888.697221,888.247130,-9918.759623,-153.219100
888.697545,592.164754,-8660.409521,383.047749
888.697870,-222.061783,-9400.615463,306.438199
888.698194,-444.123565,-10288.862594,306.438199
888.698518,-148.041188,-10214.842000,689.485948
888.698842,0.000000,-9326.594869,919.314598
888.699167,814.226536,-9326.594869,612.876398
888.699491,1776.494261,-9326.594869,-306.438199
888.699815,2590.720797,-9030.512492,153.219100
888.700140,1628.453072,-8438.347739,153.219100
888.700464,-444.123565,-8808.450710,-919.314598
888.700788,-2368.659014,-9474.636058,-1455.581446
888.701112,-2738.761985,-8808.450710,-1378.971896
888.701437,-2442.679609,-7846.182985,-1455.581446
888.701761,-2220.617826,-8586.388927,-459.657299
888.702085,-1258.350101,-9992.780217,229.828649
888.702409,0.000000,-9770.718434,1149.143247
888.702734,444.123565,-9252.574275,1685.410096
888.703058,-666.185348,-9030.512492,1915.238745
888.703382,-1110.308913,-9770.718434,2374.896044
888.703706,-740.205942,-10584.944971,2604.724693
888.704031,74.020594,-10214.842000,1991.848295
888.704355,518.144159,-9474.636058,1838.629195
888.704679,1332.370696,-10066.800811,1838.629195
888.705003,2072.576638,-9326.594869,1072.533697
888.705328,1554.432478,-8882.471304,76.609550
888.705652,-740.205942,-8808.450710,-383.047749
888.705976,-2146.597232,-9770.718434,-842.705048
888.706301,-2368.659014,-9104.533087,-1378.971896
888.706625,-2590.720797,-7698.141797,-1608.800546
888.706949,-1628.453072,-8438.347739,-229.828649
888.707273,-592.164754,-10140.821405,536.266849
888.707598,1406.391290,-10807.006753,1302.362347
888.707922,1924.535449,-9696.697840,2221.676944
888.708246,1184.329507,-9178.553681,3064.381992
888.708570,518.144159,-10510.924376,3677.258390
888.708895,444.123565,-11029.068536,3447.429741
888.709219,740.205942,-9696.697840,3677.258390
888.709543,666.185348,-9104.533087,2604.724693
888.709867,2146.597232,-10214.842000,383.047749
888.710192,2220.617826,-9252.574275,536.266849
888.710516,1480.411884,-8142.265362,0.000000
888.710840,-592.164754,-8512.368333,-1455.581446
888.711164,-2516.700203,-9844.739029,-1991.848295
888.711489,-3256.906145,-9992.780217,-2145.067394
888.711813,-2442.679609,-8438.347739,-2298.286494
888.712137,-1776.494261,-8438.347739,-1991.848295
888.712462,-592.164754,-10658.965565,-536.266849
888.712786,962.267725,-11177.109724,459.657299
888.713110,1998.556043,-9696.697840,919.314598
888.713434,888.247130,-8956.491898,1838.629195
888.713759,0.000000,-9992.780217,2451.505594
888.714083,444.123565,-10732.986159,1915.238745
888.714407,148.041188,-9252.574275,995.924147
888.714731,148.041188,-8660.409521,1762.019645
888.715056,1184.329507,-9696.697840,919.314598
888.715380,2812.782580,-9400.615463,-766.095498
888.715704,2072.576638,-7772.162391,-1455.581446
888.716028,-444.123565,-8216.285956,-2451.505594
888.716353,-1998.556043,-10214.842000,-3447.429741
888.716677,-2294.638420,-11843.295072,-3447.429741
888.717001,-2960.823768,-9622.677246,-3907.087040
888.717325,-2590.720797,-8956.491898,-3447.429741
888.717650,-1258.350101,-10584.944971,-3064.381992
888.717974,444.123565,-11991.336260,-1991.848295
888.718298,1924.535449,-10658.965565,-1072.533697
888.718622,1628.453072,-9696.697840,0.000000
888.718947,666.185348,-11251.130318,919.314598
888.719271,444.123565,-12139.377449,1532.190996
888.719595,1776.494261,-10510.924376,1302.362347
888.719920,1776.494261,-9622.677246,1149.143247
888.720244,1702.473667,-10732.986159,766.095498
888.720568,2516.700203,-10658.965565,-689.485948
888.720892,2886.803174,-8438.347739,-1225.752797
888.721217,1258.350101,-7402.059420,-1685.410096
888.721541,0.000000,-9030.512492,-3447.429741
888.721865,-1332.370696,-9252.574275,-4290.134789
888.722189,-2368.659014,-7846.182985,-4290.134789
888.722514,-2738.761985,-7772.162391,-3983.696590
888.722838,-2294.638420,-9326.594869,-3064.381992
888.723162,-518.144159,-10288.862594,-1915.238745
888.723486,962.267725,-9622.677246,-919.314598
888.723811,740.205942,-9178.553681,0.000000
888.724135,74.020594,-10362.883188,1225.752797
888.724459,74.020594,-11843.295072,2145.067394
888.724783,0.000000,-11177.109724,1991.848295
888.725108,0.000000,-9548.656652,2298.286494
888.725432,370.102971,-10362.883188,2374.896044
888.725756,1776.494261,-11177.109724,2068.457845
888.726081,2590.720797,-9326.594869,1072.533697
888.726405,962.267725,-7031.956449,-919.314598
888.726729,-2072.576638,-8068.244768,-1149.143247
888.727053,-3849.070898,-9918.759623,-1838.629195
888.727378,-3701.029710,-9770.718434,-2757.943793
888.727702,-3997.112087,-8142.265362,-2451.505594
888.728026,-3404.947333,-8660.409521,-919.314598
888.728350,-1110.308913,-10510.924376,-459.657299
888.728675,592.164754,-10140.821405,0.000000
888.728999,518.144159,-8512.368333,1762.019645
888.729323,74.020594,-9622.677246,2221.676944
888.729647,592.164754,-11843.295072,2451.505594
888.729972,962.267725,-10658.965565,3753.867940
888.730296,1480.411884,-9252.574275,3524.039291
888.730620,1628.453072,-9474.636058,3907.087040
888.730944,2664.741391,-11103.089130,3140.991542
888.731269,2960.823768,-10140.821405,2374.896044
888.731593,1776.494261,-8512.368333,1378.971896
888.731917,-148.041188,-9030.512492,229.828649
888.732241,-1258.350101,-9992.780217,-995.924147
888.732565,-2812.782580,-9548.656652,-1532.190996
888.732889,-3404.947333,-8438.347739,-1915.238745
888.733213,-3034.844362,-9030.512492,-1991.848295
888.733538,-1850.514855,-10288.862594,-995.924147
888.733862,666.185348,-10436.903782,-306.438199
888.734186,1850.514855,-9252.574275,689.485948
888.734510,740.205942,-9474.636058,2068.457845
888.734834,-222.061783,-11547.212695,2298.286494
888.735158,-222.061783,-11251.130318,2757.943793
888.735482,148.041188,-9326.594869,2834.553343
888.735807,1258.350101,-9252.574275,3447.429741
888.736131,2886.803174,-10510.924376,3753.867940
888.736455,4663.297435,-10214.842000,2757.943793
888.736779,3997.112087,-8142.265362,1685.410096
888.737103,1850.514855,-7476.080014,842.705048
888.737427,0.000000,-8512.368333,-766.095498
888.737751,-1554.432478,-9326.594869,-1685.410096
888.738075,-2516.700203,-8068.244768,-2604.724693
888.738400,-2590.720797,-7772.162391,-2451.505594
888.738724,-1480.411884,-8808.450710,-2374.896044
888.739048,0.000000,-9474.636058,-1991.848295
888.739372,74.020594,-8290.306550,-1225.752797
888.739696,-814.226536,-8586.388927,383.047749
888.740020,-1554.432478,-10288.862594,612.876398
888.740344,-1998.556043,-10510.924376,1149.143247
888.740669,-888.247130,-10066.800811,1838.629195
888.740993,-888.247130,-9844.739029,1991.848295
888.741317,296.082377,-11769.274478,2374.896044
888.741641,2886.803174,-12509.480420,2451.505594
888.741965,4367.215058,-9844.739029,2298.286494
888.742289,3478.967927,-7846.182985,1072.533697
888.742613,1110.308913,-7105.977043,-919.314598
888.742938,-1776.494261,-8068.244768,-3830.477490
888.743262,-3701.029710,-8660.409521,-4366.744339
888.743586,-3627.009116,-9252.574275,-5669.106685
888.743910,-2368.659014,-9918.759623,-5439.278036
888.744234,-1258.350101,-9474.636058,-3600.648841
888.744558,-444.123565,-9104.533087,-2757.943793
888.744882,-1554.432478,-9696.697840,-3753.867940
888.745206,-2590.720797,-10732.986159,-2298.286494
888.745531,-1776.494261,-11843.295072,-306.438199
888.745855,-444.123565,-11695.253884,612.876398
888.746179,592.164754,-11251.130318,995.924147
888.746503,1184.329507,-11621.233289,2451.505594
888.746827,3552.988522,-12879.583391,2911.162892
888.747151,5699.585753,-12953.603985,2298.286494
888.747475,4663.297435,-11769.274478,1685.410096
888.747800,2516.700203,-8956.491898,0.000000
888.748124,1406.391290,-6661.853478,-3907.087040
888.748448,-1406.391290,-7920.203579,-4749.792088
888.748772,-2886.803174,-11621.233289,-4366.744339
888.749096,-1332.370696,-11991.336260,-5745.716235
888.749420,-962.267725,-10066.800811,-4290.134789
888.749744,-2072.576638,-8364.327145,-2451.505594
888.750069,-2072.576638,-7698.141797,-2987.772442
888.750393,-2294.638420,-9474.636058,-2604.724693
888.750717,-2072.576638,-10658.965565,-229.828649
888.751041,0.000000,-10510.924376,1762.019645
888.751365,1998.556043,-10066.800811,2145.067394
888.751689,2294.638420,-10288.862594,3983.696590
888.752013,3552.988522,-9992.780217,4673.182538
888.752337,4959.379811,-10214.842000,3600.648841
888.752662,4071.132681,-11251.130318,4060.306139
888.752986,1998.556043,-10955.047942,2681.334243
888.753310,1406.391290,-8216.285956,1915.238745
888.753634,-148.041188,-4293.194464,-1991.848295
888.753958,-3034.844362,-4663.297435,-4596.572988
888.754282,-5847.626942,-10066.800811,-1991.848295
888.754606,-3108.864956,-12139.377449,-3524.039291
888.754931,-1998.556043,-8956.491898,-3370.820191
888.755255,-4737.318029,-5921.647536,76.609550
888.755579,-4663.297435,-6809.894666,-229.828649
888.755903,-2516.700203,-10732.986159,-766.095498
888.756227,-1332.370696,-11325.150913,1608.800546
888.756551,592.164754,-8808.450710,3370.820191
888.756875,3849.070898,-10584.944971,4213.525239
888.757200,4589.276840,-11547.212695,4979.620737
888.757524,5699.585753,-10288.862594,6205.373534
888.757848,5551.544565,-9326.594869,5132.839837
888.758172,3256.906145,-9844.739029,3370.820191
888.758496,666.185348,-10807.006753,2681.334243
888.758820,-148.041188,-8142.265362,919.314598
888.759144,-518.144159,-2516.700203,-4443.353888
888.759469,-4219.173869,-5995.668130,-3064.381992
888.759793,-5847.626942,-11843.295072,-1455.581446
888.760117,-1702.473667,-11843.295072,-5209.449386
888.760441,-3034.844362,-8586.388927,-2145.067394
888.760765,-5921.647536,-6883.915261,229.828649
888.761089,-3330.926739,-9400.615463,-1225.752797
888.761413,-518.144159,-11843.295072,-153.219100
888.761737,1110.308913,-10807.006753,2451.505594
888.762062,3108.864956,-11177.109724,5286.058936
888.762386,5847.626942,-13249.686362,4136.915689
888.762710,5995.668130,-12435.459826,5439.278036
888.763034,6069.688724,-10584.944971,5362.668486
888.763358,4885.359217,-10436.903782,3217.601092
888.763682,1850.514855,-12287.418637,1072.533697
888.764006,-962.267725,-9622.677246,-1072.533697
888.764331,-1924.535449,-5995.668130,-3447.429741
888.764655,-2146.597232,-8068.244768,-3983.696590
888.764979,-1924.535449,-10436.903782,-3983.696590
888.765303,-2072.576638,-10214.842000,-3983.696590
888.765627,-3627.009116,-8734.430116,-2987.772442
888.765951,-4885.359217,-7772.162391,-2834.553343
888.766275,-5329.482782,-9474.636058,-1838.629195
888.766600,-2664.741391,-9992.780217,-689.485948
888.766924,888.247130,-9400.615463,1149.143247
888.767248,2960.823768,-10807.006753,2681.334243
888.767572,3627.009116,-11325.150913,2834.553343
888.767896,4737.318029,-11621.233289,3907.087040
888.768220,4959.379811,-10584.944971,3217.601092
888.768544,3256.906145,-11177.109724,2451.505594
888.768868,1036.288319,-11325.150913,1225.752797
888.769193,592.164754,-9474.636058,-229.828649
888.769517,0.000000,-5699.585753,-2451.505594
888.769841,-1776.494261,-5033.400406,-5362.668486
888.770165,-3182.885551,-8660.409521,-3907.087040
888.770489,-2368.659014,-10955.047942,-4596.572988
888.770813,-2294.638420,-9844.739029,-5515.887586
888.771137,-5181.441594,-7698.141797,-2681.334243
888.771462,-5625.565159,-7698.141797,-2528.115143
888.771786,-3775.050304,-9844.739029,-3140.991542
888.772110,-1332.370696,-10955.047942,-995.924147
888.772434,740.205942,-10214.842000,766.095498
888.772758,4441.235652,-11029.068536,1991.848295
888.773082,5477.523971,-11325.150913,2681.334243
888.773406,5107.421000,-10066.800811,3370.820191
888.773731,4589.276840,-10066.800811,2604.724693
888.774055,2960.823768,-12139.377449,1455.581446
888.774379,444.123565,-11325.150913,0.000000
888.774703,0.000000,-8512.368333,-1838.629195
888.775027,-1332.370696,-6439.791695,-3830.477490
888.775351,-1258.350101,-8512.368333,-3830.477490
888.775675,-1110.308913,-10288.862594,-3753.867940
888.775999,-1628.453072,-9622.677246,-4290.134789
888.776324,-4145.153275,-8438.347739,-4060.306139
888.776648,-5773.606348,-8142.265362,-3524.039291
888.776972,-4367.215058,-9622.677246,-1915.238745
888.777296,-2368.659014,-10955.047942,-842.705048
888.777620,592.164754,-11473.192101,1838.629195
888.777944,2664.741391,-12065.356855,2451.505594
888.778268,4663.297435,-11843.295072,3600.648841
888.778593,4737.318029,-10140.821405,3830.477490
888.778917,3182.885551,-10288.862594,3907.087040
888.779241,1702.473667,-11621.233289,3217.601092
888.779565,1036.288319,-11695.253884,1915.238745
888.779889,296.082377,-8956.491898,383.047749
888.780213,-1332.370696,-6587.832884,-1915.238745
888.780537,-2368.659014,-8290.306550,-1838.629195
888.780862,-1628.453072,-9178.553681,-2221.676944
888.781186,-1628.453072,-8364.327145,-2298.286494
888.781510,-3256.906145,-7476.080014,-1302.362347
888.781834,-4663.297435,-7772.162391,-995.924147
888.782158,-4071.132681,-8364.327145,-536.266849
888.782482,-1554.432478,-8660.409521,842.705048
888.782806,444.123565,-9030.512492,1915.238745
888.783131,2368.659014,-10881.027347,3677.258390
888.783455,4145.153275,-11843.295072,4366.744339
888.783779,4885.359217,-10288.862594,4673.182538
888.784103,3256.906145,-8438.347739,4979.620737
888.784427,1184.329507,-9844.739029,3217.601092
888.784751,0.000000,-11177.109724,842.705048
888.785075,-1332.370696,-9474.636058,-229.828649
888.785399,-1332.370696,-8438.347739,-459.657299
888.785724,-740.205942,-9030.512492,-1378.971896
888.786048,-592.164754,-9918.759623,-1455.581446
888.786372,-1110.308913,-8512.368333,-995.924147
888.786696,-2072.576638,-8068.244768,-1455.581446
888.787020,-2812.782580,-9252.574275,-1915.238745
888.787344,-3256.906145,-10140.821405,-383.047749
888.787668,-2294.638420,-9252.574275,459.657299
888.787993,-148.041188,-9104.533087,842.705048
888.788317,1258.350101,-10436.903782,2451.505594
888.788641,2738.761985,-11251.130318,3064.381992
888.788965,4737.318029,-10362.883188,2834.553343
888.789289,3552.988522,-8586.388927,2451.505594
888.789613,1702.473667,-9400.615463,1072.533697
888.789937,740.205942,-9844.739029,0.000000
888.790262,592.164754,-9696.697840,-612.876398
888.790586,0.000000,-9104.533087,-1072.533697
888.790910,-518.144159,-9400.615463,-2221.676944
888.791234,0.000000,-10436.903782,-2451.505594
888.791558,296.082377,-9696.697840,-2145.067394
888.791882,-370.102971,-9548.656652,-1455.581446
888.792206,-1776.494261,-9326.594869,-1608.800546
888.792530,-2146.597232,-10510.924376,-842.705048
888.792855,-1998.556043,-10881.027347,-383.047749
888.793179,-962.267725,-10510.924376,153.219100
888.793503,0.000000,-10288.862594,842.705048
888.793827,1924.535449,-11177.109724,1302.362347
888.794151,2664.741391,-10436.903782,1225.752797
888.794475,2294.638420,-9474.636058,383.047749
888.794799,222.061783,-9030.512492,612.876398
888.795124,-962.267725,-10584.944971,-919.314598
888.795448,-1554.432478,-9622.677246,-1915.238745
888.795772,-1702.473667,-9104.533087,-2298.286494
888.796096,-1110.308913,-9252.574275,-2374.896044
888.796420,0.000000,-9918.759623,-2145.067394
888.796744,1110.308913,-9770.718434,-1532.190996
888.797068,0.000000,-8882.471304,-1915.238745
888.797393,-1110.308913,-8808.450710,-1378.971896
888.797717,-1776.494261,-9696.697840,-1149.143247
888.798041,-1628.453072,-9696.697840,-689.485948
888.798365,-1110.308913,-9474.636058,-689.485948
888.798689,-592.164754,-9400.615463,383.047749
888.799013,666.185348,-10288.862594,383.047749
888.799337,1554.432478,-9992.780217,-612.876398
888.799661,1406.391290,-8882.471304,0.000000
888.799986,-518.144159,-9548.656652,-689.485948
888.800310,-1406.391290,-11251.130318,-1532.190996
888.800634,-1480.411884,-11177.109724,-1455.581446
888.800958,-1258.350101,-9844.739029,-1149.143247
888.801282,-1184.329507,-9622.677246,-1455.581446
888.801606,0.000000,-10807.006753,-995.924147
888.801930,1480.411884,-10584.944971,-612.876398
888.802255,1554.432478,-9474.636058,-459.657299
888.802579,222.061783,-9992.780217,-536.266849
888.802903,-962.267725,-10140.821405,-153.219100
888.803227,-1184.329507,-9992.780217,306.438199
888.803551,-592.164754,-9622.677246,153.219100
888.803875,-370.102971,-9474.636058,229.828649
888.804199,592.164754,-9770.718434,689.485948
888.804524,2738.761985,-9474.636058,229.828649
888.804848,3182.885551,-9104.533087,0.000000
888.805172,1628.453072,-8438.347739,459.657299
888.805496,-222.061783,-9622.677246,459.657299
888.805820,-1036.288319,-10140.821405,-612.876398
888.806144,-888.247130,-8512.368333,-459.657299
888.806468,-370.102971,-8734.430116,-536.266849
888.806793,1110.308913,-10436.903782,0.000000
888.807117,2368.659014,-10214.842000,995.924147
888.807441,1406.391290,-9548.656652,1225.752797
888.807765,-148.041188,-9400.615463,1225.752797
888.808089,-2072.576638,-10807.006753,766.095498
888.808413,-2664.741391,-11029.068536,-229.828649
888.808737,-2442.679609,-9548.656652,0.000000
888.809061,-2146.597232,-9178.553681,0.000000
888.809386,-740.205942,-10658.965565,536.266849
888.809710,888.247130,-10658.965565,766.095498
888.810034,1924.535449,-9252.574275,766.095498
888.810358,1036.288319,-8808.450710,919.314598
888.810682,-592.164754,-9992.780217,536.266849
888.811006,-1184.329507,-10288.862594,229.828649
888.811330,-888.247130,-8882.471304,229.828649
888.811655,-296.082377,-8956.491898,766.095498
888.811979,740.205942,-9844.739029,536.266849
888.812303,2590.720797,-9474.636058,1149.143247
888.812627,2516.700203,-7476.080014,1378.971896
888.812951,1850.514855,-7402.059420,766.095498
888.813275,-296.082377,-8142.265362,306.438199
888.813599,-1332.370696,-8956.491898,76.609550
888.813924,-1628.453072,-8586.388927,-306.438199
888.814248,-1258.350101,-8660.409521,76.609550
888.814572,-444.123565,-9844.739029,689.485948
888.814896,1406.391290,-10066.800811,459.657299
888.815220,2886.803174,-9696.697840,383.047749
888.815544,1628.453072,-9326.594869,229.828649
888.815868,0.000000,-10732.986159,0.000000
888.816192,-740.205942,-11473.192101,-766.095498
888.816517,-1184.329507,-10066.800811,-995.924147
888.816841,-1702.473667,-8882.471304,-229.828649
888.817165,-740.205942,-10436.903782,-1149.143247
888.817489,888.247130,-11621.233289,-995.924147
888.817813,1110.308913,-10362.883188,-459.657299
888.818137,0.000000,-9104.533087,-766.095498
888.818461,-962.267725,-9548.656652,-612.876398
888.818786,-1110.308913,-10807.006753,-306.438199
888.819110,-1332.370696,-9992.780217,-459.657299
888.819434,-1406.391290,-9770.718434,-306.438199
888.819758,-370.102971,-10214.842000,229.828649
888.820082,740.205942,-10955.047942,-229.828649
888.820406,2738.761985,-9844.739029,-766.095498
888.820730,2368.659014,-8956.491898,-306.438199
888.821055,1110.308913,-10214.842000,-612.876398
888.821379,518.144159,-11547.212695,-612.876398
888.821703,-296.082377,-9770.718434,-919.314598
888.822027,-1184.329507,-9030.512492,-1838.629195
888.822351,-1184.329507,-10214.842000,-1915.238745
888.822675,-148.041188,-11251.130318,-1532.190996
888.822999,1184.329507,-10362.883188,-995.924147
888.823323,814.226536,-9696.697840,-612.876398
888.823648,-518.144159,-10066.800811,-383.047749
888.823972,-1332.370696,-10658.965565,-229.828649
888.824296,-1628.453072,-9992.780217,-76.609550
888.824620,-1184.329507,-9326.594869,-766.095498
888.824944,-296.082377,-9548.656652,-153.219100
888.825268,1036.288319,-10362.883188,0.000000
888.825592,2738.761985,-9030.512492,-153.219100
888.825917,2516.700203,-8216.285956,-306.438199
888.826241,1258.350101,-8882.471304,-1532.190996
888.826565,-518.144159,-9474.636058,-1762.019645
888.826889,-1406.391290,-9474.636058,-1532.190996
888.827213,-1628.453072,-8364.327145,-2221.676944
888.827537,-740.205942,-8660.409521,-1302.362347
888.827861,0.000000,-9918.759623,-842.705048
888.828186,1258.350101,-9474.636058,-306.438199
888.828510,1110.308913,-8956.491898,-306.438199
888.828834,0.000000,-9252.574275,612.876398
888.829158,-1184.329507,-10436.903782,1225.752797
888.829482,-1480.411884,-10584.944971,229.828649
888.829806,-962.267725,-9252.574275,383.047749
888.830130,-666.185348,-9326.594869,842.705048
888.830455,740.205942,-11029.068536,689.485948
888.830779,2220.617826,-11029.068536,536.266849
888.831103,1924.535449,-9622.677246,76.609550
888.831427,518.144159,-9252.574275,-229.828649
888.831751,-740.205942,-10214.842000,-383.047749
888.832075,-1480.411884,-10436.903782,-1149.143247
888.832399,-2072.576638,-9992.780217,-1838.629195
888.832723,-2368.659014,-9844.739029,-1302.362347
888.833047,-1036.288319,-10510.924376,-919.314598
888.833371,1036.288319,-10140.821405,0.000000
888.833695,1702.473667,-9104.533087,536.266849
888.834019,1036.288319,-8586.388927,1762.019645
888.834344,-222.061783,-10214.842000,2451.505594
888.834668,-888.247130,-10881.027347,2221.676944
888.834992,-518.144159,-9844.739029,2068.457845
888.835316,296.082377,-9178.553681,2068.457845
888.835640,1110.308913,-9918.759623,2451.505594
888.835964,2368.659014,-10658.965565,1762.019645
888.836288,1850.514855,-9474.636058,689.485948
888.836612,74.020594,-8882.471304,229.828649
888.836936,-1258.350101,-9474.636058,-766.095498
888.837260,-1554.432478,-9918.759623,-1532.190996
888.837584,-2294.638420,-9844.739029,-1762.019645
888.837908,-2368.659014,-8734.430116,-1608.800546
888.838232,-1702.473667,-9474.636058,-383.047749
888.838557,296.082377,-10214.842000,0.000000
888.838881,1036.288319,-9622.677246,689.485948
888.839205,740.205942,-9030.512492,1685.410096
888.839529,0.000000,-10214.842000,2757.943793
888.839853,0.000000,-10214.842000,3140.991542
888.840177,0.000000,-8438.347739,3064.381992
888.840501,296.082377,-8290.306550,3217.601092
888.840825,444.123565,-9252.574275,2451.505594
888.841149,2072.576638,-9474.636058,1915.238745
888.841473,2368.659014,-8068.244768,766.095498
888.841797,1036.288319,-7105.977043,0.000000
888.842121,-222.061783,-7920.203579,-1378.971896
888.842445,-1480.411884,-9474.636058,-2068.457845
888.842769,-1924.535449,-8808.450710,-2604.724693
888.843094,-2368.659014,-8216.285956,-2451.505594
888.843418,-1776.494261,-9622.677246,-1838.629195
888.843742,518.144159,-10658.965565,-766.095498
888.844066,2072.576638,-9918.759623,0.000000
888.844390,1628.453072,-9104.533087,689.485948
888.844714,74.020594,-10584.944971,1532.190996
888.845038,-740.205942,-11843.295072,1149.143247
888.845362,-888.247130,-10732.986159,919.314598
888.845686,-740.205942,-9918.759623,1608.800546
888.846010,222.061783,-10658.965565,1149.143247
888.846334,2146.597232,-10658.965565,229.828649
888.846658,2368.659014,-9252.574275,-459.657299
888.846982,1036.288319,-8882.471304,-1455.581446
888.847306,-222.061783,-10658.965565,-2221.676944
888.847631,-370.102971,-11177.109724,-2834.553343
888.847955,-666.185348,-10214.842000,-3677.258390
888.848279,-1480.411884,-9030.512492,-3524.039291
888.848603,-1702.473667,-10066.800811,-3064.381992
888.848927,0.000000,-11325.150913,-2451.505594
888.849251,1554.432478,-10066.800811,-1608.800546
888.849575,1110.308913,-8586.388927,-306.438199
888.849899,148.041188,-9400.615463,0.000000
888.850223,-592.164754,-10214.842000,306.438199
888.850547,-1184.329507,-9770.718434,995.924147
888.850871,-1406.391290,-9104.533087,612.876398
888.851195,-740.205942,-10584.944971,1072.533697
888.851519,740.205942,-10807.006753,229.828649
888.851843,2368.659014,-8364.327145,-612.876398
888.852168,1850.514855,-7624.121203,-1378.971896
888.852492,148.041188,-9548.656652,-2451.505594
888.852816,-592.164754,-11177.109724,-3217.601092
888.853140,-1406.391290,-10510.924376,-3294.210641
888.853464,-1554.432478,-8808.450710,-2451.505594
888.853788,-222.061783,-9622.677246,-2374.896044
888.854112,1480.411884,-11029.068536,-2145.067394
888.854436,2368.659014,-9770.718434,-766.095498
888.854760,1406.391290,-9030.512492,612.876398
888.855084,444.123565,-9696.697840,766.095498
888.855408,-592.164754,-10214.842000,1608.800546
888.855732,-1258.350101,-9326.594869,1685.410096
888.856056,-1406.391290,-8290.306550,1532.190996
888.856380,-1184.329507,-9696.697840,1685.410096
888.856705,296.082377,-10658.965565,2068.457845
888.857029,2294.638420,-9030.512492,2068.457845
888.857353,1998.556043,-6809.894666,383.047749
888.857677,0.000000,-7698.141797,-1072.533697
888.858001,-1776.494261,-9992.780217,-1302.362347
888.858325,-1554.432478,-10732.986159,-2604.724693
888.858649,-2368.659014,-9400.615463,-2834.553343
888.858973,-2812.782580,-9548.656652,-2298.286494
888.859297,-592.164754,-10881.027347,-1072.533697
888.859621,1036.288319,-10881.027347,-383.047749
888.859945,814.226536,-9918.759623,306.438199
888.860269,-518.144159,-10510.924376,1378.971896
888.860593,-666.185348,-12065.356855,2221.676944
888.860917,-444.123565,-11843.295072,2374.896044
888.861242,-962.267725,-9622.677246,3524.039291
888.861566,0.000000,-9326.594869,2911.162892
888.861890,814.226536,-11177.109724,2528.115143
888.862214,1850.514855,-10436.903782,1532.190996
888.862538,1998.556043,-8068.244768,612.876398
888.862862,888.247130,-7254.018232,536.266849
888.863186,-222.061783,-8956.491898,-536.266849
888.863510,-1110.308913,-9252.574275,-1838.629195
888.863834,-2072.576638,-8512.368333,-1915.238745
888.864158,-2368.659014,-8290.306550,-2298.286494
888.864482,-814.226536,-9178.553681,-1685.410096
888.864806,592.164754,-9326.594869,-1149.143247
888.865130,1036.288319,-8438.347739,0.000000
888.865454,888.247130,-9030.512492,1225.752797
888.865779,-148.041188,-10807.006753,2298.286494
888.866103,296.082377,-11251.130318,2911.162892
888.866427,740.205942,-10066.800811,3140.991542
888.866751,962.267725,-9844.739029,3677.258390
888.867075,1702.473667,-10732.986159,3753.867940
888.867399,3034.844362,-10584.944971,2911.162892
888.867723,3330.926739,-8586.388927,2451.505594
888.868047,1406.391290,-7920.203579,842.705048
888.868371,-518.144159,-8956.491898,0.000000
888.868695,-962.267725,-9400.615463,-1225.752797
888.869019,-1480.411884,-8364.327145,-2451.505594
888.869343,-2220.617826,-7402.059420,-2604.724693
888.869667,-2146.597232,-8068.244768,-2757.943793
888.869991,-666.185348,-8734.430116,-2528.115143
888.870316,0.000000,-8216.285956,-1608.800546
888.870640,-444.123565,-8142.265362,-306.438199
888.870964,-740.205942,-10066.800811,842.705048
888.871288,-444.123565,-10955.047942,842.705048
888.871612,-222.061783,-9918.759623,1991.848295
888.871936,148.041188,-9548.656652,2528.115143
888.872260,1480.411884,-11917.315666,3447.429741
888.872584,2294.638420,-13619.789333,2681.334243
888.872908,2812.782580,-11029.068536,2604.724693
888.873232,2220.617826,-9252.574275,1378.971896
888.873556,296.082377,-8364.327145,-2221.676944
888.873880,-1850.514855,-9252.574275,-3983.696590
888.874204,-3256.906145,-10140.821405,-4136.915689
888.874529,-1776.494261,-10510.924376,-5515.887586
888.874853,-1628.453072,-10436.903782,-4903.011187
888.875177,-1776.494261,-9548.656652,-3217.601092
888.875501,-962.267725,-9474.636058,-3370.820191
888.875825,-2368.659014,-10288.862594,-3447.429741
888.876149,-3701.029710,-11029.068536,-1991.848295
888.876473,-2738.761985,-11621.233289,153.219100
888.876797,-148.041188,-11843.295072,229.828649
888.877121,444.123565,-10140.821405,1685.410096
888.877445,2220.617826,-10140.821405,3294.210641
888.877769,4367.215058,-11843.295072,3524.039291
888.878093,5329.482782,-12287.418637,2604.724693
888.878417,4515.256246,-10362.883188,2068.457845
888.878741,3552.988522,-7402.059420,1302.362347
888.879066,2960.823768,-5699.585753,-1072.533697
888.879390,592.164754,-4293.194464,-5898.935335
888.879714,-3701.029710,-6661.853478,-4443.353888
888.880038,-3627.009116,-11029.068536,-3830.477490
888.880362,-888.247130,-11325.150913,-5669.106685
888.880686,-2590.720797,-8660.409521,-2221.676944
888.881010,-3997.112087,-7254.018232,-995.924147
888.881334,-3256.906145,-8882.471304,-2298.286494
888.881658,-2442.679609,-11843.295072,-1378.971896
888.881982,-1406.391290,-10881.027347,1762.019645
888.882306,1628.453072,-9548.656652,2681.334243
888.882630,2886.803174,-11843.295072,3830.477490
888.882954,3627.009116,-12435.459826,5592.497135
888.883278,5255.462188,-10288.862594,4596.572988
888.883603,3997.112087,-10362.883188,3600.648841
888.883927,1258.350101,-10658.965565,2145.067394
888.884251,-740.205942,-9252.574275,612.876398
888.884575,-518.144159,-3923.091493,-2911.162892
888.884899,-2738.761985,-4885.359217,-4903.011187
888.885223,-5329.482782,-10881.027347,-2451.505594
888.885547,-2368.659014,-13101.645173,-4366.744339
888.885871,-1850.514855,-9918.759623,-3830.477490
888.886195,-5033.400406,-6587.832884,-612.876398
888.886519,-3849.070898,-7179.997637,-1302.362347
888.886843,-1776.494261,-10658.965565,-1149.143247
888.887167,888.247130,-10362.883188,1915.238745
888.887491,3701.029710,-9178.553681,4596.572988
888.887815,5995.668130,-11991.336260,4060.306139
888.888140,5551.544565,-13101.645173,5669.106685
888.888464,5477.523971,-11251.130318,6281.983084
888.888788,4441.235652,-9844.739029,4903.011187
888.889112,962.267725,-10658.965565,2145.067394
888.889436,-1332.370696,-9770.718434,-1225.752797
888.889760,-3552.988522,-7846.182985,-2681.334243
888.890084,-3701.029710,-9252.574275,-2911.162892
888.890408,-2368.659014,-10288.862594,-3830.477490
888.890732,-2368.659014,-9844.739029,-2834.553343
888.891056,-3034.844362,-8216.285956,-1838.629195
888.891380,-2960.823768,-6883.915261,-2911.162892
888.891704,-3478.967927,-8068.244768,-1838.629195
888.892028,-2368.659014,-10436.903782,306.438199
888.892352,1702.473667,-10214.842000,1991.848295
888.892677,3997.112087,-9992.780217,3370.820191
888.893001,3701.029710,-10807.006753,4749.792088
888.893325,4219.173869,-11251.130318,5439.278036
888.893649,4737.318029,-10955.047942,5209.449386
888.893973,3701.029710,-10288.862594,3064.381992
888.894297,1332.370696,-9548.656652,2068.457845
888.894621,74.020594,-7402.059420,-153.219100
888.894945,-1332.370696,-6735.874072,-1991.848295
888.895269,-3997.112087,-7772.162391,-2451.505594
888.895593,-3701.029710,-8734.430116,-3447.429741
888.895917,-2812.782580,-8956.491898,-3524.039291
888.896241,-2442.679609,-7698.141797,-2528.115143
888.896565,-2812.782580,-6217.729913,-1685.410096
888.896889,-2664.741391,-8586.388927,-766.095498
888.897214,-1850.514855,-11473.192101,153.219100
888.897538,0.000000,-11547.212695,766.095498
888.897862,1184.329507,-10584.944971,1532.190996
888.898186,1924.535449,-11029.068536,3140.991542
888.898510,3182.885551,-12287.418637,3753.867940
888.898834,3108.864956,-12361.439231,3524.039291
888.899158,2368.659014,-10955.047942,2757.943793
888.899482,666.185348,-10288.862594,1225.752797
888.899806,-148.041188,-9918.759623,-383.047749
888.900130,-888.247130,-8438.347739,-1915.238745
888.900454,-2294.638420,-7994.224174,-2374.896044
888.900778,-2812.782580,-8364.327145,-3140.991542
888.901102,-1258.350101,-9474.636058,-3753.867940
888.901426,-444.123565,-8808.450710,-3294.210641
888.901751,-740.205942,-7105.977043,-2374.896044
888.902075,-1924.535449,-7994.224174,-2834.553343
888.902399,-1776.494261,-9400.615463,-2068.457845
888.902723,-592.164754,-9918.759623,-1072.533697
888.903047,1184.329507,-10288.862594,153.219100
888.903371,2664.741391,-11029.068536,1455.581446
888.903695,4515.256246,-11029.068536,1838.629195
888.904019,5699.585753,-11251.130318,2681.334243
888.904343,4219.173869,-9770.718434,1225.752797
888.904667,1702.473667,-10066.800811,612.876398
888.904991,148.041188,-11399.171507,-459.657299
888.905315,-444.123565,-11399.171507,-1991.848295
888.905639,-1036.288319,-9770.718434,-1991.848295
888.905964,-1776.494261,-8660.409521,-2757.943793
888.906288,-1036.288319,-9326.594869,-3064.381992
888.906612,-1184.329507,-8956.491898,-3217.601092
888.906936,-1776.494261,-8734.430116,-3447.429741
888.907260,-3034.844362,-8438.347739,-2681.334243
888.907584,-2886.803174,-10066.800811,-1991.848295
888.907908,-1258.350101,-10807.006753,-459.657299
888.908232,296.082377,-10214.842000,306.438199
888.908556,1036.288319,-9918.759623,1608.800546
888.908880,1776.494261,-11399.171507,2681.334243
888.909204,2960.823768,-12287.418637,2528.115143
888.909528,3849.070898,-10658.965565,2451.505594
888.909852,2590.720797,-8956.491898,2374.896044
888.910176,962.267725,-9622.677246,1378.971896
888.910501,0.000000,-10214.842000,153.219100
888.910825,-740.205942,-9252.574275,-306.438199
888.911149,-2220.617826,-7698.141797,-1302.362347
888.911473,-2220.617826,-7698.141797,-1838.629195
888.911797,-1702.473667,-7994.224174,-1915.238745
888.912121,-1850.514855,-7402.059420,-1915.238745
888.912445,-3330.926739,-7846.182985,-1685.410096
888.912769,-4737.318029,-8808.450710,-1149.143247
888.913093,-4145.153275,-9326.594869,76.609550
888.913417,-2368.659014,-9400.615463,612.876398
888.913741,-592.164754,-9252.574275,1302.362347
888.914065,444.123565,-10658.965565,2681.334243
888.914389,2072.576638,-12139.377449,3294.210641
888.914713,3034.844362,-11251.130318,2987.772442
888.915038,2516.700203,-9918.759623,2834.553343
888.915362,444.123565,-10140.821405,2145.067394
888.915686,0.000000,-10584.944971,1378.971896
888.916010,-222.061783,-10214.842000,459.657299
888.916334,-592.164754,-9030.512492,-459.657299
888.916658,-740.205942,-9178.553681,-1225.752797
888.916982,-222.061783,-9030.512492,-1225.752797
888.917306,148.041188,-8290.306550,-1149.143247
888.917630,-222.061783,-8216.285956,-1072.533697
888.917954,-1554.432478,-8586.388927,-766.095498
888.918278,-1924.535449,-9548.656652,306.438199
888.918602,-296.082377,-9474.636058,536.266849
888.918926,296.082377,-8216.285956,1225.752797
888.919250,1850.514855,-9474.636058,2451.505594
888.919575,3330.926739,-11325.150913,2681.334243
888.919899,4145.153275,-11103.089130,2834.553343
888.920223,3034.844362,-9844.739029,2451.505594
888.920547,666.185348,-10066.800811,2068.457845
888.920871,-888.247130,-11251.130318,1149.143247
888.921195,-962.267725,-10140.821405,0.000000
888.921519,-1110.308913,-8956.491898,-995.924147
888.921843,-1036.288319,-8808.450710,-1608.800546
888.922167,0.000000,-9992.780217,-1378.971896
888.922491,592.164754,-9844.739029,-1072.533697
888.922815,0.000000,-9104.533087,-1225.752797
888.923139,-1184.329507,-8956.491898,-995.924147
888.923463,-2146.597232,-9844.739029,0.000000
888.923787,-814.226536,-9844.739029,0.000000
888.924112,-370.102971,-9104.533087,536.266849
888.924436,592.164754,-9622.677246,1838.629195
888.924760,1998.556043,-10881.027347,2145.067394
888.925084,2442.679609,-10066.800811,1991.848295
888.925408,1702.473667,-7698.141797,1072.533697
888.925732,296.082377,-8586.388927,689.485948
888.926056,-1332.370696,-10362.883188,-995.924147
888.926380,-1406.391290,-10362.883188,-1302.362347
888.926704,-1776.494261,-8438.347739,-1378.971896
888.927028,-1480.411884,-8142.265362,-1991.848295
888.927352,148.041188,-9474.636058,-2451.505594
888.927676,888.247130,-10066.800811,-1915.238745
888.928000,222.061783,-9548.656652,-1302.362347
888.928324,-370.102971,-9474.636058,-1302.362347
888.928649,-888.247130,-10732.986159,-1225.752797
888.928973,-1036.288319,-10881.027347,-612.876398
888.929297,-962.267725,-9918.759623,-383.047749
888.929621,-740.205942,-10510.924376,153.219100
888.929945,296.082377,-11769.274478,383.047749
888.930269,1702.473667,-11695.253884,306.438199
888.930593,2294.638420,-9474.636058,0.000000
888.930917,222.061783,-9548.656652,-229.828649
888.931241,-814.226536,-10807.006753,-919.314598
888.931565,-962.267725,-10584.944971,-1302.362347
888.931889,-814.226536,-9252.574275,-1838.629195
888.932213,-148.041188,-8956.491898,-1915.238745
888.932538,888.247130,-9326.594869,-2221.676944
888.932862,2220.617826,-9178.553681,-1532.190996
888.933186,1998.556043,-8734.430116,-1149.143247
888.933510,370.102971,-9104.533087,-1072.533697
888.933834,-1110.308913,-10140.821405,-766.095498
888.934158,-1036.288319,-10732.986159,0.000000
888.934482,-1184.329507,-9622.677246,0.000000
888.934807,-592.164754,-8882.471304,612.876398
888.935131,296.082377,-10214.842000,766.095498
888.935455,1110.308913,-10362.883188,1072.533697
888.935779,1184.329507,-9474.636058,459.657299
888.936103,-888.247130,-9104.533087,459.657299
888.936427,-2368.659014,-10140.821405,-536.266849
888.936752,-2960.823768,-10140.821405,-1072.533697
888.937076,-3330.926739,-9104.533087,-1302.362347
888.937400,-2664.741391,-9104.533087,-1072.533697
888.937724,-296.082377,-10066.800811,0.000000
888.938048,1554.432478,-10436.903782,383.047749
888.938372,1628.453072,-9474.636058,612.876398
888.938696,592.164754,-8586.388927,383.047749
888.939021,-740.205942,-9474.636058,383.047749
888.939345,-962.267725,-10510.924376,766.095498
888.939669,-444.123565,-9770.718434,459.657299
888.939993,148.041188,-9474.636058,995.924147
888.940317,666.185348,-9400.615463,995.924147
888.940641,2294.638420,-9992.780217,995.924147
888.940966,2220.617826,-9326.594869,229.828649
888.941290,0.000000,-8660.409521,0.000000
888.941614,-1998.556043,-9770.718434,-306.438199
888.941938,-1702.473667,-10584.944971,-383.047749
888.942262,-1258.350101,-8882.471304,-536.266849
888.942586,-444.123565,-8364.327145,459.657299
888.942910,666.185348,-9474.636058,0.000000
888.943235,2368.659014,-9918.759623,536.266849
888.943559,3108.864956,-9474.636058,995.924147
888.943883,1998.556043,-8882.471304,1532.190996
888.944207,148.041188,-9178.553681,919.314598
888.944531,-444.123565,-10288.862594,229.828649
888.944855,-222.061783,-9622.677246,689.485948
888.945180,296.082377,-10140.821405,459.657299
888.945504,740.205942,-10214.842000,919.314598
888.945828,1850.514855,-10362.883188,383.047749
888.946152,1998.556043,-9474.636058,76.609550
888.946476,740.205942,-9030.512492,0.000000
888.946800,-1110.308913,-9918.759623,612.876398
888.947124,-1850.514855,-10807.006753,76.609550
888.947449,-1628.453072,-9474.636058,-689.485948
888.947773,-1332.370696,-8068.244768,-229.828649
888.948097,-296.082377,-9252.574275,689.485948
888.948421,1702.473667,-10807.006753,1149.143247
888.948745,2442.679609,-9918.759623,1685.410096
888.949069,1406.391290,-8660.409521,1608.800546
888.949394,-296.082377,-8956.491898,1302.362347
888.949718,-962.267725,-9992.780217,766.095498
888.950042,-1480.411884,-9474.636058,536.266849
888.950366,-1924.535449,-8364.327145,229.828649
888.950690,-1776.494261,-9326.594869,0.000000
888.951014,-518.144159,-9844.739029,0.000000
888.951338,962.267725,-8808.450710,-306.438199
888.951663,370.102971,-8068.244768,-612.876398
888.951987,-1554.432478,-8586.388927,-1072.533697
888.952311,-2368.659014,-9770.718434,-1149.143247
888.952635,-1628.453072,-9770.718434,-1072.533697
888.952959,-1184.329507,-8882.471304,-689.485948
888.953283,-1036.288319,-9474.636058,-459.657299
888.953608,74.020594,-10510.924376,-383.047749
888.953932,1258.350101,-9992.780217,-153.219100
888.954256,1036.288319,-9400.615463,76.609550
888.954580,0.000000,-9918.759623,-536.266849
888.954904,-518.144159,-10362.883188,0.000000
888.955228,-814.226536,-10510.924376,-229.828649
888.955552,-1406.391290,-9844.739029,-1149.143247
888.955877,-888.247130,-10066.800811,-1302.362347
888.956201,1036.288319,-11251.130318,-689.485948
888.956525,2812.782580,-10584.944971,-689.485948
888.956849,2516.700203,-9030.512492,-1302.362347
888.957173,592.164754,-9178.553681,-1455.581446
888.957497,-148.041188,-11029.068536,-1532.190996
888.957822,370.102971,-11695.253884,-1991.848295
888.958146,0.000000,-10066.800811,-1685.410096
888.958470,-148.041188,-9474.636058,-1225.752797
888.958794,1184.329507,-10881.027347,-612.876398
888.959118,2442.679609,-10955.047942,-229.828649
888.959442,1998.556043,-9992.780217,0.000000
888.959766,962.267725,-9992.780217,459.657299
888.960091,0.000000,-10362.883188,0.000000
888.960415,0.000000,-10584.944971,536.266849
888.960739,222.061783,-9252.574275,383.047749
888.961063,444.123565,-8586.388927,229.828649
888.961387,444.123565,-9622.677246,0.000000
888.961711,814.226536,-9548.656652,536.266849
888.962035,444.123565,-8216.285956,-229.828649
888.962360,-1332.370696,-8586.388927,-612.876398
888.962684,-2664.741391,-9178.553681,-766.095498
888.963008,-2590.720797,-9400.615463,-995.924147
888.963332,-1998.556043,-8808.450710,-995.924147
888.963656,-1406.391290,-9326.594869,-383.047749
888.963980,-444.123565,-10066.800811,536.266849
888.964305,1110.308913,-9696.697840,612.876398
888.964629,1036.288319,-9104.533087,1302.362347
888.964953,-370.102971,-9326.594869,1915.238745
888.965277,-962.267725,-10658.965565,2145.067394
888.965601,-962.267725,-10584.944971,1608.800546
888.965925,-1184.329507,-9326.594869,1302.362347
888.966249,-1406.391290,-8882.471304,919.314598
888.966574,370.102971,-10140.821405,1225.752797
888.966898,1628.453072,-10510.924376,1302.362347
888.967222,1258.350101,-8660.409521,689.485948
888.967546,-814.226536,-8068.244768,-689.485948
888.967870,-2590.720797,-8512.368333,-1072.533697
888.968194,-2072.576638,-10214.842000,-1378.971896
888.968519,-1036.288319,-9844.739029,-1302.362347
888.968843,-444.123565,-8586.388927,-383.047749
888.969167,592.164754,-9474.636058,612.876398
888.969491,1924.535449,-10584.944971,842.705048
888.969815,3330.926739,-9918.759623,536.266849
888.970139,1628.453072,-9326.594869,1762.019645
888.970463,370.102971,-11177.109724,2528.115143
888.970788,0.000000,-11843.295072,1991.848295
888.971112,-518.144159,-9918.759623,1762.019645
888.971436,-444.123565,-8660.409521,1838.629195
888.971760,74.020594,-9548.656652,459.657299
888.972084,1776.494261,-10658.965565,153.219100
888.972408,1776.494261,-9030.512492,0.000000
888.972733,0.000000,-8216.285956,-766.095498
888.973057,-1628.453072,-8882.471304,-1302.362347
888.973381,-2072.576638,-9918.759623,-1915.238745
888.973705,-1850.514855,-8882.471304,-1302.362347
888.974029,-1776.494261,-8290.306550,-2221.676944
888.974353,-592.164754,-9622.677246,-306.438199
888.974677,2220.617826,-10510.924376,383.047749
888.975002,4145.153275,-9770.718434,1378.971896
888.975326,3182.885551,-8808.450710,2068.457845
888.975650,1036.288319,-9992.780217,1915.238745
888.975974,-370.102971,-10955.047942,1838.629195
888.976298,-814.226536,-9844.739029,1532.190996
888.976622,-2072.576638,-8660.409521,1225.752797
888.976947,-1332.370696,-9548.656652,612.876398
888.977271,222.061783,-10140.821405,459.657299
888.977595,814.226536,-8956.491898,-306.438199
888.977919,-444.123565,-8216.285956,-1455.581446
888.978243,-2368.659014,-8660.409521,-2451.505594
888.978567,-3182.885551,-9474.636058,-3294.210641
888.978891,-2812.782580,-9400.615463,-3294.210641
888.979216,-1332.370696,-8956.491898,-2451.505594
888.979540,0.000000,-9770.718434,-2068.457845
888.979864,2220.617826,-11029.068536,-842.705048
888.980188,4071.132681,-10510.924376,0.000000
888.980512,3478.967927,-9548.656652,536.266849
888.980836,1776.494261,-10732.986159,1378.971896
888.981161,740.205942,-11843.295072,1455.581446
888.981485,444.123565,-10732.986159,1455.581446
888.981809,-222.061783,-9696.697840,1378.971896
888.982133,-1554.432478,-9474.636058,612.876398
888.982457,-148.041188,-9770.718434,-766.095498
888.982781,296.082377,-8956.491898,-919.314598
888.983105,0.000000,-7994.224174,-1685.410096
888.983430,-888.247130,-8586.388927,-2145.067394
888.983754,-1924.535449,-9474.636058,-2757.943793
888.984078,-2220.617826,-9548.656652,-3447.429741
888.984402,-2146.597232,-8734.430116,-3600.648841
888.984726,-1110.308913,-9844.739029,-2757.943793
888.985050,222.061783,-11399.171507,-1532.190996
888.985375,1998.556043,-11399.171507,-612.876398
888.985699,1924.535449,-10362.883188,383.047749
888.986023,518.144159,-10807.006753,1149.143247
888.986347,-370.102971,-12287.418637,1072.533697
888.986671,-518.144159,-10955.047942,1378.971896
888.986995,-592.164754,-9622.677246,1685.410096
888.987319,0.000000,-9844.739029,1685.410096
888.987644,1332.370696,-10066.800811,1532.190996
888.987968,1776.494261,-9178.553681,1149.143247
888.988292,148.041188,-8068.244768,76.609550
888.988616,-962.267725,-8586.388927,-1072.533697
888.988940,-2442.679609,-8734.430116,-1455.581446
888.989264,-1628.453072,-9252.574275,-1991.848295
888.989589,-1998.556043,-8290.306550,-2451.505594
888.989913,-1628.453072,-9104.533087,-1685.410096
888.990237,-296.082377,-10658.965565,-919.314598
888.990561,1258.350101,-10214.842000,0.000000
888.990885,1406.391290,-8512.368333,76.609550
888.991209,0.000000,-8956.491898,536.266849
888.991533,-518.144159,-10436.903782,1685.410096
888.991858,-592.164754,-10955.047942,2298.286494
888.992182,0.000000,-10288.862594,2834.553343
888.992506,0.000000,-10362.883188,2987.772442
888.992830,962.267725,-10955.047942,2757.943793
888.993154,1998.556043,-10066.800811,2604.724693
888.993478,1480.411884,-8956.491898,1455.581446
888.993802,0.000000,-8660.409521,1149.143247
888.994127,-2516.700203,-9548.656652,-536.266849
888.994451,-2812.782580,-9622.677246,-1378.971896
888.994775,-2960.823768,-8438.347739,-1991.848295
888.995099,-1924.535449,-8586.388927,-1608.800546
888.995423,222.061783,-9474.636058,-842.705048
888.995747,2590.720797,-9252.574275,-536.266849
888.996072,2960.823768,-8290.306550,-306.438199
888.996396,1258.350101,-8512.368333,76.609550
888.996720,370.102971,-10732.986159,1762.019645
888.997044,0.000000,-10955.047942,2298.286494
888.997368,74.020594,-9548.656652,2374.896044
888.997692,0.000000,-9178.553681,2987.772442
888.998016,962.267725,-10436.903782,3524.039291
888.998341,2960.823768,-11103.089130,3064.381992
888.998665,3034.844362,-8438.347739,2145.067394
888.998989,666.185348,-7254.018232,1532.190996
888.999313,-1702.473667,-8142.265362,-1072.533697
888.999637,-2516.700203,-9178.553681,-1915.238745
888.999961,-1998.556043,-8290.306550,-3064.381992
889.000286,-1776.494261,-8290.306550,-3370.820191
889.000610,-888.247130,-9622.677246,-2834.553343
889.000934,370.102971,-10436.903782,-2757.943793
889.001258,1628.453072,-9918.759623,-2221.676944
889.001582,1184.329507,-9696.697840,-1455.581446
889.001906,0.000000,-10881.027347,0.000000
889.002230,-370.102971,-11843.295072,612.876398
889.002555,0.000000,-11547.212695,1225.752797
889.002879,222.061783,-10362.883188,2298.286494
889.003203,1406.391290,-11547.212695,2451.505594
889.003527,2812.782580,-12361.439231,2987.772442
889.003851,2368.659014,-10955.047942,2604.724693
889.004175,1110.308913,-9252.574275,1685.410096
889.004500,-518.144159,-8660.409521,536.266849
889.004824,-1554.432478,-7254.018232,-2757.943793
889.005148,-3256.906145,-7105.977043,-4060.306139
889.005472,-3849.070898,-8734.430116,-4290.134789
889.005796,-1554.432478,-10140.821405,-4826.401637
889.006120,296.082377,-10584.944971,-2911.162892
889.006444,-222.061783,-9474.636058,-1915.238745
889.006769,-666.185348,-9030.512492,-2145.067394
889.007093,-1258.350101,-10214.842000,-1838.629195
889.007417,-962.267725,-11325.150913,-459.657299
889.007741,814.226536,-10584.944971,1838.629195
889.008065,2146.597232,-10658.965565,2298.286494
889.008389,2072.576638,-11177.109724,3140.991542
889.008714,2368.659014,-10807.006753,3370.820191
889.009038,3478.967927,-9844.739029,3294.210641
889.009362,2294.638420,-10066.800811,2145.067394
889.009686,222.061783,-9770.718434,1072.533697
889.010010,-962.267725,-6883.915261,-1378.971896
889.010334,-2146.597232,-4885.359217,-4136.915689
889.010658,-4219.173869,-7328.038826,-4136.915689
889.010983,-3627.009116,-10732.986159,-4366.744339
889.011307,-740.205942,-10807.006753,-4136.915689
889.011631,-1036.288319,-9030.512492,-2911.162892
889.011955,-2368.659014,-7550.100608,-2145.067394
889.012279,-2294.638420,-9770.718434,-1608.800546
889.012603,-1036.288319,-11547.212695,-842.705048
889.012928,222.061783,-10955.047942,306.438199
889.013252,1554.432478,-10584.944971,2528.115143
889.013576,2590.720797,-12065.356855,2834.553343
889.013900,3256.906145,-13323.706956,4213.525239
889.014224,4145.153275,-11843.295072,4136.915689
889.014548,3404.947333,-10214.842000,3064.381992
889.014872,1258.350101,-11177.109724,1838.629195
889.015197,0.000000,-9992.780217,689.485948
889.015521,222.061783,-7179.997637,229.828649
889.015845,-444.123565,-4737.318029,-3753.867940
889.016169,-2812.782580,-6883.915261,-3830.477490
889.016493,-4293.194464,-11251.130318,-2757.943793
889.016817,-1628.453072,-11695.253884,-4290.134789
889.017142,-2516.700203,-9030.512492,-2987.772442
889.017466,-4737.318029,-8290.306550,76.609550
889.017790,-2738.761985,-9622.677246,-153.219100
889.018114,-518.144159,-11325.150913,0.000000
889.018438,1258.350101,-9252.574275,2374.896044
889.018762,3182.885551,-8808.450710,4979.620737
889.019086,5181.441594,-11695.253884,5056.230287
889.019411,5107.421000,-11177.109724,5439.278036
889.019735,3775.050304,-9252.574275,5669.106685
889.020059,2294.638420,-8808.450710,3830.477490
889.020383,-296.082377,-8956.491898,919.314598
889.020707,-3478.967927,-6217.729913,-1915.238745
889.021031,-4737.318029,-5921.647536,-3370.820191
889.021356,-4071.132681,-8808.450710,-2145.067394
889.021680,-666.185348,-11325.150913,-3294.210641
889.022004,-518.144159,-9030.512492,-1762.019645
889.022328,-1702.473667,-6883.915261,-689.485948
889.022652,-2146.597232,-7698.141797,-1685.410096
889.022976,-2812.782580,-11029.068536,-612.876398
889.023300,-592.164754,-10658.965565,1915.238745
889.023625,2960.823768,-9474.636058,2834.553343
889.023949,4589.276840,-10881.027347,3524.039291
889.024273,4737.318029,-11991.336260,3753.867940
889.024597,4885.359217,-11621.233289,4749.792088
889.024921,4071.132681,-10362.883188,3217.601092
889.025245,370.102971,-9770.718434,1608.800546
889.025569,-2738.761985,-9918.759623,-459.657299
889.025894,-3404.947333,-9252.574275,-2068.457845
889.026218,-2368.659014,-9104.533087,-2451.505594
889.026542,-2146.597232,-9992.780217,-2681.334243
889.026866,-1036.288319,-9622.677246,-2604.724693
889.027190,-370.102971,-8956.491898,-2528.115143
889.027514,-740.205942,-7846.182985,-2834.553343
889.027839,-2072.576638,-8216.285956,-1838.629195
889.028163,-1702.473667,-9474.636058,-689.485948
889.028487,888.247130,-11251.130318,842.705048
889.028811,1776.494261,-11177.109724,1072.533697
889.029135,2072.576638,-10584.944971,2451.505594
889.029459,3108.864956,-11177.109724,2911.162892
889.029783,3849.070898,-11917.315666,2987.772442
889.030108,2442.679609,-11177.109724,1991.848295
889.030432,148.041188,-9622.677246,383.047749
889.030756,-1628.453072,-9252.574275,-1455.581446
889.031080,-1702.473667,-9474.636058,-1149.143247
889.031404,-2072.576638,-9030.512492,-2681.334243
889.031728,-2072.576638,-8068.244768,-3524.039291
889.032053,-1258.350101,-8438.347739,-3524.039291
889.032377,-1184.329507,-8364.327145,-4213.525239
889.032701,-1480.411884,-7846.182985,-4060.306139
889.033025,-1998.556043,-7846.182985,-2451.505594
889.033349,-1406.391290,-9474.636058,-1532.190996
889.033673,-148.041188,-10955.047942,-306.438199
889.033997,592.164754,-10214.842000,76.609550
889.034322,592.164754,-9770.718434,1225.752797
889.034646,1332.370696,-11473.192101,2145.067394
889.034970,2960.823768,-12287.418637,1608.800546
889.035294,3034.844362,-10066.800811,2068.457845
889.035618,1776.494261,-9178.553681,1608.800546
889.035942,0.000000,-9400.615463,-153.219100
889.036266,-1332.370696,-9474.636058,-1685.410096
889.036590,-1406.391290,-9400.615463,-2068.457845
889.036915,-740.205942,-9622.677246,-2298.286494
889.037239,0.000000,-10214.842000,-2757.943793
889.037563,444.123565,-9252.574275,-2528.115143
889.037887,296.082377,-8290.306550,-1762.019645
889.038211,-1184.329507,-8290.306550,-2757.943793
889.038535,-1850.514855,-10955.047942,-536.266849
889.038859,-1110.308913,-11251.130318,-76.609550
889.039183,-222.061783,-9770.718434,995.924147
889.039508,0.000000,-9770.718434,1685.410096
889.039832,296.082377,-11029.068536,2221.676944
889.040156,1554.432478,-11399.171507,2604.724693
889.040480,1924.535449,-10436.903782,3294.210641
889.040804,740.205942,-9844.739029,2528.115143
889.041128,-1332.370696,-9400.615463,1149.143247
889.041452,-2368.659014,-9400.615463,-229.828649
889.041777,-2146.597232,-9474.636058,-459.657299
889.042101,-962.267725,-9474.636058,-1378.971896
889.042425,0.000000,-9474.636058,-1455.581446
889.042749,1184.329507,-9622.677246,-459.657299
889.043073,444.123565,-8808.450710,-459.657299
889.043397,0.000000,-8586.388927,0.000000
889.043721,-1554.432478,-9696.697840,0.000000
889.044045,-1702.473667,-11251.130318,612.876398
889.044370,-444.123565,-10510.924376,1225.752797
889.044694,518.144159,-9326.594869,1915.238745
889.045018,1036.288319,-9992.780217,3830.477490
889.045342,2590.720797,-11029.068536,3217.601092
889.045666,2664.741391,-9474.636058,2528.115143
889.045990,1332.370696,-7994.224174,2298.286494
889.046314,-1184.329507,-8438.347739,1378.971896
889.046639,-1924.535449,-9696.697840,0.000000
889.046963,-1258.350101,-8586.388927,-919.314598
889.047287,-888.247130,-7920.203579,-766.095498
889.047611,0.000000,-8808.450710,-1378.971896
889.047935,592.164754,-9474.636058,-1762.019645
889.048259,1406.391290,-8438.347739,-1149.143247
889.048583,814.226536,-7994.224174,-459.657299
889.048907,74.020594,-9252.574275,-612.876398
889.049232,-222.061783,-10955.047942,153.219100
889.049556,0.000000,-10881.027347,459.657299
889.049880,222.061783,-10066.800811,536.266849
889.050204,1110.308913,-10658.965565,1838.629195
889.050528,2590.720797,-11473.192101,2374.896044
889.050852,3701.029710,-11103.089130,2221.676944
889.051176,2072.576638,-9474.636058,612.876398
889.051501,-444.123565,-9844.739029,0.000000
889.051825,-1628.453072,-10955.047942,-1072.533697
889.052149,-1850.514855,-10288.862594,-1608.800546
889.052473,-1702.473667,-9326.594869,-1915.238745
889.052797,-1554.432478,-9400.615463,-1762.019645
889.053121,0.000000,-9770.718434,-2221.676944
889.053445,1036.288319,-9844.739029,-1915.238745
889.053769,148.041188,-9178.553681,-1225.752797
889.054094,-740.205942,-9622.677246,-766.095498
889.054418,-1184.329507,-10288.862594,-153.219100
889.054742,-740.205942,-10214.842000,-383.047749
889.055066,-592.164754,-9400.615463,383.047749
889.055390,-740.205942,-9770.718434,995.924147
889.055714,0.000000,-10584.944971,842.705048
889.056038,1850.514855,-10288.862594,306.438199
889.056363,1776.494261,-8586.388927,383.047749
889.056687,-592.164754,-8586.388927,-76.609550
889.057011,-2146.597232,-9992.780217,-1149.143247
889.057335,-1702.473667,-9918.759623,-1455.581446
889.057659,-1332.370696,-8438.347739,-2068.457845
889.057983,-592.164754,-9030.512492,-919.314598
889.058307,592.164754,-9548.656652,-1455.581446
889.058631,1628.453072,-9252.574275,-1302.362347
889.058956,1332.370696,-8142.265362,-1378.971896
889.059280,0.000000,-8808.450710,-1302.362347
889.059604,-370.102971,-10214.842000,-766.095498
889.059928,-444.123565,-10510.924376,-612.876398
889.060252,-518.144159,-8956.491898,0.000000
889.060576,-370.102971,-9030.512492,536.266849
889.060900,518.144159,-10881.027347,459.657299
889.061225,2442.679609,-11029.068536,0.000000
889.061549,2294.638420,-9400.615463,0.000000
889.061873,370.102971,-8882.471304,76.609550
889.062197,-814.226536,-10362.883188,-612.876398
889.062521,-962.267725,-10658.965565,-1302.362347
889.062845,-370.102971,-9844.739029,-995.924147
889.063169,0.000000,-9326.594869,-842.705048
889.063493,592.164754,-10436.903782,-1225.752797
889.063818,1776.494261,-10436.903782,-459.657299
889.064142,1998.556043,-9474.636058,0.000000
889.064466,888.247130,-9252.574275,-536.266849
889.064790,-148.041188,-10362.883188,0.000000
889.065114,-1184.329507,-10510.924376,229.828649
889.065438,-1036.288319,-10436.903782,459.657299
889.065762,-962.267725,-10214.842000,383.047749
889.066087,-296.082377,-10955.047942,689.485948
889.066411,888.247130,-10732.986159,459.657299
889.066735,1332.370696,-9992.780217,536.266849
889.067059,-296.082377,-9696.697840,689.485948
889.067383,-1924.535449,-10362.883188,0.000000
889.067707,-2368.659014,-10510.924376,0.000000
889.068031,-1998.556043,-9326.594869,-383.047749
889.068355,-1554.432478,-9474.636058,0.000000
889.068680,-444.123565,-10436.903782,306.438199
889.069004,740.205942,-10288.862594,459.657299
889.069328,814.226536,-8586.388927,766.095498
889.069652,-222.061783,-8068.244768,383.047749
889.069976,-962.267725,-8586.388927,612.876398
889.070300,-2072.576638,-9400.615463,536.266849
889.070624,-2072.576638,-8956.491898,229.828649
889.070949,-1702.473667,-8438.347739,689.485948
889.071273,-888.247130,-9474.636058,995.924147
889.071597,814.226536,-9548.656652,612.876398
889.071921,1036.288319,-7994.224174,306.438199
889.072245,-888.247130,-7254.018232,153.219100
889.072569,-1702.473667,-9400.615463,229.828649
889.072893,-1776.494261,-9918.759623,-383.047749
889.073217,-1110.308913,-9252.574275,306.438199
889.073542,-444.123565,-9326.594869,766.095498
889.073866,1480.411884,-10732.986159,919.314598
889.074190,3849.070898,-11177.109724,1532.190996
889.074514,4219.173869,-9696.697840,1378.971896
889.074838,2664.741391,-9252.574275,1378.971896
889.075162,740.205942,-10288.862594,1302.362347
889.075486,0.000000,-11399.171507,1225.752797
889.075811,0.000000,-9992.780217,995.924147
889.076135,-222.061783,-9030.512492,383.047749
889.076459,0.000000,-9770.718434,153.219100
889.076783,1776.494261,-10658.965565,919.314598
889.077107,2368.659014,-9326.594869,153.219100
889.077431,1036.288319,-8142.265362,229.828649
889.077755,-1776.494261,-8364.327145,-766.095498
889.078079,-2590.720797,-9696.697840,-919.314598
889.078404,-1924.535449,-9326.594869,-766.095498
889.078728,-814.226536,-8882.471304,-766.095498
889.079052,148.041188,-9548.656652,0.000000
889.079376,1406.391290,-10066.800811,-306.438199
889.079700,2220.617826,-9400.615463,76.609550
889.080024,1184.329507,-9030.512492,536.266849
889.080348,-296.082377,-10140.821405,0.000000
889.080673,-1036.288319,-11251.130318,0.000000
889.080997,-1554.432478,-10584.944971,-153.219100
889.081321,-1702.473667,-9622.677246,0.000000
889.081645,-740.205942,-10436.903782,459.657299
889.081969,74.020594,-10955.047942,-1072.533697
889.082293,1184.329507,-10214.842000,-995.924147
889.082617,666.185348,-8290.306550,-1378.971896
889.082941,-962.267725,-9326.594869,-1149.143247
889.083266,-1628.453072,-10140.821405,-1455.581446
889.083590,-1332.370696,-9622.677246,-1762.019645
889.083914,-1924.535449,-8438.347739,-2221.676944
889.084238,-1628.453072,-8956.491898,-2221.676944
889.084562,-148.041188,-9918.759623,-1915.238745
889.084886,1406.391290,-9400.615463,-995.924147
889.085210,1554.432478,-8586.388927,-612.876398
889.085534,148.041188,-9400.615463,-536.266849
889.085859,-814.226536,-10584.944971,-383.047749
889.086183,-814.226536,-9992.780217,-153.219100
889.086507,296.082377,-9474.636058,-766.095498
889.086831,962.267725,-10066.800811,-842.705048
889.087155,2812.782580,-10807.006753,-536.266849
889.087479,3997.112087,-9918.759623,-459.657299
889.087803,3182.885551,-9326.594869,-689.485948
889.088128,1110.308913,-9696.697840,-1685.410096
889.088452,-370.102971,-11251.130318,-2374.896044
889.088776,-1702.473667,-10584.944971,-2298.286494
889.089100,-2072.576638,-9696.697840,-3064.381992
889.089424,-1924.535449,-9622.677246,-2298.286494
889.089748,-518.144159,-10584.944971,-1225.752797
889.090072,1554.432478,-10362.883188,-995.924147
889.090396,1554.432478,-9178.553681,-536.266849
889.090721,0.000000,-9104.533087,76.609550
889.091045,-1184.329507,-10140.821405,689.485948
889.091369,-1184.329507,-10140.821405,1072.533697
889.091693,-1480.411884,-8808.450710,1072.533697
889.092017,-370.102971,-9548.656652,766.095498
889.092341,814.226536,-9844.739029,306.438199
889.092665,2072.576638,-9400.615463,306.438199
889.092990,1702.473667,-8142.265362,0.000000
889.093314,222.061783,-8586.388927,-612.876398
889.093638,-1332.370696,-9770.718434,-1149.143247
889.093962,-2220.617826,-9918.759623,-995.924147
889.094286,-2886.803174,-8660.409521,-1378.971896
889.094610,-2664.741391,-9178.553681,-1072.533697
889.094934,-1554.432478,-10436.903782,0.000000
889.095258,592.164754,-10658.965565,919.314598
889.095583,1184.329507,-9622.677246,1225.752797
889.095907,0.000000,-9400.615463,1762.019645
889.096231,-1776.494261,-10436.903782,1991.848295
889.096555,-1850.514855,-10955.047942,1532.190996
889.096879,-1332.370696,-9844.739029,1762.019645
889.097203,-296.082377,-9252.574275,1685.410096
889.097527,296.082377,-10066.800811,1608.800546
889.097852,1554.432478,-10288.862594,1532.190996
889.098176,1924.535449,-9252.574275,612.876398
889.098500,962.267725,-8586.388927,-306.438199
889.098824,-296.082377,-8660.409521,0.000000
889.099148,-1480.411884,-9252.574275,-612.876398
889.099472,-1998.556043,-9178.553681,-842.705048
889.099796,-1850.514855,-8438.347739,-689.485948
889.100120,-666.185348,-9770.718434,229.828649
889.100445,1480.411884,-10140.821405,536.266849
889.100769,2590.720797,-8660.409521,1149.143247
889.101093,2294.638420,-8364.327145,2451.505594
889.101417,1110.308913,-9696.697840,2757.943793
889.101741,222.061783,-10881.027347,2528.115143
889.102065,0.000000,-10214.842000,2604.724693
889.102389,444.123565,-9474.636058,2604.724693
889.102714,1924.535449,-10288.862594,2068.457845
889.103038,2960.823768,-10436.903782,1072.533697
889.103362,2368.659014,-9178.553681,383.047749
889.103686,592.164754,-8586.388927,-842.705048
889.104010,-1110.308913,-9400.615463,-1532.190996
889.104334,-1850.514855,-10066.800811,-1915.238745
889.104658,-1998.556043,-9474.636058,-2451.505594
889.104982,-1776.494261,-8956.491898,-2298.286494
889.105307,-1184.329507,-9992.780217,-1762.019645
889.105631,740.205942,-10584.944971,-995.924147
889.105955,1702.473667,-9326.594869,-459.657299
889.106279,1332.370696,-8882.471304,1532.190996
889.106603,148.041188,-10066.800811,1991.848295
889.106927,0.000000,-11177.109724,1838.629195
889.107251,-592.164754,-10362.883188,1608.800546
889.107576,-962.267725,-9474.636058,1072.533697
889.107900,0.000000,-10140.821405,919.314598
889.108224,2294.638420,-9992.780217,76.609550
889.108548,1850.514855,-7846.182985,-536.266849
889.108872,0.000000,-7550.100608,-2221.676944
889.109196,-2146.597232,-9030.512492,-2604.724693
889.109520,-2886.803174,-10362.883188,-3753.867940
889.109844,-3034.844362,-9474.636058,-3830.477490
889.110169,-3404.947333,-9030.512492,-3830.477490
889.110493,-2812.782580,-9844.739029,-2911.162892
889.110817,-666.185348,-10955.047942,-2374.896044
889.111141,1480.411884,-10584.944971,-1072.533697
889.111465,1036.288319,-8660.409521,-306.438199
889.111789,444.123565,-9844.739029,612.876398
889.112113,0.000000,-11251.130318,1072.533697
889.112438,296.082377,-10362.883188,1072.533697
889.112762,518.144159,-9918.759623,1608.800546
889.113086,444.123565,-11029.068536,1455.581446
889.113410,2368.659014,-9992.780217,229.828649
889.113734,3182.885551,-7994.224174,-766.095498
889.114058,2146.597232,-7698.141797,-919.314598
889.114382,444.123565,-9622.677246,-2451.505594
889.114706,-740.205942,-10362.883188,-3600.648841
889.115031,-2368.659014,-9178.553681,-3907.087040
889.115355,-3330.926739,-7920.203579,-3983.696590
889.115679,-1998.556043,-9770.718434,-3753.867940
889.116003,296.082377,-11103.089130,-2298.286494
889.116327,2442.679609,-10436.903782,-842.705048
889.116651,2664.741391,-9178.553681,-306.438199
889.116975,814.226536,-10436.903782,612.876398
889.117300,-666.185348,-11917.315666,1302.362347
889.117624,-666.185348,-11621.233289,1532.190996
889.117948,-962.267725,-10510.924376,2298.286494
889.118272,-740.205942,-11695.253884,2298.286494
889.118596,1258.350101,-11769.274478,1532.190996
889.118920,2738.761985,-9918.759623,1149.143247
889.119244,2368.659014,-8660.409521,153.219100
889.119568,592.164754,-9622.677246,-383.047749
889.119893,-666.185348,-10732.986159,-1302.362347
889.120217,-1702.473667,-9770.718434,-1915.238745
889.120541,-2664.741391,-8216.285956,-1915.238745
889.120865,-3404.947333,-8438.347739,-2604.724693
889.121189,-1110.308913,-10214.842000,-1991.848295
889.121513,962.267725,-9474.636058,-229.828649
889.121837,1554.432478,-8438.347739,1378.971896
889.122162,444.123565,-8660.409521,2221.676944
889.122486,-740.205942,-9918.759623,2681.334243
889.122810,-1480.411884,-9992.780217,2987.772442
889.123134,-1332.370696,-9252.574275,3064.381992
889.123458,-888.247130,-9992.780217,3294.210641
889.123782,444.123565,-10658.965565,3217.601092
889.124106,2072.576638,-9548.656652,3753.867940
889.124430,2590.720797,-7772.162391,3217.601092
889.124755,1258.350101,-6143.709319,612.876398
889.125079,-1332.370696,-6957.935855,-1455.581446
889.125403,-2812.782580,-8734.430116,-1378.971896
889.125727,-2664.741391,-9474.636058,-2374.896044
889.126051,-2146.597232,-9474.636058,-1455.581446
889.126375,-1924.535449,-9474.636058,-536.266849
889.126699,0.000000,-9474.636058,-689.485948
889.127024,962.267725,-8660.409521,-842.705048
889.127348,444.123565,-9104.533087,536.266849
889.127672,222.061783,-9992.780217,2145.067394
889.127996,518.144159,-11325.150913,2298.286494
889.128320,0.000000,-9696.697840,2987.772442
889.128644,-814.226536,-9030.512492,3524.039291
889.128968,0.000000,-10658.965565,2681.334243
889.129292,2294.638420,-11843.295072,2451.505594
889.129617,2886.803174,-9696.697840,1838.629195
889.129941,2886.803174,-7328.038826,536.266849
889.130265,1406.391290,-8290.306550,-383.047749
889.130589,296.082377,-10732.986159,-1762.019645
889.130913,-962.267725,-10436.903782,-3524.039291
889.131237,-2368.659014,-10362.883188,-3983.696590
889.131561,-2442.679609,-10732.986159,-3983.696590
889.131885,-518.144159,-10584.944971,-2911.162892
889.132210,370.102971,-9770.718434,-1915.238745
889.132534,1184.329507,-9178.553681,-1302.362347
889.132858,0.000000,-10436.903782,-153.219100
889.133182,0.000000,-11251.130318,76.609550
889.133506,-592.164754,-10362.883188,919.314598
889.133830,-1258.350101,-9622.677246,1608.800546
889.134154,0.000000,-11917.315666,2681.334243
889.134478,1998.556043,-12583.501014,2068.457845
889.134802,3701.029710,-10214.842000,1838.629195
889.135127,3404.947333,-8660.409521,2068.457845
889.135451,3182.885551,-8586.388927,612.876398
889.135775,2072.576638,-7105.977043,-2987.772442
889.136099,-888.247130,-5403.503377,-4519.963438
889.136423,-4367.215058,-8882.471304,-4673.182538
889.136747,-3478.967927,-11399.171507,-5669.106685
889.137071,-2516.700203,-10732.986159,-4673.182538
889.137395,-3775.050304,-8216.285956,-1532.190996
889.137719,-2664.741391,-7772.162391,-2221.676944
889.138043,-2220.617826,-9696.697840,-2757.943793
889.138367,-1184.329507,-9918.759623,-766.095498
889.138692,74.020594,-8734.430116,306.438199
889.139016,1480.411884,-9622.677246,1072.533697
889.139340,814.226536,-12065.356855,2528.115143
889.139664,1702.473667,-12509.480420,3370.820191
889.139988,4071.132681,-11103.089130,3370.820191
889.140312,4219.173869,-10362.883188,2911.162892
889.140636,3330.926739,-9918.759623,383.047749
889.140960,3034.844362,-6661.853478,-995.924147
889.141284,2146.597232,-4515.256246,-5132.839837
889.141608,-1554.432478,-7994.224174,-4136.915689
889.141932,-2738.761985,-12879.583391,-3907.087040
889.142256,-1332.370696,-12509.480420,-5132.839837
889.142581,-3478.967927,-9770.718434,-3370.820191
889.142905,-4811.338623,-7624.121203,-2757.943793
889.143229,-2960.823768,-10362.883188,-3140.991542
889.143553,-1406.391290,-11547.212695,-1608.800546
889.143877,740.205942,-9474.636058,383.047749
889.144201,1258.350101,-8808.450710,1915.238745
889.144525,666.185348,-11843.295072,2451.505594
889.144849,222.061783,-13323.706956,3524.039291
889.145173,1110.308913,-12287.418637,4136.915689
889.145497,1406.391290,-11399.171507,3217.601092
889.145821,1332.370696,-11029.068536,1991.848295
889.146146,2220.617826,-9326.594869,1225.752797
889.146470,2960.823768,-4811.338623,-1608.800546
889.146794,1776.494261,-5403.503377,-3370.820191
889.147118,-888.247130,-11177.109724,-1302.362347
889.147442,296.082377,-13323.706956,-2068.457845
889.147766,444.123565,-11325.150913,-3370.820191
889.148090,-3849.070898,-7624.121203,0.000000
889.148414,-4515.256246,-8512.368333,0.000000
889.148738,-2368.659014,-11917.315666,-383.047749
889.149062,-222.061783,-10362.883188,306.438199
889.149386,0.000000,-6439.791695,2451.505594
889.149711,370.102971,-7254.018232,3447.429741
889.150035,148.041188,-12139.377449,4673.182538
889.150359,222.061783,-11473.192101,4979.620737
889.150683,296.082377,-9030.512492,4519.963438
889.151007,-148.041188,-9326.594869,3524.039291
889.151331,222.061783,-10510.924376,2298.286494
889.151655,1998.556043,-6809.894666,2374.896044
889.151979,2812.782580,-2664.741391,-459.657299
889.152303,666.185348,-5995.668130,-1225.752797
889.152627,-1850.514855,-11917.315666,-842.705048
889.152951,222.061783,-13175.665768,-1532.190996
889.153276,-814.226536,-8734.430116,-1762.019645
889.153600,-4885.359217,-7698.141797,1149.143247
889.153924,-4441.235652,-9770.718434,0.000000
889.154248,-1554.432478,-10732.986159,-459.657299
889.154572,0.000000,-7994.224174,306.438199
889.154896,1036.288319,-6883.915261,2757.943793
889.155220,2368.659014,-9770.718434,3524.039291
889.155544,3108.864956,-11399.171507,4366.744339
889.155868,2664.741391,-9918.759623,5132.839837
889.156192,1776.494261,-9252.574275,3677.258390
889.156516,592.164754,-9252.574275,0.000000
889.156841,-222.061783,-8734.430116,-2528.115143
889.157165,-296.082377,-9622.677246,-1608.800546
889.157489,2220.617826,-11103.089130,-919.314598
889.157813,3701.029710,-12879.583391,-1915.238745
889.158137,1258.350101,-11325.150913,-1072.533697
889.158461,-814.226536,-9474.636058,-1915.238745
889.158785,-2738.761985,-9992.780217,-3447.429741
889.159109,-3997.112087,-11547.212695,-2834.553343
889.159433,-2442.679609,-11621.233289,-842.705048
889.159757,-296.082377,-9474.636058,306.438199
889.160081,222.061783,-10510.924376,842.705048
889.160406,0.000000,-11177.109724,1762.019645
889.160730,814.226536,-10066.800811,1685.410096
889.161054,444.123565,-9104.533087,689.485948
889.161378,-1702.473667,-9770.718434,0.000000
889.161702,-1776.494261,-10066.800811,-919.314598
889.162026,222.061783,-8882.471304,-1838.629195
889.162350,1036.288319,-8586.388927,-2221.676944
889.162674,1480.411884,-10066.800811,-1838.629195
889.162998,1776.494261,-10658.965565,-3217.601092
889.163322,2294.638420,-9918.759623,-2681.334243
889.163646,888.247130,-9104.533087,-2604.724693
889.163971,-962.267725,-9474.636058,-2298.286494
889.164295,-1628.453072,-10436.903782,-1915.238745
889.164619,-1110.308913,-10436.903782,-1302.362347
889.164943,-296.082377,-9474.636058,-1225.752797
889.165267,-888.247130,-8660.409521,-536.266849
889.165591,0.000000,-9696.697840,1149.143247
889.165915,1184.329507,-9992.780217,1455.581446
889.166239,444.123565,-8290.306550,306.438199
889.166563,-1332.370696,-7105.977043,0.000000
889.166887,-2072.576638,-8660.409521,-1532.190996
889.167211,-1776.494261,-8882.471304,-1608.800546
889.167535,-518.144159,-8216.285956,-1991.848295
889.167860,370.102971,-7772.162391,-1915.238745
889.168184,1480.411884,-9030.512492,-1838.629195
889.168508,2220.617826,-9696.697840,-2068.457845
889.168832,1406.391290,-9252.574275,-2068.457845
889.169156,-148.041188,-9104.533087,-1991.848295
889.169480,-1628.453072,-10140.821405,-766.095498
889.169804,-962.267725,-11621.233289,-383.047749
889.170128,0.000000,-10362.883188,-306.438199
889.170452,740.205942,-9844.739029,1149.143247
889.170776,1110.308913,-11843.295072,1838.629195
889.171100,2146.597232,-13027.624579,1532.190996
889.171425,2072.576638,-10955.047942,1225.752797
889.171749,222.061783,-8882.471304,1149.143247
889.172073,-962.267725,-10140.821405,1685.410096
889.172397,-1184.329507,-11621.233289,153.219100
889.172721,-1480.411884,-10584.944971,-153.219100
889.173045,-1332.370696,-9548.656652,-766.095498
889.173369,-592.164754,-10214.842000,-612.876398
889.173693,1110.308913,-9918.759623,0.000000
889.174017,2146.597232,-9178.553681,536.266849
889.174341,-222.061783,-8290.306550,-153.219100
889.174665,-2442.679609,-9474.636058,383.047749
889.174990,-2590.720797,-10732.986159,766.095498
889.175314,-1554.432478,-10066.800811,1532.190996
889.175638,-370.102971,-9326.594869,2145.067394
889.175962,814.226536,-9992.780217,3524.039291
889.176286,2294.638420,-10807.006753,4136.915689
889.176610,3627.009116,-10140.821405,2911.162892
889.176934,1850.514855,-8068.244768,3294.210641
889.177258,-888.247130,-8068.244768,1915.238745
889.177582,-1332.370696,-9178.553681,1225.752797
889.177906,-1110.308913,-8882.471304,459.657299
889.178230,-666.185348,-7698.141797,76.609550
889.178555,-148.041188,-8068.244768,383.047749
889.178879,1258.350101,-9400.615463,153.219100
889.179203,1480.411884,-7624.121203,153.219100
889.179527,444.123565,-7105.977043,0.000000
889.179851,-888.247130,-7920.203579,995.924147
889.180175,-1702.473667,-10066.800811,689.485948
889.180499,-1332.370696,-9918.759623,842.705048
889.180823,-814.226536,-8586.388927,1455.581446
889.181147,0.000000,-9622.677246,2451.505594
889.181471,592.164754,-11029.068536,2451.505594
889.181795,74.020594,-9992.780217,1608.800546
889.182120,-296.082377,-8290.306550,1149.143247
889.182444,-1480.411884,-9474.636058,0.000000
889.182768,-1406.391290,-10955.047942,-536.266849
889.183092,-1258.350101,-10288.862594,-1072.533697
889.183416,-1480.411884,-9104.533087,-1149.143247
889.183740,-814.226536,-9104.533087,-1915.238745
889.184064,962.267725,-10584.944971,-1685.410096
889.184388,2146.597232,-10732.986159,-1072.533697
889.184712,1628.453072,-9326.594869,-1072.533697
889.185036,148.041188,-9992.780217,-459.657299
889.185360,-444.123565,-11399.171507,-306.438199
889.185685,-370.102971,-11251.130318,-459.657299
889.186009,0.000000,-9548.656652,-306.438199
889.186333,222.061783,-9770.718434,76.609550
889.186657,1850.514855,-10881.027347,0.000000
889.186981,2886.803174,-9844.739029,536.266849
889.187305,1776.494261,-8956.491898,-383.047749
889.187629,-740.205942,-8882.471304,-1149.143247
889.187953,-1924.535449,-10288.862594,-2451.505594
889.188277,-1924.535449,-10584.944971,-2681.334243
889.188601,-1628.453072,-9474.636058,-3140.991542
889.188925,-2072.576638,-9178.553681,-1991.848295
889.189250,-1184.329507,-9992.780217,-2221.676944
889.189574,592.164754,-10140.821405,-1685.410096
889.189898,888.247130,-9400.615463,-1455.581446
889.190222,222.061783,-9770.718434,-1532.190996
889.190546,0.000000,-10584.944971,-689.485948
889.190870,518.144159,-10955.047942,0.000000
889.191194,1036.288319,-9918.759623,536.266849
889.191518,1036.288319,-9326.594869,459.657299
889.191842,1702.473667,-10362.883188,306.438199
889.192166,2220.617826,-10436.903782,-153.219100
889.192490,1702.473667,-9030.512492,-689.485948
889.192814,0.000000,-8660.409521,-612.876398
889.193139,-1110.308913,-9770.718434,-1072.533697
889.193463,-2072.576638,-9474.636058,-2068.457845
889.193787,-2368.659014,-7772.162391,-3064.381992
889.194111,-2072.576638,-7105.977043,-1991.848295
889.194435,0.000000,-8660.409521,-919.314598
889.194759,1406.391290,-8956.491898,-919.314598
889.195083,1702.473667,-8216.285956,-153.219100
889.195407,518.144159,-8068.244768,0.000000
889.195731,-592.164754,-9400.615463,-383.047749
889.196055,-1036.288319,-10732.986159,229.828649
889.196379,-814.226536,-10140.821405,689.485948
889.196704,-370.102971,-9770.718434,383.047749
889.197028,666.185348,-11621.233289,842.705048
889.197352,2442.679609,-11325.150913,383.047749
889.197676,2812.782580,-10362.883188,153.219100
889.198000,592.164754,-10658.965565,153.219100
889.198324,-1480.411884,-11843.295072,-536.266849
889.198648,-1776.494261,-11399.171507,-766.095498
889.198972,-1776.494261,-10214.842000,-612.876398
889.199296,-1036.288319,-9474.636058,-612.876398
889.199620,444.123565,-10584.944971,229.828649
889.199944,2146.597232,-10807.006753,919.314598
889.200269,2368.659014,-9696.697840,612.876398
889.200593,1036.288319,-9548.656652,1072.533697
889.200917,0.000000,-10510.924376,1378.971896
889.201241,-814.226536,-10955.047942,1608.800546
889.201565,-888.247130,-9548.656652,689.485948
889.201889,-1184.329507,-8956.491898,1608.800546
889.202213,-444.123565,-9844.739029,1838.629195
889.202537,888.247130,-9992.780217,842.705048
889.202861,814.226536,-8512.368333,766.095498
889.203185,-296.082377,-8142.265362,536.266849
889.203509,-1850.514855,-9696.697840,306.438199
889.203834,-2368.659014,-9918.759623,383.047749
889.204158,-2072.576638,-8290.306550,459.657299
889.204482,-1628.453072,-7698.141797,842.705048
889.204806,-296.082377,-9104.533087,1302.362347
889.205130,2072.576638,-10510.924376,2145.067394
889.205454,2442.679609,-8808.450710,2681.334243
889.205778,1628.453072,-7550.100608,2374.896044
889.206102,-296.082377,-8512.368333,2221.676944
889.206426,-1554.432478,-9770.718434,1991.848295
889.206750,-1924.535449,-9030.512492,1532.190996
889.207074,-2072.576638,-7402.059420,1149.143247
889.207399,-1776.494261,-8216.285956,995.924147
889.207723,-444.123565,-9030.512492,842.705048
889.208047,740.205942,-8216.285956,229.828649
889.208371,148.041188,-7402.059420,0.000000
889.208695,-1258.350101,-8660.409521,229.828649
889.209019,-1332.370696,-10732.986159,76.609550
889.209343,-814.226536,-9400.615463,459.657299
889.209667,0.000000,-8660.409521,459.657299
889.209991,1184.329507,-9696.697840,1762.019645
889.210315,3256.906145,-11621.233289,1225.752797
889.210639,3775.050304,-10510.924376,1455.581446
889.210964,2664.741391,-9104.533087,995.924147
889.211288,814.226536,-9474.636058,689.485948
889.211612,-592.164754,-10807.006753,-536.266849
889.211936,-1850.514855,-10732.986159,-1149.143247
889.212260,-1702.473667,-10214.842000,-1455.581446
889.212584,-1332.370696,-10881.027347,-1532.190996
889.212908,148.041188,-10955.047942,-1915.238745
889.213232,1480.411884,-10362.883188,-1991.848295
889.213556,1036.288319,-9326.594869,-1838.629195
889.213880,0.000000,-9844.739029,-1532.190996
889.214204,-518.144159,-12509.480420,-1685.410096
889.214529,-1110.308913,-11103.089130,-1302.362347
889.214853,-740.205942,-9992.780217,-1762.019645
889.215177,74.020594,-10584.944971,-919.314598
889.215501,2220.617826,-12139.377449,-612.876398
889.215825,3552.988522,-11325.150913,-612.876398
889.216149,2738.761985,-9548.656652,-536.266849
889.216473,814.226536,-9030.512492,-689.485948
889.216797,-592.164754,-10214.842000,-1838.629195
889.217121,-1332.370696,-10214.842000,-1455.581446
889.217445,-2146.597232,-8808.450710,-2374.896044
889.217769,-1406.391290,-8882.471304,-2298.286494
889.218094,592.164754,-9548.656652,-1991.848295
889.218418,2368.659014,-8586.388927,-2068.457845
889.218742,2072.576638,-7031.956449,-1685.410096
889.219066,222.061783,-7698.141797,-1225.752797
889.219390,-666.185348,-9918.759623,-1608.800546
889.219714,-1110.308913,-9474.636058,-1838.629195
889.220038,-1776.494261,-7920.203579,-1685.410096
889.220362,-1406.391290,-8734.430116,-1072.533697
889.220686,-370.102971,-10658.965565,-689.485948
889.221010,666.185348,-10214.842000,-383.047749
889.221334,0.000000,-8956.491898,306.438199
889.221658,-888.247130,-9326.594869,153.219100
889.221983,-1480.411884,-10584.944971,-536.266849
889.222307,-1850.514855,-10362.883188,-689.485948
889.222631,-2072.576638,-9326.594869,-383.047749
889.222955,-1480.411884,-9770.718434,-153.219100
889.223279,666.185348,-10658.965565,-612.876398
889.223603,2294.638420,-9770.718434,536.266849
889.223927,1776.494261,-8512.368333,0.000000
889.224251,296.082377,-9104.533087,-842.705048
889.224575,-518.144159,-10214.842000,-612.876398
889.224899,-888.247130,-10436.903782,-919.314598
889.225223,-1332.370696,-9696.697840,-459.657299
889.225548,-962.267725,-10140.821405,76.609550
889.225872,296.082377,-10807.006753,1225.752797
889.226196,1628.453072,-10510.924376,1072.533697
889.226520,1184.329507,-9474.636058,1455.581446
889.226844,0.000000,-9474.636058,1685.410096
889.227168,-1406.391290,-11103.089130,1915.238745
889.227492,-1184.329507,-11399.171507,1991.848295
889.227816,-1480.411884,-9918.759623,1762.019645
889.228140,-1258.350101,-8734.430116,2145.067394
889.228464,-222.061783,-9992.780217,1685.410096
889.228788,1258.350101,-10732.986159,1608.800546
889.229113,592.164754,-9474.636058,766.095498
889.229437,-1184.329507,-8734.430116,612.876398
889.229761,-2516.700203,-9622.677246,153.219100
889.230085,-2072.576638,-9844.739029,0.000000
889.230409,-814.226536,-8734.430116,0.000000
889.230733,592.164754,-8290.306550,766.095498
889.231057,1406.391290,-9326.594869,2374.896044
889.231381,3330.926739,-9252.574275,2681.334243
889.231705,3849.070898,-7846.182985,2451.505594
889.232029,1998.556043,-7402.059420,2528.115143
889.232353,444.123565,-9104.533087,2681.334243
889.232678,-148.041188,-9918.759623,2145.067394
889.233002,-888.247130,-8586.388927,1762.019645
889.233326,-518.144159,-7402.059420,2145.067394
889.233650,-296.082377,-9104.533087,1072.533697
889.233974,962.267725,-9548.656652,919.314598
889.234298,1406.391290,-8290.306550,0.000000
889.234622,-222.061783,-7550.100608,-536.266849
889.234946,-1850.514855,-9770.718434,-1149.143247
889.235270,-2146.597232,-10955.047942,-1149.143247
889.235594,-2072.576638,-9622.677246,-1532.190996
889.235918,-1850.514855,-9104.533087,-1455.581446
889.236242,370.102971,-11547.212695,-383.047749
889.236566,2146.597232,-12361.439231,459.657299
889.236890,3108.864956,-11029.068536,689.485948
889.237214,1776.494261,-9696.697840,1608.800546
889.237538,444.123565,-11547.212695,1915.238745
889.237863,0.000000,-12805.562797,1685.410096
889.238187,-222.061783,-11251.130318,1225.752797
889.238511,-444.123565,-8956.491898,919.314598
889.238835,74.020594,-8956.491898,76.609550
889.239159,1924.535449,-9548.656652,-842.705048
889.239483,2072.576638,-8142.265362,-1685.410096
889.239807,370.102971,-6957.935855,-2068.457845
889.240131,-1480.411884,-8216.285956,-3064.381992
889.240455,-2442.679609,-9400.615463,-3370.820191
889.240779,-3849.070898,-8438.347739,-3217.601092
889.241103,-3034.844362,-8660.409521,-3524.039291
889.241427,-1998.556043,-9844.739029,-2757.943793
889.241751,592.164754,-11473.192101,-612.876398
889.242075,2368.659014,-10955.047942,306.438199
889.242399,1998.556043,-10288.862594,459.657299
889.242723,0.000000,-11547.212695,919.314598
889.243047,-962.267725,-12361.439231,689.485948
889.243372,-1036.288319,-11325.150913,0.000000
889.243696,-370.102971,-10510.924376,766.095498
889.244020,148.041188,-10214.842000,-306.438199
889.244344,1776.494261,-9770.718434,-1302.362347
889.244668,2072.576638,-8660.409521,-1838.629195
889.244992,666.185348,-8734.430116,-2681.334243
889.245316,-1184.329507,-9252.574275,-3830.477490
889.245640,-2072.576638,-9992.780217,-3830.477490
889.245964,-2294.638420,-8808.450710,-2451.505594
889.246288,-2072.576638,-8216.285956,-2911.162892
889.246612,-1110.308913,-8808.450710,-1838.629195
889.246936,1036.288319,-9474.636058,-536.266849
889.247260,2590.720797,-9252.574275,0.000000
889.247584,2220.617826,-7772.162391,612.876398
889.247908,296.082377,-8438.347739,1225.752797
889.248232,-518.144159,-10510.924376,1149.143247
889.248556,-296.082377,-10510.924376,1455.581446
889.248880,148.041188,-9622.677246,1455.581446
889.249205,518.144159,-10140.821405,1532.190996
889.249529,1776.494261,-9918.759623,842.705048
889.249853,2146.597232,-8734.430116,-383.047749
889.250177,740.205942,-8808.450710,-1225.752797
889.250501,-1258.350101,-10658.965565,-1532.190996
889.250825,-1480.411884,-11843.295072,-2451.505594
889.251149,-2220.617826,-10807.006753,-1378.971896
889.251473,-2960.823768,-9918.759623,-1225.752797
889.251797,-1924.535449,-10584.944971,-689.485948
889.252121,370.102971,-11695.253884,0.000000
889.252445,2738.761985,-10807.006753,612.876398
889.252769,3034.844362,-9326.594869,1072.533697
889.253093,2368.659014,-9400.615463,3294.210641
889.253417,1332.370696,-10658.965565,3677.258390
889.253741,0.000000,-10288.862594,2757.943793
889.254065,-2146.597232,-8512.368333,2451.505594
889.254389,-3182.885551,-8882.471304,1685.410096
889.254714,-1924.535449,-9622.677246,919.314598
889.255038,148.041188,-7994.224174,1225.752797
889.255362,74.020594,-7031.956449,383.047749
889.255686,-1036.288319,-7550.100608,0.000000
889.256010,-2146.597232,-8956.491898,-919.314598
889.256334,-2072.576638,-8956.491898,-1072.533697
889.256658,-1702.473667,-8068.244768,-995.924147
889.256982,-962.267725,-9030.512492,0.000000
889.257306,962.267725,-10955.047942,1455.581446
889.257630,3552.988522,-10881.027347,1762.019645
889.257954,4441.235652,-9548.656652,2451.505594
889.258278,2590.720797,-9474.636058,2911.162892
889.258602,592.164754,-10955.047942,2987.772442
889.258926,-518.144159,-11325.150913,2757.943793
889.259250,-1628.453072,-9770.718434,2451.505594
889.259574,-2442.679609,-9252.574275,2221.676944
889.259898,-1776.494261,-9622.677246,1532.190996
889.260223,0.000000,-9104.533087,1455.581446
889.260547,-518.144159,-6957.935855,-306.438199
889.260871,-1850.514855,-5773.606348,-995.924147
889.261195,-3182.885551,-7254.018232,-1762.019645
889.261519,-2664.741391,-8956.491898,-2374.896044
889.261843,-1480.411884,-8068.244768,-2987.772442
889.262167,-592.164754,-8290.306550,-2528.115143
889.262491,1406.391290,-10510.924376,-995.924147
889.262815,3775.050304,-12139.377449,-229.828649
889.263139,4959.379811,-11769.274478,76.609550
889.263463,4293.194464,-10584.944971,1455.581446
889.263787,3108.864956,-12509.480420,1915.238745
889.264111,2368.659014,-14434.015869,2451.505594
889.264435,1480.411884,-12805.562797,2221.676944
889.264759,-518.144159,-11103.089130,1838.629195
889.265083,-1702.473667,-10881.027347,1072.533697
889.265407,-1554.432478,-10732.986159,229.828649
889.265732,-1332.370696,-8660.409521,-919.314598
889.266056,-2664.741391,-7031.956449,-1762.019645
889.266380,-4145.153275,-7846.182985,-2604.724693
889.266704,-3775.050304,-8882.471304,-3983.696590
889.267028,-2812.782580,-7698.141797,-4366.744339
889.267352,-1924.535449,-6957.935855,-3294.210641
889.267676,-962.267725,-8586.388927,-2528.115143
889.268000,888.247130,-11029.068536,-2221.676944
889.268324,2368.659014,-10732.986159,-1225.752797
889.268648,3404.947333,-10584.944971,0.000000
889.268972,3923.091493,-11399.171507,1302.362347
889.269296,4589.276840,-11843.295072,1838.629195
889.269620,4737.318029,-10510.924376,2298.286494
889.269944,2960.823768,-9770.718434,2987.772442
889.270268,1702.473667,-10807.006753,1915.238745
889.270592,888.247130,-10881.027347,766.095498
889.270916,0.000000,-8068.244768,-536.266849
889.271240,-1850.514855,-6661.853478,-1608.800546
889.271565,-3404.947333,-7476.080014,-2757.943793
889.271889,-3997.112087,-8142.265362,-2604.724693
889.272213,-3849.070898,-7550.100608,-4596.572988
889.272537,-3552.988522,-6809.894666,-4213.525239
889.272861,-2368.659014,-8068.244768,-3524.039291
889.273185,148.041188,-10214.842000,-2221.676944
889.273509,2368.659014,-10584.944971,-995.924147
889.273833,2516.700203,-10288.862594,536.266849
889.274157,2072.576638,-11695.253884,1838.629195
