#time,accel_x,accel_y,accel_z
468.970993,4293.194464,-10658.965565,306.438199
468.971317,2442.679609,-11251.130318,842.705048
468.971642,222.061783,-11547.212695,2068.457845
468.971966,-1258.350101,-12065.356855,1762.019645
468.972290,-2516.700203,-12361.439231,842.705048
468.972614,-3923.091493,-10140.821405,919.314598
468.972938,-4219.173869,-7624.121203,1149.143247
468.973262,-3108.864956,-6513.812290,919.314598
468.973586,-1332.370696,-6661.853478,536.266849
468.973910,222.061783,-7031.956449,1915.238745
468.974234,2146.597232,-7772.162391,1378.971896
468.974558,3775.050304,-7994.224174,459.657299
468.974882,4663.297435,-9400.615463,0.000000
468.975206,5847.626942,-11621.233289,229.828649
468.975530,5773.606348,-13323.706956,76.609550
468.975854,4885.359217,-14063.912898,919.314598
468.976178,3108.864956,-12953.603985,1149.143247
468.976502,1406.391290,-12065.356855,689.485948
468.976827,962.267725,-11695.253884,0.000000
468.977151,1036.288319,-10807.006753,1072.533697
468.977475,1406.391290,-10362.883188,1455.581446
468.977799,740.205942,-9548.656652,2068.457845
468.978123,740.205942,-8882.471304,2451.505594
468.978447,0.000000,-8142.265362,1072.533697
468.978771,-296.082377,-8142.265362,536.266849
468.979095,370.102971,-9030.512492,-229.828649
468.979419,1406.391290,-9918.759623,0.000000
468.979743,2220.617826,-9992.780217,383.047749
468.980067,2886.803174,-9992.780217,689.485948
468.980391,2886.803174,-9400.615463,689.485948
468.980715,2960.823768,-9622.677246,1378.971896
468.981039,3108.864956,-9844.739029,612.876398
468.981363,3627.009116,-9696.697840,1838.629195
468.981688,3849.070898,-9474.636058,2681.334243
468.982012,4367.215058,-9474.636058,3370.820191
468.982336,4145.153275,-9252.574275,3294.210641
468.982660,3775.050304,-8956.491898,3294.210641
468.982984,3552.988522,-9622.677246,2604.724693
468.983308,3404.947333,-10066.800811,2451.505594
468.983632,3034.844362,-10362.883188,2604.724693
468.983956,3108.864956,-10288.862594,3140.991542
468.984280,2664.741391,-11029.068536,2834.553343
468.984604,1406.391290,-11177.109724,2451.505594
468.984928,222.061783,-10288.862594,2451.505594
468.985252,0.000000,-8660.409521,2221.676944
468.985576,1184.329507,-7846.182985,2834.553343
468.985900,2516.700203,-6957.935855,3447.429741
468.986224,4071.132681,-6513.812290,4213.525239
468.986548,4811.338623,-6439.791695,4443.353888
468.986873,5403.503377,-7179.997637,4290.134789
468.987197,4885.359217,-7698.141797,3677.258390
468.987521,4219.173869,-8068.244768,3294.210641
468.987845,2220.617826,-8660.409521,3294.210641
468.988169,592.164754,-10140.821405,3677.258390
468.988493,-1850.514855,-11399.171507,2834.553343
468.988817,-3404.947333,-11843.295072,2681.334243
468.989141,-3478.967927,-11621.233289,2451.505594
468.989465,-1850.514855,-10732.986159,2757.943793
468.989789,1554.432478,-9696.697840,3600.648841
468.990113,4589.276840,-9178.553681,3753.867940
468.990437,5551.544565,-8586.388927,3677.258390
468.990761,5107.421000,-8808.450710,3600.648841
468.991085,3849.070898,-8956.491898,3064.381992
468.991409,2664.741391,-8808.450710,2834.553343
468.991734,2072.576638,-8956.491898,2221.676944
468.992058,1776.494261,-9030.512492,2757.943793
468.992382,2294.638420,-9622.677246,2528.115143
468.992706,2220.617826,-10584.944971,2834.553343
468.993030,444.123565,-11473.192101,2451.505594
468.993354,-1332.370696,-11399.171507,1608.800546
468.993678,-3775.050304,-10658.965565,1302.362347
468.994002,-4811.338623,-9548.656652,766.095498
468.994326,-4071.132681,-8660.409521,1072.533697
468.994650,-962.267725,-8290.306550,1532.190996
468.994974,3108.864956,-8438.347739,2374.896044
468.995298,5551.544565,-8882.471304,1762.019645
468.995622,5699.585753,-8586.388927,919.314598
468.995946,4737.318029,-8364.327145,-153.219100
468.996270,2812.782580,-8216.285956,-995.924147
468.996594,1776.494261,-8882.471304,-1225.752797
468.996919,1776.494261,-9770.718434,-612.876398
468.997243,2812.782580,-11103.089130,0.000000
468.997567,3182.885551,-11251.130318,842.705048
468.997891,2886.803174,-11621.233289,536.266849
468.998215,814.226536,-11029.068536,-612.876398
468.998539,-1332.370696,-10066.800811,-1225.752797
468.998863,-2368.659014,-9844.739029,-995.924147
468.999187,-1776.494261,-10362.883188,-689.485948
468.999511,-1184.329507,-10436.903782,-536.266849
468.999836,-518.144159,-9770.718434,-766.095498
469.000160,0.000000,-9252.574275,-2145.067394
469.000484,1184.329507,-8290.306550,-2834.553343
469.000808,2812.782580,-7846.182985,-2834.553343
469.001132,4885.359217,-9104.533087,-2145.067394
469.001456,5107.421000,-10288.862594,-995.924147
469.001780,3997.112087,-11769.274478,-536.266849
469.002105,2368.659014,-12435.459826,-536.266849
469.002429,1184.329507,-11843.295072,-689.485948
469.002753,888.247130,-10955.047942,-1378.971896
469.003077,0.000000,-10807.006753,-536.266849
469.003401,-518.144159,-11251.130318,-536.266849
469.003725,-1924.535449,-11325.150913,-383.047749
469.004049,-3627.009116,-10436.903782,-459.657299
469.004374,-3552.988522,-8956.491898,-1225.752797
469.004698,-1998.556043,-7772.162391,-1302.362347
469.005022,962.267725,-7698.141797,0.000000
469.005346,3701.029710,-8882.471304,0.000000
469.005670,4441.235652,-8882.471304,-229.828649
469.005994,2960.823768,-8660.409521,153.219100
469.006318,814.226536,-8956.491898,-306.438199
469.006643,-740.205942,-9400.615463,76.609550
469.006967,-1924.535449,-10214.842000,0.000000
469.007291,-2960.823768,-11177.109724,0.000000
469.007615,-4367.215058,-10362.883188,-459.657299
469.007939,-4737.318029,-9252.574275,-612.876398
469.008263,-3849.070898,-8290.306550,229.828649
469.008587,-1332.370696,-7772.162391,1149.143247
469.008912,148.041188,-8438.347739,2145.067394
469.009236,-222.061783,-9104.533087,2221.676944
469.009560,-1406.391290,-9178.553681,1915.238745
469.009884,-2220.617826,-8512.368333,842.705048
469.010208,-1702.473667,-8142.265362,536.266849
469.010532,0.000000,-9252.574275,459.657299
469.010856,1554.432478,-10584.944971,306.438199
469.011181,1184.329507,-10732.986159,306.438199
469.011505,-370.102971,-10066.800811,-306.438199
469.011829,-1554.432478,-9474.636058,-612.876398
469.012153,-1554.432478,-9030.512492,-229.828649
469.012477,-592.164754,-9474.636058,459.657299
469.012801,222.061783,-9696.697840,995.924147
469.013125,814.226536,-10584.944971,2221.676944
469.013450,1406.391290,-10214.842000,2528.115143
469.013774,2294.638420,-9844.739029,2528.115143
469.014098,2590.720797,-9474.636058,2604.724693
469.014422,1850.514855,-9918.759623,1991.848295
469.014746,-444.123565,-10436.903782,1608.800546
469.015070,-2960.823768,-10658.965565,-536.266849
469.015395,-2664.741391,-9696.697840,-1532.190996
469.015719,-962.267725,-9474.636058,-1915.238745
469.016043,1332.370696,-9548.656652,-612.876398
469.016367,2072.576638,-10214.842000,0.000000
469.016691,1332.370696,-10288.862594,0.000000
469.017015,-518.144159,-9622.677246,153.219100
469.017339,-740.205942,-8438.347739,76.609550
469.017664,1184.329507,-9030.512492,995.924147
469.017988,2738.761985,-8956.491898,2145.067394
469.018312,3330.926739,-10066.800811,2374.896044
469.018636,2220.617826,-9992.780217,1455.581446
469.018960,592.164754,-9474.636058,0.000000
469.019284,74.020594,-9178.553681,-153.219100
469.019608,444.123565,-8882.471304,-842.705048
469.019933,-222.061783,-9474.636058,-689.485948
469.020257,-1258.350101,-9770.718434,-1072.533697
469.020581,-3108.864956,-9326.594869,-1915.238745
469.020905,-2294.638420,-9474.636058,-1762.019645
469.021229,-296.082377,-9326.594869,-1149.143247
469.021553,1776.494261,-9178.553681,0.000000
469.021877,2368.659014,-9252.574275,919.314598
469.022202,1924.535449,-9252.574275,383.047749
469.022526,370.102971,-9252.574275,229.828649
469.022850,592.164754,-9178.553681,0.000000
469.023174,1036.288319,-9548.656652,0.000000
469.023498,1332.370696,-10140.821405,76.609550
469.023822,148.041188,-10436.903782,-306.438199
469.024146,-1554.432478,-10214.842000,-1149.143247
469.024471,-2368.659014,-10140.821405,-1455.581446
469.024795,-2220.617826,-10436.903782,-842.705048
469.025119,-740.205942,-10362.883188,-536.266849
469.025443,0.000000,-10658.965565,-459.657299
469.025767,-1036.288319,-10214.842000,-689.485948
469.026091,-1332.370696,-9696.697840,-1302.362347
469.026415,-518.144159,-9104.533087,-1149.143247
469.026740,888.247130,-8808.450710,-536.266849
469.027064,1850.514855,-9474.636058,76.609550
469.027388,1036.288319,-9770.718434,0.000000
469.027712,-666.185348,-10140.821405,-383.047749
469.028036,-1998.556043,-9992.780217,-689.485948
469.028360,-2146.597232,-9844.739029,-995.924147
469.028684,-1332.370696,-9992.780217,-383.047749
469.029009,-592.164754,-10066.800811,153.219100
469.029333,-1036.288319,-10288.862594,0.000000
469.029657,-1258.350101,-9474.636058,229.828649
469.029981,-1184.329507,-9252.574275,-306.438199
469.030305,-370.102971,-9400.615463,-766.095498
469.030629,666.185348,-9918.759623,0.000000
469.030953,518.144159,-10510.924376,-306.438199
469.031278,-888.247130,-10362.883188,-1072.533697
469.031602,-2368.659014,-9474.636058,-1225.752797
469.031926,-1480.411884,-9474.636058,-689.485948
469.032250,296.082377,-9696.697840,-459.657299
469.032574,1850.514855,-9844.739029,0.000000
469.032898,1258.350101,-10214.842000,306.438199
469.033223,148.041188,-9770.718434,-153.219100
469.033547,-222.061783,-9474.636058,-153.219100
469.033871,370.102971,-8734.430116,0.000000
469.034195,2220.617826,-9770.718434,459.657299
469.034519,1998.556043,-9992.780217,689.485948
469.034843,518.144159,-10214.842000,459.657299
469.035167,-1924.535449,-9918.759623,-689.485948
469.035492,-2738.761985,-9474.636058,-1072.533697
469.035816,-1776.494261,-9326.594869,-459.657299
469.036140,-148.041188,-9622.677246,0.000000
469.036464,666.185348,-9696.697840,-229.828649
469.036788,74.020594,-9104.533087,-1149.143247
469.037112,222.061783,-8660.409521,-459.657299
469.037436,1480.411884,-8364.327145,0.000000
469.037761,3256.906145,-9252.574275,919.314598
469.038085,3701.029710,-10066.800811,1378.971896
469.038409,2146.597232,-10510.924376,1225.752797
469.038733,814.226536,-10658.965565,842.705048
469.039057,0.000000,-10436.903782,612.876398
469.039381,444.123565,-10436.903782,995.924147
469.039705,1628.453072,-10288.862594,1302.362347
469.040030,1628.453072,-10732.986159,1455.581446
469.040354,148.041188,-9622.677246,1072.533697
469.040678,-740.205942,-8882.471304,229.828649
469.041002,-592.164754,-8438.347739,0.000000
469.041326,222.061783,-8068.244768,689.485948
469.041650,1480.411884,-8808.450710,612.876398
469.041974,1036.288319,-9252.574275,689.485948
469.042299,-518.144159,-9548.656652,689.485948
469.042623,-814.226536,-9030.512492,459.657299
469.042947,-222.061783,-9178.553681,612.876398
469.043271,148.041188,-9178.553681,1378.971896
469.043595,222.061783,-9474.636058,995.924147
469.043919,-518.144159,-9326.594869,1302.362347
469.044243,-1110.308913,-9104.533087,995.924147
469.044568,-666.185348,-8734.430116,919.314598
469.044892,592.164754,-8364.327145,995.924147
469.045216,1406.391290,-8956.491898,1762.019645
469.045540,222.061783,-9474.636058,1072.533697
469.045864,-1702.473667,-9474.636058,76.609550
469.046188,-2886.803174,-9400.615463,-306.438199
469.046512,-2294.638420,-9548.656652,0.000000
469.046837,-888.247130,-9622.677246,76.609550
469.047161,148.041188,-9918.759623,306.438199
469.047485,0.000000,-10955.047942,229.828649
469.047809,-1924.535449,-10214.842000,-689.485948
469.048133,-1406.391290,-8956.491898,-766.095498
469.048457,-740.205942,-8660.409521,-689.485948
469.048781,370.102971,-9252.574275,-306.438199
469.049106,222.061783,-10214.842000,0.000000
469.049430,-1480.411884,-10510.924376,-459.657299
469.049754,-1924.535449,-10362.883188,-995.924147
469.050078,-1850.514855,-9844.739029,-842.705048
469.050402,-1110.308913,-10066.800811,-1532.190996
469.050726,-222.061783,-10436.903782,-995.924147
469.051051,-222.061783,-10807.006753,-995.924147
469.051375,-592.164754,-11251.130318,-1072.533697
469.051699,-592.164754,-10510.924376,-1455.581446
469.052023,296.082377,-9696.697840,-1225.752797
469.052347,1776.494261,-10288.862594,-1685.410096
469.052671,1776.494261,-10955.047942,-1072.533697
469.052995,0.000000,-11103.089130,-1991.848295
469.053320,-1184.329507,-10732.986159,-1991.848295
469.053644,-1184.329507,-10066.800811,-1915.238745
469.053968,0.000000,-10140.821405,-1149.143247
469.054292,1406.391290,-10362.883188,-153.219100
469.054616,2072.576638,-10732.986159,-995.924147
469.054940,814.226536,-10362.883188,-995.924147
469.055264,222.061783,-9178.553681,-1762.019645
469.055589,296.082377,-8660.409521,-1225.752797
469.055913,1702.473667,-9178.553681,-842.705048
469.056237,2294.638420,-9844.739029,-306.438199
469.056561,962.267725,-10362.883188,-306.438199
469.056885,-370.102971,-9548.656652,-919.314598
469.057209,-888.247130,-9030.512492,-995.924147
469.057533,-444.123565,-9252.574275,-766.095498
469.057858,1184.329507,-9326.594869,-459.657299
469.058182,1406.391290,-9400.615463,153.219100
469.058506,666.185348,-9104.533087,76.609550
469.058830,0.000000,-8512.368333,-383.047749
469.059154,370.102971,-8142.265362,-153.219100
469.059478,1776.494261,-8068.244768,536.266849
469.059802,1850.514855,-8882.471304,459.657299
469.060127,444.123565,-9474.636058,689.485948
469.060451,-1554.432478,-9474.636058,536.266849
469.060775,-2442.679609,-9326.594869,76.609550
469.061099,-1406.391290,-9252.574275,153.219100
469.061423,0.000000,-9326.594869,689.485948
469.061747,518.144159,-9474.636058,842.705048
469.062071,148.041188,-9696.697840,842.705048
469.062396,-1036.288319,-9474.636058,689.485948
469.062720,-1480.411884,-8882.471304,536.266849
469.063044,0.000000,-8586.388927,612.876398
469.063368,888.247130,-9474.636058,919.314598
469.063692,740.205942,-10584.944971,919.314598
469.064016,-518.144159,-11029.068536,766.095498
469.064340,-1480.411884,-10732.986159,766.095498
469.064665,-1776.494261,-10584.944971,229.828649
469.064989,-592.164754,-10288.862594,1532.190996
469.065313,222.061783,-10807.006753,1685.410096
469.065637,-592.164754,-10584.944971,1608.800546
469.065961,-1110.308913,-9918.759623,1149.143247
469.066285,-962.267725,-9474.636058,842.705048
469.066609,370.102971,-9104.533087,689.485948
469.066934,740.205942,-8734.430116,306.438199
469.067258,592.164754,-9030.512492,842.705048
469.067582,-1480.411884,-9474.636058,459.657299
469.067906,-2960.823768,-9252.574275,-306.438199
469.068230,-3034.844362,-8882.471304,-229.828649
469.068554,-1036.288319,-9178.553681,76.609550
469.068879,666.185348,-9918.759623,689.485948
469.069203,962.267725,-9844.739029,612.876398
469.069527,-148.041188,-9622.677246,76.609550
469.069851,-1184.329507,-8734.430116,0.000000
469.070175,-296.082377,-9326.594869,153.219100
469.070499,1110.308913,-9770.718434,612.876398
469.070823,1998.556043,-10807.006753,612.876398
469.071148,1110.308913,-10584.944971,383.047749
469.071472,0.000000,-10436.903782,-306.438199
469.071796,222.061783,-9918.759623,-153.219100
469.072120,1110.308913,-10140.821405,0.000000
469.072444,2220.617826,-10362.883188,306.438199
469.072768,1850.514855,-10214.842000,842.705048
469.073092,518.144159,-9696.697840,612.876398
469.073417,0.000000,-8734.430116,-306.438199
469.073741,740.205942,-8290.306550,-459.657299
469.074065,1702.473667,-8290.306550,-919.314598
469.074389,1628.453072,-8512.368333,-689.485948
469.074713,148.041188,-8216.285956,-1532.190996
469.075037,-2072.576638,-7920.203579,-1302.362347
469.075361,-2220.617826,-7920.203579,-1455.581446
469.075686,-296.082377,-8512.368333,-1072.533697
469.076010,1184.329507,-8808.450710,-1072.533697
469.076334,962.267725,-9178.553681,-689.485948
469.076658,1628.453072,-9918.759623,-459.657299
469.076982,518.144159,-9400.615463,-536.266849
469.077306,1332.370696,-9474.636058,-612.876398
469.077630,1850.514855,-9770.718434,-766.095498
469.077955,2146.597232,-10732.986159,-536.266849
469.078279,1480.411884,-11991.336260,-1072.533697
469.078603,148.041188,-12287.418637,-1225.752797
469.078927,-740.205942,-11621.233289,-1685.410096
469.079251,-370.102971,-10955.047942,-1072.533697
469.079575,-222.061783,-11547.212695,-689.485948
469.079899,-296.082377,-11917.315666,-689.485948
469.080224,-962.267725,-11547.212695,-766.095498
469.080548,-1776.494261,-10510.924376,-995.924147
469.080872,-1110.308913,-9474.636058,-536.266849
469.081196,592.164754,-9104.533087,0.000000
469.081520,888.247130,-8660.409521,0.000000
469.081844,0.000000,-8956.491898,459.657299
469.082168,-1850.514855,-9400.615463,76.609550
469.082493,-2886.803174,-9326.594869,-229.828649
469.082817,-2368.659014,-8734.430116,0.000000
469.083141,-962.267725,-8660.409521,612.876398
469.083465,-370.102971,-9326.594869,383.047749
469.083789,-666.185348,-9770.718434,459.657299
469.084113,-1924.535449,-9252.574275,-383.047749
469.084437,-1702.473667,-8956.491898,153.219100
469.084762,-444.123565,-8808.450710,459.657299
469.085086,814.226536,-9474.636058,1225.752797
469.085410,888.247130,-10658.965565,1149.143247
469.085734,-814.226536,-10658.965565,536.266849
469.086058,-1406.391290,-10140.821405,229.828649
469.086382,-1036.288319,-9622.677246,766.095498
469.086707,-666.185348,-9400.615463,1149.143247
469.087031,814.226536,-10066.800811,1762.019645
469.087355,0.000000,-9474.636058,1149.143247
469.087679,-1480.411884,-8808.450710,229.828649
469.088003,-1480.411884,-8438.347739,0.000000
469.088327,-518.144159,-8512.368333,306.438199
469.088651,296.082377,-7994.224174,766.095498
469.088976,0.000000,-8808.450710,919.314598
469.089300,-1776.494261,-9104.533087,153.219100
469.089624,-3108.864956,-9104.533087,-689.485948
469.089948,-2590.720797,-8882.471304,-842.705048
469.090272,-592.164754,-9030.512492,-153.219100
469.090596,1554.432478,-9622.677246,76.609550
469.090920,1850.514855,-9844.739029,229.828649
469.091245,1110.308913,-10066.800811,76.609550
469.091569,518.144159,-9326.594869,-536.266849
469.091893,1110.308913,-9770.718434,-612.876398
469.092217,3478.967927,-10510.924376,-306.438199
469.092541,3775.050304,-11399.171507,0.000000
469.092865,2368.659014,-11991.336260,-459.657299
469.093189,444.123565,-11843.295072,-306.438199
469.093514,-444.123565,-11399.171507,-766.095498
469.093838,592.164754,-11843.295072,-919.314598
469.094162,1258.350101,-11547.212695,-306.438199
469.094486,1110.308913,-11325.150913,-536.266849
469.094810,222.061783,-10510.924376,-1149.143247
469.095134,0.000000,-9918.759623,-919.314598
469.095458,518.144159,-9474.636058,-766.095498
469.095783,1480.411884,-9030.512492,-459.657299
469.096107,1628.453072,-9474.636058,229.828649
469.096431,296.082377,-9622.677246,-229.828649
469.096755,-814.226536,-9696.697840,-536.266849
469.097079,-1258.350101,-9252.574275,-689.485948
469.097403,-148.041188,-8882.471304,-153.219100
469.097727,962.267725,-8956.491898,76.609550
469.098052,666.185348,-8882.471304,919.314598
469.098376,74.020594,-9104.533087,459.657299
469.098700,-740.205942,-8142.265362,76.609550
469.099024,0.000000,-7698.141797,0.000000
469.099349,592.164754,-7476.080014,306.438199
469.099673,1184.329507,-8142.265362,612.876398
469.099997,222.061783,-9326.594869,459.657299
469.100321,-1628.453072,-9326.594869,536.266849
469.100646,-2738.761985,-9326.594869,0.000000
469.100970,-2146.597232,-8734.430116,-229.828649
469.101294,-1554.432478,-8882.471304,0.000000
469.101619,-1258.350101,-9474.636058,612.876398
469.101943,-1924.535449,-9844.739029,229.828649
469.102267,-2590.720797,-9178.553681,0.000000
469.102592,-2072.576638,-8956.491898,0.000000
469.102916,-518.144159,-8808.450710,919.314598
469.103240,814.226536,-9252.574275,1302.362347
469.103565,0.000000,-9770.718434,919.314598
469.103889,-2072.576638,-9622.677246,229.828649
469.104213,-3182.885551,-9400.615463,-766.095498
469.104538,-2442.679609,-9326.594869,-229.828649
469.104862,-148.041188,-9770.718434,76.609550
469.105186,1184.329507,-10584.944971,383.047749
469.105511,444.123565,-10288.862594,-459.657299
469.105835,-666.185348,-9400.615463,-689.485948
469.106159,-1406.391290,-9252.574275,-1072.533697
469.106483,222.061783,-9696.697840,-1225.752797
469.106808,1480.411884,-10288.862594,-153.219100
469.107132,1850.514855,-11399.171507,0.000000
469.107456,740.205942,-11917.315666,0.000000
469.107781,-222.061783,-11991.336260,-612.876398
469.108105,0.000000,-10881.027347,-306.438199
469.108429,1110.308913,-11473.192101,-306.438199
469.108754,1480.411884,-11695.253884,0.000000
469.109078,1332.370696,-11991.336260,306.438199
469.109402,592.164754,-11325.150913,0.000000
469.109727,370.102971,-10066.800811,-459.657299
469.110051,1110.308913,-9992.780217,-536.266849
469.110375,1924.535449,-9844.739029,0.000000
469.110700,1776.494261,-10066.800811,536.266849
469.111024,148.041188,-9474.636058,0.000000
469.111348,-1406.391290,-8660.409521,-612.876398
469.111673,-1554.432478,-8216.285956,-689.485948
469.111997,296.082377,-8216.285956,0.000000
469.112321,2146.597232,-8586.388927,842.705048
469.112645,2220.617826,-8586.388927,1072.533697
469.112970,1258.350101,-7994.224174,459.657299
469.113294,-148.041188,-6957.935855,76.609550
469.113618,1036.288319,-7328.038826,0.000000
469.113943,2072.576638,-8068.244768,766.095498
469.114267,2664.741391,-8808.450710,995.924147
469.114591,1628.453072,-9622.677246,612.876398
469.114916,74.020594,-9548.656652,229.828649
469.115240,-518.144159,-9474.636058,0.000000
469.115564,518.144159,-9696.697840,229.828649
469.115889,666.185348,-10066.800811,612.876398
469.116213,518.144159,-10510.924376,1072.533697
469.116537,-592.164754,-10214.842000,306.438199
469.116862,-1184.329507,-9326.594869,-153.219100
469.117186,-592.164754,-8882.471304,0.000000
469.117510,444.123565,-9030.512492,459.657299
469.117835,962.267725,-9474.636058,919.314598
469.118159,74.020594,-9918.759623,1532.190996
469.118483,-1998.556043,-9178.553681,229.828649
469.118807,-2960.823768,-9104.533087,-153.219100
469.119132,-2368.659014,-9400.615463,-153.219100
469.119456,-814.226536,-9770.718434,229.828649
469.119780,-444.123565,-10066.800811,383.047749
469.120105,-1702.473667,-10362.883188,229.828649
469.120429,-2294.638420,-9918.759623,-689.485948
469.120753,-2220.617826,-9178.553681,-306.438199
469.121078,-962.267725,-8586.388927,-842.705048
469.121402,74.020594,-9844.739029,-383.047749
469.121726,-370.102971,-11251.130318,-689.485948
469.122051,-1998.556043,-11695.253884,-1149.143247
469.122375,-2960.823768,-11029.068536,-1532.190996
469.122699,-2072.576638,-10362.883188,-1378.971896
469.123024,-666.185348,-11325.150913,-612.876398
469.123348,444.123565,-12213.398043,-383.047749
469.123672,-222.061783,-12139.377449,-612.876398
469.123997,-1036.288319,-11029.068536,-459.657299
469.124321,-814.226536,-10214.842000,-1072.533697
469.124645,148.041188,-10066.800811,-689.485948
469.124969,1184.329507,-10214.842000,0.000000
469.125294,518.144159,-10436.903782,-1149.143247
469.125618,-1110.308913,-10214.842000,-1608.800546
469.125942,-2738.761985,-9030.512492,-1762.019645
469.126267,-1924.535449,-9030.512492,-1455.581446
469.126591,296.082377,-8956.491898,-995.924147
469.126915,1850.514855,-9400.615463,0.000000
469.127240,1554.432478,-8956.491898,0.000000
469.127564,888.247130,-8586.388927,-459.657299
469.127888,814.226536,-8142.265362,-536.266849
469.128213,2738.761985,-7994.224174,0.000000
469.128537,4367.215058,-8808.450710,229.828649
469.128861,4293.194464,-9474.636058,766.095498
469.129186,2516.700203,-9844.739029,383.047749
469.129510,666.185348,-9844.739029,229.828649
469.129834,592.164754,-9400.615463,-383.047749
469.130159,888.247130,-9548.656652,0.000000
469.130483,1332.370696,-9770.718434,459.657299
469.130807,1184.329507,-10066.800811,689.485948
469.131131,222.061783,-9474.636058,-153.219100
469.131456,-444.123565,-8586.388927,-536.266849
469.131780,592.164754,-8512.368333,-229.828649
469.132104,2072.576638,-8660.409521,306.438199
469.132429,1998.556043,-9474.636058,536.266849
469.132753,-148.041188,-9030.512492,612.876398
469.133077,-2072.576638,-8364.327145,0.000000
469.133402,-2516.700203,-8512.368333,-229.828649
469.133726,-666.185348,-8956.491898,0.000000
469.134050,814.226536,-9474.636058,383.047749
469.134375,518.144159,-9770.718434,919.314598
469.134699,-592.164754,-9474.636058,842.705048
469.135023,-1628.453072,-9252.574275,383.047749
469.135348,-1406.391290,-8734.430116,229.828649
469.135672,0.000000,-8808.450710,306.438199
469.135996,1110.308913,-9918.759623,1149.143247
469.136321,370.102971,-10658.965565,766.095498
469.136645,-1554.432478,-10732.986159,0.000000
469.136969,-2146.597232,-10510.924376,-306.438199
469.137293,-1406.391290,-10436.903782,-153.219100
469.137618,-592.164754,-11251.130318,612.876398
469.137942,-148.041188,-11991.336260,306.438199
469.138266,-666.185348,-10807.006753,459.657299
469.138591,-1628.453072,-10362.883188,0.000000
469.138915,-666.185348,-9992.780217,-306.438199
469.139239,518.144159,-10362.883188,306.438199
469.139564,1184.329507,-10881.027347,689.485948
469.139888,0.000000,-10955.047942,842.705048
469.140212,-2072.576638,-9844.739029,-153.219100
469.140537,-2664.741391,-9400.615463,0.000000
469.140861,-2220.617826,-9326.594869,-306.438199
469.141185,-222.061783,-10140.821405,842.705048
469.141510,592.164754,-10288.862594,383.047749
469.141834,-148.041188,-9770.718434,76.609550
469.142158,-1554.432478,-9104.533087,-536.266849
469.142483,-1258.350101,-8142.265362,-536.266849
469.142807,666.185348,-8364.327145,-612.876398
469.143131,1776.494261,-8512.368333,-229.828649
469.143455,1480.411884,-9474.636058,76.609550
469.143780,74.020594,-9622.677246,-153.219100
469.144104,-666.185348,-9252.574275,-612.876398
469.144428,0.000000,-8956.491898,-459.657299
469.144753,814.226536,-9252.574275,-306.438199
469.145077,1850.514855,-9770.718434,76.609550
469.145401,814.226536,-9696.697840,0.000000
469.145726,222.061783,-9326.594869,-229.828649
469.146050,0.000000,-9030.512492,-919.314598
469.146374,962.267725,-9252.574275,-995.924147
469.146699,1776.494261,-9400.615463,-766.095498
469.147023,1628.453072,-9844.739029,0.000000
469.147347,148.041188,-10066.800811,-612.876398
469.147672,-1184.329507,-9400.615463,-919.314598
469.147996,-592.164754,-9918.759623,-536.266849
469.148320,518.144159,-9548.656652,229.828649
469.148645,1406.391290,-10584.944971,306.438199
469.148969,666.185348,-9918.759623,229.828649
469.149293,-666.185348,-8734.430116,-919.314598
469.149618,-888.247130,-8216.285956,-1302.362347
469.149942,592.164754,-8216.285956,-842.705048
469.150266,2368.659014,-8956.491898,0.000000
469.150590,2368.659014,-10214.842000,0.000000
469.150915,1480.411884,-9548.656652,0.000000
469.151239,0.000000,-9474.636058,-229.828649
469.151563,-518.144159,-9548.656652,-383.047749
469.151888,296.082377,-9992.780217,-306.438199
469.152212,1036.288319,-10732.986159,612.876398
469.152536,1480.411884,-10881.027347,766.095498
469.152861,1184.329507,-11325.150913,919.314598
469.153185,-148.041188,-10214.842000,612.876398
469.153509,-148.041188,-9548.656652,0.000000
469.153834,74.020594,-9844.739029,-153.219100
469.154158,74.020594,-10807.006753,76.609550
469.154482,-1776.494261,-11029.068536,0.000000
469.154807,-3108.864956,-11103.089130,-612.876398
469.155131,-3478.967927,-10140.821405,-612.876398
469.155455,-2516.700203,-9548.656652,-536.266849
469.155780,-1406.391290,-10066.800811,0.000000
469.156104,-1258.350101,-10658.965565,306.438199
469.156428,-2072.576638,-10066.800811,229.828649
469.156752,-2294.638420,-9104.533087,306.438199
469.157077,-1332.370696,-8364.327145,766.095498
469.157401,148.041188,-7550.100608,919.314598
469.157725,1406.391290,-8216.285956,689.485948
469.158050,740.205942,-8808.450710,536.266849
469.158374,-222.061783,-9178.553681,76.609550
469.158698,-1406.391290,-8586.388927,0.000000
469.159023,-1554.432478,-8290.306550,-229.828649
469.159347,0.000000,-9030.512492,0.000000
469.159671,518.144159,-9622.677246,306.438199
469.159996,-370.102971,-9770.718434,-383.047749
469.160320,-1332.370696,-9326.594869,-612.876398
469.160644,-1110.308913,-9030.512492,-612.876398
469.160969,962.267725,-9474.636058,-153.219100
469.161293,2368.659014,-10436.903782,536.266849
469.161617,1036.288319,-11029.068536,536.266849
469.161942,-888.247130,-10658.965565,-153.219100
469.162266,-2368.659014,-9992.780217,-766.095498
469.162590,-1554.432478,-9474.636058,-612.876398
469.162914,666.185348,-9696.697840,-229.828649
469.163239,1110.308913,-10436.903782,229.828649
469.163563,-148.041188,-10362.883188,0.000000
469.163887,-1628.453072,-9474.636058,-995.924147
469.164212,-1480.411884,-8882.471304,-1455.581446
469.164536,222.061783,-8068.244768,-995.924147
469.164860,2146.597232,-9474.636058,-459.657299
469.165185,2146.597232,-9104.533087,-383.047749
469.165509,814.226536,-9548.656652,-459.657299
469.165833,-148.041188,-9918.759623,-612.876398
469.166158,592.164754,-9918.759623,-383.047749
469.166482,2294.638420,-9622.677246,-229.828649
469.166806,3034.844362,-9548.656652,229.828649
469.167131,2220.617826,-10214.842000,459.657299
469.167455,1702.473667,-10658.965565,229.828649
469.167779,1332.370696,-10214.842000,-383.047749
469.168104,1998.556043,-10066.800811,-536.266849
469.168428,2590.720797,-10214.842000,0.000000
469.168752,2072.576638,-11029.068536,0.000000
469.169076,0.000000,-10658.965565,-153.219100
469.169401,-1998.556043,-10510.924376,-1072.533697
469.169725,-2220.617826,-9622.677246,-1072.533697
469.170049,-1480.411884,-9992.780217,-383.047749
469.170374,0.000000,-10066.800811,1072.533697
469.170698,0.000000,-9844.739029,689.485948
469.171022,-1480.411884,-8956.491898,76.609550
469.171347,-2072.576638,-8142.265362,0.000000
469.171671,-1110.308913,-7772.162391,0.000000
469.171995,962.267725,-7550.100608,1072.533697
469.172320,1628.453072,-7994.224174,1149.143247
469.172644,296.082377,-8660.409521,1072.533697
469.172968,-1110.308913,-9104.533087,-229.828649
469.173293,-1554.432478,-8438.347739,-612.876398
469.173617,-666.185348,-8438.347739,-383.047749
469.173941,444.123565,-9474.636058,383.047749
469.174266,518.144159,-9992.780217,842.705048
469.174590,-296.082377,-10214.842000,919.314598
469.174914,-1184.329507,-9474.636058,0.000000
469.175238,-740.205942,-8956.491898,-766.095498
469.175563,296.082377,-9548.656652,612.876398
469.175887,296.082377,-10362.883188,689.485948
469.176211,-1184.329507,-10881.027347,306.438199
469.176536,-3108.864956,-10436.903782,-229.828649
469.176860,-3997.112087,-9844.739029,-459.657299
469.177184,-2886.803174,-9844.739029,-612.876398
469.177509,-1036.288319,-10214.842000,-612.876398
469.177833,-592.164754,-10584.944971,76.609550
469.178157,-1406.391290,-10214.842000,-306.438199
469.178482,-1924.535449,-9326.594869,-689.485948
469.178806,-1332.370696,-8956.491898,-919.314598
469.179130,518.144159,-9030.512492,-536.266849
469.179455,2072.576638,-9918.759623,76.609550
469.179779,1480.411884,-10362.883188,76.609550
469.180103,-148.041188,-10066.800811,-612.876398
469.180428,-1036.288319,-9474.636058,-1072.533697
469.180752,-296.082377,-10436.903782,-306.438199
469.181076,962.267725,-10584.944971,76.609550
469.181400,1702.473667,-10732.986159,153.219100
469.181725,1184.329507,-10658.965565,-229.828649
469.182049,518.144159,-10066.800811,-919.314598
469.182373,666.185348,-9400.615463,-1225.752797
469.182698,1554.432478,-9326.594869,-153.219100
469.183022,2812.782580,-10066.800811,153.219100
469.183346,1850.514855,-10362.883188,229.828649
469.183671,0.000000,-10140.821405,-536.266849
469.183995,-1184.329507,-9696.697840,-842.705048
469.184319,-444.123565,-9622.677246,-383.047749
469.184644,1628.453072,-10288.862594,0.000000
469.184968,2146.597232,-10066.800811,1072.533697
469.185292,1110.308913,-9474.636058,995.924147
469.185617,-592.164754,-8808.450710,0.000000
469.185941,-888.247130,-8142.265362,-306.438199
469.186265,592.164754,-7846.182985,0.000000
469.186590,2072.576638,-8438.347739,1072.533697
469.186914,1998.556043,-8956.491898,1378.971896
469.187238,1258.350101,-8808.450710,0.000000
469.187562,0.000000,-8364.327145,459.657299
469.187887,518.144159,-8586.388927,229.828649
469.188211,1036.288319,-8660.409521,229.828649
469.188535,1258.350101,-8956.491898,919.314598
469.188860,962.267725,-9474.636058,995.924147
469.189184,148.041188,-9548.656652,766.095498
469.189508,-296.082377,-9178.553681,229.828649
469.189833,74.020594,-9104.533087,383.047749
469.190157,1184.329507,-9622.677246,842.705048
469.190481,1258.350101,-10362.883188,842.705048
469.190806,-888.247130,-10510.924376,536.266849
469.191130,-2960.823768,-10436.903782,-153.219100
469.191454,-3701.029710,-10140.821405,-612.876398
469.191779,-2516.700203,-10214.842000,-383.047749
469.192103,-1184.329507,-10288.862594,-459.657299
469.192427,-962.267725,-10436.903782,-306.438199
469.192752,-1406.391290,-10214.842000,-383.047749
469.193076,-2368.659014,-9252.574275,-612.876398
469.193400,-1702.473667,-9326.594869,-229.828649
469.193724,-444.123565,-9474.636058,-306.438199
469.194049,0.000000,-9918.759623,0.000000
469.194373,-1036.288319,-9844.739029,-229.828649
469.194697,-2294.638420,-9992.780217,-689.485948
469.195022,-2294.638420,-9992.780217,-919.314598
469.195346,-1258.350101,-9696.697840,-842.705048
469.195670,-296.082377,-10362.883188,153.219100
469.195995,-370.102971,-10584.944971,-612.876398
469.196319,-1332.370696,-9918.759623,-842.705048
469.196643,-1554.432478,-9844.739029,-689.485948
469.196968,-740.205942,-9326.594869,-766.095498
469.197292,1110.308913,-9474.636058,-229.828649
469.197616,1628.453072,-10140.821405,-229.828649
469.197941,296.082377,-10881.027347,-612.876398
469.198265,-1258.350101,-10362.883188,-1532.190996
469.198589,-2220.617826,-9992.780217,-1762.019645
469.198914,-962.267725,-10066.800811,-1225.752797
469.199238,1258.350101,-10214.842000,-229.828649
469.199562,2442.679609,-10658.965565,383.047749
469.199886,1924.535449,-10288.862594,612.876398
469.200210,592.164754,-9252.574275,-459.657299
469.200534,518.144159,-9030.512492,-919.314598
469.200858,1850.514855,-9030.512492,0.000000
469.201183,3034.844362,-9252.574275,306.438199
469.201507,2516.700203,-9104.533087,536.266849
469.201831,740.205942,-9252.574275,153.219100
469.202155,0.000000,-9104.533087,0.000000
469.202479,296.082377,-9030.512492,0.000000
469.202803,1406.391290,-8882.471304,76.609550
469.203127,1998.556043,-9030.512492,536.266849
469.203451,1480.411884,-9030.512492,153.219100
469.203776,370.102971,-8660.409521,0.000000
469.204100,296.082377,-8290.306550,-536.266849
469.204424,888.247130,-8956.491898,306.438199
469.204748,2368.659014,-9548.656652,536.266849
469.205072,1998.556043,-9622.677246,766.095498
469.205396,148.041188,-9844.739029,383.047749
469.205720,-1258.350101,-9844.739029,-229.828649
469.206044,-1332.370696,-9992.780217,-459.657299
469.206369,-518.144159,-9844.739029,76.609550
469.206693,222.061783,-10510.924376,459.657299
469.207017,-222.061783,-10436.903782,536.266849
469.207341,-1554.432478,-9548.656652,306.438199
469.207665,-1924.535449,-9252.574275,-153.219100
469.207989,-888.247130,-8956.491898,-306.438199
469.208313,444.123565,-9326.594869,76.609550
469.208637,592.164754,-9844.739029,153.219100
469.208962,-296.082377,-9918.759623,153.219100
469.209286,-2072.576638,-9770.718434,-153.219100
469.209610,-2516.700203,-9252.574275,-383.047749
469.209934,-1924.535449,-9400.615463,-306.438199
469.210258,-666.185348,-9918.759623,153.219100
469.210582,-666.185348,-10510.924376,0.000000
469.210906,-1110.308913,-10140.821405,-153.219100
469.211230,-1258.350101,-9474.636058,0.000000
469.211555,-370.102971,-9622.677246,306.438199
469.211879,148.041188,-9770.718434,-1149.143247
469.212203,222.061783,-10288.862594,0.000000
469.212527,-1406.391290,-10881.027347,-383.047749
469.212851,-2368.659014,-10955.047942,-842.705048
469.213175,-2294.638420,-10436.903782,-689.485948
469.213499,-518.144159,-10214.842000,-306.438199
469.213823,814.226536,-9918.759623,0.000000
469.214148,1628.453072,-11251.130318,-153.219100
469.214472,518.144159,-10881.027347,-612.876398
469.214796,-814.226536,-10066.800811,-766.095498
469.215120,-370.102971,-9030.512492,-689.485948
469.215444,814.226536,-9178.553681,-153.219100
469.215768,1702.473667,-9844.739029,459.657299
469.216092,1554.432478,-9992.780217,383.047749
469.216416,-592.164754,-9696.697840,-153.219100
469.216741,-1554.432478,-8956.491898,-689.485948
469.217065,-1554.432478,-8586.388927,-1225.752797
469.217389,0.000000,-8882.471304,-383.047749
469.217713,518.144159,-9400.615463,0.000000
469.218037,0.000000,-9252.574275,76.609550
469.218361,-592.164754,-8956.491898,-536.266849
469.218685,74.020594,-7698.141797,0.000000
469.219009,1998.556043,-8290.306550,-153.219100
469.219334,2516.700203,-9178.553681,536.266849
469.219658,1850.514855,-10214.842000,229.828649
469.219982,0.000000,-10732.986159,153.219100
469.220306,-1036.288319,-10288.862594,-229.828649
469.220630,-296.082377,-10140.821405,0.000000
469.220954,1924.535449,-10140.821405,612.876398
469.221278,2368.659014,-10510.924376,1149.143247
469.221602,1702.473667,-10362.883188,383.047749
469.221927,444.123565,-9474.636058,0.000000
469.222251,-444.123565,-8290.306550,-536.266849
469.222575,370.102971,-8364.327145,-536.266849
469.222899,1406.391290,-8734.430116,0.000000
469.223223,1406.391290,-9400.615463,-306.438199
469.223547,0.000000,-9474.636058,-153.219100
469.223871,-444.123565,-10066.800811,0.000000
469.224195,-1258.350101,-9474.636058,-306.438199
469.224520,-296.082377,-9326.594869,76.609550
469.224844,518.144159,-9844.739029,383.047749
469.225168,222.061783,-10584.944971,459.657299
469.225492,-518.144159,-10288.862594,0.000000
469.225816,-592.164754,-9400.615463,-306.438199
469.226140,148.041188,-9474.636058,76.609550
469.226464,1184.329507,-9770.718434,0.000000
469.226788,1332.370696,-10807.006753,0.000000
469.227112,-740.205942,-10807.006753,0.000000
469.227437,-2072.576638,-10658.965565,0.000000
469.227761,-2368.659014,-10584.944971,-306.438199
469.228085,-1332.370696,-10362.883188,0.000000
469.228409,-888.247130,-10214.842000,689.485948
469.228733,-518.144159,-9844.739029,0.000000
469.229057,-1776.494261,-9548.656652,-689.485948
469.229381,-2072.576638,-8882.471304,-766.095498
469.229705,-1480.411884,-8142.265362,-153.219100
469.230030,74.020594,-8882.471304,0.000000
469.230354,296.082377,-9400.615463,383.047749
469.230678,-518.144159,-10066.800811,229.828649
469.231002,-1702.473667,-10066.800811,-306.438199
469.231326,-2072.576638,-9474.636058,-383.047749
469.231650,-962.267725,-9178.553681,229.828649
469.231974,296.082377,-9770.718434,153.219100
469.232298,370.102971,-10288.862594,76.609550
469.232623,-370.102971,-9992.780217,229.828649
469.232947,-740.205942,-9474.636058,-229.828649
469.233271,-222.061783,-8808.450710,-459.657299
469.233595,592.164754,-9326.594869,-153.219100
469.233919,1184.329507,-9400.615463,153.219100
469.234243,-148.041188,-9992.780217,153.219100
469.234567,-2072.576638,-10066.800811,-306.438199
469.234891,-2738.761985,-9696.697840,-612.876398
469.235216,-1776.494261,-9622.677246,-766.095498
469.235540,0.000000,-9844.739029,0.000000
469.235864,740.205942,-10362.883188,306.438199
469.236188,74.020594,-9918.759623,-153.219100
469.236512,-148.041188,-9252.574275,-383.047749
469.236836,74.020594,-8438.347739,-536.266849
469.237160,2368.659014,-9030.512492,612.876398
469.237484,4071.132681,-9252.574275,612.876398
469.237809,3923.091493,-9770.718434,995.924147
469.238133,2294.638420,-9622.677246,306.438199
469.238457,1258.350101,-9474.636058,-383.047749
469.238781,1332.370696,-9622.677246,0.000000
469.239105,2220.617826,-9918.759623,-689.485948
469.239429,2146.597232,-9844.739029,306.438199
469.239753,1480.411884,-9844.739029,383.047749
469.240077,444.123565,-9400.615463,-229.828649
469.240402,370.102971,-9104.533087,0.000000
469.240726,1110.308913,-9252.574275,153.219100
469.241050,1998.556043,-9548.656652,766.095498
469.241374,1628.453072,-10436.903782,536.266849
469.241698,0.000000,-9770.718434,229.828649
469.242022,-1554.432478,-9326.594869,-612.876398
469.242346,-1702.473667,-9548.656652,-153.219100
469.242670,-370.102971,-10140.821405,0.000000
469.242995,814.226536,-10510.924376,459.657299
469.243319,370.102971,-10881.027347,229.828649
469.243643,74.020594,-9474.636058,0.000000
469.243967,-370.102971,-9030.512492,153.219100
469.244291,0.000000,-8216.285956,0.000000
469.244615,666.185348,-9252.574275,459.657299
469.244939,370.102971,-10288.862594,229.828649
469.245263,-1184.329507,-10362.883188,0.000000
469.245588,-2516.700203,-9770.718434,-153.219100
469.245912,-2886.803174,-8660.409521,-459.657299
469.246236,-2146.597232,-9104.533087,-689.485948
469.246560,-1184.329507,-9918.759623,0.000000
469.246884,-1258.350101,-10436.903782,76.609550
469.247208,-1702.473667,-10140.821405,-153.219100
469.247532,-1998.556043,-8956.491898,-766.095498
469.247856,-1184.329507,-8512.368333,-689.485948
469.248181,-296.082377,-9178.553681,-229.828649
469.248505,0.000000,-10214.842000,-612.876398
469.248829,-1776.494261,-10066.800811,-1302.362347
469.249153,-2738.761985,-9770.718434,-1072.533697
469.249477,-2886.803174,-9326.594869,-1225.752797
469.249801,-1036.288319,-9770.718434,-612.876398
469.250125,296.082377,-10362.883188,0.000000
469.250449,592.164754,-10732.986159,-76.609550
469.250774,-814.226536,-9992.780217,-306.438199
469.251098,-1258.350101,-9252.574275,-1149.143247
469.251422,0.000000,-9326.594869,-1149.143247
469.251746,1184.329507,-8882.471304,-842.705048
469.252070,1924.535449,-10140.821405,-306.438199
469.252394,1258.350101,-10881.027347,-459.657299
469.252718,-74.020594,-10807.006753,-1302.362347
469.253042,-1036.288319,-10288.862594,-1532.190996
469.253367,-296.082377,-9770.718434,-1072.533697
469.253691,1258.350101,-9992.780217,-1302.362347
469.254015,1628.453072,-10584.944971,-536.266849
469.254339,1554.432478,-10658.965565,-536.266849
469.254663,888.247130,-9918.759623,-459.657299
469.254987,1480.411884,-9474.636058,-306.438199
469.255311,2368.659014,-9326.594869,0.000000
469.255635,2738.761985,-9918.759623,536.266849
469.255960,1628.453072,-10288.862594,0.000000
469.256284,-592.164754,-9696.697840,383.047749
469.256608,-1480.411884,-9474.636058,-229.828649
469.256932,-740.205942,-9622.677246,-153.219100
469.257256,962.267725,-9548.656652,0.000000
469.257580,1776.494261,-9474.636058,459.657299
469.257904,962.267725,-9474.636058,229.828649
469.258228,296.082377,-9548.656652,-536.266849
469.258553,444.123565,-8956.491898,-306.438199
469.258877,1924.535449,-8660.409521,383.047749
469.259201,3330.926739,-8734.430116,1302.362347
469.259525,2442.679609,-9474.636058,1762.019645
469.259849,592.164754,-9770.718434,1149.143247
469.260173,-370.102971,-9918.759623,766.095498
469.260497,-222.061783,-9548.656652,689.485948
469.260821,0.000000,-9474.636058,919.314598
469.261145,296.082377,-9252.574275,1302.362347
469.261470,0.000000,-9622.677246,689.485948
469.261794,-1036.288319,-9400.615463,689.485948
469.262118,-1332.370696,-8586.388927,383.047749
469.262442,-370.102971,-8586.388927,459.657299
469.262766,296.082377,-8660.409521,612.876398
469.263090,-148.041188,-9474.636058,919.314598
469.263414,-1628.453072,-9474.636058,536.266849
469.263738,-2812.782580,-9326.594869,229.828649
469.264063,-2664.741391,-9622.677246,0.000000
469.264387,-1554.432478,-9770.718434,612.876398
469.264711,0.000000,-9918.759623,842.705048
469.265035,-444.123565,-10288.862594,766.095498
469.265359,-1628.453072,-9992.780217,306.438199
469.265683,-2146.597232,-9474.636058,-306.438199
469.266007,-1110.308913,-8956.491898,459.657299
469.266331,370.102971,-9252.574275,0.000000
469.266656,1184.329507,-10066.800811,229.828649
469.266980,148.041188,-11029.068536,689.485948
469.267304,-1776.494261,-10584.944971,-229.828649
469.267628,-2146.597232,-10584.944971,-383.047749
469.267952,-814.226536,-10658.965565,-612.876398
469.268276,592.164754,-11029.068536,0.000000
469.268600,888.247130,-10955.047942,76.609550
469.268924,518.144159,-10584.944971,-459.657299
469.269249,-222.061783,-9992.780217,0.000000
469.269573,592.164754,-9622.677246,0.000000
469.269897,1628.453072,-9548.656652,76.609550
469.270221,1628.453072,-10066.800811,153.219100
469.270545,148.041188,-9918.759623,-383.047749
469.270869,-1776.494261,-9474.636058,-919.314598
469.271193,-2072.576638,-9030.512492,-1072.533697
469.271517,-1036.288319,-9252.574275,-383.047749
469.271842,444.123565,-9696.697840,-612.876398
469.272166,592.164754,-9770.718434,76.609550
469.272490,-370.102971,-9474.636058,-612.876398
469.272814,-740.205942,-8512.368333,-1149.143247
469.273138,0.000000,-8142.265362,-995.924147
469.273462,1998.556043,-8364.327145,-842.705048
469.273786,2960.823768,-9252.574275,76.609550
469.274110,2072.576638,-10214.842000,0.000000
469.274435,296.082377,-9918.759623,-76.609550
469.274759,-222.061783,-10066.800811,-689.485948
469.275083,518.144159,-9770.718434,-536.266849
469.275407,1924.535449,-10214.842000,0.000000
469.275731,2072.576638,-9992.780217,536.266849
469.276055,1776.494261,-9918.759623,153.219100
469.276379,888.247130,-9252.574275,229.828649
469.276703,1036.288319,-8438.347739,-459.657299
469.277028,1776.494261,-8660.409521,-76.609550
469.277352,1850.514855,-9770.718434,0.000000
469.277676,222.061783,-9400.615463,-229.828649
469.278000,-1776.494261,-8660.409521,-689.485948
469.278324,-3034.844362,-8512.368333,-1149.143247
469.278648,-1480.411884,-9030.512492,-842.705048
469.278972,222.061783,-8882.471304,0.000000
469.279296,444.123565,-9474.636058,306.438199
469.279621,-370.102971,-9918.759623,0.000000
469.279945,-1332.370696,-9548.656652,-612.876398
469.280269,-1332.370696,-9030.512492,-612.876398
469.280593,-444.123565,-9178.553681,-306.438199
469.280917,888.247130,-10214.842000,76.609550
469.281241,1036.288319,-11399.171507,689.485948
469.281565,-518.144159,-11399.171507,536.266849
469.281889,-1776.494261,-10955.047942,0.000000
469.282214,-1628.453072,-10510.924376,-229.828649
469.282538,-740.205942,-11103.089130,76.609550
469.282862,0.000000,-11769.274478,383.047749
469.283186,-518.144159,-10732.986159,919.314598
469.283510,-1036.288319,-10066.800811,76.609550
469.283834,-962.267725,-9400.615463,-536.266849
469.284158,-444.123565,-9030.512492,-383.047749
469.284482,0.000000,-9400.615463,-229.828649
469.284807,-592.164754,-9844.739029,0.000000
469.285131,-1776.494261,-9696.697840,-229.828649
469.285455,-2812.782580,-9326.594869,-306.438199
469.285779,-2146.597232,-8956.491898,-153.219100
469.286103,-888.247130,-8882.471304,306.438199
469.286427,222.061783,-9178.553681,229.828649
469.286751,-222.061783,-9104.533087,229.828649
469.287075,-1480.411884,-8956.491898,0.000000
469.287400,-1776.494261,-8586.388927,-383.047749
469.287724,-444.123565,-8364.327145,-153.219100
469.288048,1332.370696,-8438.347739,536.266849
469.288372,2072.576638,-9548.656652,766.095498
469.288696,1036.288319,-10140.821405,229.828649
469.289020,0.000000,-10288.862594,0.000000
469.289344,-1036.288319,-9770.718434,0.000000
469.289668,0.000000,-9918.759623,76.609550
469.289993,1480.411884,-10214.842000,919.314598
469.290317,2146.597232,-10436.903782,919.314598
469.290641,1924.535449,-10066.800811,459.657299
469.290965,1258.350101,-9104.533087,0.000000
469.291289,1406.391290,-8512.368333,-229.828649
469.291613,2220.617826,-9030.512492,689.485948
469.291937,1924.535449,-9548.656652,919.314598
469.292261,444.123565,-9696.697840,306.438199
469.292585,-1332.370696,-9104.533087,0.000000
469.292910,-2368.659014,-8290.306550,-689.485948
469.293234,-1036.288319,-8068.244768,-153.219100
469.293558,740.205942,-8808.450710,76.609550
469.293882,1332.370696,-9252.574275,76.609550
469.294206,370.102971,-9104.533087,0.000000
469.294530,-296.082377,-8586.388927,-766.095498
469.294854,0.000000,-8216.285956,-536.266849
469.295178,1702.473667,-8956.491898,-153.219100
469.295503,3108.864956,-9918.759623,459.657299
469.295827,2516.700203,-11103.089130,383.047749
469.296151,592.164754,-11325.150913,306.438199
469.296475,-888.247130,-11029.068536,0.000000
469.296799,-370.102971,-11547.212695,-536.266849
469.297123,666.185348,-11621.233289,306.438199
469.297447,814.226536,-12065.356855,383.047749
469.297771,0.000000,-11991.336260,306.438199
469.298096,-1110.308913,-10881.027347,-536.266849
469.298420,-962.267725,-9622.677246,-1072.533697
469.298744,-148.041188,-9030.512492,-689.485948
469.299068,1184.329507,-9474.636058,-229.828649
469.299392,370.102971,-9770.718434,0.000000
469.299716,-1480.411884,-9178.553681,0.000000
469.300039,-2664.741391,-8586.388927,-612.876398
469.300363,-2664.741391,-8734.430116,-689.485948
469.300687,-1480.411884,-9030.512492,-383.047749
469.301011,-148.041188,-9178.553681,229.828649
469.301335,-444.123565,-9178.553681,76.609550
469.301659,-1258.350101,-8364.327145,0.000000
469.301983,-1184.329507,-8586.388927,76.609550
469.302307,-148.041188,-8068.244768,-612.876398
469.302631,962.267725,-9252.574275,383.047749
469.302955,962.267725,-9844.739029,0.000000
469.303279,-962.267725,-10510.924376,-536.266849
469.303604,-2442.679609,-10362.883188,-1072.533697
469.303928,-2590.720797,-10214.842000,-1378.971896
469.304252,-1184.329507,-10288.862594,-1149.143247
469.304576,-296.082377,-10881.027347,-153.219100
469.304900,-444.123565,-11103.089130,0.000000
469.305224,-814.226536,-10584.944971,-153.219100
469.305548,-1332.370696,-9622.677246,-383.047749
469.305872,-296.082377,-9474.636058,-306.438199
469.306196,962.267725,-9548.656652,0.000000
469.306520,814.226536,-9992.780217,766.095498
469.306844,-296.082377,-9326.594869,229.828649
469.307168,-1628.453072,-9474.636058,-612.876398
469.307492,-2368.659014,-8660.409521,-536.266849
469.307816,-518.144159,-8956.491898,0.000000
469.308140,1406.391290,-9474.636058,229.828649
469.308465,1110.308913,-9548.656652,229.828649
469.308789,-222.061783,-9030.512492,-536.266849
469.309113,-962.267725,-8512.368333,-612.876398
469.309437,148.041188,-8216.285956,-612.876398
469.309761,2072.576638,-9104.533087,-153.219100
469.310085,2664.741391,-9844.739029,612.876398
469.310409,1554.432478,-10584.944971,459.657299
469.310733,222.061783,-10881.027347,0.000000
469.311057,296.082377,-10881.027347,-306.438199
469.311381,814.226536,-10436.903782,536.266849
469.311705,1628.453072,-10732.986159,689.485948
469.312029,1998.556043,-11177.109724,1302.362347
469.312353,1258.350101,-10807.006753,536.266849
469.312677,666.185348,-9992.780217,0.000000
469.313001,1332.370696,-9326.594869,76.609550
469.313326,2442.679609,-9622.677246,306.438199
469.313650,2960.823768,-9770.718434,459.657299
469.313974,1776.494261,-9474.636058,842.705048
469.314298,0.000000,-8956.491898,-229.828649
469.314622,-1628.453072,-8364.327145,0.000000
469.314946,-1480.411884,-8068.244768,-229.828649
469.315270,-148.041188,-8364.327145,459.657299
469.315594,518.144159,-8882.471304,842.705048
469.315918,-222.061783,-8808.450710,536.266849
469.316242,-1184.329507,-8068.244768,383.047749
469.316566,-666.185348,-7698.141797,76.609550
469.316890,0.000000,-7772.162391,459.657299
469.317214,444.123565,-8290.306550,536.266849
469.317538,592.164754,-9622.677246,536.266849
469.317863,-1110.308913,-10214.842000,229.828649
469.318187,-2146.597232,-10066.800811,-306.438199
469.318511,-2294.638420,-9770.718434,0.000000
469.318835,-1480.411884,-10140.821405,0.000000
469.319159,-740.205942,-10510.924376,-153.219100
469.319483,-370.102971,-10881.027347,-229.828649
469.319807,-1406.391290,-10510.924376,-766.095498
469.320131,-1850.514855,-9696.697840,-919.314598
469.320455,-740.205942,-9474.636058,-689.485948
469.320779,370.102971,-9918.759623,-383.047749
469.321103,74.020594,-10362.883188,76.609550
469.321427,-1110.308913,-9844.739029,-459.657299
469.321751,-2590.720797,-9474.636058,-306.438199
469.322075,-2442.679609,-9474.636058,-689.485948
469.322399,-962.267725,-9400.615463,-995.924147
469.322724,296.082377,-9844.739029,-383.047749
469.323048,-296.082377,-9844.739029,-459.657299
469.323372,-1258.350101,-9992.780217,-995.924147
469.323696,-1332.370696,-9696.697840,-842.705048
469.324020,0.000000,-8882.471304,-766.095498
469.324344,1776.494261,-9474.636058,-536.266849
469.324668,1702.473667,-10288.862594,0.000000
469.324992,148.041188,-11029.068536,-612.876398
469.325316,-1554.432478,-11029.068536,-919.314598
469.325640,-1850.514855,-10658.965565,-1225.752797
469.325964,-666.185348,-10658.965565,-612.876398
469.326288,1036.288319,-10807.006753,0.000000
469.326612,1776.494261,-10955.047942,306.438199
469.326936,1036.288319,-10510.924376,0.000000
469.327260,888.247130,-10140.821405,-153.219100
469.327585,1480.411884,-9992.780217,-229.828649
469.327909,2146.597232,-9622.677246,0.000000
469.328233,2368.659014,-9548.656652,383.047749
469.328557,1480.411884,-9844.739029,0.000000
469.328881,296.082377,-9992.780217,76.609550
469.329205,-518.144159,-9992.780217,76.609550
469.329529,148.041188,-9474.636058,229.828649
469.329853,1258.350101,-8882.471304,229.828649
469.330177,1332.370696,-8660.409521,612.876398
469.330501,666.185348,-8808.450710,612.876398
469.330825,0.000000,-8512.368333,689.485948
469.331149,148.041188,-7772.162391,536.266849
469.331473,962.267725,-8068.244768,919.314598
469.331797,1702.473667,-8068.244768,612.876398
469.332121,1184.329507,-9474.636058,919.314598
469.332446,0.000000,-10066.800811,1072.533697
469.332770,-1110.308913,-9770.718434,842.705048
469.333094,-518.144159,-9400.615463,1072.533697
469.333418,222.061783,-9104.533087,995.924147
469.333742,888.247130,-9474.636058,1455.581446
469.334066,740.205942,-10140.821405,1225.752797
469.334390,-370.102971,-9326.594869,76.609550
469.334714,-740.205942,-8882.471304,153.219100
469.335038,222.061783,-8956.491898,306.438199
469.335362,962.267725,-9400.615463,612.876398
469.335686,296.082377,-9622.677246,689.485948
469.336010,-1480.411884,-9844.739029,0.000000
469.336334,-2664.741391,-9622.677246,-842.705048
469.336658,-2146.597232,-10066.800811,-306.438199
469.336983,-666.185348,-9474.636058,612.876398
469.337307,148.041188,-9770.718434,612.876398
469.337631,-222.061783,-10140.821405,459.657299
469.337955,-1406.391290,-9548.656652,0.000000
469.338279,-1776.494261,-9252.574275,-153.219100
469.338603,-444.123565,-8808.450710,0.000000
469.338927,740.205942,-9030.512492,-306.438199
469.339251,148.041188,-9474.636058,-306.438199
469.339575,-1110.308913,-10214.842000,0.000000
469.339899,-2516.700203,-10214.842000,-1072.533697
469.340223,-2368.659014,-9770.718434,-1072.533697
469.340547,-814.226536,-10066.800811,-689.485948
469.340871,0.000000,-10510.924376,-536.266849
469.341195,-148.041188,-10955.047942,-1072.533697
469.341519,0.000000,-10807.006753,76.609550
469.341844,0.000000,-10362.883188,-1072.533697
469.342168,814.226536,-10214.842000,-383.047749
469.342492,1554.432478,-10807.006753,76.609550
469.342816,1776.494261,-11103.089130,76.609550
469.343140,370.102971,-11103.089130,-306.438199
469.343464,-1332.370696,-10732.986159,-612.876398
469.343788,-1850.514855,-10066.800811,-1302.362347
469.344112,-592.164754,-10362.883188,-842.705048
469.344436,740.205942,-9992.780217,-306.438199
469.344760,1406.391290,-9844.739029,-153.219100
469.345084,296.082377,-8882.471304,-383.047749
469.345408,-518.144159,-8290.306550,-995.924147
469.345732,148.041188,-7994.224174,-689.485948
469.346056,1184.329507,-7994.224174,0.000000
469.346380,1258.350101,-8734.430116,306.438199
469.346705,74.020594,-9178.553681,-229.828649
469.347029,-1850.514855,-9622.677246,-459.657299
469.347353,-2146.597232,-9104.533087,-306.438199
469.347677,-888.247130,-9178.553681,0.000000
469.348001,518.144159,-9474.636058,383.047749
469.348325,1480.411884,-9474.636058,536.266849
469.348649,1110.308913,-9474.636058,383.047749
469.348973,888.247130,-9178.553681,0.000000
469.349297,1480.411884,-8956.491898,153.219100
469.349621,2516.700203,-9918.759623,383.047749
469.349945,2738.761985,-10436.903782,153.219100
469.350269,1184.329507,-10436.903782,76.609550
469.350593,-370.102971,-10288.862594,-229.828649
469.350917,-814.226536,-10362.883188,-689.485948
469.351242,222.061783,-10658.965565,0.000000
469.351566,666.185348,-9770.718434,536.266849
469.351890,666.185348,-10066.800811,612.876398
469.352214,-370.102971,-9548.656652,153.219100
469.352538,-1628.453072,-8882.471304,-459.657299
469.352862,-1628.453072,-8142.265362,-612.876398
469.353186,-592.164754,-7698.141797,-153.219100
469.353510,888.247130,-8586.388927,0.000000
469.353834,518.144159,-9844.739029,229.828649
469.354158,-592.164754,-9770.718434,-383.047749
469.354482,-1628.453072,-9770.718434,-766.095498
469.354806,-1332.370696,-9622.677246,-612.876398
469.355130,-444.123565,-10214.842000,-229.828649
469.355454,148.041188,-10807.006753,0.000000
469.355778,0.000000,-10881.027347,153.219100
469.356103,-962.267725,-10436.903782,-842.705048
469.356427,-1258.350101,-9770.718434,-612.876398
469.356751,74.020594,-10288.862594,-459.657299
469.357075,222.061783,-10288.862594,-459.657299
469.357399,0.000000,-11103.089130,-153.219100
469.357723,-1480.411884,-11103.089130,-383.047749
469.358047,-2664.741391,-10288.862594,-689.485948
469.358371,-2590.720797,-10066.800811,-689.485948
469.358695,-1258.350101,-9474.636058,-229.828649
469.359019,0.000000,-9474.636058,76.609550
469.359343,-296.082377,-10214.842000,0.000000
469.359667,-1406.391290,-9696.697840,-383.047749
469.359991,-1628.453072,-8882.471304,-689.485948
469.360315,-370.102971,-8142.265362,-536.266849
469.360639,1184.329507,-8660.409521,383.047749
469.360964,1480.411884,-9178.553681,306.438199
469.361288,444.123565,-9030.512492,306.438199
469.361612,-1110.308913,-9326.594869,76.609550
469.361936,-1110.308913,-9030.512492,153.219100
469.362260,518.144159,-9178.553681,536.266849
469.362584,1480.411884,-9178.553681,995.924147
469.362908,1776.494261,-10288.862594,1072.533697
469.363232,814.226536,-9474.636058,153.219100
469.363556,296.082377,-8882.471304,0.000000
469.363880,814.226536,-8734.430116,-306.438199
469.364204,2146.597232,-9104.533087,612.876398
469.364528,2146.597232,-9844.739029,536.266849
469.364852,814.226536,-10066.800811,459.657299
469.365176,-888.247130,-9992.780217,383.047749
469.365500,-888.247130,-9622.677246,-153.219100
469.365825,74.020594,-9400.615463,612.876398
469.366149,1332.370696,-10066.800811,842.705048
469.366473,962.267725,-9770.718434,919.314598
469.366797,0.000000,-9252.574275,229.828649
469.367121,-296.082377,-8956.491898,0.000000
469.367445,0.000000,-8364.327145,0.000000
469.367769,1258.350101,-8512.368333,0.000000
469.368093,1628.453072,-9474.636058,612.876398
469.368417,370.102971,-9622.677246,536.266849
469.368741,-222.061783,-10436.903782,0.000000
469.369065,-1184.329507,-9918.759623,0.000000
469.369389,0.000000,-9474.636058,229.828649
469.369713,592.164754,-9622.677246,229.828649
469.370037,888.247130,-9696.697840,536.266849
469.370362,370.102971,-10436.903782,383.047749
469.370686,296.082377,-9992.780217,-383.047749
469.371010,370.102971,-9400.615463,-459.657299
469.371334,1332.370696,-9548.656652,0.000000
469.371658,1702.473667,-10288.862594,229.828649
469.371982,814.226536,-10807.006753,0.000000
469.372306,-962.267725,-10807.006753,0.000000
469.372630,-2220.617826,-10066.800811,-536.266849
469.372954,-2294.638420,-9844.739029,-383.047749
469.373278,-962.267725,-10140.821405,0.000000
469.373602,-592.164754,-10288.862594,-306.438199
469.373926,-1110.308913,-9992.780217,0.000000
469.374250,-1924.535449,-9252.574275,-383.047749
469.374574,-1924.535449,-9030.512492,-612.876398
469.374898,-370.102971,-8882.471304,-612.876398
469.375223,0.000000,-8734.430116,-306.438199
469.375547,0.000000,-9326.594869,0.000000
469.375871,-1702.473667,-9400.615463,-459.657299
469.376195,-2442.679609,-9992.780217,-689.485948
469.376519,-1924.535449,-9474.636058,-459.657299
469.376843,-444.123565,-9548.656652,76.609550
469.377167,-296.082377,-10140.821405,0.000000
469.377491,-666.185348,-10214.842000,-536.266849
469.377815,-1628.453072,-9400.615463,-536.266849
469.378139,-1110.308913,-9252.574275,-459.657299
469.378463,0.000000,-9474.636058,-536.266849
469.378787,1258.350101,-9474.636058,-76.609550
469.379111,518.144159,-9696.697840,0.000000
469.379435,-1258.350101,-9696.697840,-842.705048
469.379759,-2146.597232,-9844.739029,-995.924147
469.380084,-1628.453072,-9622.677246,-842.705048
469.380408,0.000000,-9474.636058,-76.609550
469.380732,1332.370696,-9918.759623,536.266849
469.381056,1258.350101,-10066.800811,153.219100
469.381380,444.123565,-9474.636058,-229.828649
469.381704,0.000000,-9030.512492,-536.266849
469.382028,814.226536,-8734.430116,0.000000
469.382352,2220.617826,-9474.636058,0.000000
469.382676,2442.679609,-9622.677246,459.657299
469.383000,888.247130,-10214.842000,459.657299
469.383324,-740.205942,-10436.903782,-383.047749
469.383648,-740.205942,-10140.821405,-995.924147
469.383972,0.000000,-9844.739029,-383.047749
469.384296,1110.308913,-10140.821405,76.609550
469.384620,1776.494261,-10584.944971,306.438199
469.384945,1332.370696,-10362.883188,76.609550
469.385269,1406.391290,-9918.759623,-153.219100
469.385593,1702.473667,-9178.553681,-153.219100
469.385917,2220.617826,-9770.718434,229.828649
469.386241,2146.597232,-10362.883188,459.657299
469.386565,518.144159,-10584.944971,153.219100
469.386889,-592.164754,-10732.986159,0.000000
469.387213,-814.226536,-10288.862594,-383.047749
469.387537,-370.102971,-9770.718434,153.219100
469.387861,1036.288319,-10066.800811,612.876398
469.388185,1036.288319,-10140.821405,536.266849
469.388509,370.102971,-9696.697840,536.266849
469.388833,-296.082377,-8956.491898,76.609550
469.389157,0.000000,-8068.244768,76.609550
469.389482,1110.308913,-8586.388927,-306.438199
469.389806,1184.329507,-9030.512492,-306.438199
469.390130,444.123565,-9770.718434,842.705048
469.390454,-888.247130,-9844.739029,842.705048
469.390778,-1554.432478,-9104.533087,153.219100
469.391102,-1702.473667,-8438.347739,0.000000
469.391426,-1036.288319,-8586.388927,0.000000
469.391750,-1184.329507,-8956.491898,229.828649
469.392074,-1702.473667,-9030.512492,0.000000
469.392398,-2368.659014,-8808.450710,-153.219100
469.392722,-1406.391290,-8586.388927,-306.438199
469.393046,0.000000,-8364.327145,0.000000
469.393370,888.247130,-9252.574275,229.828649
469.393694,148.041188,-10140.821405,-153.219100
469.394018,-1924.535449,-10288.862594,-612.876398
469.394343,-2368.659014,-9992.780217,-919.314598
469.394667,-1480.411884,-10436.903782,-689.485948
469.394991,0.000000,-10436.903782,-306.438199
469.395315,740.205942,-11103.089130,229.828649
469.395639,444.123565,-11399.171507,-153.219100
469.395963,-370.102971,-11103.089130,-383.047749
469.396287,-518.144159,-10362.883188,-766.095498
469.396611,0.000000,-9474.636058,-689.485948
469.396935,1776.494261,-10658.965565,-766.095498
469.397259,1110.308913,-10881.027347,0.000000
469.397583,-296.082377,-11251.130318,-689.485948
469.397907,-1924.535449,-11029.068536,-1302.362347
469.398231,-1850.514855,-10362.883188,-995.924147
469.398555,-592.164754,-9992.780217,-689.485948
469.398879,962.267725,-10436.903782,-153.219100
469.399204,1406.391290,-10436.903782,76.609550
469.399528,296.082377,-10066.800811,-459.657299
469.399852,74.020594,-8956.491898,-689.485948
469.400176,1110.308913,-8882.471304,-459.657299
469.400500,2220.617826,-9770.718434,153.219100
469.400824,2368.659014,-10140.821405,383.047749
469.401148,1258.350101,-10584.944971,459.657299
469.401472,-296.082377,-9992.780217,229.828649
469.401796,0.000000,-9770.718434,76.609550
469.402120,1110.308913,-10066.800811,995.924147
469.402444,1702.473667,-9770.718434,842.705048
469.402768,1332.370696,-9844.739029,536.266849
469.403092,444.123565,-9474.636058,536.266849
469.403416,-296.082377,-8956.491898,612.876398
469.403741,444.123565,-8586.388927,459.657299
469.404065,1776.494261,-8216.285956,1302.362347
469.404389,2072.576638,-8882.471304,995.924147
469.404713,888.247130,-8734.430116,689.485948
469.405037,-888.247130,-8734.430116,-459.657299
469.405362,-1480.411884,-8438.347739,-229.828649
469.405686,-740.205942,-8808.450710,229.828649
469.406010,222.061783,-8956.491898,459.657299
469.406334,148.041188,-9104.533087,536.266849
469.406658,-666.185348,-8956.491898,689.485948
469.406983,-296.082377,-8364.327145,229.828649
469.407307,518.144159,-8438.347739,612.876398
469.407631,1480.411884,-9030.512492,612.876398
469.407955,1480.411884,-9770.718434,612.876398
469.408279,0.000000,-10140.821405,383.047749
469.408604,-1554.432478,-9844.739029,0.000000
469.408928,-1850.514855,-10066.800811,-612.876398
469.409252,-1480.411884,-10288.862594,0.000000
469.409576,74.020594,-10436.903782,383.047749
469.409900,518.144159,-10584.944971,76.609550
469.410224,-814.226536,-10658.965565,0.000000
469.410549,-1924.535449,-10066.800811,-995.924147
469.410873,-1998.556043,-9252.574275,-1378.971896
469.411197,-740.205942,-9548.656652,-1302.362347
469.411521,74.020594,-10214.842000,-153.219100
469.411845,-370.102971,-10214.842000,-766.095498
469.412170,-1480.411884,-10807.006753,-612.876398
469.412494,-2294.638420,-10362.883188,-1532.190996
469.412818,-1628.453072,-10288.862594,-1225.752797
469.413142,-592.164754,-10066.800811,-689.485948
469.413466,-296.082377,-10362.883188,0.000000
469.413791,-296.082377,-10288.862594,0.000000
469.414115,-814.226536,-9400.615463,-1149.143247
469.414439,-592.164754,-8364.327145,-459.657299
469.414763,1036.288319,-8586.388927,-766.095498
469.415087,1776.494261,-9622.677246,-383.047749
469.415412,962.267725,-10214.842000,0.000000
469.415736,-1184.329507,-9992.780217,-306.438199
469.416060,-2738.761985,-9622.677246,-536.266849
469.416384,-2220.617826,-9548.656652,-766.095498
469.416708,-444.123565,-9548.656652,-153.219100
469.417033,444.123565,-10140.821405,0.000000
469.417357,592.164754,-10140.821405,0.000000
469.417681,-148.041188,-9696.697840,-306.438199
469.418005,-148.041188,-9104.533087,-229.828649
469.418329,888.247130,-8808.450710,-229.828649
469.418653,1924.535449,-9400.615463,0.000000
469.418978,1702.473667,-9918.759623,-383.047749
469.419302,296.082377,-10214.842000,-153.219100
469.419626,-148.041188,-10362.883188,-919.314598
469.419950,444.123565,-10140.821405,-612.876398
469.420274,1850.514855,-9844.739029,153.219100
469.420599,2072.576638,-9918.759623,919.314598
469.420923,1480.411884,-10288.862594,306.438199
469.421247,444.123565,-9844.739029,153.219100
469.421571,-222.061783,-8734.430116,-842.705048
469.421895,740.205942,-8586.388927,0.000000
469.422220,1702.473667,-9252.574275,76.609550
469.422544,1924.535449,-9474.636058,153.219100
469.422868,148.041188,-9844.739029,153.219100
469.423192,-1184.329507,-9918.759623,-153.219100
469.423516,-1036.288319,-9474.636058,-689.485948
469.423841,0.000000,-9474.636058,-229.828649
469.424165,1184.329507,-9844.739029,76.609550
469.424489,1850.514855,-9918.759623,919.314598
469.424813,666.185348,-10362.883188,306.438199
469.425137,148.041188,-9548.656652,-153.219100
469.425462,444.123565,-9104.533087,-459.657299
469.425786,1258.350101,-8956.491898,0.000000
469.426110,1480.411884,-9696.697840,76.609550
469.426434,592.164754,-10214.842000,766.095498
469.426758,-962.267725,-10436.903782,536.266849
469.427082,-1628.453072,-10066.800811,76.609550
469.427407,-1702.473667,-9548.656652,0.000000
469.427731,-666.185348,-9474.636058,0.000000
469.428055,-444.123565,-9622.677246,536.266849
469.428379,-518.144159,-9548.656652,536.266849
469.428703,-1258.350101,-8808.450710,76.609550
469.429028,-1184.329507,-8364.327145,-459.657299
469.429352,-444.123565,-7994.224174,-153.219100
469.429676,0.000000,-9104.533087,0.000000
469.430000,-962.267725,-9622.677246,0.000000
469.430324,-2368.659014,-9696.697840,-383.047749
469.430649,-2960.823768,-9770.718434,-459.657299
469.430973,-2664.741391,-9474.636058,0.000000
469.431297,-592.164754,-9548.656652,0.000000
469.431621,222.061783,-9844.739029,459.657299
469.431945,0.000000,-10807.006753,689.485948
469.432270,-814.226536,-10362.883188,306.438199
469.432594,-814.226536,-9548.656652,0.000000
469.432918,0.000000,-9104.533087,-76.609550
469.433242,888.247130,-9918.759623,-229.828649
469.433566,962.267725,-11399.171507,0.000000
469.433891,-962.267725,-10732.986159,0.000000
469.434215,-1776.494261,-10436.903782,-689.485948
469.434539,-962.267725,-10066.800811,-766.095498
469.434863,148.041188,-9844.739029,-612.876398
469.435187,1332.370696,-10362.883188,-229.828649
469.435512,592.164754,-10140.821405,0.000000
469.435836,222.061783,-9474.636058,-153.219100
469.436160,148.041188,-8438.347739,-612.876398
469.436484,1110.308913,-8290.306550,-306.438199
469.436808,1850.514855,-9474.636058,0.000000
469.437132,1110.308913,-10066.800811,0.000000
469.437457,-592.164754,-9918.759623,-612.876398
469.437781,-1332.370696,-9474.636058,-919.314598
469.438105,-1036.288319,-9474.636058,-995.924147
469.438429,888.247130,-9918.759623,-1225.752797
469.438753,2294.638420,-10288.862594,0.000000
469.439078,1998.556043,-10140.821405,-612.876398
469.439402,1258.350101,-10214.842000,-536.266849
469.439726,962.267725,-9548.656652,-766.095498
469.440050,1480.411884,-9474.636058,-306.438199
469.440374,2886.803174,-9696.697840,76.609550
469.440699,2886.803174,-10658.965565,153.219100
469.441023,1332.370696,-10436.903782,-383.047749
469.441347,222.061783,-9918.759623,383.047749
469.441671,0.000000,-9696.697840,-383.047749
469.441995,444.123565,-9474.636058,0.000000
469.442320,962.267725,-9696.697840,306.438199
469.442644,444.123565,-9622.677246,842.705048
469.442968,-296.082377,-9400.615463,229.828649
469.443292,-962.267725,-7698.141797,306.438199
469.443616,-148.041188,-7476.080014,0.000000
469.443941,888.247130,-7920.203579,-153.219100
469.444265,888.247130,-8882.471304,153.219100
469.444589,-962.267725,-8956.491898,0.000000
469.444913,-2368.659014,-9178.553681,-229.828649
469.445237,-3034.844362,-9474.636058,0.000000
469.445561,-1776.494261,-9474.636058,689.485948
469.445886,-740.205942,-9992.780217,459.657299
469.446210,0.000000,-10288.862594,919.314598
469.446534,-592.164754,-10658.965565,306.438199
469.446858,-1184.329507,-9992.780217,306.438199
469.447182,-814.226536,-9622.677246,0.000000
469.447507,-74.020594,-9474.636058,306.438199
469.447831,148.041188,-10362.883188,306.438199
469.448155,-740.205942,-11103.089130,-536.266849
469.448479,-2368.659014,-10955.047942,-153.219100
469.448803,-3108.864956,-10140.821405,-306.438199
469.449128,-2590.720797,-10214.842000,-306.438199
469.449452,-1406.391290,-10214.842000,-229.828649
469.449776,-592.164754,-10584.944971,153.219100
469.450100,-444.123565,-10140.821405,229.828649
469.450424,-1184.329507,-9252.574275,0.000000
469.450749,-1036.288319,-8734.430116,76.609550
469.451073,0.000000,-8956.491898,-306.438199
469.451397,222.061783,-9104.533087,76.609550
469.451721,-222.061783,-9770.718434,153.219100
469.452045,-1628.453072,-9844.739029,-229.828649
469.452370,-1924.535449,-9548.656652,0.000000
469.452694,-814.226536,-9400.615463,76.609550
469.453018,370.102971,-9548.656652,459.657299
469.453342,2146.597232,-10436.903782,306.438199
469.453666,814.226536,-10288.862594,0.000000
469.453991,-148.041188,-9844.739029,-536.266849
469.454315,-444.123565,-8808.450710,-919.314598
469.454639,740.205942,-8586.388927,-612.876398
469.454963,2516.700203,-9474.636058,0.000000
469.455287,2960.823768,-10436.903782,76.609550
469.455611,1480.411884,-10658.965565,76.609550
469.455936,148.041188,-10214.842000,-995.924147
469.456260,-148.041188,-10066.800811,-612.876398
469.456584,740.205942,-10140.821405,-229.828649
469.456908,1554.432478,-10584.944971,459.657299
469.457232,1628.453072,-10584.944971,689.485948
469.457557,1110.308913,-9548.656652,0.000000
469.457881,1332.370696,-8586.388927,153.219100
469.458205,2442.679609,-8586.388927,229.828649
469.458529,3701.029710,-9474.636058,306.438199
469.458853,2664.741391,-9548.656652,229.828649
469.459178,444.123565,-9326.594869,-383.047749
469.459502,-962.267725,-9252.574275,-919.314598
469.459826,-1184.329507,-8956.491898,-919.314598
469.460150,0.000000,-9030.512492,-306.438199
469.460474,1036.288319,-9548.656652,306.438199
469.460799,888.247130,-9622.677246,383.047749
469.461123,-148.041188,-9400.615463,0.000000
469.461447,-1258.350101,-8586.388927,-459.657299
469.461771,-1332.370696,-8512.368333,-689.485948
469.462095,-370.102971,-8808.450710,-459.657299
469.462420,0.000000,-9548.656652,0.000000
469.462744,-370.102971,-11029.068536,-306.438199
469.463068,-888.247130,-10732.986159,-536.266849
469.463392,-1036.288319,-10140.821405,-383.047749
469.463716,-222.061783,-10214.842000,-153.219100
469.464040,296.082377,-10732.986159,76.609550
469.464365,-296.082377,-10955.047942,0.000000
469.464689,-1332.370696,-10436.903782,-919.314598
469.465013,-1776.494261,-9622.677246,-842.705048
469.465337,-1110.308913,-9770.718434,-689.485948
469.465661,-666.185348,-9252.574275,-306.438199
469.465986,-370.102971,-9770.718434,-229.828649
469.466310,-1702.473667,-9474.636058,-229.828649
469.466634,-2960.823768,-9474.636058,-612.876398
469.466958,-3330.926739,-9844.739029,-229.828649
469.467282,-2146.597232,-9770.718434,-229.828649
469.467607,-296.082377,-9622.677246,229.828649
469.467931,222.061783,-9918.759623,536.266849
469.468255,-222.061783,-9622.677246,306.438199
469.468579,-740.205942,-8808.450710,-459.657299
469.468903,-740.205942,-8586.388927,-919.314598
469.469228,296.082377,-8808.450710,-612.876398
469.469552,1850.514855,-9918.759623,0.000000
469.469876,1480.411884,-10658.965565,153.219100
469.470200,148.041188,-10436.903782,-153.219100
469.470524,-666.185348,-10140.821405,-612.876398
469.470849,-74.020594,-10288.862594,-153.219100
469.471173,814.226536,-10955.047942,536.266849
469.471497,1628.453072,-11029.068536,995.924147
469.471821,814.226536,-10436.903782,766.095498
469.472145,-370.102971,-9474.636058,-153.219100
469.472469,-518.144159,-8956.491898,153.219100
469.472794,370.102971,-9400.615463,-153.219100
469.473118,962.267725,-9770.718434,383.047749
469.473442,444.123565,-9770.718434,612.876398
469.473766,-740.205942,-9548.656652,-153.219100
469.474090,-1850.514855,-9030.512492,-536.266849
469.474415,-1110.308913,-8438.347739,-612.876398
469.474739,444.123565,-8808.450710,76.609550
469.475063,1480.411884,-9548.656652,383.047749
469.475387,1480.411884,-9400.615463,766.095498
469.475711,814.226536,-8660.409521,919.314598
469.476036,1184.329507,-8364.327145,306.438199
469.476360,2146.597232,-8216.285956,306.438199
469.476684,3034.844362,-8364.327145,689.485948
469.477008,3552.988522,-9622.677246,1072.533697
469.477332,1924.535449,-10140.821405,383.047749
469.477657,518.144159,-10214.842000,536.266849
469.477981,0.000000,-9474.636058,459.657299
469.478305,296.082377,-9770.718434,383.047749
469.478629,888.247130,-10214.842000,536.266849
469.478953,666.185348,-10732.986159,612.876398
469.479278,74.020594,-10066.800811,-383.047749
469.479602,296.082377,-8956.491898,229.828649
469.479926,444.123565,-8438.347739,-536.266849
469.480250,444.123565,-9400.615463,459.657299
469.480574,74.020594,-10362.883188,383.047749
469.480899,-1924.535449,-10288.862594,0.000000
469.481223,-2960.823768,-9992.780217,-306.438199
469.481547,-2664.741391,-9474.636058,-153.219100
469.481871,-1184.329507,-9474.636058,229.828649
469.482195,-222.061783,-9252.574275,536.266849
469.482519,0.000000,-9326.594869,459.657299
469.482844,-1480.411884,-9474.636058,0.000000
469.483168,-2072.576638,-8808.450710,-306.438199
469.483492,-1258.350101,-8660.409521,-306.438199
469.483816,0.000000,-8290.306550,-536.266849
469.484140,370.102971,-9104.533087,-383.047749
469.484465,0.000000,-10288.862594,-459.657299
469.484789,-888.247130,-10955.047942,-229.828649
469.485113,-1184.329507,-10436.903782,-842.705048
469.485437,-1184.329507,-9992.780217,-536.266849
469.485761,0.000000,-10510.924376,-306.438199
469.486086,0.000000,-11325.150913,-229.828649
469.486410,-814.226536,-11029.068536,0.000000
469.486734,-1332.370696,-10140.821405,-766.095498
469.487058,-518.144159,-9400.615463,-919.314598
469.487382,222.061783,-9622.677246,-306.438199
469.487707,444.123565,-10066.800811,459.657299
469.488031,-740.205942,-10214.842000,-536.266849
469.488355,-2886.803174,-9844.739029,-1149.143247
469.488679,-3552.988522,-9696.697840,-1532.190996
469.489003,-2368.659014,-9622.677246,-1455.581446
469.489328,-370.102971,-9178.553681,-459.657299
469.489652,444.123565,-9326.594869,-383.047749
469.489976,370.102971,-9622.677246,-766.095498
469.490300,-296.082377,-8734.430116,-1302.362347
469.490624,0.000000,-8586.388927,-1149.143247
469.490948,1628.453072,-8882.471304,-536.266849
469.491273,2886.803174,-9474.636058,-306.438199
469.491597,2368.659014,-9548.656652,-153.219100
469.491921,962.267725,-10362.883188,-229.828649
469.492245,592.164754,-10436.903782,-383.047749
469.492569,740.205942,-10510.924376,-612.876398
469.492894,1628.453072,-10288.862594,76.609550
469.493218,1480.411884,-10732.986159,153.219100
469.493542,962.267725,-10584.944971,-306.438199
469.493866,296.082377,-9844.739029,-536.266849
469.494190,740.205942,-9252.574275,-689.485948
469.494515,1406.391290,-9104.533087,-459.657299
469.494839,1924.535449,-9992.780217,0.000000
469.495163,1332.370696,-10288.862594,229.828649
469.495487,-370.102971,-9992.780217,76.609550
469.495811,-1406.391290,-9844.739029,0.000000
469.496136,-1110.308913,-9770.718434,0.000000
469.496460,0.000000,-9770.718434,153.219100
469.496784,518.144159,-9622.677246,842.705048
469.497108,1110.308913,-9474.636058,1685.410096
469.497432,370.102971,-9178.553681,689.485948
469.497757,148.041188,-8364.327145,0.000000
469.498081,666.185348,-7698.141797,153.219100
469.498405,1628.453072,-8290.306550,612.876398
469.498729,1628.453072,-9400.615463,919.314598
469.499053,148.041188,-9400.615463,612.876398
469.499377,-1184.329507,-9844.739029,76.609550
469.499702,-1036.288319,-9548.656652,0.000000
469.500026,-814.226536,-9326.594869,0.000000
469.500350,222.061783,-9844.739029,766.095498
469.500674,74.020594,-10362.883188,995.924147
469.500998,-740.205942,-9992.780217,306.438199
469.501323,-1258.350101,-9474.636058,306.438199
469.501647,-1036.288319,-9104.533087,306.438199
469.501971,148.041188,-9770.718434,0.000000
469.502295,222.061783,-9770.718434,612.876398
469.502619,-1332.370696,-10288.862594,383.047749
469.502944,-2738.761985,-10140.821405,-306.438199
469.503268,-3108.864956,-9918.759623,-612.876398
469.503592,-2368.659014,-9400.615463,0.000000
469.503916,-888.247130,-9548.656652,306.438199
469.504240,-740.205942,-9548.656652,153.219100
469.504565,-1554.432478,-9252.574275,-689.485948
469.504889,-1924.535449,-8808.450710,-306.438199
469.505213,-962.267725,-8512.368333,-612.876398
469.505537,444.123565,-8882.471304,-229.828649
469.505862,1110.308913,-9770.718434,76.609550
469.506186,740.205942,-10584.944971,76.609550
469.506510,-592.164754,-10362.883188,0.000000
469.506835,-814.226536,-10288.862594,-383.047749
469.507159,222.061783,-10436.903782,-459.657299
469.507483,888.247130,-9844.739029,153.219100
469.507807,1702.473667,-10807.006753,229.828649
469.508132,1110.308913,-10584.944971,153.219100
469.508456,444.123565,-9918.759623,-689.485948
469.508780,740.205942,-9400.615463,-1149.143247
469.509104,1628.453072,-9474.636058,-766.095498
469.509429,2442.679609,-10436.903782,-383.047749
469.509753,1702.473667,-10362.883188,0.000000
469.510077,148.041188,-10140.821405,-536.266849
469.510401,-444.123565,-9992.780217,-536.266849
469.510726,0.000000,-9548.656652,-306.438199
469.511050,1406.391290,-10066.800811,306.438199
469.511374,2072.576638,-10288.862594,919.314598
469.511698,1406.391290,-9548.656652,1149.143247
469.512023,740.205942,-9030.512492,-306.438199
469.512347,444.123565,-8068.244768,-459.657299
469.512671,1184.329507,-8290.306550,76.609550
469.512995,1998.556043,-9104.533087,-306.438199
469.513320,1184.329507,-9178.553681,-383.047749
469.513644,-222.061783,-9696.697840,-306.438199
469.513968,-1258.350101,-9844.739029,-995.924147
469.514292,-814.226536,-9178.553681,-612.876398
469.514617,296.082377,-9474.636058,0.000000
469.514941,1036.288319,-10066.800811,459.657299
469.515265,592.164754,-10214.842000,0.000000
469.515590,0.000000,-9918.759623,0.000000
469.515914,0.000000,-9252.574275,0.000000
469.516238,592.164754,-9178.553681,0.000000
469.516562,1036.288319,-9770.718434,76.609550
469.516887,0.000000,-10140.821405,76.609550
469.517211,-1702.473667,-10584.944971,153.219100
469.517535,-2368.659014,-10362.883188,-842.705048
469.517859,-2738.761985,-9992.780217,-612.876398
469.518184,-1628.453072,-10140.821405,-229.828649
469.518508,-222.061783,-10140.821405,-229.828649
469.518832,-518.144159,-9992.780217,0.000000
469.519156,-1406.391290,-9030.512492,0.000000
469.519481,-1554.432478,-8882.471304,-612.876398
469.519805,-1184.329507,-8586.388927,-153.219100
469.520129,0.000000,-8216.285956,-229.828649
469.520453,222.061783,-9178.553681,-153.219100
469.520778,-962.267725,-9844.739029,-306.438199
469.521102,-2220.617826,-10066.800811,-229.828649
469.521426,-1924.535449,-9918.759623,0.000000
469.521750,-1110.308913,-9770.718434,-153.219100
469.522075,0.000000,-10288.862594,229.828649
469.522399,74.020594,-10732.986159,536.266849
469.522723,-592.164754,-10658.965565,0.000000
469.523047,-962.267725,-10140.821405,-306.438199
469.523372,0.000000,-9844.739029,-153.219100
469.523696,1406.391290,-10140.821405,76.609550
469.524020,1776.494261,-10732.986159,0.000000
469.524345,444.123565,-10214.842000,612.876398
469.524669,-1628.453072,-9622.677246,-459.657299
469.524993,-2072.576638,-9992.780217,-689.485948
469.525317,-1554.432478,-9622.677246,-612.876398
469.525642,0.000000,-9474.636058,0.000000
469.525966,370.102971,-9104.533087,153.219100
469.526290,0.000000,-8586.388927,76.609550
469.526614,-666.185348,-7698.141797,-306.438199
469.526939,-148.041188,-7772.162391,-229.828649
469.527263,1110.308913,-7698.141797,-459.657299
469.527587,1776.494261,-8512.368333,306.438199
469.527911,1406.391290,-9326.594869,536.266849
469.528236,0.000000,-9844.739029,0.000000
469.528560,-666.185348,-10362.883188,-612.876398
469.528884,74.020594,-10288.862594,229.828649
469.529208,1850.514855,-10436.903782,1072.533697
469.529533,2590.720797,-10732.986159,1072.533697
469.529857,2072.576638,-9992.780217,76.609550
469.530181,1406.391290,-10066.800811,153.219100
469.530505,2368.659014,-9918.759623,0.000000
469.530830,3256.906145,-10658.965565,229.828649
469.531154,3404.947333,-10658.965565,612.876398
469.531478,1924.535449,-10140.821405,536.266849
469.531802,148.041188,-10732.986159,0.000000
469.532127,-1036.288319,-9770.718434,0.000000
469.532451,-1036.288319,-9844.739029,-306.438199
469.532775,-518.144159,-9548.656652,0.000000
469.533100,148.041188,-9622.677246,229.828649
469.533424,222.061783,-9400.615463,306.438199
469.533748,-518.144159,-8290.306550,229.828649
469.534072,-888.247130,-8808.450710,-306.438199
469.534397,0.000000,-7994.224174,-229.828649
469.534721,1110.308913,-8586.388927,0.000000
469.535045,1184.329507,-9252.574275,536.266849
469.535369,222.061783,-10288.862594,229.828649
469.535694,-666.185348,-10288.862594,-306.438199
469.536018,-888.247130,-10362.883188,-153.219100
469.536342,-444.123565,-9844.739029,229.828649
469.536666,-296.082377,-10140.821405,0.000000
469.536991,-370.102971,-10881.027347,459.657299
469.537315,-1480.411884,-10140.821405,-383.047749
469.537639,-1850.514855,-9474.636058,-612.876398
469.537963,-1258.350101,-9474.636058,-153.219100
469.538288,-370.102971,-9622.677246,229.828649
469.538612,-888.247130,-9474.636058,-383.047749
469.538936,-2590.720797,-9622.677246,-919.314598
469.539260,-3775.050304,-9844.739029,-995.924147
469.539585,-3997.112087,-9474.636058,-1225.752797
469.539909,-2220.617826,-9622.677246,-766.095498
469.540233,-444.123565,-9770.718434,-229.828649
469.540557,-222.061783,-9548.656652,0.000000
469.540882,-666.185348,-9400.615463,-383.047749
469.541206,-666.185348,-8956.491898,-76.609550
469.541530,148.041188,-8512.368333,-306.438199
469.541855,1702.473667,-8660.409521,76.609550
469.542179,1628.453072,-9622.677246,766.095498
469.542503,814.226536,-9844.739029,0.000000
469.542827,-962.267725,-9622.677246,-842.705048
469.543152,-2072.576638,-9400.615463,-1378.971896
469.543476,-1036.288319,-9474.636058,-1072.533697
469.543800,0.000000,-9252.574275,76.609550
469.544124,666.185348,-9918.759623,229.828649
469.544449,592.164754,-9474.636058,-153.219100
469.544773,444.123565,-9178.553681,-612.876398
469.545097,1184.329507,-9474.636058,-612.876398
469.545421,2442.679609,-10066.800811,-153.219100
469.545746,3034.844362,-10510.924376,536.266849
469.546070,2590.720797,-11029.068536,1149.143247
469.546394,518.144159,-10807.006753,306.438199
469.546718,518.144159,-11029.068536,229.828649
469.547043,740.205942,-10807.006753,-229.828649
469.547367,1628.453072,-10807.006753,0.000000
469.547691,1480.411884,-10955.047942,229.828649
469.548015,666.185348,-11103.089130,229.828649
469.548340,-296.082377,-10140.821405,-229.828649
469.548664,-740.205942,-9178.553681,-1225.752797
469.548988,0.000000,-8882.471304,-689.485948
469.549312,592.164754,-9400.615463,-383.047749
469.549637,444.123565,-9326.594869,0.000000
469.549961,-518.144159,-9844.739029,536.266849
469.550285,-370.102971,-9474.636058,76.609550
469.550610,0.000000,-9400.615463,229.828649
469.550934,1110.308913,-9474.636058,766.095498
469.551258,1258.350101,-9770.718434,995.924147
469.551582,740.205942,-9548.656652,1225.752797
469.551907,148.041188,-9548.656652,459.657299
469.552231,0.000000,-8364.327145,459.657299
469.552555,370.102971,-8438.347739,689.485948
469.552879,1110.308913,-8586.388927,459.657299
469.553204,592.164754,-9326.594869,689.485948
469.553528,-962.267725,-9770.718434,229.828649
469.553852,-2072.576638,-9622.677246,0.000000
469.554176,-1628.453072,-9178.553681,0.000000
469.554501,-814.226536,-9030.512492,306.438199
469.554825,0.000000,-9696.697840,612.876398
469.555149,-222.061783,-9844.739029,459.657299
469.555473,-1332.370696,-9770.718434,459.657299
469.555798,-1480.411884,-9104.533087,306.438199
469.556122,-518.144159,-8660.409521,536.266849
469.556446,0.000000,-8438.347739,229.828649
469.556770,0.000000,-8956.491898,766.095498
469.557095,-1036.288319,-9474.636058,0.000000
469.557419,-2590.720797,-9178.553681,-306.438199
469.557743,-2812.782580,-9252.574275,-612.876398
469.558067,-2146.597232,-9104.533087,-536.266849
469.558392,-1406.391290,-9770.718434,-153.219100
469.558716,-1480.411884,-9696.697840,-383.047749
469.559040,-1776.494261,-9770.718434,-459.657299
469.559365,-1702.473667,-9326.594869,-1378.971896
469.559689,-296.082377,-10066.800811,-919.314598
469.560013,962.267725,-10510.924376,-383.047749
469.560337,1110.308913,-10658.965565,-229.828649
469.560662,0.000000,-11029.068536,-306.438199
469.560986,-1406.391290,-11177.109724,-536.266849
469.561310,-1480.411884,-10732.986159,-1455.581446
469.561634,0.000000,-11399.171507,-1149.143247
469.561959,666.185348,-11029.068536,-689.485948
469.562283,888.247130,-11177.109724,0.000000
469.562607,518.144159,-10881.027347,-766.095498
469.562931,-518.144159,-9844.739029,-995.924147
469.563256,-296.082377,-9252.574275,-919.314598
469.563580,740.205942,-9252.574275,-766.095498
469.563904,1850.514855,-10066.800811,-459.657299
469.564228,666.185348,-10066.800811,0.000000
469.564553,-444.123565,-9918.759623,-383.047749
469.564877,-444.123565,-9474.636058,-689.485948
469.565201,592.164754,-9400.615463,-229.828649
469.565525,2146.597232,-9474.636058,306.438199
469.565850,2590.720797,-9844.739029,459.657299
469.566174,1924.535449,-9178.553681,459.657299
469.566498,1702.473667,-8586.388927,0.000000
469.566822,1998.556043,-8142.265362,-229.828649
469.567147,3330.926739,-8586.388927,76.609550
469.567471,2960.823768,-8882.471304,459.657299
469.567795,1850.514855,-9622.677246,306.438199
469.568120,0.000000,-9770.718434,0.000000
469.568444,-814.226536,-9622.677246,76.609550
469.568768,0.000000,-9918.759623,459.657299
469.569092,518.144159,-9548.656652,306.438199
469.569417,814.226536,-9548.656652,842.705048
469.569741,0.000000,-9696.697840,1072.533697
469.570065,-888.247130,-9400.615463,689.485948
469.570389,-740.205942,-8660.409521,153.219100
469.570714,0.000000,-8586.388927,229.828649
469.571038,444.123565,-8512.368333,459.657299
469.571362,740.205942,-9252.574275,306.438199
469.571686,-296.082377,-9622.677246,306.438199
469.572011,-1924.535449,-9474.636058,0.000000
469.572335,-1924.535449,-9326.594869,0.000000
469.572659,-1332.370696,-9400.615463,0.000000
469.572983,-740.205942,-9548.656652,383.047749
469.573308,-666.185348,-10288.862594,1072.533697
469.573632,-1628.453072,-9548.656652,229.828649
469.573956,-1628.453072,-9252.574275,153.219100
469.574280,-740.205942,-9178.553681,459.657299
469.574605,222.061783,-9844.739029,536.266849
469.574929,0.000000,-10807.006753,306.438199
469.575253,-1554.432478,-11029.068536,0.000000
469.575577,-2960.823768,-10658.965565,-459.657299
469.575902,-2516.700203,-10362.883188,-536.266849
469.576226,-1184.329507,-10140.821405,0.000000
469.576550,0.000000,-10955.047942,153.219100
469.576875,444.123565,-11103.089130,0.000000
469.577199,-962.267725,-10510.924376,-383.047749
469.577523,-1332.370696,-9918.759623,-536.266849
469.577847,-962.267725,-9326.594869,-536.266849
469.578172,222.061783,-9400.615463,0.000000
469.578496,814.226536,-9326.594869,383.047749
469.578820,148.041188,-9474.636058,0.000000
469.579144,-1776.494261,-9548.656652,-153.219100
469.579469,-1702.473667,-9400.615463,-612.876398
469.579793,-592.164754,-9104.533087,-153.219100
469.580117,666.185348,-9252.574275,229.828649
469.580441,1036.288319,-9400.615463,-229.828649
469.580766,444.123565,-9252.574275,0.000000
469.581090,518.144159,-9104.533087,0.000000
469.581414,1628.453072,-8956.491898,-306.438199
469.581738,2294.638420,-8660.409521,-459.657299
469.582063,2516.700203,-9400.615463,-383.047749
469.582387,1702.473667,-10066.800811,0.000000
469.582711,592.164754,-10214.842000,-612.876398
469.583035,222.061783,-10436.903782,-306.438199
469.583360,222.061783,-10140.821405,-229.828649
469.583684,1924.535449,-10214.842000,0.000000
469.584008,1924.535449,-10288.862594,536.266849
469.584332,888.247130,-10214.842000,76.609550
469.584657,148.041188,-9844.739029,-459.657299
469.584981,296.082377,-9474.636058,-459.657299
469.585305,1184.329507,-8808.450710,-153.219100
469.585630,2294.638420,-8734.430116,0.000000
469.585954,1850.514855,-9770.718434,0.000000
469.586278,74.020594,-9474.636058,-306.438199
469.586602,-444.123565,-9770.718434,-306.438199
469.586927,-444.123565,-9696.697840,-459.657299
469.587251,444.123565,-9696.697840,153.219100
469.587575,1036.288319,-9918.759623,459.657299
469.587899,666.185348,-9474.636058,919.314598
469.588224,296.082377,-9030.512492,229.828649
469.588548,74.020594,-9326.594869,76.609550
469.588872,1036.288319,-8808.450710,229.828649
469.589196,1332.370696,-9548.656652,766.095498
469.589521,222.061783,-9696.697840,995.924147
469.589845,-1702.473667,-9548.656652,229.828649
469.590169,-2960.823768,-9252.574275,-383.047749
469.590493,-2812.782580,-9400.615463,-383.047749
469.590818,-1554.432478,-9770.718434,383.047749
469.591142,-296.082377,-9992.780217,459.657299
469.591466,-592.164754,-9844.739029,229.828649
469.591790,-1406.391290,-9178.553681,0.000000
469.592115,-2294.638420,-8734.430116,0.000000
469.592439,-1184.329507,-9104.533087,0.000000
469.592763,222.061783,-9474.636058,459.657299
469.593087,148.041188,-9622.677246,459.657299
469.593412,-1036.288319,-9992.780217,229.828649
469.593736,-2072.576638,-9844.739029,-306.438199
469.594060,-2368.659014,-9548.656652,-459.657299
469.594385,-1702.473667,-9622.677246,76.609550
469.594709,-888.247130,-10362.883188,153.219100
469.595033,-518.144159,-10140.821405,306.438199
469.595357,-888.247130,-9178.553681,0.000000
469.595682,-592.164754,-8956.491898,-306.438199
469.596006,592.164754,-9252.574275,-842.705048
469.596330,1332.370696,-9696.697840,0.000000
469.596654,444.123565,-9992.780217,76.609550
469.596979,-740.205942,-9918.759623,0.000000
469.597303,-1924.535449,-10140.821405,-459.657299
469.597627,-2146.597232,-10658.965565,-536.266849
469.597951,-444.123565,-10807.006753,153.219100
469.598276,888.247130,-10807.006753,229.828649
469.598600,1036.288319,-10510.924376,689.485948
469.598924,74.020594,-9992.780217,0.000000
469.599248,-222.061783,-9474.636058,-306.438199
469.599573,1036.288319,-9770.718434,-306.438199
469.599897,2220.617826,-9474.636058,76.609550
469.600221,2664.741391,-9622.677246,536.266849
469.600545,1924.535449,-10288.862594,153.219100
469.600870,296.082377,-10436.903782,-459.657299
469.601194,0.000000,-10066.800811,-459.657299
469.601518,444.123565,-9770.718434,-229.828649
469.601842,814.226536,-9474.636058,-153.219100
469.602167,1036.288319,-9844.739029,306.438199
469.602491,444.123565,-9474.636058,229.828649
469.602815,666.185348,-8882.471304,0.000000
469.603140,1554.432478,-8660.409521,-153.219100
469.603464,2368.659014,-8364.327145,229.828649
469.603788,2146.597232,-8734.430116,766.095498
469.604112,1258.350101,-9548.656652,842.705048
469.604437,-592.164754,-9622.677246,612.876398
469.604761,-1184.329507,-9548.656652,0.000000
469.605085,-666.185348,-9548.656652,76.609550
469.605409,444.123565,-9770.718434,153.219100
469.605733,1628.453072,-10288.862594,1072.533697
469.606057,1184.329507,-9696.697840,536.266849
469.606382,0.000000,-9400.615463,-306.438199
469.606706,-370.102971,-8660.409521,76.609550
469.607030,296.082377,-8586.388927,229.828649
469.607354,1110.308913,-8956.491898,76.609550
469.607678,740.205942,-9474.636058,612.876398
469.608002,-148.041188,-9844.739029,306.438199
469.608327,-740.205942,-9770.718434,0.000000
469.608651,-740.205942,-9104.533087,0.000000
469.608975,-740.205942,-9030.512492,0.000000
469.609299,-592.164754,-9770.718434,229.828649
469.609623,-1480.411884,-9770.718434,536.266849
469.609947,-2368.659014,-9178.553681,0.000000
469.610272,-2072.576638,-8660.409521,-459.657299
469.610596,-1184.329507,-8586.388927,-536.266849
469.610920,-296.082377,-9400.615463,-919.314598
469.611244,-666.185348,-9474.636058,-153.219100
469.611568,-2146.597232,-9844.739029,-306.438199
469.611892,-2664.741391,-9770.718434,-612.876398
469.612217,-2516.700203,-9992.780217,-995.924147
469.612541,-1184.329507,-9992.780217,-612.876398
469.612865,0.000000,-10732.986159,-459.657299
469.613189,148.041188,-11103.089130,-76.609550
469.613513,0.000000,-11103.089130,-153.219100
469.613837,-296.082377,-9992.780217,-612.876398
469.614162,222.061783,-9622.677246,-536.266849
469.614486,1110.308913,-10066.800811,-459.657299
469.614810,1110.308913,-10807.006753,-612.876398
469.615134,-148.041188,-11325.150913,-842.705048
469.615458,-1480.411884,-10955.047942,-1532.190996
469.615782,-1480.411884,-9992.780217,-1149.143247
469.616107,-222.061783,-10584.944971,-1072.533697
469.616431,518.144159,-10140.821405,-459.657299
469.616755,1036.288319,-10584.944971,0.000000
469.617079,370.102971,-10066.800811,-459.657299
469.617403,0.000000,-9326.594869,-766.095498
469.617727,592.164754,-8882.471304,-383.047749
469.618052,1554.432478,-8364.327145,76.609550
469.618376,1998.556043,-9400.615463,459.657299
469.618700,814.226536,-9918.759623,76.609550
469.619024,-814.226536,-9622.677246,-383.047749
469.619348,-888.247130,-9400.615463,-612.876398
469.619672,-148.041188,-9326.594869,-153.219100
469.619997,1036.288319,-9844.739029,229.828649
469.620321,1628.453072,-10288.862594,612.876398
469.620645,814.226536,-9992.780217,383.047749
469.620969,222.061783,-9474.636058,229.828649
469.621293,666.185348,-8734.430116,229.828649
469.621617,2072.576638,-8956.491898,459.657299
469.621942,2368.659014,-9400.615463,306.438199
469.622266,1702.473667,-10288.862594,842.705048
469.622590,296.082377,-9918.759623,536.266849
469.622914,-666.185348,-9326.594869,459.657299
469.623238,-222.061783,-9474.636058,383.047749
469.623562,666.185348,-8956.491898,1302.362347
469.623887,1036.288319,-9326.594869,842.705048
469.624211,0.000000,-8808.450710,1225.752797
469.624535,-740.205942,-8290.306550,766.095498
469.624859,-592.164754,-8142.265362,459.657299
469.625183,0.000000,-7920.203579,689.485948
469.625507,0.000000,-7846.182985,766.095498
469.625832,0.000000,-9104.533087,306.438199
469.626156,-1480.411884,-9104.533087,459.657299
469.626480,-1998.556043,-9474.636058,459.657299
469.626804,-1702.473667,-9326.594869,612.876398
469.627128,-222.061783,-9696.697840,459.657299
469.627452,814.226536,-10288.862594,1072.533697
469.627777,444.123565,-10807.006753,612.876398
469.628101,-296.082377,-10214.842000,229.828649
469.628425,-518.144159,-9548.656652,229.828649
469.628749,148.041188,-9474.636058,919.314598
469.629073,370.102971,-9844.739029,459.657299
469.629397,74.020594,-10732.986159,0.000000
469.629722,-1480.411884,-10955.047942,0.000000
469.630046,-2368.659014,-10807.006753,-229.828649
469.630370,-2294.638420,-10658.965565,-689.485948
469.630694,-1628.453072,-10436.903782,0.000000
469.631018,-1036.288319,-10584.944971,-383.047749
469.631342,-1480.411884,-10510.924376,-689.485948
469.631667,-1480.411884,-10214.842000,-919.314598
469.631991,-1110.308913,-9548.656652,-1225.752797
469.632315,148.041188,-9178.553681,-1072.533697
469.632639,1406.391290,-9178.553681,-536.266849
469.632963,962.267725,-9844.739029,306.438199
469.633287,-148.041188,-9844.739029,-842.705048
469.633612,-1480.411884,-9474.636058,-1608.800546
469.633936,-1776.494261,-9844.739029,-1455.581446
469.634260,-592.164754,-10140.821405,-612.876398
469.634584,666.185348,-10436.903782,0.000000
469.634908,888.247130,-10288.862594,612.876398
469.635232,0.000000,-9770.718434,0.000000
469.635557,-962.267725,-9326.594869,-1991.848295
469.635881,-222.061783,-8734.430116,-1149.143247
469.636205,1406.391290,-9104.533087,-536.266849
469.636529,2368.659014,-9770.718434,-689.485948
469.636853,1258.350101,-10140.821405,-306.438199
469.637177,0.000000,-10214.842000,-612.876398
469.637502,-148.041188,-9326.594869,-1302.362347
469.637826,888.247130,-9770.718434,-459.657299
469.638150,1332.370696,-9622.677246,0.000000
469.638474,1480.411884,-10288.862594,459.657299
469.638798,1258.350101,-9770.718434,0.000000
469.639122,1036.288319,-8882.471304,-306.438199
469.639447,1332.370696,-8660.409521,0.000000
469.639771,1924.535449,-9030.512492,153.219100
469.640095,2072.576638,-9474.636058,153.219100
469.640419,74.020594,-9030.512492,153.219100
469.640743,-1184.329507,-8882.471304,-842.705048
469.641067,-1702.473667,-8956.491898,-1072.533697
469.641392,-370.102971,-9474.636058,-383.047749
469.641716,1036.288319,-9548.656652,0.000000
469.642040,1332.370696,-9918.759623,153.219100
469.642364,740.205942,-9622.677246,0.000000
469.642688,-370.102971,-8956.491898,0.000000
469.643012,-148.041188,-8512.368333,-306.438199
469.643337,1184.329507,-8808.450710,153.219100
469.643661,1628.453072,-10066.800811,306.438199
469.643985,888.247130,-10807.006753,536.266849
469.644309,-444.123565,-10807.006753,153.219100
469.644633,-1702.473667,-10732.986159,153.219100
469.644957,-2072.576638,-10066.800811,-229.828649
469.645282,-1110.308913,-11103.089130,229.828649
469.645606,-518.144159,-11177.109724,919.314598
469.645930,-592.164754,-10658.965565,383.047749
469.646254,-1184.329507,-9918.759623,0.000000
469.646578,-888.247130,-9400.615463,0.000000
469.646902,0.000000,-8882.471304,-383.047749
469.647227,148.041188,-9474.636058,0.000000
469.647551,-592.164754,-9918.759623,76.609550
469.647875,-1776.494261,-9844.739029,-459.657299
469.648199,-2368.659014,-9770.718434,-153.219100
469.648523,-2516.700203,-9474.636058,-306.438199
469.648847,-1110.308913,-9548.656652,306.438199
469.649172,-296.082377,-9992.780217,612.876398
469.649496,-592.164754,-10066.800811,766.095498
469.649820,-1702.473667,-9252.574275,229.828649
469.650144,-1628.453072,-8586.388927,536.266849
469.650468,-518.144159,-7920.203579,383.047749
469.650792,1036.288319,-8586.388927,612.876398
469.651117,1554.432478,-9770.718434,766.095498
469.651441,370.102971,-10066.800811,536.266849
469.651765,-592.164754,-10066.800811,153.219100
469.652089,-888.247130,-9474.636058,-153.219100
469.652413,74.020594,-9474.636058,0.000000
469.652737,1036.288319,-9622.677246,842.705048
469.653062,888.247130,-9548.656652,995.924147
469.653386,740.205942,-9992.780217,383.047749
469.653710,666.185348,-9326.594869,0.000000
469.654034,1332.370696,-8882.471304,0.000000
469.654358,2072.576638,-9178.553681,383.047749
469.654682,1702.473667,-9326.594869,766.095498
469.655007,296.082377,-9548.656652,689.485948
469.655331,-962.267725,-9622.677246,306.438199
469.655655,-888.247130,-9696.697840,0.000000
469.655979,74.020594,-9326.594869,153.219100
469.656303,1554.432478,-9474.636058,383.047749
469.656627,1480.411884,-9696.697840,766.095498
469.656952,1110.308913,-9548.656652,153.219100
469.657276,370.102971,-9030.512492,-229.828649
469.657600,1332.370696,-8808.450710,0.000000
469.657924,2294.638420,-8290.306550,-306.438199
469.658248,2442.679609,-9992.780217,0.000000
469.658572,1702.473667,-10807.006753,0.000000
469.658897,148.041188,-11029.068536,-306.438199
469.659221,-666.185348,-10510.924376,-995.924147
469.659545,-370.102971,-10288.862594,-229.828649
469.659869,370.102971,-10214.842000,0.000000
469.660193,888.247130,-10732.986159,306.438199
469.660517,592.164754,-10881.027347,306.438199
469.660842,148.041188,-9918.759623,-153.219100
469.661166,0.000000,-9252.574275,-306.438199
469.661490,592.164754,-9252.574275,-459.657299
469.661814,370.102971,-9474.636058,0.000000
469.662138,-666.185348,-10140.821405,-612.876398
469.662462,-2220.617826,-9548.656652,-536.266849
469.662787,-2664.741391,-9918.759623,-766.095498
469.663111,-2368.659014,-9622.677246,-766.095498
469.663435,-814.226536,-9622.677246,-383.047749
469.663759,-444.123565,-9844.739029,0.000000
469.664083,-1110.308913,-9474.636058,-536.266849
469.664407,-2146.597232,-8660.409521,-383.047749
469.664732,-2516.700203,-8512.368333,0.000000
469.665056,-370.102971,-8586.388927,-306.438199
469.665380,666.185348,-8956.491898,0.000000
469.665704,518.144159,-9992.780217,76.609550
469.666028,-518.144159,-10436.903782,0.000000
469.666352,-1184.329507,-10288.862594,-612.876398
469.666677,-962.267725,-9474.636058,-306.438199
469.667001,-148.041188,-9474.636058,-229.828649
469.667325,148.041188,-10288.862594,0.000000
469.667649,-444.123565,-10510.924376,0.000000
469.667973,-740.205942,-10066.800811,0.000000
469.668297,-666.185348,-9252.574275,-842.705048
469.668622,74.020594,-9030.512492,-842.705048
469.668946,592.164754,-9030.512492,689.485948
469.669270,148.041188,-9770.718434,0.000000
469.669594,-1554.432478,-9992.780217,0.000000
469.669918,-2516.700203,-9992.780217,-383.047749
469.670242,-2368.659014,-9770.718434,-383.047749
469.670567,-962.267725,-9770.718434,-153.219100
469.670891,74.020594,-9992.780217,229.828649
469.671215,222.061783,-9992.780217,229.828649
469.671539,-740.205942,-9326.594869,0.000000
469.671863,-1110.308913,-9178.553681,-612.876398
469.672187,-222.061783,-8734.430116,-536.266849
469.672512,740.205942,-8956.491898,0.000000
469.672836,1998.556043,-10140.821405,76.609550
469.673160,1332.370696,-10807.006753,153.219100
469.673484,370.102971,-11103.089130,0.000000
469.673808,666.185348,-10584.944971,153.219100
469.674132,1998.556043,-10807.006753,612.876398
469.674457,2886.803174,-11177.109724,1225.752797
469.674781,2590.720797,-10955.047942,1302.362347
469.675105,1924.535449,-10214.842000,536.266849
469.675429,1258.350101,-9474.636058,0.000000
469.675753,1776.494261,-9252.574275,0.000000
469.676077,2220.617826,-9400.615463,612.876398
469.676402,2294.638420,-9770.718434,995.924147
469.676726,518.144159,-9770.718434,0.000000
469.677050,-1036.288319,-9178.553681,-229.828649
469.677374,-1702.473667,-8734.430116,76.609550
469.677698,-592.164754,-9252.574275,0.000000
469.678022,592.164754,-9252.574275,689.485948
469.678347,1036.288319,-9030.512492,842.705048
469.678671,592.164754,-8808.450710,1072.533697
469.678995,-296.082377,-7846.182985,306.438199
469.679319,592.164754,-7846.182985,153.219100
469.679643,1406.391290,-8068.244768,919.314598
469.679967,1554.432478,-9104.533087,766.095498
469.680292,592.164754,-9696.697840,612.876398
469.680616,-592.164754,-9918.759623,76.609550
469.680940,-1480.411884,-9770.718434,0.000000
469.681264,-1110.308913,-9696.697840,153.219100
469.681588,-148.041188,-9622.677246,153.219100
469.681912,0.000000,-9844.739029,0.000000
469.682237,-814.226536,-9918.759623,-76.609550
469.682561,-1110.308913,-9252.574275,-306.438199
469.682885,-814.226536,-9030.512492,-919.314598
469.683209,-222.061783,-8956.491898,-612.876398
469.683533,74.020594,-9474.636058,0.000000
469.683857,-814.226536,-9474.636058,-383.047749
469.684182,-2886.803174,-10436.903782,-229.828649
469.684506,-3256.906145,-10066.800811,-1378.971896
469.684830,-2590.720797,-9918.759623,-1149.143247
469.685154,-1258.350101,-9992.780217,-766.095498
469.685478,-666.185348,-10214.842000,-306.438199
469.685802,-740.205942,-10658.965565,-153.219100
469.686127,-1258.350101,-10140.821405,-306.438199
469.686451,-1332.370696,-9252.574275,-459.657299
469.686775,370.102971,-9104.533087,-383.047749
469.687099,962.267725,-8882.471304,-612.876398
469.687423,740.205942,-10510.924376,-153.219100
469.687747,-444.123565,-11399.171507,-459.657299
469.688072,-1258.350101,-10881.027347,-1225.752797
469.688396,-740.205942,-9918.759623,-689.485948
469.688720,0.000000,-9770.718434,-383.047749
469.689044,1776.494261,-10732.986159,-536.266849
469.689368,1110.308913,-10658.965565,-306.438199
469.689692,296.082377,-10288.862594,-689.485948
469.690017,518.144159,-9696.697840,-842.705048
469.690341,1628.453072,-9992.780217,-536.266849
469.690665,2146.597232,-10288.862594,0.000000
469.690989,1554.432478,-10288.862594,383.047749
469.691313,148.041188,-10584.944971,612.876398
469.691637,-1184.329507,-10362.883188,229.828649
469.691962,-1332.370696,-9844.739029,-153.219100
469.692286,0.000000,-9992.780217,0.000000
469.692610,444.123565,-9548.656652,0.000000
469.692934,74.020594,-9474.636058,0.000000
469.693258,-444.123565,-9104.533087,0.000000
469.693582,0.000000,-8734.430116,0.000000
469.693907,518.144159,-7624.121203,0.000000
469.694231,1776.494261,-8142.265362,995.924147
469.694555,1924.535449,-8586.388927,459.657299
469.694879,1184.329507,-9474.636058,383.047749
469.695203,0.000000,-9474.636058,536.266849
469.695527,222.061783,-9326.594869,459.657299
469.695852,888.247130,-9178.553681,689.485948
469.696176,1850.514855,-9104.533087,459.657299
469.696500,2220.617826,-9770.718434,1608.800546
469.696824,1924.535449,-9474.636058,995.924147
469.697148,1184.329507,-8956.491898,612.876398
469.697472,1258.350101,-8660.409521,459.657299
469.697797,1554.432478,-8808.450710,153.219100
469.698121,1480.411884,-9548.656652,919.314598
469.698445,0.000000,-9622.677246,153.219100
469.698769,-1184.329507,-9992.780217,153.219100
469.699093,-2072.576638,-9474.636058,-536.266849
469.699417,-2220.617826,-9622.677246,-383.047749
469.699742,-1332.370696,-9548.656652,0.000000
469.700066,-592.164754,-10066.800811,229.828649
469.700390,-1036.288319,-10436.903782,612.876398
469.700714,-1480.411884,-10584.944971,536.266849
469.701038,-1776.494261,-9474.636058,306.438199
469.701362,-370.102971,-8956.491898,766.095498
469.701687,74.020594,-9252.574275,306.438199
469.702011,-370.102971,-10362.883188,306.438199
469.702335,-1850.514855,-10732.986159,0.000000
469.702659,-2368.659014,-10584.944971,-306.438199
469.702983,-2220.617826,-9474.636058,-612.876398
469.703307,-1258.350101,-9252.574275,-229.828649
469.703632,-518.144159,-9696.697840,-383.047749
469.703956,-592.164754,-10140.821405,-612.876398
469.704280,-1332.370696,-9918.759623,-842.705048
469.704604,-666.185348,-9326.594869,-766.095498
469.704928,592.164754,-9474.636058,0.000000
469.705252,1480.411884,-9696.697840,306.438199
469.705577,1036.288319,-10066.800811,536.266849
469.705901,-888.247130,-9770.718434,-229.828649
469.706225,-2220.617826,-9548.656652,-689.485948
469.706549,-2072.576638,-9400.615463,0.000000
469.706874,-666.185348,-8956.491898,0.000000
469.707198,296.082377,-9252.574275,76.609550
469.707522,-370.102971,-9770.718434,306.438199
469.707846,-1110.308913,-9030.512492,-383.047749
469.708170,-1184.329507,-8364.327145,-842.705048
469.708495,-740.205942,-7994.224174,-766.095498
469.708819,592.164754,-8438.347739,-1225.752797
469.709143,592.164754,-9622.677246,-536.266849
469.709467,592.164754,-10732.986159,-383.047749
469.709792,0.000000,-10658.965565,-842.705048
469.710116,444.123565,-9992.780217,-383.047749
469.710440,2294.638420,-10436.903782,612.876398
469.710764,3627.009116,-10881.027347,306.438199
469.711088,3330.926739,-10807.006753,0.000000
469.711413,2516.700203,-10066.800811,306.438199
469.711737,2294.638420,-9918.759623,0.000000
469.712061,2664.741391,-9696.697840,-229.828649
469.712385,3108.864956,-9844.739029,0.000000
469.712710,2368.659014,-10066.800811,76.609550
469.713034,814.226536,-9918.759623,-383.047749
469.713358,-888.247130,-10066.800811,-383.047749
469.713682,-1258.350101,-9548.656652,-689.485948
469.714006,-740.205942,-9770.718434,-536.266849
469.714331,222.061783,-9918.759623,-459.657299
469.714655,222.061783,-10140.821405,0.000000
469.714979,-518.144159,-9548.656652,-306.438199
469.715303,-1184.329507,-9104.533087,-459.657299
469.715628,-370.102971,-8734.430116,-153.219100
469.715952,-148.041188,-8512.368333,383.047749
469.716276,222.061783,-9104.533087,689.485948
469.716600,0.000000,-9918.759623,229.828649
469.716924,-1406.391290,-10066.800811,0.000000
469.717249,-2220.617826,-9474.636058,-306.438199
469.717573,-1998.556043,-9104.533087,0.000000
469.717897,-814.226536,-9474.636058,-153.219100
469.718221,-962.267725,-10066.800811,0.000000
469.718546,-1406.391290,-10362.883188,-995.924147
469.718870,-1184.329507,-9548.656652,-306.438199
469.719194,-222.061783,-8956.491898,-229.828649
469.719518,296.082377,-9030.512492,-383.047749
469.719842,592.164754,-9622.677246,153.219100
469.720167,-666.185348,-10066.800811,76.609550
469.720491,-1998.556043,-9622.677246,0.000000
469.720815,-2812.782580,-9474.636058,0.000000
469.721139,-1554.432478,-9178.553681,-536.266849
469.721464,-444.123565,-9548.656652,-459.657299
469.721788,0.000000,-9992.780217,-306.438199
469.722112,-1036.288319,-9992.780217,-383.047749
469.722436,-1998.556043,-9474.636058,-459.657299
469.722760,-1628.453072,-8586.388927,-842.705048
469.723085,0.000000,-8586.388927,0.000000
469.723409,518.144159,-9770.718434,153.219100
469.723733,296.082377,-10214.842000,-383.047749
469.724057,-592.164754,-10140.821405,-153.219100
469.724382,-1184.329507,-10658.965565,-306.438199
469.724706,0.000000,-10066.800811,-766.095498
469.725030,1258.350101,-10066.800811,0.000000
469.725354,1850.514855,-11547.212695,459.657299
469.725678,1776.494261,-11103.089130,0.000000
469.726003,592.164754,-10362.883188,-536.266849
469.726327,148.041188,-9474.636058,-766.095498
469.726651,1258.350101,-9474.636058,-383.047749
469.726975,2590.720797,-10362.883188,-536.266849
469.727300,2738.761985,-10955.047942,153.219100
469.727624,370.102971,-10362.883188,306.438199
469.727948,-962.267725,-9918.759623,0.000000
469.728272,-222.061783,-9326.594869,0.000000
469.728596,814.226536,-9622.677246,383.047749
469.728921,1850.514855,-10140.821405,766.095498
469.729245,1554.432478,-10066.800811,919.314598
469.729569,740.205942,-9622.677246,459.657299
469.729893,962.267725,-8956.491898,612.876398
469.730218,1554.432478,-8364.327145,0.000000
469.730542,2294.638420,-8882.471304,842.705048
469.730866,1480.411884,-8956.491898,612.876398
469.731190,222.061783,-9622.677246,383.047749
469.731514,-666.185348,-9622.677246,0.000000
469.731839,-888.247130,-9474.636058,0.000000
469.732163,-222.061783,-8956.491898,766.095498
469.732487,296.082377,-9104.533087,536.266849
469.732811,444.123565,-9548.656652,1378.971896
469.733136,222.061783,-9844.739029,995.924147
469.733460,-74.020594,-9326.594869,995.924147
469.733784,370.102971,-8586.388927,536.266849
469.734108,666.185348,-8734.430116,612.876398
469.734432,444.123565,-9474.636058,842.705048
469.734757,-148.041188,-10066.800811,766.095498
469.735081,-1110.308913,-10288.862594,459.657299
469.735405,-1924.535449,-10066.800811,76.609550
469.735729,-1628.453072,-9252.574275,306.438199
469.736054,-592.164754,-9326.594869,229.828649
469.736378,-592.164754,-10066.800811,306.438199
469.736702,-1258.350101,-10288.862594,76.609550
469.737026,-1776.494261,-9474.636058,0.000000
469.737350,-1776.494261,-8586.388927,-306.438199
469.737675,-296.082377,-8216.285956,-153.219100
469.737999,444.123565,-8808.450710,-689.485948
469.738323,0.000000,-9992.780217,0.000000
469.738647,-1332.370696,-10436.903782,0.000000
469.738972,-2072.576638,-10288.862594,0.000000
469.739296,-1036.288319,-10140.821405,153.219100
469.739620,148.041188,-10140.821405,229.828649
469.739944,370.102971,-10510.924376,612.876398
469.740268,-444.123565,-10510.924376,-306.438199
469.740593,-1036.288319,-9770.718434,-766.095498
469.740917,-888.247130,-9104.533087,-919.314598
469.741241,222.061783,-9474.636058,-689.485948
469.741565,444.123565,-10140.821405,-306.438199
469.741890,-370.102971,-9696.697840,-842.705048
469.742214,-2146.597232,-9992.780217,-1225.752797
469.742538,-2516.700203,-9918.759623,-1072.533697
469.742862,-1036.288319,-10140.821405,-1225.752797
469.743186,518.144159,-10362.883188,-383.047749
469.743511,1554.432478,-10140.821405,0.000000
469.743835,1110.308913,-10066.800811,-229.828649
469.744159,0.000000,-9918.759623,-842.705048
469.744483,-148.041188,-9400.615463,-919.314598
469.744808,1184.329507,-10140.821405,-612.876398
469.745132,2072.576638,-9844.739029,-153.219100
469.745456,1036.288319,-10140.821405,-153.219100
469.745780,-222.061783,-10436.903782,-612.876398
469.746104,-814.226536,-10436.903782,-995.924147
469.746429,-148.041188,-9844.739029,-1225.752797
469.746753,666.185348,-9474.636058,-995.924147
469.747077,1332.370696,-9548.656652,-459.657299
469.747401,1332.370696,-10140.821405,-383.047749
469.747726,592.164754,-9474.636058,-1608.800546
469.748050,370.102971,-8734.430116,-919.314598
469.748374,1554.432478,-8956.491898,-459.657299
469.748698,2886.803174,-9548.656652,-153.219100
469.749022,2960.823768,-10584.944971,459.657299
469.749347,1850.514855,-10807.006753,76.609550
469.749671,0.000000,-9696.697840,-153.219100
469.749995,0.000000,-10362.883188,-536.266849
469.750319,444.123565,-10214.842000,0.000000
469.750644,1702.473667,-10362.883188,459.657299
469.750968,1702.473667,-10140.821405,306.438199
469.751292,666.185348,-9400.615463,76.609550
469.751616,148.041188,-8512.368333,0.000000
469.751940,74.020594,-7920.203579,-612.876398
469.752265,740.205942,-8586.388927,0.000000
469.752589,222.061783,-8586.388927,306.438199
469.752913,-592.164754,-9104.533087,-229.828649
469.753237,-1924.535449,-9104.533087,-459.657299
469.753562,-1998.556043,-9104.533087,-306.438199
469.753886,-1184.329507,-8956.491898,-153.219100
469.754210,-518.144159,-9104.533087,153.219100
469.754534,-962.267725,-9548.656652,229.828649
469.754858,-2072.576638,-9622.677246,459.657299
469.755183,-2072.576638,-9696.697840,0.000000
469.755507,-1480.411884,-8956.491898,153.219100
469.755831,-518.144159,-8882.471304,306.438199
469.756155,-222.061783,-9622.677246,383.047749
469.756480,-1036.288319,-10510.924376,76.609550
469.756804,-2294.638420,-10658.965565,76.609550
469.757128,-2294.638420,-9770.718434,-383.047749
469.757452,-1406.391290,-9474.636058,-459.657299
469.757776,-740.205942,-9992.780217,-153.219100
469.758101,-296.082377,-11029.068536,-153.219100
469.758425,-740.205942,-11325.150913,0.000000
469.758749,-1258.350101,-9770.718434,-536.266849
469.759073,-1184.329507,-8660.409521,-306.438199
469.759398,-296.082377,-8586.388927,0.000000
469.759722,962.267725,-9844.739029,459.657299
469.760046,740.205942,-10510.924376,689.485948
469.760370,-666.185348,-10584.944971,459.657299
469.760694,-1702.473667,-9844.739029,0.000000
469.761019,-1480.411884,-9474.636058,-229.828649
469.761343,814.226536,-9400.615463,383.047749
469.761667,1628.453072,-9474.636058,459.657299
469.761991,888.247130,-9622.677246,0.000000
469.762316,222.061783,-9400.615463,-536.266849
469.762640,518.144159,-8882.471304,-612.876398
469.762964,1924.535449,-9400.615463,-689.485948
469.763288,2516.700203,-9474.636058,-612.876398
469.763612,2072.576638,-10436.903782,76.609550
469.763937,814.226536,-11103.089130,0.000000
469.764261,148.041188,-10732.986159,-306.438199
469.764585,518.144159,-10214.842000,306.438199
469.764909,1850.514855,-9622.677246,536.266849
469.765234,3108.864956,-10955.047942,766.095498
469.765558,1924.535449,-10140.821405,383.047749
469.765882,814.226536,-9696.697840,459.657299
469.766206,666.185348,-8956.491898,0.000000
469.766530,1554.432478,-8364.327145,0.000000
469.766855,2294.638420,-8438.347739,0.000000
469.767179,2072.576638,-8956.491898,153.219100
469.767503,666.185348,-9474.636058,0.000000
469.767827,-814.226536,-9030.512492,-612.876398
469.768151,-1332.370696,-8956.491898,-306.438199
469.768476,-814.226536,-8882.471304,0.000000
469.768800,-370.102971,-9178.553681,153.219100
469.769124,-296.082377,-9252.574275,459.657299
469.769448,-444.123565,-8734.430116,306.438199
469.769773,-148.041188,-8512.368333,0.000000
469.770097,0.000000,-8142.265362,306.438199
469.770421,1036.288319,-9030.512492,766.095498
469.770745,370.102971,-9548.656652,536.266849
469.771069,-1036.288319,-10436.903782,536.266849
469.771394,-2516.700203,-10288.862594,0.000000
469.771718,-2886.803174,-10066.800811,229.828649
469.772042,-1998.556043,-10214.842000,-306.438199
469.772366,-666.185348,-10658.965565,229.828649
469.772691,-666.185348,-10658.965565,229.828649
469.773015,-1776.494261,-10436.903782,76.609550
469.773339,-2368.659014,-9918.759623,-306.438199
469.773663,-2146.597232,-9400.615463,-536.266849
469.773987,-1110.308913,-9474.636058,0.000000
469.774312,0.000000,-10066.800811,383.047749
469.774636,-518.144159,-10288.862594,76.609550
469.774960,-1258.350101,-10584.944971,0.000000
469.775284,-1850.514855,-9622.677246,-536.266849
469.775609,-1110.308913,-9104.533087,-306.438199
469.775933,0.000000,-9474.636058,-229.828649
469.776257,74.020594,-9992.780217,0.000000
469.776581,-296.082377,-9770.718434,-153.219100
469.776905,-518.144159,-9030.512492,-229.828649
469.777230,0.000000,-8808.450710,-919.314598
469.777554,1258.350101,-9178.553681,-766.095498
469.777878,1184.329507,-9474.636058,-153.219100
469.778202,-370.102971,-10362.883188,0.000000
469.778527,-1924.535449,-10807.006753,-842.705048
469.778851,-2664.741391,-9918.759623,-919.314598
469.779175,-1406.391290,-9548.656652,-153.219100
469.779499,222.061783,-9844.739029,-306.438199
469.779823,1628.453072,-10807.006753,76.609550
469.780148,1110.308913,-10658.965565,229.828649
469.780472,148.041188,-9770.718434,-383.047749
469.780796,74.020594,-8956.491898,-612.876398
469.781120,1184.329507,-9252.574275,-612.876398
469.781445,2146.597232,-9696.697840,-383.047749
469.781769,1776.494261,-10140.821405,76.609550
469.782093,814.226536,-10288.862594,-153.219100
469.782417,148.041188,-9992.780217,153.219100
469.782741,296.082377,-9326.594869,-306.438199
469.783066,1998.556043,-9474.636058,153.219100
469.783390,2516.700203,-9474.636058,612.876398
469.783714,1998.556043,-9178.553681,76.609550
469.784038,1258.350101,-8438.347739,0.000000
469.784363,1184.329507,-7920.203579,76.609550
469.784687,1480.411884,-8216.285956,306.438199
469.785011,2072.576638,-8734.430116,306.438199
469.785335,1184.329507,-9474.636058,995.924147
469.785659,-592.164754,-9400.615463,229.828649
469.785984,-1702.473667,-9400.615463,-383.047749
469.786308,-1258.350101,-9252.574275,0.000000
469.786632,0.000000,-9400.615463,0.000000
469.786956,1332.370696,-10140.821405,689.485948
469.787281,962.267725,-10510.924376,766.095498
469.787605,518.144159,-10288.862594,459.657299
469.787929,-814.226536,-8660.409521,-153.219100
469.788253,-370.102971,-8660.409521,-383.047749
469.788577,592.164754,-9400.615463,0.000000
469.788902,888.247130,-10658.965565,0.000000
469.789226,74.020594,-11029.068536,612.876398
469.789550,-1184.329507,-10362.883188,536.266849
469.789874,-1702.473667,-10214.842000,76.609550
469.790199,-1480.411884,-9992.780217,0.000000
469.790523,-1184.329507,-10510.924376,306.438199
469.790847,-1184.329507,-10658.965565,306.438199
469.791171,-1406.391290,-10436.903782,229.828649
469.791495,-1332.370696,-9178.553681,0.000000
469.791820,-370.102971,-7994.224174,-229.828649
469.792144,296.082377,-8290.306550,-229.828649
469.792468,-592.164754,-9474.636058,-76.609550
469.792792,-1998.556043,-10362.883188,-383.047749
