#time,accel_x,accel_y,accel_z
643.530571,-370.102971,-9844.739029,0.000000
643.530895,0.000000,-9844.739029,0.000000
643.531219,0.000000,-9770.718434,0.000000
643.531543,0.000000,-9622.677246,-306.438199
643.531868,0.000000,-9548.656652,-153.219100
643.532192,-148.041188,-10066.800811,0.000000
643.532516,0.000000,-9696.697840,0.000000
643.532840,-148.041188,-9770.718434,0.000000
643.533164,-222.061783,-9474.636058,459.657299
643.533489,74.020594,-9622.677246,0.000000
643.533813,148.041188,-9844.739029,0.000000
643.534137,0.000000,-9696.697840,153.219100
643.534461,0.000000,-9696.697840,-383.047749
643.534785,0.000000,-9770.718434,-229.828649
643.535109,0.000000,-9770.718434,0.000000
643.535434,0.000000,-9770.718434,-229.828649
643.535758,74.020594,-9844.739029,0.000000
643.536082,0.000000,-9474.636058,76.609550
643.536406,0.000000,-9622.677246,0.000000
643.536730,148.041188,-9622.677246,0.000000
643.537055,74.020594,-9548.656652,-153.219100
643.537379,148.041188,-9696.697840,76.609550
643.537703,74.020594,-9844.739029,0.000000
643.538027,74.020594,-9474.636058,0.000000
643.538351,296.082377,-9104.533087,383.047749
643.538676,370.102971,-9104.533087,612.876398
643.539000,592.164754,-9844.739029,536.266849
643.539324,222.061783,-9992.780217,76.609550
643.539648,0.000000,-10066.800811,153.219100
643.539972,-814.226536,-9696.697840,0.000000
643.540296,-962.267725,-9400.615463,0.000000
643.540621,-518.144159,-9252.574275,383.047749
643.540945,592.164754,-9696.697840,306.438199
643.541269,962.267725,-10066.800811,306.438199
643.541593,1110.308913,-9326.594869,689.485948
643.541917,666.185348,-9104.533087,76.609550
643.542242,888.247130,-9474.636058,76.609550
643.542566,888.247130,-9696.697840,0.000000
643.542890,666.185348,-9918.759623,153.219100
643.543214,0.000000,-10214.842000,-459.657299
643.543538,-296.082377,-10362.883188,612.876398
643.543862,-740.205942,-10288.862594,229.828649
643.544187,0.000000,-10214.842000,536.266849
643.544511,814.226536,-9844.739029,1072.533697
643.544835,1924.535449,-9770.718434,1608.800546
643.545159,2590.720797,-9696.697840,1532.190996
643.545483,2590.720797,-9474.636058,1915.238745
643.545808,2738.761985,-10140.821405,1455.581446
643.546132,1924.535449,-8808.450710,995.924147
643.546456,814.226536,-9030.512492,-153.219100
643.546780,148.041188,-9474.636058,0.000000
643.547104,-666.185348,-9696.697840,-612.876398
643.547429,-666.185348,-9844.739029,-306.438199
643.547753,814.226536,-9770.718434,383.047749
643.548077,1998.556043,-9696.697840,1225.752797
643.548401,3627.009116,-9622.677246,2068.457845
643.548725,4885.359217,-9696.697840,2221.676944
643.549049,4811.338623,-9918.759623,2604.724693
643.549374,4293.194464,-9992.780217,2681.334243
643.549698,3849.070898,-10510.924376,2374.896044
643.550022,3478.967927,-10140.821405,1991.848295
643.550346,2220.617826,-9992.780217,1915.238745
643.550670,1406.391290,-10214.842000,383.047749
643.550995,370.102971,-10436.903782,842.705048
643.551319,666.185348,-9918.759623,1302.362347
643.551643,1628.453072,-9622.677246,1838.629195
643.551967,3404.947333,-9548.656652,2604.724693
643.552291,4515.256246,-9622.677246,3600.648841
643.552615,4663.297435,-9400.615463,3983.696590
643.552940,4885.359217,-9770.718434,4366.744339
643.553264,3627.009116,-10066.800811,4596.572988
643.553588,2146.597232,-9474.636058,3907.087040
643.553912,592.164754,-9178.553681,3294.210641
643.554236,-1110.308913,-8956.491898,2451.505594
643.554561,-1406.391290,-8734.430116,2374.896044
643.554885,-1258.350101,-8068.244768,1762.019645
643.555209,-74.020594,-7328.038826,2451.505594
643.555533,518.144159,-6587.832884,1915.238745
643.555857,1850.514855,-6143.709319,2911.162892
643.556182,3108.864956,-6513.812290,3217.601092
643.556506,4071.132681,-7550.100608,3830.477490
643.556830,4515.256246,-8660.409521,4213.525239
643.557154,4959.379811,-9770.718434,4290.134789
643.557478,4811.338623,-10955.047942,4979.620737
643.557802,3256.906145,-11399.171507,4366.744339
643.558127,1480.411884,-12139.377449,3524.039291
643.558451,-814.226536,-12139.377449,2068.457845
643.558775,-2072.576638,-11251.130318,1378.971896
643.559099,-2146.597232,-10140.821405,995.924147
643.559423,-814.226536,-9030.512492,766.095498
643.559748,740.205942,-8068.244768,1685.410096
643.560072,2738.761985,-7846.182985,1532.190996
643.560396,4071.132681,-7402.059420,1378.971896
643.560720,4737.318029,-7550.100608,1608.800546
643.561044,4441.235652,-8660.409521,1532.190996
643.561368,3108.864956,-10658.965565,2451.505594
643.561693,1628.453072,-12435.459826,2298.286494
643.562017,148.041188,-12435.459826,2068.457845
643.562341,-444.123565,-11547.212695,1608.800546
643.562665,0.000000,-10436.903782,1225.752797
643.562989,1184.329507,-10955.047942,919.314598
643.563314,2072.576638,-10066.800811,612.876398
643.563638,2294.638420,-8882.471304,0.000000
643.563962,2812.782580,-8808.450710,76.609550
643.564286,2664.741391,-9178.553681,153.219100
643.564610,1850.514855,-9326.594869,0.000000
643.564934,1702.473667,-8586.388927,-383.047749
643.565259,2442.679609,-8438.347739,-536.266849
643.565583,4663.297435,-10658.965565,766.095498
643.565907,6143.709319,-12361.439231,1762.019645
643.566231,6365.771101,-13249.686362,2604.724693
643.566555,4737.318029,-12953.603985,2221.676944
643.566880,1702.473667,-12065.356855,1685.410096
643.567204,-1036.288319,-11843.295072,919.314598
643.567528,-2146.597232,-10288.862594,689.485948
643.567852,-1332.370696,-8808.450710,766.095498
643.568176,1258.350101,-8512.368333,1225.752797
643.568501,2442.679609,-7772.162391,1608.800546
643.568825,2442.679609,-7476.080014,1378.971896
643.569149,1998.556043,-6143.709319,612.876398
643.569473,2072.576638,-5551.544565,153.219100
643.569797,2368.659014,-6513.812290,0.000000
643.570121,3627.009116,-8438.347739,1608.800546
643.570446,4367.215058,-9992.780217,2604.724693
643.570770,3627.009116,-10436.903782,2451.505594
643.571094,2368.659014,-9696.697840,2604.724693
643.571418,1036.288319,-9548.656652,2604.724693
643.571742,1184.329507,-10140.821405,2451.505594
643.572067,1554.432478,-10362.883188,2068.457845
643.572391,1406.391290,-9992.780217,2987.772442
643.572715,148.041188,-9548.656652,2681.334243
643.573039,592.164754,-8882.471304,2068.457845
643.573363,1850.514855,-7624.121203,1838.629195
643.573687,3701.029710,-7476.080014,1455.581446
643.574012,3552.988522,-8734.430116,1608.800546
643.574336,1702.473667,-8956.491898,689.485948
643.574660,-444.123565,-9252.574275,383.047749
643.574984,-1036.288319,-9548.656652,1225.752797
643.575308,814.226536,-10807.006753,2298.286494
643.575633,3034.844362,-11843.295072,3294.210641
643.575957,4441.235652,-11399.171507,3677.258390
643.576281,3627.009116,-9622.677246,2911.162892
643.576605,3552.988522,-10214.842000,3447.429741
643.576929,3330.926739,-11547.212695,3064.381992
643.577254,2442.679609,-11547.212695,3140.991542
643.577578,1184.329507,-10362.883188,2528.115143
643.577902,0.000000,-9252.574275,1991.848295
643.578226,592.164754,-9030.512492,1149.143247
643.578550,1998.556043,-9400.615463,1302.362347
643.578874,2812.782580,-9474.636058,1532.190996
643.579199,2812.782580,-9400.615463,1072.533697
643.579523,2590.720797,-9104.533087,1378.971896
643.579847,2812.782580,-9696.697840,2145.067394
643.580171,3034.844362,-11103.089130,3064.381992
643.580495,2886.803174,-11843.295072,3753.867940
643.580820,2294.638420,-11103.089130,3983.696590
643.581144,1850.514855,-10140.821405,3677.258390
643.581468,2368.659014,-10288.862594,3294.210641
643.581792,3108.864956,-10807.006753,3677.258390
643.582116,3627.009116,-10732.986159,3677.258390
643.582440,3552.988522,-9622.677246,3294.210641
643.582765,2368.659014,-8512.368333,2068.457845
643.583089,666.185348,-8364.327145,1455.581446
643.583413,0.000000,-7698.141797,76.609550
643.583737,740.205942,-7624.121203,383.047749
643.584061,2220.617826,-7476.080014,1149.143247
643.584386,3256.906145,-8364.327145,2145.067394
643.584710,4071.132681,-8660.409521,3140.991542
643.585034,5255.462188,-8660.409521,3983.696590
643.585358,4589.276840,-8512.368333,4596.572988
643.585682,3108.864956,-9622.677246,3983.696590
643.586007,2072.576638,-10510.924376,4903.011187
643.586331,1924.535449,-11029.068536,4979.620737
643.586655,2220.617826,-9474.636058,4290.134789
643.586979,1998.556043,-8512.368333,3524.039291
643.587303,74.020594,-9178.553681,2451.505594
643.587627,-740.205942,-8734.430116,919.314598
643.587952,-1554.432478,-6883.915261,-153.219100
643.588276,-1998.556043,-7105.977043,0.000000
643.588600,-1924.535449,-8068.244768,-153.219100
643.588924,962.267725,-8364.327145,459.657299
643.589248,3923.091493,-8586.388927,1455.581446
643.589573,5107.421000,-8512.368333,1915.238745
643.589897,5921.647536,-9252.574275,2068.457845
643.590221,4515.256246,-10658.965565,2221.676944
643.590545,3627.009116,-11177.109724,3830.477490
643.590869,4367.215058,-11029.068536,4060.306139
643.591193,3108.864956,-12583.501014,3524.039291
643.591517,1036.288319,-14508.036463,2528.115143
643.591841,148.041188,-12953.603985,1149.143247
643.592165,0.000000,-11103.089130,0.000000
643.592489,-1332.370696,-10584.944971,-536.266849
643.592813,-1480.411884,-10807.006753,-1685.410096
643.593137,-296.082377,-9548.656652,-1378.971896
643.593462,1554.432478,-8882.471304,-383.047749
643.593786,2368.659014,-9770.718434,-919.314598
643.594110,3256.906145,-9622.677246,-919.314598
643.594434,3997.112087,-9326.594869,689.485948
643.594758,4737.318029,-10066.800811,2145.067394
643.595082,5773.606348,-10066.800811,2604.724693
643.595406,4959.379811,-9918.759623,2987.772442
643.595730,2368.659014,-11399.171507,3600.648841
643.596054,370.102971,-11843.295072,3140.991542
643.596378,222.061783,-10881.027347,1685.410096
643.596702,-370.102971,-9252.574275,1378.971896
643.597026,-666.185348,-9252.574275,1302.362347
643.597350,-592.164754,-9622.677246,536.266849
643.597674,296.082377,-8364.327145,0.000000
643.597998,740.205942,-7105.977043,383.047749
643.598322,740.205942,-7624.121203,-995.924147
643.598646,1998.556043,-7550.100608,-1072.533697
643.598970,4145.153275,-7698.141797,995.924147
643.599294,5847.626942,-8364.327145,2221.676944
643.599618,5921.647536,-8956.491898,2528.115143
643.599943,3701.029710,-10214.842000,2604.724693
643.600267,2960.823768,-9326.594869,3907.087040
643.600591,4145.153275,-8956.491898,4366.744339
643.600915,3627.009116,-10955.047942,5132.839837
643.601239,2368.659014,-10140.821405,4136.915689
643.601563,1554.432478,-9400.615463,2374.896044
643.601887,-370.102971,-9178.553681,1991.848295
643.602211,-296.082377,-8438.347739,995.924147
643.602535,-296.082377,-9178.553681,536.266849
643.602859,-444.123565,-9622.677246,766.095498
643.603183,-740.205942,-9252.574275,536.266849
643.603507,-296.082377,-9104.533087,536.266849
643.603831,74.020594,-8660.409521,383.047749
643.604155,1110.308913,-9474.636058,1991.848295
643.604479,2886.803174,-10214.842000,3294.210641
643.604803,5255.462188,-9252.574275,3600.648841
643.605127,5403.503377,-8364.327145,3753.867940
643.605451,5033.400406,-8142.265362,4443.353888
643.605775,5033.400406,-10362.883188,4903.011187
643.606099,3627.009116,-12287.418637,4903.011187
643.606423,666.185348,-10140.821405,2451.505594
643.606748,-2442.679609,-8290.306550,1608.800546
643.607072,-2960.823768,-9400.615463,842.705048
643.607396,-1628.453072,-10362.883188,-229.828649
643.607720,-1036.288319,-9770.718434,536.266849
643.608044,-1998.556043,-9400.615463,919.314598
643.608368,-1036.288319,-9770.718434,0.000000
643.608692,1258.350101,-10362.883188,306.438199
643.609016,2442.679609,-9918.759623,995.924147
643.609340,2886.803174,-9030.512492,1225.752797
643.609664,2294.638420,-9030.512492,1302.362347
643.609988,1924.535449,-9770.718434,1915.238745
643.610312,2294.638420,-10436.903782,2757.943793
643.610636,3256.906145,-11621.233289,3217.601092
643.610960,4071.132681,-9918.759623,2911.162892
643.611284,3034.844362,-8290.306550,1838.629195
643.611608,2368.659014,-8512.368333,1762.019645
643.611932,1702.473667,-9252.574275,1532.190996
643.612256,814.226536,-10066.800811,995.924147
643.612580,-1036.288319,-9326.594869,689.485948
643.612904,-2072.576638,-7254.018232,-459.657299
643.613229,-2886.803174,-8216.285956,-1838.629195
643.613553,-3775.050304,-9178.553681,-1915.238745
643.613877,-3775.050304,-9696.697840,-2068.457845
643.614201,-3404.947333,-8586.388927,-2911.162892
643.614525,-2146.597232,-7698.141797,-2068.457845
643.614849,0.000000,-9252.574275,-1225.752797
643.615173,1628.453072,-10436.903782,-153.219100
643.615497,3182.885551,-9622.677246,0.000000
643.615821,3701.029710,-9326.594869,842.705048
643.616145,4219.173869,-10658.965565,1838.629195
643.616469,5403.503377,-12065.356855,2757.943793
643.616793,6069.688724,-13027.624579,2911.162892
643.617117,4367.215058,-12065.356855,2374.896044
643.617441,1628.453072,-10807.006753,-383.047749
643.617765,-1850.514855,-10584.944971,-2757.943793
643.618089,-4515.256246,-10955.047942,-2987.772442
643.618413,-5921.647536,-10807.006753,-3830.477490
643.618737,-6513.812290,-9474.636058,-3830.477490
643.619061,-6291.750507,-8438.347739,-3217.601092
643.619385,-5181.441594,-8956.491898,-3447.429741
643.619709,-2960.823768,-8290.306550,-2451.505594
643.620034,0.000000,-8586.388927,-383.047749
643.620358,1628.453072,-8882.471304,536.266849
643.620682,3034.844362,-8882.471304,1072.533697
643.621006,3552.988522,-8586.388927,1532.190996
643.621330,3182.885551,-10510.924376,2911.162892
643.621654,2738.761985,-12583.501014,2374.896044
643.621978,1702.473667,-11325.150913,1149.143247
643.622302,-740.205942,-7920.203579,-536.266849
643.622626,-4441.235652,-8660.409521,-2298.286494
643.622950,-6513.812290,-12805.562797,-2221.676944
643.623274,-4663.297435,-11991.336260,-2911.162892
643.623598,-2220.617826,-9844.739029,-2068.457845
643.623922,-740.205942,-9326.594869,-612.876398
643.624246,592.164754,-9992.780217,-842.705048
643.624570,1036.288319,-10510.924376,-459.657299
643.624894,444.123565,-8660.409521,-842.705048
643.625218,444.123565,-7105.977043,-1455.581446
643.625542,518.144159,-9104.533087,-383.047749
643.625866,444.123565,-10955.047942,0.000000
643.626190,740.205942,-9400.615463,153.219100
643.626515,1110.308913,-7402.059420,1149.143247
643.626839,888.247130,-8660.409521,919.314598
643.627163,-148.041188,-11325.150913,306.438199
643.627487,-962.267725,-10140.821405,-766.095498
643.627811,-370.102971,-9252.574275,612.876398
643.628135,-518.144159,-9918.759623,919.314598
643.628459,-740.205942,-10436.903782,459.657299
643.628783,-962.267725,-9178.553681,76.609550
643.629107,-370.102971,-7920.203579,-459.657299
643.629431,1776.494261,-8808.450710,-1378.971896
643.629755,1924.535449,-10140.821405,-689.485948
643.630079,2220.617826,-10066.800811,229.828649
643.630403,2368.659014,-10214.842000,0.000000
643.630727,1776.494261,-10066.800811,-459.657299
643.631051,1258.350101,-10066.800811,383.047749
643.631375,1628.453072,-10066.800811,536.266849
643.631699,2294.638420,-10955.047942,842.705048
643.632023,1702.473667,-10732.986159,1685.410096
643.632347,1628.453072,-9400.615463,1685.410096
643.632671,1036.288319,-9696.697840,2374.896044
643.632995,444.123565,-9696.697840,1762.019645
643.633320,-740.205942,-8956.491898,919.314598
643.633644,-2294.638420,-8142.265362,0.000000
643.633968,-2812.782580,-8068.244768,-919.314598
643.634292,-2368.659014,-8734.430116,612.876398
643.634616,-1406.391290,-8882.471304,612.876398
643.634940,-1036.288319,-8438.347739,1225.752797
643.635264,-1110.308913,-8142.265362,76.609550
643.635588,-666.185348,-8512.368333,0.000000
643.635912,370.102971,-9326.594869,1149.143247
643.636236,2220.617826,-9474.636058,1532.190996
643.636560,2442.679609,-9622.677246,2528.115143
643.636884,1702.473667,-10436.903782,2528.115143
643.637208,1258.350101,-11473.192101,2068.457845
643.637532,666.185348,-10881.027347,1915.238745
643.637856,-1258.350101,-9474.636058,612.876398
643.638180,-2442.679609,-8438.347739,306.438199
643.638504,-2738.761985,-9104.533087,-153.219100
643.638828,-2146.597232,-10288.862594,-459.657299
643.639152,-1628.453072,-9252.574275,-689.485948
643.639476,-1110.308913,-7994.224174,-1455.581446
643.639801,-1332.370696,-9400.615463,-1149.143247
643.640125,-666.185348,-10510.924376,-1608.800546
643.640449,0.000000,-10140.821405,-919.314598
643.640773,148.041188,-10807.006753,153.219100
643.641097,-222.061783,-11917.315666,76.609550
643.641421,666.185348,-11547.212695,-1378.971896
643.641745,2072.576638,-10955.047942,76.609550
643.642069,2368.659014,-10436.903782,306.438199
643.642393,2516.700203,-11251.130318,766.095498
643.642717,444.123565,-10658.965565,306.438199
643.643041,-518.144159,-9992.780217,229.828649
643.643365,-888.247130,-9918.759623,-689.485948
643.643689,-222.061783,-8660.409521,-1838.629195
643.644013,-592.164754,-8364.327145,-612.876398
643.644337,-666.185348,-9770.718434,-1302.362347
643.644661,-296.082377,-9030.512492,-1838.629195
643.644985,-592.164754,-8216.285956,-1608.800546
643.645309,-370.102971,-8142.265362,-1685.410096
643.645633,74.020594,-8882.471304,-1838.629195
643.645957,1036.288319,-9548.656652,-1838.629195
643.646281,1776.494261,-9696.697840,-229.828649
643.646606,2368.659014,-9474.636058,-229.828649
643.646930,2516.700203,-10066.800811,383.047749
643.647254,2442.679609,-9622.677246,0.000000
643.647578,1924.535449,-10288.862594,229.828649
643.647902,1036.288319,-10807.006753,459.657299
643.648226,962.267725,-11177.109724,229.828649
643.648550,666.185348,-10807.006753,229.828649
643.648874,518.144159,-10288.862594,0.000000
643.649198,-666.185348,-10584.944971,536.266849
643.649522,-2368.659014,-10288.862594,-383.047749
643.649846,-4145.153275,-9326.594869,-1532.190996
643.650170,-4737.318029,-8956.491898,-1915.238745
643.650494,-3775.050304,-8364.327145,-1378.971896
643.650818,-1850.514855,-9178.553681,-306.438199
643.651142,-370.102971,-9918.759623,1378.971896
643.651466,1036.288319,-9474.636058,1915.238745
643.651790,1406.391290,-8142.265362,1302.362347
643.652114,-222.061783,-8364.327145,76.609550
643.652438,0.000000,-9326.594869,0.000000
643.652762,962.267725,-9104.533087,1225.752797
643.653087,2812.782580,-8956.491898,1915.238745
643.653411,2664.741391,-9918.759623,2757.943793
643.653735,1480.411884,-10066.800811,2221.676944
643.654059,0.000000,-8882.471304,1378.971896
643.654383,-1554.432478,-8882.471304,0.000000
643.654707,-2738.761985,-8438.347739,-1762.019645
643.655031,-2368.659014,-8660.409521,0.000000
643.655355,-1554.432478,-9844.739029,229.828649
643.655679,-888.247130,-10362.883188,0.000000
643.656003,-814.226536,-9178.553681,-153.219100
643.656327,-296.082377,-9104.533087,383.047749
643.656651,0.000000,-11251.130318,153.219100
643.656975,148.041188,-11029.068536,0.000000
643.657299,370.102971,-9104.533087,766.095498
643.657623,888.247130,-9622.677246,1378.971896
643.657947,1776.494261,-11843.295072,842.705048
643.658271,1998.556043,-11251.130318,459.657299
643.658595,1702.473667,-9844.739029,995.924147
643.658919,1184.329507,-9918.759623,0.000000
643.659243,-222.061783,-10362.883188,-919.314598
643.659567,-1850.514855,-10881.027347,-383.047749
643.659892,-2220.617826,-9844.739029,-536.266849
643.660216,-1258.350101,-9474.636058,-1378.971896
643.660540,-962.267725,-8882.471304,-919.314598
643.660864,592.164754,-9252.574275,0.000000
643.661188,1554.432478,-9474.636058,-229.828649
643.661512,1332.370696,-8512.368333,-229.828649
643.661836,1776.494261,-8734.430116,153.219100
643.662160,1628.453072,-10140.821405,383.047749
643.662484,1036.288319,-11103.089130,0.000000
643.662808,-296.082377,-9770.718434,-536.266849
643.663132,-296.082377,-9326.594869,842.705048
643.663456,1998.556043,-10584.944971,153.219100
643.663780,1924.535449,-10658.965565,-383.047749
643.664104,296.082377,-9992.780217,383.047749
643.664428,-962.267725,-8290.306550,0.000000
643.664752,-592.164754,-8956.491898,-306.438199
643.665076,-1554.432478,-10436.903782,153.219100
643.665400,-2368.659014,-10066.800811,919.314598
643.665724,-2368.659014,-7624.121203,306.438199
643.666048,-2146.597232,-7179.997637,536.266849
643.666372,-888.247130,-8142.265362,0.000000
643.666697,444.123565,-8364.327145,0.000000
643.667021,888.247130,-7994.224174,383.047749
643.667345,814.226536,-8068.244768,459.657299
643.667669,370.102971,-8512.368333,612.876398
643.667993,-370.102971,-9030.512492,306.438199
643.668317,-888.247130,-9992.780217,-536.266849
643.668641,-1924.535449,-10436.903782,-1072.533697
643.668965,-1258.350101,-9696.697840,-1149.143247
643.669289,-222.061783,-9844.739029,0.000000
643.669613,814.226536,-10658.965565,1225.752797
643.669937,1776.494261,-10732.986159,1072.533697
643.670261,1924.535449,-10140.821405,229.828649
643.670585,1258.350101,-10510.924376,-306.438199
643.670909,592.164754,-11029.068536,-1225.752797
643.671233,666.185348,-11399.171507,-536.266849
643.671557,0.000000,-10362.883188,-766.095498
643.671881,-1110.308913,-9770.718434,-919.314598
643.672205,-1776.494261,-10362.883188,-995.924147
643.672529,-1628.453072,-10881.027347,-153.219100
643.672853,-148.041188,-10881.027347,-306.438199
643.673178,814.226536,-9326.594869,-1915.238745
643.673502,1332.370696,-8364.327145,-1225.752797
643.673826,2220.617826,-9474.636058,153.219100
643.674150,1702.473667,-11325.150913,-612.876398
643.674474,-888.247130,-10881.027347,-842.705048
643.674798,-2664.741391,-9770.718434,-536.266849
643.675122,-2072.576638,-9622.677246,-1149.143247
643.675446,0.000000,-10436.903782,-1225.752797
643.675770,0.000000,-10288.862594,-459.657299
643.676094,1110.308913,-9770.718434,-229.828649
643.676418,1998.556043,-9696.697840,-689.485948
643.676742,2886.803174,-10807.006753,306.438199
643.677066,2738.761985,-10510.924376,842.705048
643.677390,2072.576638,-9992.780217,229.828649
643.677714,-148.041188,-9474.636058,-842.705048
643.678038,-1924.535449,-8956.491898,-612.876398
643.678362,-1480.411884,-9770.718434,-229.828649
643.678686,-1110.308913,-10658.965565,-383.047749
643.679010,-1332.370696,-9400.615463,766.095498
643.679334,-888.247130,-8068.244768,842.705048
643.679658,0.000000,-8068.244768,153.219100
643.679983,-740.205942,-9400.615463,1149.143247
643.680307,-1850.514855,-9622.677246,766.095498
643.680631,-2812.782580,-7179.997637,229.828649
643.680955,-2146.597232,-7254.018232,383.047749
643.681279,-1554.432478,-7772.162391,459.657299
643.681603,-370.102971,-9178.553681,1608.800546
643.681927,962.267725,-8882.471304,1225.752797
643.682251,1480.411884,-7476.080014,766.095498
643.682575,1406.391290,-8142.265362,995.924147
643.682899,1184.329507,-10584.944971,1302.362347
643.683223,1332.370696,-10362.883188,1915.238745
643.683547,296.082377,-9844.739029,1225.752797
643.683871,-666.185348,-8438.347739,459.657299
643.684195,-962.267725,-8882.471304,-459.657299
643.684519,-814.226536,-10362.883188,459.657299
643.684843,370.102971,-10288.862594,459.657299
643.685167,1184.329507,-9622.677246,842.705048
643.685491,1332.370696,-9104.533087,995.924147
643.685815,518.144159,-9770.718434,1072.533697
643.686139,-592.164754,-10584.944971,1072.533697
643.686464,-888.247130,-9622.677246,-153.219100
643.686788,-1628.453072,-8956.491898,76.609550
643.687112,-1480.411884,-9770.718434,-153.219100
643.687436,-592.164754,-10881.027347,612.876398
643.687760,814.226536,-10510.924376,459.657299
643.688084,1850.514855,-9844.739029,536.266849
643.688408,1480.411884,-10140.821405,-689.485948
643.688732,1036.288319,-11621.233289,-1225.752797
643.689056,296.082377,-11547.212695,-766.095498
643.689380,888.247130,-11029.068536,-536.266849
643.689704,1702.473667,-11029.068536,153.219100
643.690028,2516.700203,-10955.047942,536.266849
643.690352,2738.761985,-11399.171507,1225.752797
643.690676,1406.391290,-10955.047942,0.000000
643.691000,1036.288319,-9326.594869,-459.657299
643.691324,962.267725,-9104.533087,-536.266849
643.691648,888.247130,-10362.883188,-459.657299
643.691972,888.247130,-11251.130318,383.047749
643.692296,0.000000,-9326.594869,-383.047749
643.692620,-1480.411884,-7920.203579,-612.876398
643.692944,-2664.741391,-8216.285956,-1991.848295
643.693269,-2960.823768,-8808.450710,-2528.115143
643.693593,-3034.844362,-8660.409521,-2451.505594
643.693917,-3108.864956,-7994.224174,-1838.629195
643.694241,-2146.597232,-8290.306550,-919.314598
643.694565,-1258.350101,-8512.368333,-919.314598
643.694889,-814.226536,-9104.533087,229.828649
643.695213,-1184.329507,-8290.306550,0.000000
643.695537,-1184.329507,-8586.388927,0.000000
643.695861,-370.102971,-8882.471304,-76.609550
643.696186,0.000000,-9844.739029,919.314598
643.696510,518.144159,-10214.842000,1149.143247
643.696834,962.267725,-9178.553681,689.485948
643.697158,444.123565,-8586.388927,0.000000
643.697482,296.082377,-9400.615463,-1991.848295
643.697806,370.102971,-11177.109724,-1991.848295
643.698131,-148.041188,-10955.047942,-2068.457845
643.698455,-888.247130,-10584.944971,-1838.629195
643.698779,-1628.453072,-9992.780217,-995.924147
643.699103,-1776.494261,-9252.574275,-1225.752797
643.699427,-1554.432478,-9844.739029,-1302.362347
643.699751,-1110.308913,-10288.862594,-766.095498
643.700076,-222.061783,-10140.821405,0.000000
643.700400,1628.453072,-9104.533087,0.000000
643.700724,2146.597232,-9770.718434,766.095498
643.701048,1332.370696,-9696.697840,1149.143247
643.701372,370.102971,-9548.656652,1302.362347
643.701696,-814.226536,-10066.800811,689.485948
643.702020,-2072.576638,-10584.944971,76.609550
643.702345,-3034.844362,-9992.780217,-383.047749
643.702669,-2294.638420,-8956.491898,-1915.238745
643.702993,-1036.288319,-9400.615463,-1838.629195
643.703317,518.144159,-9992.780217,-1762.019645
643.703641,222.061783,-10362.883188,76.609550
643.703965,-370.102971,-10510.924376,-306.438199
643.704290,-592.164754,-9548.656652,-306.438199
643.704614,-222.061783,-9252.574275,0.000000
643.704938,1480.411884,-9474.636058,-306.438199
643.705262,2146.597232,-10955.047942,229.828649
643.705586,1332.370696,-10955.047942,1225.752797
643.705910,2442.679609,-10066.800811,1455.581446
643.706234,4367.215058,-9326.594869,1608.800546
643.706559,5033.400406,-10510.924376,1991.848295
643.706883,4515.256246,-10732.986159,1991.848295
643.707207,3108.864956,-10288.862594,536.266849
643.707531,592.164754,-10066.800811,229.828649
643.707855,-1110.308913,-9770.718434,-153.219100
643.708179,-1332.370696,-9918.759623,-383.047749
643.708504,-1406.391290,-8882.471304,0.000000
643.708828,-1332.370696,-8882.471304,153.219100
643.709152,-1776.494261,-9030.512492,-612.876398
643.709476,-2072.576638,-8364.327145,-689.485948
643.709800,-2294.638420,-8660.409521,0.000000
643.710124,-2146.597232,-8364.327145,612.876398
643.710449,-1776.494261,-7624.121203,689.485948
643.710773,-1776.494261,-7698.141797,1302.362347
643.711097,-1628.453072,-8660.409521,1685.410096
643.711421,-1480.411884,-9104.533087,1072.533697
643.711745,370.102971,-8586.388927,76.609550
643.712069,814.226536,-8438.347739,153.219100
643.712393,1332.370696,-9104.533087,995.924147
643.712718,2146.597232,-9696.697840,995.924147
643.713042,2442.679609,-10066.800811,1225.752797
643.713366,2146.597232,-10362.883188,2528.115143
643.713690,2220.617826,-11917.315666,2451.505594
643.714014,1258.350101,-11917.315666,1378.971896
643.714338,0.000000,-9178.553681,-229.828649
643.714663,-1332.370696,-7476.080014,-1149.143247
643.714987,-1850.514855,-8586.388927,-2221.676944
643.715311,-1628.453072,-10140.821405,-1532.190996
643.715635,-1702.473667,-9918.759623,766.095498
643.715959,-1332.370696,-8956.491898,1225.752797
643.716283,-888.247130,-8586.388927,0.000000
643.716607,-1776.494261,-8438.347739,-689.485948
643.716932,-1480.411884,-9548.656652,-842.705048
643.717256,-1332.370696,-10510.924376,-842.705048
643.717580,-1258.350101,-10362.883188,153.219100
643.717904,-1110.308913,-9992.780217,459.657299
643.718228,-370.102971,-10288.862594,306.438199
643.718552,148.041188,-11029.068536,-306.438199
643.718877,-148.041188,-10066.800811,-1302.362347
643.719201,-444.123565,-10214.842000,-1685.410096
643.719525,74.020594,-10436.903782,-1532.190996
643.719849,1258.350101,-10584.944971,-153.219100
643.720173,2146.597232,-10362.883188,536.266849
643.720497,2368.659014,-10584.944971,689.485948
643.720822,1998.556043,-10362.883188,-612.876398
643.721146,740.205942,-10807.006753,-1915.238745
643.721470,-814.226536,-10584.944971,-1915.238745
643.721794,-1184.329507,-9696.697840,-1455.581446
643.722118,-962.267725,-10066.800811,-689.485948
643.722442,-296.082377,-10288.862594,-383.047749
643.722766,0.000000,-9622.677246,-536.266849
643.723091,0.000000,-9548.656652,-1378.971896
643.723415,-518.144159,-9474.636058,-1302.362347
643.723739,-370.102971,-9104.533087,-1532.190996
643.724063,222.061783,-8512.368333,-842.705048
643.724387,222.061783,-9326.594869,459.657299
643.724711,888.247130,-10214.842000,306.438199
643.725036,1480.411884,-9770.718434,459.657299
643.725360,1184.329507,-8660.409521,229.828649
643.725684,296.082377,-8882.471304,0.000000
643.726008,-148.041188,-9474.636058,-689.485948
643.726332,0.000000,-9178.553681,-689.485948
643.726656,-296.082377,-9030.512492,-306.438199
643.726981,-296.082377,-9104.533087,-459.657299
643.727305,-148.041188,-9696.697840,-229.828649
643.727629,-592.164754,-9178.553681,-842.705048
643.727953,-222.061783,-8586.388927,-229.828649
643.728277,-222.061783,-8216.285956,-536.266849
643.728601,148.041188,-9326.594869,-229.828649
643.728925,370.102971,-9474.636058,-612.876398
643.729250,0.000000,-8956.491898,-842.705048
643.729574,0.000000,-9178.553681,459.657299
643.729898,518.144159,-9770.718434,459.657299
643.730222,1406.391290,-11251.130318,1532.190996
643.730546,740.205942,-11621.233289,153.219100
643.730870,222.061783,-9696.697840,-229.828649
643.731195,148.041188,-8956.491898,-153.219100
643.731519,0.000000,-10510.924376,689.485948
643.731843,0.000000,-11325.150913,1455.581446
643.732167,-444.123565,-10658.965565,1455.581446
643.732491,-1702.473667,-10140.821405,689.485948
643.732815,-2072.576638,-9326.594869,-1225.752797
643.733139,-2590.720797,-9622.677246,-995.924147
643.733464,-3182.885551,-9474.636058,-689.485948
643.733788,-2960.823768,-9474.636058,-383.047749
643.734112,-2146.597232,-9252.574275,0.000000
643.734436,-888.247130,-9252.574275,306.438199
643.734760,74.020594,-10066.800811,612.876398
643.735084,1702.473667,-9992.780217,229.828649
643.735409,1554.432478,-9548.656652,306.438199
643.735733,1406.391290,-9770.718434,153.219100
643.736057,1110.308913,-10584.944971,689.485948
643.736381,666.185348,-10807.006753,766.095498
643.736705,888.247130,-9844.739029,842.705048
643.737029,1258.350101,-9918.759623,842.705048
643.737354,1924.535449,-10807.006753,383.047749
643.737678,1850.514855,-10658.965565,459.657299
643.738002,1924.535449,-9326.594869,689.485948
643.738326,1554.432478,-9326.594869,612.876398
643.738650,666.185348,-9770.718434,0.000000
643.738974,-814.226536,-9992.780217,766.095498
643.739298,-1332.370696,-8956.491898,229.828649
643.739623,-1924.535449,-7920.203579,-1378.971896
643.739947,-3034.844362,-6809.894666,-995.924147
643.740271,-1998.556043,-7698.141797,-229.828649
643.740595,-1184.329507,-9770.718434,153.219100
643.740919,-1924.535449,-9252.574275,0.000000
643.741243,-2516.700203,-7846.182985,-459.657299
643.741568,-2146.597232,-8068.244768,-459.657299
643.741892,-888.247130,-9474.636058,0.000000
643.742216,0.000000,-9992.780217,383.047749
643.742540,-740.205942,-9178.553681,-459.657299
643.742864,-1036.288319,-8512.368333,-306.438199
643.743188,0.000000,-9178.553681,-383.047749
643.743513,2220.617826,-10732.986159,459.657299
643.743837,3330.926739,-10881.027347,842.705048
643.744161,3256.906145,-10658.965565,612.876398
643.744485,2590.720797,-10436.903782,383.047749
643.744809,2442.679609,-10807.006753,306.438199
643.745133,2368.659014,-10732.986159,306.438199
643.745457,962.267725,-9918.759623,-229.828649
643.745782,-444.123565,-9104.533087,-689.485948
643.746106,-814.226536,-9400.615463,-919.314598
643.746430,-370.102971,-9918.759623,-459.657299
643.746754,0.000000,-9104.533087,-306.438199
643.747078,296.082377,-7624.121203,-612.876398
643.747402,0.000000,-7476.080014,-383.047749
643.747727,0.000000,-9474.636058,-229.828649
643.748051,-1036.288319,-9992.780217,0.000000
643.748375,-2072.576638,-9252.574275,0.000000
643.748699,-2738.761985,-8586.388927,-766.095498
643.749023,-2072.576638,-8734.430116,-1532.190996
643.749347,-888.247130,-9844.739029,-1608.800546
643.749671,74.020594,-10732.986159,-689.485948
643.749996,1036.288319,-11103.089130,536.266849
643.750320,1480.411884,-11547.212695,0.000000
643.750644,814.226536,-11621.233289,229.828649
643.750968,-296.082377,-11177.109724,0.000000
643.751292,-1332.370696,-10584.944971,-1302.362347
643.751616,-2220.617826,-10584.944971,-1378.971896
643.751941,-1332.370696,-10436.903782,-1225.752797
643.752265,-370.102971,-11103.089130,306.438199
643.752589,1036.288319,-10658.965565,459.657299
643.752913,1702.473667,-9474.636058,689.485948
643.753237,1480.411884,-9474.636058,229.828649
643.753561,592.164754,-10066.800811,-766.095498
643.753886,-740.205942,-10807.006753,-919.314598
643.754210,-2368.659014,-9844.739029,-995.924147
643.754534,-2442.679609,-8586.388927,-536.266849
643.754858,-1776.494261,-9326.594869,-76.609550
643.755182,-296.082377,-10658.965565,-536.266849
643.755506,0.000000,-9918.759623,-536.266849
643.755830,74.020594,-8808.450710,-229.828649
643.756155,592.164754,-9030.512492,-536.266849
643.756479,888.247130,-9474.636058,-306.438199
643.756803,74.020594,-9918.759623,612.876398
643.757127,-592.164754,-9474.636058,306.438199
643.757451,-888.247130,-9474.636058,0.000000
643.757775,-1258.350101,-8882.471304,-689.485948
643.758100,0.000000,-8586.388927,383.047749
643.758424,1628.453072,-8586.388927,76.609550
643.758748,2146.597232,-8808.450710,229.828649
643.759072,814.226536,-8512.368333,0.000000
643.759396,0.000000,-7920.203579,-306.438199
643.759720,-370.102971,-9622.677246,-306.438199
643.760045,-1184.329507,-10288.862594,-153.219100
643.760369,-1258.350101,-8512.368333,0.000000
643.760693,-1110.308913,-8068.244768,-612.876398
643.761017,-1258.350101,-8956.491898,-689.485948
643.761341,0.000000,-10140.821405,76.609550
643.761665,1480.411884,-10288.862594,919.314598
643.761989,2294.638420,-9696.697840,1378.971896
643.762314,1702.473667,-9844.739029,995.924147
643.762638,1628.453072,-9622.677246,612.876398
643.762962,666.185348,-10066.800811,536.266849
643.763286,-296.082377,-11695.253884,459.657299
643.763610,74.020594,-11177.109724,153.219100
643.763934,592.164754,-10066.800811,229.828649
643.764259,518.144159,-10510.924376,-306.438199
643.764583,1036.288319,-9622.677246,-536.266849
643.764907,1554.432478,-10288.862594,0.000000
643.765231,1628.453072,-11103.089130,229.828649
643.765555,1036.288319,-10732.986159,0.000000
643.765879,296.082377,-10140.821405,229.828649
643.766203,-370.102971,-9622.677246,306.438199
643.766528,-740.205942,-9548.656652,153.219100
643.766852,-592.164754,-10436.903782,919.314598
643.767176,148.041188,-10955.047942,1302.362347
643.767500,666.185348,-10510.924376,1072.533697
643.767824,740.205942,-9474.636058,1302.362347
643.768148,592.164754,-9474.636058,612.876398
643.768473,-148.041188,-9622.677246,0.000000
643.768797,-1184.329507,-9030.512492,-536.266849
643.769121,-2146.597232,-9030.512492,-459.657299
643.769445,-2516.700203,-9474.636058,-383.047749
643.769769,-2664.741391,-9474.636058,-459.657299
643.770093,-2812.782580,-9622.677246,76.609550
643.770418,-2368.659014,-9474.636058,-919.314598
643.770742,-888.247130,-8438.347739,-1149.143247
643.771066,740.205942,-8808.450710,-153.219100
643.771390,1406.391290,-9474.636058,153.219100
643.771714,1184.329507,-9400.615463,842.705048
643.772038,-370.102971,-8438.347739,995.924147
643.772362,-592.164754,-7920.203579,-459.657299
643.772687,-1110.308913,-9030.512492,-536.266849
643.773011,-592.164754,-9696.697840,153.219100
643.773335,444.123565,-9622.677246,153.219100
643.773659,888.247130,-9844.739029,612.876398
643.773983,888.247130,-9400.615463,-153.219100
643.774307,296.082377,-8586.388927,-1225.752797
643.774632,-1554.432478,-7772.162391,-2221.676944
643.774956,-1480.411884,-7698.141797,-2451.505594
643.775280,-1110.308913,-9178.553681,-1991.848295
643.775604,-740.205942,-10288.862594,0.000000
643.775928,518.144159,-10658.965565,919.314598
643.776252,1702.473667,-9770.718434,536.266849
643.776577,2220.617826,-8882.471304,306.438199
643.776901,2294.638420,-9622.677246,-1072.533697
643.777225,1924.535449,-10955.047942,0.000000
643.777549,1998.556043,-11769.274478,-153.219100
643.777873,370.102971,-10732.986159,0.000000
643.778197,-296.082377,-9918.759623,-459.657299
643.778521,-962.267725,-10288.862594,-1762.019645
643.778846,-1332.370696,-11251.130318,-2528.115143
643.779170,-1110.308913,-10584.944971,-2374.896044
643.779494,-444.123565,-9474.636058,-1991.848295
643.779818,296.082377,-10066.800811,-1455.581446
643.780142,1036.288319,-10362.883188,-612.876398
643.780466,1258.350101,-10807.006753,0.000000
643.780791,740.205942,-11325.150913,229.828649
643.781115,592.164754,-10436.903782,0.000000
643.781439,814.226536,-10436.903782,76.609550
643.781763,296.082377,-11547.212695,1225.752797
643.782087,592.164754,-11251.130318,1149.143247
643.782411,740.205942,-10510.924376,1685.410096
643.782735,518.144159,-10807.006753,1302.362347
643.783060,-592.164754,-10288.862594,0.000000
643.783384,-962.267725,-9474.636058,-536.266849
643.783708,-1110.308913,-8660.409521,0.000000
643.784032,296.082377,-8438.347739,-229.828649
643.784356,888.247130,-8438.347739,-536.266849
643.784680,-888.247130,-8956.491898,536.266849
643.785005,-1850.514855,-8142.265362,-229.828649
643.785329,-1702.473667,-7550.100608,-842.705048
643.785653,-1406.391290,-7846.182985,76.609550
643.785977,-1184.329507,-8364.327145,76.609550
643.786301,-962.267725,-8808.450710,612.876398
643.786625,-592.164754,-9326.594869,919.314598
643.786950,222.061783,-9474.636058,1991.848295
643.787274,1332.370696,-9104.533087,2145.067394
643.787598,1036.288319,-9104.533087,1302.362347
643.787922,-592.164754,-8956.491898,995.924147
643.788246,-1628.453072,-8660.409521,153.219100
643.788570,-1480.411884,-9400.615463,-612.876398
643.788894,-1036.288319,-9770.718434,-766.095498
643.789219,-962.267725,-9770.718434,-536.266849
643.789543,-740.205942,-8956.491898,-1455.581446
643.789867,-296.082377,-8956.491898,-383.047749
643.790191,148.041188,-9474.636058,-536.266849
643.790515,74.020594,-9696.697840,-842.705048
643.790839,-518.144159,-10214.842000,-689.485948
643.791164,-666.185348,-9252.574275,-766.095498
643.791488,962.267725,-9252.574275,459.657299
643.791812,2146.597232,-11103.089130,383.047749
643.792136,1850.514855,-11843.295072,1149.143247
643.792460,962.267725,-10510.924376,919.314598
643.792784,962.267725,-10140.821405,0.000000
643.793109,0.000000,-9844.739029,-995.924147
643.793433,-592.164754,-10066.800811,-689.485948
643.793757,-222.061783,-11399.171507,-1455.581446
643.794081,592.164754,-11251.130318,-2221.676944
643.794405,1480.411884,-10510.924376,-306.438199
643.794729,888.247130,-11473.192101,76.609550
643.795053,962.267725,-12139.377449,229.828649
643.795377,1332.370696,-10955.047942,-1608.800546
643.795701,74.020594,-9770.718434,-766.095498
643.796025,148.041188,-10658.965565,-536.266849
643.796349,444.123565,-11917.315666,306.438199
643.796673,1184.329507,-11991.336260,1455.581446
643.796997,1332.370696,-9104.533087,1838.629195
643.797322,444.123565,-7846.182985,1072.533697
643.797646,-666.185348,-8882.471304,76.609550
643.797970,-1628.453072,-9770.718434,612.876398
643.798294,-962.267725,-8808.450710,76.609550
643.798618,-962.267725,-6883.915261,229.828649
643.798942,-962.267725,-6883.915261,306.438199
643.799266,-518.144159,-7920.203579,459.657299
643.799590,222.061783,-8216.285956,689.485948
643.799914,-222.061783,-7328.038826,-459.657299
643.800238,-1406.391290,-6661.853478,-536.266849
643.800562,-666.185348,-8216.285956,-229.828649
643.800886,-296.082377,-8956.491898,536.266849
643.801210,666.185348,-9104.533087,612.876398
643.801534,518.144159,-9696.697840,1378.971896
643.801858,1258.350101,-9918.759623,536.266849
643.802182,814.226536,-10288.862594,76.609550
643.802506,74.020594,-9992.780217,766.095498
643.802830,0.000000,-8586.388927,306.438199
643.803154,444.123565,-9992.780217,229.828649
643.803478,-148.041188,-10807.006753,0.000000
643.803802,-814.226536,-10807.006753,0.000000
643.804126,-444.123565,-10584.944971,-612.876398
643.804450,-666.185348,-9030.512492,-1608.800546
643.804774,-1036.288319,-8882.471304,-2681.334243
643.805098,-2072.576638,-8068.244768,-3140.991542
643.805422,-1998.556043,-9770.718434,-2298.286494
643.805746,-888.247130,-10584.944971,-1685.410096
643.806070,1184.329507,-10288.862594,-229.828649
643.806394,1850.514855,-9992.780217,0.000000
643.806718,1554.432478,-9844.739029,-612.876398
643.807042,296.082377,-10658.965565,-536.266849
643.807366,222.061783,-11029.068536,0.000000
643.807690,1184.329507,-11991.336260,0.000000
643.808014,1110.308913,-11695.253884,-536.266849
643.808338,814.226536,-10658.965565,-842.705048
643.808663,740.205942,-10584.944971,-1072.533697
643.808987,1110.308913,-11621.233289,-1302.362347
643.809311,888.247130,-11843.295072,-1302.362347
643.809635,-1110.308913,-11325.150913,-1378.971896
643.809959,-2368.659014,-11695.253884,-995.924147
643.810283,-1850.514855,-11547.212695,-612.876398
643.810607,-444.123565,-11103.089130,-383.047749
643.810931,0.000000,-11029.068536,919.314598
643.811255,-296.082377,-11621.233289,995.924147
643.811579,0.000000,-10288.862594,689.485948
643.811903,74.020594,-8438.347739,1302.362347
643.812227,0.000000,-7550.100608,842.705048
643.812551,-518.144159,-8808.450710,1532.190996
643.812875,-1406.391290,-8808.450710,1302.362347
643.813199,-1406.391290,-7402.059420,1225.752797
643.813523,-518.144159,-6069.688724,1685.410096
643.813847,814.226536,-5847.626942,1072.533697
643.814171,1184.329507,-6291.750507,766.095498
643.814495,1332.370696,-6439.791695,1455.581446
643.814819,592.164754,-6809.894666,842.705048
643.815143,148.041188,-7624.121203,842.705048
643.815467,-222.061783,-8660.409521,1532.190996
643.815791,-592.164754,-8660.409521,1455.581446
643.816115,-1406.391290,-8216.285956,766.095498
643.816439,-2072.576638,-8438.347739,536.266849
643.816763,-1480.411884,-8142.265362,0.000000
643.817087,-296.082377,-8882.471304,0.000000
643.817411,444.123565,-9474.636058,0.000000
643.817735,1998.556043,-9474.636058,536.266849
643.818059,2146.597232,-10510.924376,995.924147
643.818383,888.247130,-11399.171507,0.000000
643.818707,-518.144159,-10881.027347,0.000000
643.819031,-1258.350101,-10658.965565,-689.485948
643.819355,-814.226536,-10584.944971,-1149.143247
643.819679,222.061783,-10584.944971,-306.438199
643.820004,888.247130,-12213.398043,0.000000
643.820328,1332.370696,-11843.295072,0.000000
643.820652,962.267725,-10066.800811,-1072.533697
643.820976,222.061783,-10362.883188,-1455.581446
643.821300,0.000000,-10658.965565,-1915.238745
643.821624,222.061783,-11399.171507,-1149.143247
643.821948,-666.185348,-11547.212695,-689.485948
643.822272,-666.185348,-10362.883188,-536.266849
643.822596,148.041188,-9918.759623,-1685.410096
643.822920,740.205942,-10584.944971,-1072.533697
643.823244,2072.576638,-11843.295072,0.000000
643.823568,2664.741391,-11621.233289,-766.095498
643.823892,1628.453072,-10658.965565,153.219100
643.824216,518.144159,-11325.150913,153.219100
643.824540,1110.308913,-10881.027347,-383.047749
643.824864,-222.061783,-9918.759623,-995.924147
643.825188,-1480.411884,-9474.636058,-689.485948
643.825512,-1702.473667,-10288.862594,-919.314598
643.825836,-1628.453072,-10140.821405,-689.485948
643.826160,-1184.329507,-9400.615463,842.705048
643.826484,-888.247130,-8142.265362,1225.752797
643.826808,148.041188,-7698.141797,153.219100
643.827132,444.123565,-8438.347739,0.000000
643.827456,-1036.288319,-8216.285956,0.000000
643.827780,-2664.741391,-7476.080014,-229.828649
643.828104,-2960.823768,-6883.915261,-306.438199
643.828428,-2294.638420,-7476.080014,-306.438199
643.828752,-888.247130,-7994.224174,0.000000
643.829076,74.020594,-8512.368333,0.000000
643.829400,444.123565,-7402.059420,0.000000
643.829724,1110.308913,-8142.265362,459.657299
643.830048,1628.453072,-8586.388927,229.828649
643.830372,814.226536,-9622.677246,536.266849
643.830696,-666.185348,-10288.862594,612.876398
643.831020,-740.205942,-9178.553681,-306.438199
643.831345,-592.164754,-8808.450710,-536.266849
643.831669,-1480.411884,-9178.553681,-459.657299
643.831993,-1850.514855,-9918.759623,-689.485948
643.832317,-814.226536,-9474.636058,-306.438199
643.832641,-518.144159,-8660.409521,-919.314598
643.832965,-1110.308913,-9104.533087,-1455.581446
643.833289,-1332.370696,-10436.903782,-1378.971896
643.833613,-1110.308913,-10955.047942,-1149.143247
643.833937,0.000000,-10732.986159,-766.095498
643.834261,1480.411884,-10881.027347,229.828649
643.834585,666.185348,-11695.253884,612.876398
643.834909,1406.391290,-11991.336260,0.000000
643.835233,2442.679609,-9104.533087,-1072.533697
643.835557,3034.844362,-8364.327145,-842.705048
643.835881,2590.720797,-9992.780217,-2145.067394
643.836205,814.226536,-10807.006753,-1455.581446
643.836529,74.020594,-10807.006753,76.609550
643.836853,370.102971,-9844.739029,383.047749
643.837177,666.185348,-9622.677246,-383.047749
643.837501,-814.226536,-9696.697840,-919.314598
643.837825,-814.226536,-11177.109724,-919.314598
643.838149,592.164754,-11325.150913,-383.047749
643.838473,2220.617826,-10732.986159,689.485948
643.838797,2590.720797,-11843.295072,1532.190996
643.839121,2146.597232,-12435.459826,1072.533697
643.839445,962.267725,-11547.212695,612.876398
643.839769,-518.144159,-9992.780217,459.657299
643.840093,-1110.308913,-11103.089130,766.095498
643.840417,-1850.514855,-12213.398043,0.000000
643.840741,-1850.514855,-11621.233289,1072.533697
643.841065,-888.247130,-9400.615463,1302.362347
643.841389,148.041188,-7920.203579,612.876398
643.841713,-740.205942,-9030.512492,842.705048
643.842037,-1924.535449,-9548.656652,1455.581446
643.842361,-1628.453072,-8068.244768,1378.971896
643.842686,-592.164754,-6661.853478,1608.800546
643.843010,0.000000,-5551.544565,1915.238745
643.843334,0.000000,-6439.791695,1991.848295
643.843658,-666.185348,-7254.018232,1685.410096
643.843982,0.000000,-6957.935855,1762.019645
643.844306,-296.082377,-6217.729913,2451.505594
643.844630,148.041188,-5995.668130,1378.971896
643.844954,-148.041188,-6809.894666,995.924147
643.845278,0.000000,-8512.368333,1455.581446
643.845602,666.185348,-9178.553681,919.314598
643.845926,296.082377,-8216.285956,766.095498
643.846250,-1036.288319,-8512.368333,306.438199
643.846574,-2294.638420,-8956.491898,-153.219100
643.846898,-1258.350101,-9400.615463,-766.095498
643.847222,-148.041188,-10066.800811,-459.657299
643.847546,592.164754,-10362.883188,-1149.143247
643.847870,-148.041188,-10584.944971,-995.924147
643.848194,-222.061783,-11177.109724,-766.095498
643.848518,518.144159,-11843.295072,-383.047749
643.848842,1628.453072,-11103.089130,-153.219100
643.849166,888.247130,-10658.965565,-842.705048
643.849490,-1332.370696,-11103.089130,-1149.143247
643.849814,-814.226536,-11399.171507,-1302.362347
643.850138,1554.432478,-11029.068536,-536.266849
643.850462,2738.761985,-11621.233289,-689.485948
643.850786,1776.494261,-11399.171507,-1762.019645
643.851110,666.185348,-10214.842000,-1991.848295
643.851434,518.144159,-10732.986159,-2221.676944
643.851758,666.185348,-11695.253884,-2221.676944
643.852082,888.247130,-11695.253884,-1685.410096
643.852406,0.000000,-11029.068536,-2374.896044
643.852730,0.000000,-11177.109724,-2911.162892
643.853054,740.205942,-11547.212695,-2145.067394
643.853378,2220.617826,-12657.521608,-229.828649
643.853702,2294.638420,-13175.665768,536.266849
643.854027,1480.411884,-11917.315666,-1072.533697
643.854351,-444.123565,-8882.471304,-1685.410096
643.854675,-1628.453072,-8882.471304,-1149.143247
643.854999,-1480.411884,-11547.212695,-919.314598
643.855323,-1184.329507,-11769.274478,-229.828649
643.855647,-1702.473667,-10288.862594,689.485948
643.855971,-1998.556043,-7624.121203,306.438199
643.856295,-1702.473667,-6735.874072,-536.266849
643.856619,-2516.700203,-7105.977043,-1378.971896
643.856943,-2812.782580,-7476.080014,-612.876398
643.857267,-2072.576638,-7328.038826,-536.266849
643.857591,-1036.288319,-5921.647536,0.000000
643.857915,-222.061783,-5477.523971,1072.533697
643.858239,592.164754,-6069.688724,612.876398
643.858563,592.164754,-6883.915261,-76.609550
643.858887,-888.247130,-7698.141797,1149.143247
643.859211,-814.226536,-7698.141797,766.095498
643.859535,370.102971,-7846.182985,1532.190996
643.859859,1924.535449,-9178.553681,2451.505594
643.860183,2442.679609,-9178.553681,2068.457845
643.860507,1924.535449,-8660.409521,1072.533697
643.860831,1184.329507,-9474.636058,1378.971896
643.861155,-1184.329507,-11029.068536,689.485948
643.861479,-1776.494261,-10362.883188,0.000000
643.861803,-2220.617826,-8808.450710,153.219100
643.862127,-1998.556043,-9770.718434,-383.047749
643.862451,-1480.411884,-11695.253884,-919.314598
643.862775,-888.247130,-11843.295072,76.609550
643.863099,-222.061783,-10807.006753,-612.876398
643.863423,-740.205942,-9030.512492,-383.047749
643.863747,-444.123565,-9252.574275,-919.314598
643.864071,-1258.350101,-9992.780217,-536.266849
643.864395,-444.123565,-11029.068536,-229.828649
643.864719,-740.205942,-11325.150913,-153.219100
643.865043,74.020594,-11029.068536,306.438199
643.865368,2516.700203,-10807.006753,0.000000
643.865692,3923.091493,-10436.903782,383.047749
643.866016,4293.194464,-9770.718434,612.876398
643.866340,3330.926739,-9252.574275,-612.876398
643.866664,1554.432478,-10732.986159,-153.219100
643.866988,1036.288319,-12213.398043,459.657299
643.867312,1480.411884,-12139.377449,459.657299
643.867636,1480.411884,-11103.089130,0.000000
643.867960,592.164754,-10066.800811,0.000000
643.868284,-592.164754,-11473.192101,-612.876398
643.868608,-2442.679609,-11843.295072,-1685.410096
643.868932,-3701.029710,-11473.192101,-842.705048
643.869256,-2294.638420,-10584.944971,0.000000
643.869580,-148.041188,-10436.903782,-153.219100
643.869904,296.082377,-9622.677246,-153.219100
643.870228,-1110.308913,-9474.636058,0.000000
643.870552,-2516.700203,-9252.574275,153.219100
643.870876,-1480.411884,-9844.739029,76.609550
643.871200,0.000000,-9474.636058,1225.752797
643.871524,0.000000,-8290.306550,2604.724693
643.871848,592.164754,-7550.100608,2145.067394
643.872172,962.267725,-7402.059420,2068.457845
643.872496,1110.308913,-7698.141797,1302.362347
643.872820,370.102971,-7994.224174,383.047749
643.873144,74.020594,-7179.997637,612.876398
643.873468,592.164754,-6365.771101,689.485948
643.873792,1332.370696,-6513.812290,919.314598
643.874116,1850.514855,-7994.224174,612.876398
643.874440,1184.329507,-8364.327145,536.266849
643.874764,222.061783,-8438.347739,229.828649
643.875088,-962.267725,-7105.977043,-689.485948
643.875412,-666.185348,-7105.977043,-383.047749
643.875736,-370.102971,-8438.347739,842.705048
643.876060,370.102971,-9474.636058,0.000000
643.876384,148.041188,-8882.471304,536.266849
643.876709,-888.247130,-9178.553681,536.266849
643.877033,-444.123565,-9844.739029,0.000000
643.877357,-296.082377,-10066.800811,0.000000
643.877681,0.000000,-10732.986159,306.438199
643.878005,74.020594,-9844.739029,-536.266849
643.878329,222.061783,-10955.047942,-1149.143247
643.878653,0.000000,-11547.212695,-383.047749
643.878977,1184.329507,-11621.233289,-995.924147
643.879301,1332.370696,-11325.150913,-1072.533697
643.879625,888.247130,-10732.986159,-995.924147
643.879949,370.102971,-11843.295072,-1225.752797
643.880273,1036.288319,-13397.727550,-1225.752797
643.880597,740.205942,-12213.398043,-1685.410096
643.880921,-370.102971,-10807.006753,-2298.286494
643.881245,-814.226536,-10510.924376,-995.924147
643.881569,-518.144159,-11769.274478,-1149.143247
643.881893,-296.082377,-11695.253884,-1225.752797
643.882217,-1480.411884,-10807.006753,-842.705048
643.882541,-1776.494261,-9992.780217,-1532.190996
643.882865,-1184.329507,-10658.965565,-842.705048
643.883189,-1554.432478,-11769.274478,-383.047749
643.883513,-444.123565,-11177.109724,76.609550
643.883837,0.000000,-9844.739029,-229.828649
643.884161,0.000000,-9474.636058,-612.876398
643.884485,-444.123565,-10066.800811,-995.924147
643.884809,-888.247130,-9992.780217,-995.924147
643.885133,-592.164754,-9400.615463,-689.485948
643.885457,-444.123565,-8882.471304,0.000000
643.885781,0.000000,-8512.368333,0.000000
643.886105,518.144159,-8882.471304,-229.828649
643.886429,-740.205942,-8142.265362,0.000000
643.886753,-2072.576638,-6883.915261,-1608.800546
643.887077,-2368.659014,-7105.977043,0.000000
643.887401,0.000000,-8734.430116,1072.533697
643.887725,1406.391290,-8882.471304,536.266849
643.888050,444.123565,-7254.018232,689.485948
643.888374,-444.123565,-5773.606348,0.000000
643.888698,370.102971,-7402.059420,-919.314598
643.889022,-592.164754,-10066.800811,-766.095498
643.889346,-1332.370696,-9400.615463,459.657299
643.889670,-962.267725,-8734.430116,153.219100
643.889994,-296.082377,-9030.512492,-612.876398
643.890318,814.226536,-9548.656652,0.000000
643.890642,2072.576638,-10066.800811,689.485948
643.890966,2664.741391,-10658.965565,229.828649
643.891290,2220.617826,-10066.800811,995.924147
643.891614,1554.432478,-9548.656652,-153.219100
643.891938,296.082377,-9326.594869,-689.485948
643.892262,-592.164754,-9844.739029,-306.438199
643.892586,-962.267725,-11103.089130,-459.657299
643.892910,-962.267725,-10436.903782,-459.657299
643.893234,-888.247130,-9844.739029,-536.266849
643.893558,0.000000,-10066.800811,-229.828649
643.893882,1554.432478,-11399.171507,459.657299
643.894206,2146.597232,-11103.089130,76.609550
643.894530,2220.617826,-10288.862594,1149.143247
643.894854,1628.453072,-10510.924376,1685.410096
643.895178,888.247130,-10658.965565,842.705048
643.895502,-222.061783,-10288.862594,229.828649
643.895826,-962.267725,-9548.656652,0.000000
643.896150,-666.185348,-11251.130318,-229.828649
643.896474,-370.102971,-12213.398043,153.219100
643.896798,592.164754,-10955.047942,459.657299
643.897122,814.226536,-9770.718434,459.657299
643.897446,888.247130,-10362.883188,76.609550
643.897770,0.000000,-11695.253884,306.438199
643.898094,-1628.453072,-11251.130318,153.219100
643.898418,-1924.535449,-10214.842000,0.000000
643.898742,-1924.535449,-9326.594869,766.095498
643.899066,-1480.411884,-9030.512492,842.705048
643.899390,-888.247130,-8438.347739,995.924147
643.899714,-666.185348,-8956.491898,2068.457845
643.900037,0.000000,-9030.512492,1991.848295
643.900361,370.102971,-9104.533087,1838.629195
643.900685,-444.123565,-8290.306550,1302.362347
643.901009,-962.267725,-8364.327145,1072.533697
643.901333,-888.247130,-7698.141797,536.266849
643.901657,-666.185348,-7772.162391,842.705048
643.901981,-592.164754,-8438.347739,842.705048
643.902305,222.061783,-8290.306550,1991.848295
643.902629,1850.514855,-8660.409521,2757.943793
643.902953,2294.638420,-7994.224174,2068.457845
643.903277,1036.288319,-6661.853478,459.657299
643.903601,0.000000,-6661.853478,0.000000
643.903925,-666.185348,-8068.244768,-306.438199
643.904249,-666.185348,-9548.656652,306.438199
643.904573,666.185348,-9178.553681,1225.752797
643.904897,1110.308913,-9104.533087,2528.115143
643.905221,222.061783,-8808.450710,536.266849
643.905545,-814.226536,-8808.450710,-612.876398
643.905869,-1850.514855,-8216.285956,-689.485948
643.906193,0.000000,-10214.842000,-1455.581446
643.906517,1702.473667,-11399.171507,-1225.752797
643.906841,1332.370696,-11029.068536,-153.219100
643.907164,888.247130,-10288.862594,-842.705048
643.907488,222.061783,-10510.924376,-2145.067394
643.907812,-1332.370696,-11399.171507,-3370.820191
643.908136,-1850.514855,-11843.295072,-1838.629195
643.908460,-740.205942,-11843.295072,-1532.190996
643.908784,814.226536,-11769.274478,-612.876398
643.909108,2220.617826,-11177.109724,229.828649
643.909432,3034.844362,-11547.212695,-383.047749
643.909756,1776.494261,-12361.439231,-536.266849
643.910080,-666.185348,-12583.501014,-1608.800546
643.910404,-1480.411884,-10436.903782,-2757.943793
643.910728,-2146.597232,-8882.471304,-2834.553343
643.911052,-2146.597232,-9178.553681,-2681.334243
643.911376,-2294.638420,-10140.821405,-1608.800546
643.911700,-888.247130,-10436.903782,-1302.362347
643.912024,1406.391290,-10807.006753,-1072.533697
643.912348,2516.700203,-9844.739029,-766.095498
643.912672,2294.638420,-9918.759623,-1225.752797
643.912996,1998.556043,-9696.697840,-536.266849
643.913320,1258.350101,-9918.759623,-612.876398
643.913644,148.041188,-10510.924376,-612.876398
643.913968,-888.247130,-10436.903782,-229.828649
643.914291,-222.061783,-10436.903782,0.000000
643.914615,148.041188,-8956.491898,-153.219100
643.914939,1184.329507,-8290.306550,-229.828649
643.915263,814.226536,-8660.409521,-76.609550
643.915587,-222.061783,-9178.553681,612.876398
643.915911,-1332.370696,-9474.636058,919.314598
643.916235,-2294.638420,-8142.265362,229.828649
643.916559,-2442.679609,-7105.977043,306.438199
643.916883,-2442.679609,-7772.162391,0.000000
643.917207,-2220.617826,-8660.409521,-536.266849
643.917531,-2664.741391,-8438.347739,153.219100
643.917855,-2812.782580,-8216.285956,536.266849
643.918179,-1554.432478,-8290.306550,536.266849
643.918503,0.000000,-9622.677246,153.219100
643.918827,592.164754,-9844.739029,1149.143247
643.919151,1258.350101,-9770.718434,689.485948
643.919475,1258.350101,-9770.718434,689.485948
643.919799,740.205942,-9622.677246,919.314598
643.920123,962.267725,-10732.986159,1608.800546
643.920447,2442.679609,-10436.903782,1302.362347
643.920771,2442.679609,-9178.553681,1225.752797
643.921095,1628.453072,-9474.636058,1302.362347
643.921418,296.082377,-10362.883188,229.828649
643.921742,-1258.350101,-9992.780217,306.438199
643.922066,-2442.679609,-9474.636058,76.609550
643.922390,-3108.864956,-8660.409521,-306.438199
643.922714,-3552.988522,-8734.430116,-383.047749
643.923038,-3182.885551,-9548.656652,536.266849
643.923362,-1776.494261,-9178.553681,766.095498
643.923686,-148.041188,-8660.409521,612.876398
643.924010,814.226536,-9178.553681,306.438199
643.924334,1184.329507,-10362.883188,536.266849
643.924658,1850.514855,-11547.212695,919.314598
643.924982,3256.906145,-11621.233289,76.609550
643.925306,3256.906145,-10214.842000,459.657299
643.925630,3182.885551,-10732.986159,306.438199
643.925954,2738.761985,-11843.295072,536.266849
643.926278,1850.514855,-11769.274478,383.047749
643.926602,296.082377,-10362.883188,76.609550
643.926926,-592.164754,-9474.636058,0.000000
643.927250,-592.164754,-10214.842000,-995.924147
643.927574,-1110.308913,-10066.800811,-459.657299
643.927898,-1332.370696,-9844.739029,459.657299
643.928222,-518.144159,-9844.739029,383.047749
643.928545,296.082377,-9622.677246,-306.438199
643.928869,-592.164754,-9400.615463,766.095498
643.929193,-296.082377,-9474.636058,-153.219100
643.929517,-814.226536,-8512.368333,-842.705048
643.929841,0.000000,-8586.388927,76.609550
643.930165,740.205942,-9548.656652,383.047749
643.930489,1628.453072,-9844.739029,153.219100
643.930813,1850.514855,-9030.512492,-612.876398
643.931137,2072.576638,-8216.285956,229.828649
643.931461,2886.803174,-9104.533087,842.705048
643.931785,1998.556043,-10510.924376,306.438199
643.932109,-1480.411884,-9252.574275,383.047749
643.932433,-2368.659014,-7624.121203,1149.143247
643.932757,-1184.329507,-8734.430116,1149.143247
643.933081,0.000000,-10510.924376,459.657299
643.933405,-592.164754,-9474.636058,0.000000
643.933729,-1110.308913,-7624.121203,-383.047749
643.934053,-592.164754,-7328.038826,-1149.143247
643.934377,-1036.288319,-8216.285956,-1455.581446
643.934701,-1332.370696,-8734.430116,-612.876398
643.935025,-1554.432478,-9770.718434,0.000000
643.935349,-666.185348,-9770.718434,-612.876398
643.935672,-296.082377,-9844.739029,0.000000
643.935996,148.041188,-9696.697840,-612.876398
643.936320,74.020594,-10436.903782,-1072.533697
643.936644,-444.123565,-11325.150913,383.047749
643.936968,74.020594,-10881.027347,-229.828649
643.937292,0.000000,-10066.800811,383.047749
643.937616,-518.144159,-10066.800811,1072.533697
643.937940,-1036.288319,-10584.944971,766.095498
643.938264,-1184.329507,-9474.636058,-1149.143247
643.938588,-1258.350101,-8512.368333,-612.876398
643.938912,-518.144159,-9992.780217,306.438199
643.939236,74.020594,-11695.253884,-689.485948
643.939560,74.020594,-10436.903782,-766.095498
643.939884,-444.123565,-8660.409521,76.609550
643.940208,74.020594,-10066.800811,-612.876398
643.940532,74.020594,-11547.212695,-1608.800546
643.940856,-740.205942,-10732.986159,-766.095498
643.941180,-962.267725,-9844.739029,76.609550
643.941504,1480.411884,-9622.677246,-842.705048
643.941828,2590.720797,-10584.944971,-459.657299
643.942152,2368.659014,-11251.130318,995.924147
643.942476,2220.617826,-11029.068536,306.438199
643.942799,1110.308913,-10214.842000,-383.047749
643.943123,0.000000,-9622.677246,-153.219100
643.943447,-444.123565,-9696.697840,-229.828649
643.943771,-888.247130,-10436.903782,-536.266849
643.944095,-888.247130,-9992.780217,-536.266849
643.944419,-1776.494261,-8290.306550,-459.657299
643.944743,-1332.370696,-8216.285956,-1149.143247
643.945067,-962.267725,-9548.656652,-612.876398
643.945391,-296.082377,-9770.718434,-229.828649
643.945715,296.082377,-8734.430116,-229.828649
643.946039,962.267725,-7920.203579,-995.924147
643.946363,0.000000,-8808.450710,-383.047749
643.946687,444.123565,-10066.800811,-229.828649
643.947011,2072.576638,-9696.697840,153.219100
643.947335,2072.576638,-8956.491898,766.095498
643.947659,592.164754,-9770.718434,1072.533697
643.947983,-296.082377,-10807.006753,459.657299
643.948307,-296.082377,-10955.047942,153.219100
643.948631,-370.102971,-10066.800811,306.438199
643.948955,-888.247130,-9326.594869,-229.828649
643.949279,-592.164754,-9030.512492,-842.705048
643.949603,-222.061783,-9252.574275,383.047749
643.949926,296.082377,-9400.615463,229.828649
643.950250,370.102971,-8586.388927,-306.438199
643.950574,-592.164754,-8808.450710,-229.828649
643.950898,-1332.370696,-9622.677246,-536.266849
643.951222,-296.082377,-9474.636058,-306.438199
643.951546,-222.061783,-8956.491898,0.000000
643.951870,0.000000,-9104.533087,1072.533697
643.952194,1406.391290,-10214.842000,766.095498
643.952518,1924.535449,-11029.068536,1149.143247
643.952842,1628.453072,-9474.636058,995.924147
643.953166,666.185348,-8216.285956,1608.800546
643.953490,0.000000,-9030.512492,1149.143247
643.953814,-148.041188,-9770.718434,459.657299
643.954138,-740.205942,-10066.800811,919.314598
643.954462,-592.164754,-9252.574275,842.705048
643.954786,74.020594,-8438.347739,383.047749
643.955110,-666.185348,-8438.347739,-1072.533697
643.955434,-1258.350101,-8882.471304,-842.705048
643.955758,-1184.329507,-9474.636058,-1072.533697
643.956082,-1184.329507,-10066.800811,-1302.362347
643.956406,-1258.350101,-10658.965565,0.000000
643.956730,-296.082377,-11547.212695,229.828649
643.957053,444.123565,-11547.212695,76.609550
643.957377,296.082377,-10881.027347,766.095498
643.957701,444.123565,-10288.862594,1302.362347
643.958025,1184.329507,-11177.109724,1455.581446
643.958349,1110.308913,-11399.171507,1455.581446
643.958673,148.041188,-10658.965565,1685.410096
643.958997,0.000000,-8882.471304,995.924147
643.959321,0.000000,-8216.285956,-153.219100
643.959645,-1036.288319,-9474.636058,-689.485948
643.959969,-2590.720797,-10214.842000,-919.314598
643.960293,-2442.679609,-9326.594869,-1302.362347
643.960617,-1850.514855,-7402.059420,-1532.190996
643.960941,-740.205942,-7550.100608,-306.438199
643.961265,814.226536,-8660.409521,-995.924147
643.961589,1554.432478,-8734.430116,-1302.362347
643.961913,1258.350101,-8290.306550,0.000000
643.962237,1480.411884,-9178.553681,-153.219100
643.962561,1850.514855,-10584.944971,-689.485948
643.962885,1924.535449,-11103.089130,1455.581446
643.963209,1924.535449,-11177.109724,2451.505594
643.963533,1702.473667,-10214.842000,1072.533697
643.963857,592.164754,-9252.574275,-689.485948
643.964180,-888.247130,-8882.471304,-919.314598
643.964504,-296.082377,-9474.636058,-1149.143247
643.964828,370.102971,-9992.780217,-1608.800546
643.965152,-296.082377,-8808.450710,-612.876398
643.965476,-1850.514855,-8068.244768,-1072.533697
643.965800,-2368.659014,-9696.697840,-2298.286494
643.966124,-2368.659014,-10140.821405,-2221.676944
643.966448,-2220.617826,-9622.677246,-1608.800546
643.966772,-1480.411884,-9548.656652,-1302.362347
643.967096,-296.082377,-10214.842000,-153.219100
643.967420,1110.308913,-11399.171507,766.095498
643.967744,2294.638420,-9992.780217,536.266849
643.968068,2590.720797,-8956.491898,536.266849
643.968392,2368.659014,-9696.697840,536.266849
643.968716,2516.700203,-11843.295072,766.095498
643.969040,1776.494261,-11621.233289,919.314598
643.969364,-222.061783,-9400.615463,459.657299
643.969688,-1924.535449,-8068.244768,0.000000
643.970012,-2146.597232,-8512.368333,-1991.848295
643.970336,-1924.535449,-9474.636058,-1991.848295
643.970660,-1332.370696,-9918.759623,-153.219100
643.970984,74.020594,-9696.697840,0.000000
643.971307,962.267725,-9252.574275,-842.705048
643.971631,-296.082377,-9030.512492,-383.047749
643.971955,-1332.370696,-10066.800811,0.000000
643.972279,-888.247130,-10881.027347,153.219100
643.972603,0.000000,-11325.150913,766.095498
643.972927,592.164754,-10214.842000,1149.143247
643.973251,740.205942,-9474.636058,1455.581446
643.973575,740.205942,-9474.636058,1072.533697
643.973899,1110.308913,-8956.491898,0.000000
643.974223,0.000000,-8660.409521,459.657299
643.974547,-1184.329507,-8956.491898,-766.095498
643.974871,-2294.638420,-9178.553681,-153.219100
643.975195,-1998.556043,-8882.471304,536.266849
643.975519,-1332.370696,-8808.450710,0.000000
643.975843,-1036.288319,-8290.306550,-689.485948
643.976167,-1258.350101,-8364.327145,-612.876398
643.976491,-666.185348,-9622.677246,-689.485948
643.976815,814.226536,-9178.553681,-689.485948
643.977139,1776.494261,-9548.656652,919.314598
643.977463,2146.597232,-9844.739029,995.924147
643.977787,1924.535449,-10140.821405,0.000000
643.978111,444.123565,-9992.780217,-383.047749
643.978434,-148.041188,-10436.903782,0.000000
643.978758,740.205942,-10807.006753,306.438199
643.979082,1184.329507,-10955.047942,536.266849
643.979406,1628.453072,-10066.800811,536.266849
643.979730,888.247130,-8734.430116,-306.438199
643.980054,148.041188,-9252.574275,-1378.971896
643.980378,-1184.329507,-10436.903782,-612.876398
643.980702,-1702.473667,-11251.130318,-229.828649
643.981026,-1850.514855,-9474.636058,-1072.533697
643.981350,-1628.453072,-8216.285956,229.828649
643.981674,-1480.411884,-8290.306550,-689.485948
643.981998,-814.226536,-9400.615463,-766.095498
643.982322,370.102971,-10362.883188,0.000000
643.982646,1184.329507,-9622.677246,536.266849
643.982970,2220.617826,-8734.430116,-153.219100
643.983294,2220.617826,-9030.512492,306.438199
643.983618,1924.535449,-9696.697840,842.705048
643.983942,1702.473667,-10584.944971,612.876398
643.984266,962.267725,-9992.780217,-229.828649
643.984590,-1110.308913,-9770.718434,-995.924147
643.984914,-1110.308913,-9770.718434,-459.657299
643.985238,296.082377,-9992.780217,-153.219100
643.985561,1184.329507,-10510.924376,0.000000
643.985885,518.144159,-10140.821405,536.266849
643.986209,0.000000,-10214.842000,459.657299
643.986533,370.102971,-11473.192101,689.485948
643.986857,148.041188,-11251.130318,306.438199
643.987181,0.000000,-9696.697840,612.876398
643.987505,-666.185348,-9548.656652,536.266849
643.987829,-1110.308913,-9918.759623,153.219100
643.988153,-962.267725,-9622.677246,-459.657299
643.988477,-222.061783,-7624.121203,1072.533697
643.988801,814.226536,-8290.306550,536.266849
643.989125,962.267725,-9400.615463,229.828649
643.989449,222.061783,-9252.574275,689.485948
643.989773,0.000000,-7994.224174,612.876398
643.990097,-1258.350101,-7846.182985,842.705048
643.990421,-2294.638420,-8438.347739,383.047749
643.990745,-2590.720797,-7772.162391,-995.924147
643.991069,-2664.741391,-8438.347739,229.828649
643.991393,-888.247130,-9178.553681,919.314598
643.991717,1554.432478,-9622.677246,459.657299
643.992041,1850.514855,-8808.450710,383.047749
643.992365,962.267725,-8438.347739,0.000000
643.992689,222.061783,-9548.656652,-689.485948
643.993012,296.082377,-10066.800811,-766.095498
643.993336,1036.288319,-10807.006753,536.266849
643.993660,0.000000,-10658.965565,-229.828649
643.993984,-370.102971,-10436.903782,-766.095498
643.994308,-370.102971,-9548.656652,-536.266849
643.994632,0.000000,-10214.842000,-919.314598
643.994956,-222.061783,-11473.192101,-1532.190996
643.995280,-1480.411884,-11251.130318,-1302.362347
643.995604,-1628.453072,-9326.594869,-612.876398
643.995928,-962.267725,-9548.656652,-689.485948
643.996252,-444.123565,-9696.697840,-995.924147
643.996576,-1850.514855,-9400.615463,-842.705048
643.996900,-1776.494261,-9992.780217,-1149.143247
643.997224,-666.185348,-9548.656652,-1225.752797
643.997548,1184.329507,-9770.718434,-842.705048
643.997872,2146.597232,-10066.800811,-459.657299
643.998195,2294.638420,-10140.821405,-306.438199
643.998519,1480.411884,-10362.883188,0.000000
643.998843,1332.370696,-10436.903782,-383.047749
643.999167,888.247130,-10288.862594,-383.047749
643.999491,740.205942,-11029.068536,-612.876398
643.999815,814.226536,-11547.212695,76.609550
644.000139,1184.329507,-10510.924376,-459.657299
644.000463,1924.535449,-9474.636058,0.000000
644.000787,1406.391290,-9548.656652,0.000000
644.001111,148.041188,-10436.903782,0.000000
644.001435,0.000000,-10140.821405,0.000000
644.001759,0.000000,-9474.636058,536.266849
644.002083,888.247130,-10214.842000,1225.752797
644.002407,1628.453072,-10362.883188,1072.533697
644.002730,592.164754,-9992.780217,1532.190996
644.003054,-518.144159,-9104.533087,842.705048
644.003378,-1850.514855,-7846.182985,76.609550
644.003702,-1850.514855,-8808.450710,0.000000
644.004026,-2072.576638,-7846.182985,-689.485948
644.004350,-1702.473667,-7254.018232,0.000000
644.004674,-740.205942,-7105.977043,153.219100
644.004998,518.144159,-7624.121203,995.924147
644.005322,814.226536,-8956.491898,1455.581446
644.005646,-740.205942,-9474.636058,842.705048
644.005970,-1480.411884,-8364.327145,229.828649
644.006294,-666.185348,-6957.935855,306.438199
644.006618,74.020594,-9030.512492,689.485948
644.006941,592.164754,-10881.027347,1532.190996
644.007265,1924.535449,-11399.171507,1532.190996
644.007589,1480.411884,-10584.944971,995.924147
644.007913,1036.288319,-9548.656652,153.219100
644.008237,0.000000,-9992.780217,-306.438199
644.008561,-1702.473667,-11547.212695,-383.047749
644.008885,-2812.782580,-10732.986159,-1225.752797
644.009209,-3256.906145,-9030.512492,-1455.581446
644.009533,-2368.659014,-9918.759623,-995.924147
644.009857,-370.102971,-11029.068536,-842.705048
644.010181,592.164754,-10288.862594,76.609550
644.010505,740.205942,-9474.636058,-153.219100
644.010829,-74.020594,-8438.347739,-766.095498
644.011152,-962.267725,-9252.574275,-766.095498
644.011476,-1332.370696,-10584.944971,0.000000
644.011800,-592.164754,-10066.800811,-229.828649
644.012124,0.000000,-8586.388927,-383.047749
644.012448,1628.453072,-8956.491898,536.266849
644.012772,2960.823768,-10955.047942,689.485948
644.013096,3849.070898,-10362.883188,-153.219100
644.013420,2294.638420,-8956.491898,-459.657299
644.013744,518.144159,-9252.574275,-383.047749
644.014068,1036.288319,-11251.130318,-1455.581446
644.014392,814.226536,-12213.398043,-459.657299
644.014716,296.082377,-11695.253884,0.000000
644.015040,518.144159,-10288.862594,-766.095498
644.015363,0.000000,-10510.924376,-842.705048
644.015687,0.000000,-11547.212695,-383.047749
644.016011,-592.164754,-11473.192101,153.219100
644.016335,-814.226536,-10658.965565,-689.485948
644.016659,-740.205942,-9104.533087,-995.924147
644.016983,-888.247130,-9252.574275,0.000000
644.017307,-888.247130,-11103.089130,306.438199
644.017631,-962.267725,-10066.800811,-383.047749
644.017955,-962.267725,-8364.327145,612.876398
644.018279,-592.164754,-7920.203579,0.000000
644.018603,814.226536,-8660.409521,0.000000
644.018927,814.226536,-9770.718434,1225.752797
644.019251,296.082377,-9030.512492,1225.752797
644.019575,370.102971,-7105.977043,306.438199
644.019898,370.102971,-7550.100608,76.609550
644.020222,444.123565,-8660.409521,0.000000
644.020546,1036.288319,-9474.636058,-1072.533697
644.020870,1036.288319,-8142.265362,153.219100
644.021194,370.102971,-8512.368333,229.828649
644.021518,0.000000,-9696.697840,0.000000
644.021842,0.000000,-9918.759623,689.485948
644.022166,296.082377,-9400.615463,1149.143247
644.022490,-444.123565,-8882.471304,306.438199
644.022814,-1406.391290,-9252.574275,306.438199
644.023138,-1480.411884,-9992.780217,0.000000
644.023462,-1480.411884,-10436.903782,0.000000
644.023786,-1332.370696,-9696.697840,-153.219100
644.024109,-1258.350101,-9104.533087,-536.266849
644.024433,-2368.659014,-9770.718434,-1455.581446
644.024757,-2664.741391,-11103.089130,-612.876398
644.025081,-2368.659014,-10732.986159,-612.876398
644.025405,-888.247130,-9400.615463,-1149.143247
644.025729,518.144159,-9252.574275,-1302.362347
644.026053,1628.453072,-10140.821405,-229.828649
644.026377,2664.741391,-10881.027347,0.000000
644.026701,2294.638420,-9844.739029,-306.438199
644.027025,1332.370696,-8808.450710,-612.876398
644.027349,518.144159,-9548.656652,-612.876398
644.027673,-740.205942,-11695.253884,-1532.190996
644.027997,-592.164754,-11621.233289,153.219100
644.028320,-222.061783,-9474.636058,-383.047749
644.028644,518.144159,-9178.553681,-612.876398
644.028968,74.020594,-10436.903782,0.000000
644.029292,444.123565,-11325.150913,0.000000
644.029616,74.020594,-9992.780217,-612.876398
644.029940,-1110.308913,-8660.409521,-766.095498
644.030264,-2220.617826,-9030.512492,-1532.190996
644.030588,-1776.494261,-10584.944971,153.219100
644.030912,-1036.288319,-11251.130318,-153.219100
644.031236,-222.061783,-9696.697840,0.000000
644.031560,-370.102971,-8364.327145,76.609550
644.031884,0.000000,-8882.471304,-229.828649
644.032208,1184.329507,-11399.171507,612.876398
644.032531,1258.350101,-10436.903782,1532.190996
644.032855,1110.308913,-8882.471304,1378.971896
644.033179,-444.123565,-9326.594869,1455.581446
644.033503,-1258.350101,-10584.944971,1838.629195
644.033827,-1258.350101,-9770.718434,383.047749
644.034151,-1258.350101,-6809.894666,-536.266849
644.034475,-814.226536,-5625.565159,76.609550
644.034799,592.164754,-8512.368333,459.657299
644.035123,1480.411884,-9918.759623,306.438199
644.035447,962.267725,-7920.203579,1149.143247
644.035771,-148.041188,-7105.977043,995.924147
644.036095,0.000000,-8734.430116,-383.047749
644.036419,74.020594,-10955.047942,229.828649
644.036743,444.123565,-11621.233289,1302.362347
644.037066,1480.411884,-10436.903782,995.924147
644.037390,1406.391290,-9474.636058,766.095498
644.037714,518.144159,-10362.883188,766.095498
644.038038,0.000000,-10658.965565,0.000000
644.038362,-296.082377,-10140.821405,-306.438199
644.038686,-888.247130,-9696.697840,-229.828649
644.039010,-962.267725,-9622.677246,-306.438199
644.039334,-592.164754,-10214.842000,-306.438199
644.039658,-1110.308913,-9918.759623,-536.266849
644.039982,-962.267725,-9400.615463,-919.314598
644.040306,-1184.329507,-8956.491898,-995.924147
644.040630,-666.185348,-9844.739029,-766.095498
644.040954,-444.123565,-10807.006753,-995.924147
644.041277,222.061783,-9178.553681,-995.924147
644.041601,1776.494261,-7846.182985,-1378.971896
644.041925,2442.679609,-8882.471304,-842.705048
644.042249,2812.782580,-10955.047942,-919.314598
644.042573,1998.556043,-10584.944971,0.000000
644.042897,1184.329507,-9696.697840,0.000000
644.043221,0.000000,-9326.594869,-612.876398
644.043545,-1036.288319,-9622.677246,-612.876398
644.043869,-740.205942,-10288.862594,-995.924147
644.044193,-222.061783,-10436.903782,-1072.533697
644.044517,0.000000,-10658.965565,-842.705048
644.044841,0.000000,-9474.636058,-1149.143247
644.045165,0.000000,-8956.491898,-1608.800546
644.045488,-1332.370696,-10214.842000,-766.095498
644.045812,-1036.288319,-10807.006753,-995.924147
644.046136,-1036.288319,-10658.965565,-766.095498
644.046460,-962.267725,-9992.780217,-766.095498
644.046784,-1110.308913,-9770.718434,-612.876398
644.047108,-962.267725,-9696.697840,-153.219100
644.047432,-592.164754,-9548.656652,153.219100
644.047756,-74.020594,-9696.697840,383.047749
644.048080,148.041188,-9400.615463,842.705048
644.048404,-1184.329507,-9326.594869,0.000000
644.048728,-2590.720797,-7846.182985,-766.095498
644.049052,-2516.700203,-7105.977043,459.657299
644.049376,-814.226536,-9104.533087,0.000000
644.049699,-148.041188,-10066.800811,-459.657299
644.050023,0.000000,-8808.450710,383.047749
644.050347,592.164754,-8512.368333,612.876398
644.050671,1850.514855,-9252.574275,-612.876398
644.050995,2516.700203,-10140.821405,0.000000
644.051319,1480.411884,-11029.068536,459.657299
644.051643,666.185348,-11843.295072,383.047749
644.051967,592.164754,-11473.192101,-383.047749
644.052291,74.020594,-9844.739029,-306.438199
644.052615,-296.082377,-9696.697840,76.609550
644.052939,-888.247130,-10732.986159,-76.609550
644.053263,-444.123565,-10881.027347,0.000000
644.053587,222.061783,-9770.718434,153.219100
644.053910,148.041188,-8808.450710,-153.219100
644.054234,-962.267725,-9030.512492,-306.438199
644.054558,-1776.494261,-9178.553681,-459.657299
644.054882,-1850.514855,-8956.491898,153.219100
644.055206,-2072.576638,-8660.409521,-1149.143247
644.055530,-1924.535449,-8660.409521,-1532.190996
644.055854,-296.082377,-8660.409521,-459.657299
644.056178,3034.844362,-8882.471304,-306.438199
644.056502,5033.400406,-9992.780217,383.047749
644.056826,4367.215058,-10807.006753,1072.533697
644.057150,3034.844362,-10066.800811,306.438199
644.057474,1554.432478,-9918.759623,-919.314598
644.057798,888.247130,-9992.780217,-1149.143247
644.058122,1628.453072,-9622.677246,-689.485948
644.058445,1554.432478,-10584.944971,612.876398
644.058769,74.020594,-11991.336260,383.047749
644.059093,-1110.308913,-9918.759623,306.438199
644.059417,0.000000,-9326.594869,383.047749
644.059741,592.164754,-10881.027347,76.609550
644.060065,222.061783,-11621.233289,0.000000
644.060389,-888.247130,-10362.883188,-229.828649
644.060713,-1924.535449,-8512.368333,383.047749
644.061037,-2590.720797,-9622.677246,-459.657299
644.061361,-2960.823768,-10658.965565,-689.485948
644.061685,-2886.803174,-9696.697840,-766.095498
644.062009,-1924.535449,-8586.388927,153.219100
644.062333,-740.205942,-8586.388927,536.266849
644.062656,0.000000,-8734.430116,153.219100
644.062980,-962.267725,-7179.997637,766.095498
644.063304,-2294.638420,-7476.080014,766.095498
644.063628,-1628.453072,-8512.368333,536.266849
644.063952,148.041188,-8438.347739,1608.800546
644.064276,666.185348,-8438.347739,2298.286494
644.064600,370.102971,-8882.471304,2221.676944
644.064924,148.041188,-7624.121203,229.828649
644.065248,-962.267725,-7031.956449,-536.266849
644.065572,-1998.556043,-9252.574275,-1378.971896
644.065896,-2960.823768,-10288.862594,-2221.676944
644.066220,-2886.803174,-10436.903782,-1838.629195
644.066544,-3182.885551,-9474.636058,-1378.971896
644.066867,-3256.906145,-9548.656652,-1378.971896
644.067191,-3478.967927,-10732.986159,-1532.190996
644.067515,-3923.091493,-10955.047942,-1838.629195
644.067839,-2590.720797,-9400.615463,-1455.581446
644.068163,-370.102971,-9030.512492,-1149.143247
644.068487,444.123565,-9400.615463,-1225.752797
644.068811,592.164754,-10066.800811,-459.657299
644.069135,-518.144159,-11251.130318,-229.828649
644.069459,-1406.391290,-11547.212695,-1838.629195
644.069783,-2664.741391,-10066.800811,-3140.991542
644.070107,-3849.070898,-8438.347739,-3370.820191
644.070431,-4441.235652,-8808.450710,-3600.648841
644.070755,-5107.421000,-11769.274478,-3983.696590
644.071078,-5033.400406,-12509.480420,-4749.792088
644.071402,-3478.967927,-10288.862594,-3753.867940
644.071726,-962.267725,-10584.944971,-3447.429741
644.072050,1110.308913,-11325.150913,-3064.381992
644.072374,1332.370696,-11177.109724,-2834.553343
644.072698,444.123565,-9622.677246,-3524.039291
644.073022,-666.185348,-10066.800811,-2987.772442
644.073346,-814.226536,-12139.377449,-3370.820191
644.073670,-1110.308913,-10881.027347,-2834.553343
644.073994,-1850.514855,-10288.862594,-2834.553343
644.074318,-1924.535449,-10214.842000,-2757.943793
644.074642,-1998.556043,-11251.130318,-3064.381992
644.074966,-1850.514855,-10436.903782,-3907.087040
644.075290,-1702.473667,-8734.430116,-2987.772442
644.075613,-2516.700203,-8364.327145,-2911.162892
644.075937,-2812.782580,-9474.636058,-2834.553343
644.076261,-3552.988522,-9770.718434,-2834.553343
644.076585,-3701.029710,-9622.677246,-2987.772442
644.076909,-3108.864956,-8364.327145,-3983.696590
644.077233,-2886.803174,-8364.327145,-4060.306139
644.077557,-2590.720797,-9030.512492,-3294.210641
644.077881,-2664.741391,-9548.656652,-2451.505594
644.078205,-3330.926739,-10288.862594,-2911.162892
644.078529,-3849.070898,-9326.594869,-2604.724693
644.078853,-3330.926739,-8956.491898,-1915.238745
644.079177,-2664.741391,-9326.594869,-2221.676944
644.079501,-1702.473667,-9104.533087,-1915.238745
644.079824,-1702.473667,-9622.677246,-1072.533697
644.080148,-1702.473667,-10140.821405,-1532.190996
644.080472,-1258.350101,-9844.739029,-995.924147
644.080796,-1332.370696,-8956.491898,-612.876398
644.081120,-1924.535449,-8808.450710,-1302.362347
644.081444,-3034.844362,-8586.388927,-2451.505594
644.081768,-4293.194464,-9400.615463,-2834.553343
644.082092,-4219.173869,-9104.533087,-2374.896044
644.082416,-2738.761985,-9400.615463,-1915.238745
644.082740,-1924.535449,-9104.533087,-995.924147
644.083064,-1702.473667,-8586.388927,-1608.800546
644.083388,-2368.659014,-10140.821405,-2145.067394
644.083712,-2664.741391,-10658.965565,-2681.334243
644.084035,-2146.597232,-11399.171507,-2068.457845
644.084359,-1258.350101,-11029.068536,-1685.410096
644.084683,-444.123565,-11473.192101,-919.314598
644.085007,-518.144159,-11473.192101,-689.485948
644.085331,-1110.308913,-11695.253884,-1072.533697
644.085655,-1184.329507,-11103.089130,-1072.533697
644.085979,-1924.535449,-11473.192101,-919.314598
644.086303,-1628.453072,-10955.047942,-1072.533697
644.086627,-888.247130,-9844.739029,-1225.752797
644.086951,-1480.411884,-8956.491898,-1532.190996
644.087275,-2442.679609,-8882.471304,-1072.533697
644.087599,-3330.926739,-8808.450710,-2604.724693
644.087923,-3404.947333,-7846.182985,-2451.505594
644.088246,-3034.844362,-8142.265362,-1455.581446
644.088570,-2368.659014,-8364.327145,-1455.581446
644.088894,-2368.659014,-8734.430116,-1838.629195
644.089218,-2664.741391,-9622.677246,-1149.143247
644.089542,-2886.803174,-10362.883188,-842.705048
644.089866,-2812.782580,-9622.677246,-2374.896044
644.090190,-3775.050304,-8660.409521,-2221.676944
644.090514,-3182.885551,-8808.450710,-766.095498
644.090838,-1776.494261,-9474.636058,-1378.971896
644.091162,148.041188,-9992.780217,-766.095498
644.091486,592.164754,-10510.924376,-383.047749
644.091810,962.267725,-10658.965565,-1302.362347
644.092134,740.205942,-9548.656652,-1302.362347
644.092458,444.123565,-9770.718434,-1378.971896
644.092781,-296.082377,-10732.986159,-1149.143247
644.093105,-740.205942,-11177.109724,-1455.581446
644.093429,-1480.411884,-9992.780217,-1991.848295
644.093753,-1924.535449,-8956.491898,-2451.505594
644.094077,-2146.597232,-9178.553681,-2221.676944
644.094401,-2442.679609,-9696.697840,-2451.505594
644.094725,-3775.050304,-9696.697840,-2604.724693
644.095049,-5033.400406,-8364.327145,-2451.505594
644.095373,-4737.318029,-8290.306550,-2528.115143
644.095697,-3775.050304,-8808.450710,-2834.553343
644.096021,-2516.700203,-8882.471304,-2987.772442
644.096345,-1406.391290,-8142.265362,-2145.067394
644.096669,444.123565,-9326.594869,-306.438199
644.096993,1850.514855,-11029.068536,-842.705048
644.097317,1036.288319,-10510.924376,-919.314598
644.097641,-1628.453072,-9992.780217,-1149.143247
644.097965,-3034.844362,-10658.965565,-2451.505594
644.098289,-2442.679609,-11473.192101,-2911.162892
644.098613,-2590.720797,-11251.130318,-2681.334243
644.098937,-3775.050304,-10732.986159,-2451.505594
644.099261,-4071.132681,-10658.965565,-3217.601092
644.099585,-2960.823768,-10510.924376,-3370.820191
644.099909,-3330.926739,-9918.759623,-2757.943793
644.100233,-4589.276840,-10214.842000,-2681.334243
644.100557,-5773.606348,-10140.821405,-3600.648841
644.100881,-5625.565159,-9474.636058,-2604.724693
644.101205,-3997.112087,-8512.368333,-2757.943793
644.101529,-2516.700203,-8438.347739,-3294.210641
644.101853,-2516.700203,-9400.615463,-2604.724693
644.102177,-2442.679609,-9548.656652,-2451.505594
644.102501,-1036.288319,-8364.327145,-2604.724693
644.102825,-1036.288319,-7179.997637,-2374.896044
644.103149,-1628.453072,-8808.450710,-2604.724693
644.103473,-2812.782580,-10658.965565,-2451.505594
644.103797,-3997.112087,-10362.883188,-3140.991542
644.104121,-4145.153275,-8660.409521,-2681.334243
644.104445,-4145.153275,-8882.471304,-2987.772442
644.104769,-2886.803174,-9844.739029,-1915.238745
644.105093,-1184.329507,-10584.944971,-1991.848295
644.105417,-740.205942,-9918.759623,-2298.286494
644.105741,-1480.411884,-9252.574275,-2451.505594
644.106066,-2368.659014,-10214.842000,-2681.334243
644.106390,-2220.617826,-11029.068536,-2834.553343
644.106714,-962.267725,-9622.677246,-1991.848295
644.107038,0.000000,-9178.553681,-2068.457845
644.107362,-962.267725,-10510.924376,-2451.505594
644.107686,-2738.761985,-12287.418637,-2528.115143
644.108010,-4663.297435,-10881.027347,-4060.306139
644.108334,-4589.276840,-9474.636058,-4903.011187
644.108658,-4663.297435,-11103.089130,-3600.648841
644.108982,-2812.782580,-12435.459826,-3447.429741
644.109306,-1036.288319,-11473.192101,-2528.115143
644.109630,-1258.350101,-9104.533087,-1302.362347
644.109954,-1184.329507,-7328.038826,-2451.505594
644.110278,-962.267725,-7328.038826,-2757.943793
644.110602,444.123565,-7994.224174,-1762.019645
644.110926,2516.700203,-7698.141797,-459.657299
644.111250,3404.947333,-8956.491898,0.000000
644.111574,1406.391290,-10510.924376,-766.095498
644.111898,-1110.308913,-11325.150913,-842.705048
644.112222,-3701.029710,-10436.903782,-1991.848295
644.112546,-4959.379811,-10658.965565,-3064.381992
644.112870,-5181.441594,-10658.965565,-2834.553343
644.113194,-3552.988522,-10066.800811,-1991.848295
644.113518,-888.247130,-8882.471304,-1378.971896
644.113842,666.185348,-7772.162391,-689.485948
644.114166,222.061783,-7105.977043,-1762.019645
644.114490,-592.164754,-7994.224174,-1762.019645
644.114814,-1258.350101,-9252.574275,-1072.533697
644.115138,-2590.720797,-9326.594869,-1302.362347
644.115462,-3627.009116,-9622.677246,-689.485948
644.115786,-3701.029710,-10214.842000,-919.314598
644.116110,-3034.844362,-10658.965565,-1149.143247
644.116434,-2072.576638,-10658.965565,-766.095498
644.116758,-370.102971,-10214.842000,-383.047749
644.117082,0.000000,-9992.780217,-689.485948
644.117406,-518.144159,-9992.780217,-766.095498
644.117730,-962.267725,-10140.821405,-766.095498
644.118054,-2516.700203,-10066.800811,-1072.533697
644.118379,-4145.153275,-9474.636058,-1455.581446
644.118703,-4811.338623,-8660.409521,-1685.410096
644.119027,-4737.318029,-8586.388927,-2834.553343
644.119351,-3923.091493,-7920.203579,-1838.629195
644.119675,-3404.947333,-8364.327145,-2145.067394
644.119999,-2738.761985,-8290.306550,-2068.457845
644.120323,-2812.782580,-8808.450710,-2068.457845
644.120647,-3256.906145,-9252.574275,-1685.410096
644.120971,-3256.906145,-9474.636058,-1838.629195
644.121295,-3256.906145,-9770.718434,-995.924147
644.121619,-2368.659014,-10288.862594,-842.705048
644.121943,-2368.659014,-10584.944971,-1302.362347
644.122267,-2368.659014,-11843.295072,-612.876398
644.122591,-2886.803174,-11991.336260,-842.705048
644.122915,-2960.823768,-11769.274478,-1608.800546
644.123239,-2664.741391,-11103.089130,-1991.848295
644.123563,-2368.659014,-10214.842000,-2681.334243
644.123887,-1258.350101,-9548.656652,-2834.553343
644.124211,-666.185348,-8438.347739,-3140.991542
644.124535,-444.123565,-7624.121203,-3370.820191
644.124859,-740.205942,-7254.018232,-3524.039291
644.125183,-1258.350101,-7550.100608,-3677.258390
644.125507,-1554.432478,-8290.306550,-3600.648841
644.125831,-2442.679609,-8956.491898,-3600.648841
644.126155,-3775.050304,-9696.697840,-3447.429741
644.126479,-4293.194464,-9992.780217,-3370.820191
644.126803,-4071.132681,-10140.821405,-3140.991542
644.127127,-3775.050304,-10510.924376,-3600.648841
644.127451,-2590.720797,-11547.212695,-2987.772442
644.127775,-1184.329507,-12213.398043,-2451.505594
644.128099,148.041188,-12139.377449,-1991.848295
644.128423,1184.329507,-10955.047942,-2068.457845
644.128747,2146.597232,-9548.656652,-2681.334243
644.129071,2368.659014,-9178.553681,-2987.772442
644.129395,2960.823768,-10140.821405,-2681.334243
644.129719,3034.844362,-10807.006753,-1915.238745
644.130043,2664.741391,-10658.965565,-1532.190996
644.130368,1036.288319,-10288.862594,-1608.800546
644.130692,-2294.638420,-9918.759623,-2451.505594
644.131016,-5181.441594,-10288.862594,-3140.991542
644.131340,-7550.100608,-10436.903782,-4136.915689
644.131664,-8290.306550,-10214.842000,-3524.039291
644.131988,-7402.059420,-9474.636058,-3600.648841
644.132312,-5329.482782,-8438.347739,-2451.505594
644.132636,-2812.782580,-8290.306550,-1378.971896
644.132960,-740.205942,-8586.388927,-536.266849
644.133284,740.205942,-8660.409521,0.000000
644.133608,1184.329507,-8142.265362,0.000000
644.133932,1850.514855,-8512.368333,0.000000
644.134256,2294.638420,-8882.471304,383.047749
644.134580,2294.638420,-9178.553681,76.609550
644.134904,814.226536,-9400.615463,-919.314598
644.135228,-1628.453072,-10288.862594,-1608.800546
644.135552,-4589.276840,-10436.903782,-1915.238745
644.135876,-7105.977043,-9548.656652,-2451.505594
644.136200,-7920.203579,-8808.450710,-2834.553343
644.136524,-8660.409521,-8586.388927,-3677.258390
644.136848,-8734.430116,-8586.388927,-3217.601092
644.137172,-7105.977043,-8438.347739,-2681.334243
644.137496,-4811.338623,-9178.553681,-1608.800546
644.137820,-2442.679609,-9548.656652,-919.314598
644.138144,-222.061783,-9696.697840,-383.047749
644.138468,1480.411884,-9992.780217,0.000000
644.138792,2146.597232,-10140.821405,-153.219100
644.139116,2072.576638,-11325.150913,0.000000
644.139440,1554.432478,-11843.295072,-689.485948
644.139764,740.205942,-11695.253884,-995.924147
644.140088,-518.144159,-11399.171507,-1838.629195
644.140412,-2738.761985,-10510.924376,-2911.162892
644.140736,-5255.462188,-10140.821405,-3677.258390
644.141060,-7105.977043,-9622.677246,-4366.744339
644.141384,-8660.409521,-8660.409521,-4903.011187
644.141708,-7772.162391,-8142.265362,-4903.011187
644.142032,-5551.544565,-7254.018232,-4213.525239
644.142356,-2960.823768,-7105.977043,-2911.162892
644.142681,-444.123565,-7846.182985,-2221.676944
644.143005,444.123565,-9178.553681,-2145.067394
644.143329,592.164754,-10140.821405,-1378.971896
644.143653,222.061783,-11103.089130,-995.924147
644.143977,0.000000,-12731.542202,-1072.533697
644.144301,222.061783,-13249.686362,-1225.752797
644.144625,0.000000,-13323.706956,-1685.410096
644.144949,-740.205942,-13101.645173,-2145.067394
644.145273,-1258.350101,-12065.356855,-3140.991542
644.145597,-1628.453072,-10066.800811,-2987.772442
644.145921,-2368.659014,-8216.285956,-3907.087040
644.146245,-2664.741391,-7402.059420,-4366.744339
644.146569,-3256.906145,-7031.956449,-4903.011187
644.146893,-4441.235652,-6883.915261,-4903.011187
644.147217,-6291.750507,-7105.977043,-4443.353888
644.147541,-6735.874072,-7698.141797,-4290.134789
644.147865,-5403.503377,-7846.182985,-3753.867940
644.148189,-3775.050304,-8586.388927,-2221.676944
644.148513,-1554.432478,-9696.697840,-1072.533697
644.148837,592.164754,-10807.006753,-306.438199
644.149161,1924.535449,-11843.295072,76.609550
644.149485,2072.576638,-12213.398043,153.219100
644.149809,1110.308913,-12435.459826,-306.438199
644.150133,296.082377,-11843.295072,-1149.143247
644.150457,-518.144159,-10732.986159,-1608.800546
644.150781,0.000000,-9474.636058,-1838.629195
644.151105,222.061783,-8586.388927,-2757.943793
644.151429,222.061783,-8586.388927,-2911.162892
644.151753,-1332.370696,-8216.285956,-3140.991542
644.152077,-4071.132681,-8216.285956,-3600.648841
644.152401,-6587.832884,-7846.182985,-4060.306139
644.152725,-7772.162391,-7254.018232,-4060.306139
644.153049,-7772.162391,-7031.956449,-3217.601092
644.153373,-5107.421000,-7920.203579,-2451.505594
644.153697,-2886.803174,-10140.821405,-1378.971896
644.154021,-2146.597232,-11843.295072,-153.219100
644.154345,-1850.514855,-12583.501014,842.705048
644.154670,-1110.308913,-12805.562797,0.000000
644.154994,-296.082377,-11547.212695,-383.047749
644.155318,1850.514855,-11029.068536,76.609550
644.155642,3701.029710,-10807.006753,-383.047749
644.155966,4441.235652,-11177.109724,-1072.533697
644.156290,2590.720797,-9770.718434,-1378.971896
644.156614,1036.288319,-8586.388927,-1991.848295
644.156938,-666.185348,-7994.224174,-2451.505594
644.157262,-3034.844362,-7772.162391,-3447.429741
644.157586,-6439.791695,-8512.368333,-3294.210641
644.157910,-10214.842000,-9548.656652,-4366.744339
644.158234,-11621.233289,-9844.739029,-4749.792088
644.158558,-10140.821405,-9326.594869,-4213.525239
644.158882,-7476.080014,-8956.491898,-2834.553343
644.159206,-5107.421000,-9918.759623,-2068.457845
644.159530,-3923.091493,-11251.130318,-995.924147
644.159854,-2220.617826,-11695.253884,0.000000
644.160178,148.041188,-11769.274478,612.876398
644.160502,3775.050304,-11695.253884,1762.019645
644.160826,7476.080014,-11325.150913,1072.533697
644.161150,8734.430116,-9178.553681,536.266849
644.161474,7920.203579,-8586.388927,0.000000
644.161798,5107.421000,-9844.739029,-229.828649
644.162122,888.247130,-11399.171507,-1149.143247
644.162446,-3330.926739,-10140.821405,-2145.067394
644.162770,-7698.141797,-7994.224174,-3294.210641
644.163094,-10214.842000,-7254.018232,-4596.572988
644.163418,-12065.356855,-7698.141797,-5362.668486
644.163742,-12509.480420,-7994.224174,-5439.278036
644.164066,-11769.274478,-7105.977043,-5286.058936
644.164390,-9326.594869,-6957.935855,-3524.039291
644.164714,-5181.441594,-7920.203579,-1991.848295
644.165038,-592.164754,-8734.430116,-383.047749
644.165362,1554.432478,-8660.409521,229.828649
644.165686,2442.679609,-10140.821405,1072.533697
644.166010,5107.421000,-12731.542202,1532.190996
644.166334,9104.533087,-12435.459826,1762.019645
644.166658,10584.944971,-10732.986159,1838.629195
644.166983,8290.306550,-11177.109724,1225.752797
644.167307,3701.029710,-13323.706956,0.000000
644.167631,-444.123565,-13989.892304,-1608.800546
644.167955,-5403.503377,-10732.986159,-3983.696590
644.168279,-10288.862594,-8364.327145,-4979.620737
644.168603,-13323.706956,-8142.265362,-5286.058936
644.168927,-12065.356855,-8512.368333,-6281.983084
644.169251,-11029.068536,-6587.832884,-5898.935335
644.169575,-9844.739029,-5995.668130,-5209.449386
644.169899,-8512.368333,-7402.059420,-4903.011187
644.170223,-5477.523971,-8216.285956,-3830.477490
644.170547,-1184.329507,-6883.915261,-2221.676944
644.170871,1480.411884,-7846.182985,-1072.533697
644.171195,4145.153275,-11251.130318,0.000000
644.171519,5033.400406,-14063.912898,459.657299
644.171843,5329.482782,-13249.686362,995.924147
644.172167,5403.503377,-12509.480420,766.095498
644.172491,3256.906145,-13249.686362,-229.828649
644.172815,888.247130,-12953.603985,-2528.115143
644.173139,-1924.535449,-11547.212695,-2145.067394
644.173463,-4219.173869,-9992.780217,-3370.820191
644.173787,-4885.359217,-9474.636058,-5286.058936
644.174111,-6069.688724,-8438.347739,-4903.011187
644.174435,-7105.977043,-6587.832884,-4519.963438
644.174759,-6883.915261,-5477.523971,-5286.058936
644.175083,-6217.729913,-6217.729913,-5669.106685
644.175407,-5181.441594,-6957.935855,-5209.449386
644.175731,-3182.885551,-7624.121203,-2987.772442
644.176055,-1036.288319,-9844.739029,-2604.724693
644.176379,74.020594,-10510.924376,-3140.991542
644.176703,370.102971,-10955.047942,-1225.752797
644.177027,1110.308913,-12361.439231,-1225.752797
644.177351,1332.370696,-13101.645173,-1225.752797
644.177675,814.226536,-13249.686362,-459.657299
644.177999,370.102971,-12361.439231,-766.095498
644.178323,888.247130,-11399.171507,-1762.019645
644.178647,-296.082377,-9918.759623,-2374.896044
644.178972,-1406.391290,-8956.491898,-2145.067394
644.179296,-1332.370696,-8438.347739,-2757.943793
644.179620,-1184.329507,-7698.141797,-3447.429741
644.179944,-2220.617826,-7846.182985,-2221.676944
644.180268,-4293.194464,-8142.265362,-2987.772442
644.180592,-5921.647536,-7624.121203,-4443.353888
644.180916,-7624.121203,-7550.100608,-3907.087040
644.181240,-8216.285956,-10066.800811,-3217.601092
644.181564,-7328.038826,-12065.356855,-3447.429741
644.181888,-6957.935855,-12361.439231,-2374.896044
644.182212,-5625.565159,-11399.171507,-1455.581446
644.182536,-2146.597232,-9400.615463,-2221.676944
644.182860,814.226536,-9548.656652,-1149.143247
644.183184,1110.308913,-9844.739029,-995.924147
644.183508,2220.617826,-9622.677246,-612.876398
644.183832,2886.803174,-9770.718434,1072.533697
644.184156,2960.823768,-12287.418637,1532.190996
644.184480,2516.700203,-11917.315666,306.438199
644.184804,1184.329507,-8956.491898,-229.828649
644.185128,-296.082377,-7624.121203,-1225.752797
644.185452,-1924.535449,-8586.388927,-1762.019645
644.185776,-4293.194464,-10140.821405,-2068.457845
644.186100,-6809.894666,-11325.150913,-766.095498
644.186424,-6587.832884,-10214.842000,-1991.848295
644.186748,-5921.647536,-7476.080014,-3600.648841
644.187072,-6809.894666,-5255.462188,-4136.915689
644.187396,-6883.915261,-6291.750507,-3217.601092
644.187720,-4737.318029,-9474.636058,-2374.896044
644.188044,-1184.329507,-9326.594869,-842.705048
644.188368,1036.288319,-8364.327145,229.828649
644.188692,1628.453072,-8660.409521,689.485948
644.189016,1480.411884,-10807.006753,383.047749
644.189340,962.267725,-12065.356855,0.000000
644.189664,1184.329507,-11473.192101,153.219100
644.189988,666.185348,-11695.253884,383.047749
644.190312,-814.226536,-13249.686362,306.438199
644.190636,-1480.411884,-12509.480420,-153.219100
644.190961,-2220.617826,-10584.944971,-1302.362347
644.191285,-2960.823768,-9474.636058,-689.485948
644.191609,-3330.926739,-10066.800811,-1838.629195
644.191933,-3478.967927,-9474.636058,-2451.505594
644.192257,-3256.906145,-6883.915261,-2221.676944
644.192581,-2368.659014,-5847.626942,-2298.286494
644.192905,-1184.329507,-7031.956449,-2221.676944
644.193229,-2442.679609,-7550.100608,-2911.162892
644.193553,-3923.091493,-8290.306550,-2911.162892
644.193877,-2442.679609,-9178.553681,-2987.772442
644.194201,666.185348,-10881.027347,-2221.676944
644.194525,2516.700203,-11621.233289,-1991.848295
644.194849,3404.947333,-11029.068536,-1149.143247
644.195173,3478.967927,-12509.480420,229.828649
644.195497,4737.318029,-13915.871710,153.219100
644.195821,4589.276840,-12879.583391,0.000000
644.196145,2960.823768,-10807.006753,0.000000
644.196469,3108.864956,-10510.924376,-383.047749
644.196793,3552.988522,-11177.109724,-995.924147
644.197117,1036.288319,-9918.759623,-1225.752797
644.197441,-3108.864956,-9474.636058,-1685.410096
644.197765,-6291.750507,-8290.306550,-2604.724693
644.198089,-6957.935855,-8808.450710,-4596.572988
644.198413,-6217.729913,-7846.182985,-3830.477490
644.198737,-4737.318029,-7698.141797,-2451.505594
644.199061,-3108.864956,-9770.718434,-1608.800546
644.199385,-2072.576638,-11177.109724,-612.876398
644.199710,-1332.370696,-9548.656652,-153.219100
644.200034,0.000000,-8586.388927,459.657299
644.200358,1480.411884,-9770.718434,536.266849
644.200682,2072.576638,-10955.047942,459.657299
644.201006,1924.535449,-10288.862594,1225.752797
644.201330,1924.535449,-9474.636058,1378.971896
644.201654,2368.659014,-9474.636058,842.705048
644.201978,2886.803174,-9030.512492,459.657299
644.202302,3330.926739,-7846.182985,536.266849
644.202626,2738.761985,-9474.636058,229.828649
644.202950,1406.391290,-10066.800811,536.266849
644.203274,-1184.329507,-8808.450710,-459.657299
644.203598,-3849.070898,-7402.059420,-766.095498
644.203922,-5255.462188,-7920.203579,-842.705048
644.204246,-5477.523971,-9474.636058,-1532.190996
644.204570,-4219.173869,-8882.471304,-306.438199
644.204895,-3108.864956,-8882.471304,1378.971896
644.205219,-1776.494261,-9252.574275,0.000000
644.205543,-962.267725,-9178.553681,536.266849
644.205867,-296.082377,-9030.512492,1072.533697
644.206191,1258.350101,-10436.903782,1378.971896
644.206515,2368.659014,-11769.274478,1455.581446
644.206839,3330.926739,-11843.295072,2604.724693
644.207163,4885.359217,-11399.171507,2987.772442
644.207487,4737.318029,-9844.739029,1225.752797
644.207811,3034.844362,-9400.615463,0.000000
644.208135,1184.329507,-10732.986159,689.485948
644.208459,1036.288319,-11917.315666,0.000000
644.208783,-518.144159,-11399.171507,0.000000
644.209107,-2960.823768,-9030.512492,229.828649
644.209431,-3627.009116,-7624.121203,-1072.533697
644.209755,-3627.009116,-9474.636058,-1455.581446
644.210079,-2886.803174,-10214.842000,-1072.533697
644.210404,-1554.432478,-8882.471304,689.485948
644.210728,74.020594,-9030.512492,1838.629195
644.211052,1702.473667,-8882.471304,1378.971896
644.211376,3478.967927,-9104.533087,1838.629195
644.211700,3775.050304,-9326.594869,1991.848295
644.212024,3627.009116,-8438.347739,612.876398
644.212348,3404.947333,-10362.883188,1072.533697
644.212672,2442.679609,-10510.924376,842.705048
644.212996,2294.638420,-10140.821405,-306.438199
644.213320,222.061783,-10436.903782,229.828649
644.213644,-2368.659014,-10140.821405,-689.485948
644.213968,-3701.029710,-9178.553681,-1302.362347
644.214292,-4145.153275,-10510.924376,-1072.533697
644.214616,-3404.947333,-9622.677246,-612.876398
644.214940,-1554.432478,-8512.368333,689.485948
644.215264,74.020594,-8808.450710,1762.019645
644.215589,888.247130,-9400.615463,1149.143247
644.215913,0.000000,-8808.450710,459.657299
644.216237,666.185348,-7994.224174,1072.533697
644.216561,2516.700203,-8734.430116,842.705048
644.216885,3404.947333,-10584.944971,-229.828649
644.217209,3182.885551,-9992.780217,0.000000
644.217533,2442.679609,-10214.842000,306.438199
644.217857,1702.473667,-10510.924376,-612.876398
644.218181,1036.288319,-9844.739029,-1532.190996
644.218505,-444.123565,-9178.553681,-1378.971896
644.218829,-1332.370696,-9400.615463,-995.924147
644.219153,-1702.473667,-9918.759623,-1302.362347
644.219477,-2368.659014,-10140.821405,-766.095498
644.219801,-2812.782580,-9030.512492,-306.438199
644.220125,-3034.844362,-8882.471304,459.657299
644.220449,-2442.679609,-9992.780217,-766.095498
644.220773,-2146.597232,-9178.553681,306.438199
644.221098,-888.247130,-8734.430116,766.095498
644.221422,0.000000,-10140.821405,76.609550
644.221746,444.123565,-11769.274478,76.609550
644.222070,0.000000,-11029.068536,-1149.143247
644.222394,370.102971,-9770.718434,-1532.190996
644.222718,666.185348,-10658.965565,-2145.067394
644.223042,962.267725,-12361.439231,-1685.410096
644.223366,1924.535449,-11769.274478,0.000000
644.223690,2368.659014,-10955.047942,536.266849
644.224014,1924.535449,-11177.109724,229.828649
644.224338,666.185348,-10510.924376,-383.047749
644.224662,-592.164754,-10658.965565,-306.438199
644.224986,-2220.617826,-9770.718434,-612.876398
644.225310,-2886.803174,-8882.471304,-1072.533697
644.225634,-2812.782580,-7550.100608,-1532.190996
644.225958,-1406.391290,-7179.997637,-1149.143247
644.226283,-962.267725,-9030.512492,-689.485948
644.226607,-518.144159,-9918.759623,-842.705048
644.226931,0.000000,-9770.718434,-612.876398
644.227255,814.226536,-8808.450710,-1072.533697
644.227579,1628.453072,-8882.471304,-612.876398
644.227903,1184.329507,-9326.594869,-1532.190996
644.228227,518.144159,-9992.780217,-1072.533697
644.228551,-518.144159,-9992.780217,-1072.533697
644.228875,-1480.411884,-10510.924376,-689.485948
644.229199,-1332.370696,-10881.027347,-919.314598
644.229523,-1480.411884,-9400.615463,-1302.362347
644.229847,-1998.556043,-8068.244768,-1378.971896
644.230171,-1924.535449,-8216.285956,-1455.581446
644.230495,-296.082377,-9622.677246,0.000000
644.230819,1184.329507,-9622.677246,459.657299
644.231143,2664.741391,-8956.491898,1378.971896
644.231467,3997.112087,-8808.450710,919.314598
644.231792,4145.153275,-9474.636058,0.000000
644.232116,2590.720797,-10288.862594,76.609550
644.232440,740.205942,-11103.089130,229.828649
644.232764,0.000000,-11177.109724,76.609550
644.233088,-370.102971,-10066.800811,-383.047749
644.233412,-74.020594,-9252.574275,0.000000
644.233736,0.000000,-10436.903782,0.000000
644.234060,-74.020594,-9844.739029,-1072.533697
644.234384,-1406.391290,-9474.636058,-1302.362347
644.234708,-2812.782580,-9474.636058,0.000000
644.235032,-2664.741391,-10288.862594,-536.266849
644.235356,-2664.741391,-9474.636058,0.000000
644.235680,-1924.535449,-8956.491898,1072.533697
644.236004,-370.102971,-9326.594869,1225.752797
644.236328,0.000000,-10584.944971,842.705048
644.236652,518.144159,-10955.047942,1532.190996
644.236976,1850.514855,-10140.821405,2451.505594
644.237301,3256.906145,-9992.780217,1608.800546
644.237625,1776.494261,-10066.800811,1302.362347
644.237949,-222.061783,-10362.883188,1225.752797
644.238273,-1036.288319,-9770.718434,919.314598
644.238597,-962.267725,-10436.903782,229.828649
644.238921,-518.144159,-10066.800811,0.000000
644.239245,-592.164754,-9030.512492,1378.971896
644.239569,-888.247130,-8142.265362,-459.657299
644.239893,-1258.350101,-7254.018232,229.828649
644.240217,-962.267725,-7254.018232,459.657299
644.240541,0.000000,-8438.347739,1302.362347
644.240865,0.000000,-9474.636058,1608.800546
644.241189,-296.082377,-8956.491898,1455.581446
644.241513,-148.041188,-8068.244768,2145.067394
644.241837,592.164754,-8660.409521,766.095498
644.242161,222.061783,-8882.471304,0.000000
644.242486,0.000000,-8956.491898,0.000000
644.242810,666.185348,-9104.533087,536.266849
644.243134,2664.741391,-9918.759623,153.219100
644.243458,1554.432478,-9992.780217,1455.581446
644.243782,444.123565,-10436.903782,1608.800546
644.244106,-222.061783,-10436.903782,-306.438199
644.244430,-1554.432478,-9696.697840,-1149.143247
644.244754,-2072.576638,-9326.594869,-306.438199
644.245078,-1332.370696,-10881.027347,153.219100
644.245402,148.041188,-11621.233289,76.609550
644.245726,1036.288319,-9918.759623,383.047749
644.246050,592.164754,-9326.594869,306.438199
644.246374,592.164754,-9844.739029,-919.314598
644.246698,148.041188,-10436.903782,-1225.752797
644.247022,-888.247130,-10436.903782,-995.924147
644.247346,-888.247130,-8882.471304,-1149.143247
644.247670,370.102971,-8216.285956,-306.438199
644.247995,666.185348,-9252.574275,-383.047749
644.248319,148.041188,-10436.903782,-1072.533697
644.248643,-666.185348,-9992.780217,-1685.410096
644.248967,-740.205942,-8956.491898,-1149.143247
644.249291,-370.102971,-9104.533087,-1149.143247
644.249615,888.247130,-10584.944971,-306.438199
644.249939,518.144159,-9992.780217,-229.828649
644.250263,0.000000,-10288.862594,0.000000
644.250587,-1480.411884,-10214.842000,-842.705048
644.250911,-1924.535449,-10732.986159,-1302.362347
644.251235,-1924.535449,-10066.800811,-1991.848295
644.251559,-1554.432478,-9178.553681,-1149.143247
644.251883,0.000000,-10066.800811,-1762.019645
644.252207,1628.453072,-10658.965565,-1608.800546
644.252531,1776.494261,-10881.027347,-1225.752797
644.252855,1776.494261,-11251.130318,-306.438199
644.253180,1258.350101,-10362.883188,-689.485948
644.253504,814.226536,-10807.006753,-1149.143247
644.253828,-814.226536,-11103.089130,-1072.533697
644.254152,-1924.535449,-11251.130318,-766.095498
644.254476,-1184.329507,-10436.903782,-536.266849
644.254800,148.041188,-9030.512492,-612.876398
644.255124,2072.576638,-8142.265362,-536.266849
644.255448,1924.535449,-8290.306550,-536.266849
644.255772,740.205942,-9696.697840,-612.876398
644.256096,-666.185348,-8586.388927,-1455.581446
644.256420,-1554.432478,-7476.080014,-1991.848295
644.256744,-1628.453072,-7402.059420,-1378.971896
644.257068,-592.164754,-8142.265362,-1378.971896
644.257392,370.102971,-9474.636058,-383.047749
644.257716,444.123565,-9696.697840,383.047749
644.258040,1110.308913,-9918.759623,-383.047749
644.258364,1110.308913,-9992.780217,229.828649
644.258689,888.247130,-11029.068536,383.047749
644.259013,222.061783,-9918.759623,-306.438199
644.259337,-888.247130,-9474.636058,0.000000
644.259661,-1480.411884,-10510.924376,0.000000
644.259985,0.000000,-11399.171507,229.828649
644.260309,74.020594,-10436.903782,-306.438199
644.260633,666.185348,-8586.388927,153.219100
644.260957,1036.288319,-9252.574275,76.609550
644.261281,592.164754,-10658.965565,0.000000
644.261605,-296.082377,-10584.944971,383.047749
644.261929,-1332.370696,-9104.533087,1072.533697
644.262253,-592.164754,-8734.430116,459.657299
644.262577,222.061783,-9326.594869,842.705048
644.262901,-518.144159,-9622.677246,1072.533697
644.263225,-1480.411884,-9178.553681,1302.362347
644.263549,-1332.370696,-7846.182985,995.924147
644.263873,-1184.329507,-7402.059420,766.095498
644.264198,-444.123565,-8586.388927,2451.505594
644.264522,888.247130,-9992.780217,2298.286494
644.264846,1850.514855,-9548.656652,1608.800546
644.265170,444.123565,-8586.388927,1149.143247
644.265494,-814.226536,-8882.471304,459.657299
644.265818,-1036.288319,-10066.800811,153.219100
644.266142,0.000000,-10140.821405,229.828649
644.266466,740.205942,-10140.821405,1455.581446
644.266790,1850.514855,-10584.944971,1532.190996
644.267114,2886.803174,-11695.253884,1991.848295
644.267438,3108.864956,-12139.377449,2451.505594
644.267762,1924.535449,-10436.903782,2298.286494
644.268086,1554.432478,-9474.636058,1532.190996
644.268410,296.082377,-9918.759623,766.095498
644.268734,-1184.329507,-10881.027347,842.705048
644.269058,-1554.432478,-10362.883188,612.876398
644.269383,-1924.535449,-8364.327145,153.219100
644.269707,-1332.370696,-7624.121203,153.219100
644.270031,0.000000,-7920.203579,229.828649
644.270355,1628.453072,-8808.450710,0.000000
644.270679,1628.453072,-8882.471304,-536.266849
644.271003,666.185348,-8586.388927,-306.438199
644.271327,370.102971,-8364.327145,-1072.533697
644.271651,814.226536,-8438.347739,-306.438199
644.271975,0.000000,-9252.574275,383.047749
644.272299,0.000000,-10436.903782,689.485948
644.272623,-592.164754,-10140.821405,0.000000
644.272947,-148.041188,-9992.780217,-229.828649
644.273271,518.144159,-10732.986159,0.000000
644.273595,1480.411884,-10584.944971,0.000000
644.273919,1480.411884,-9622.677246,153.219100
644.274243,0.000000,-9400.615463,-612.876398
644.274567,-1406.391290,-9548.656652,-995.924147
644.274892,-1998.556043,-10658.965565,-1149.143247
644.275216,-2294.638420,-9992.780217,-1378.971896
644.275540,-1406.391290,-8882.471304,-1685.410096
644.275864,-1110.308913,-9030.512492,-1532.190996
644.276188,-1036.288319,-9474.636058,-1532.190996
644.276512,-1850.514855,-9622.677246,-2068.457845
644.276836,-1850.514855,-9104.533087,-842.705048
644.277160,222.061783,-8734.430116,-919.314598
644.277484,592.164754,-9474.636058,-536.266849
644.277808,-1184.329507,-9474.636058,-383.047749
644.278132,-1406.391290,-8364.327145,-536.266849
644.278456,-592.164754,-8586.388927,-766.095498
644.278780,666.185348,-9030.512492,-689.485948
644.279104,1480.411884,-9104.533087,0.000000
644.279428,1258.350101,-9474.636058,-229.828649
644.279752,444.123565,-9400.615463,-842.705048
644.280077,-222.061783,-10362.883188,-1532.190996
644.280401,-1924.535449,-11177.109724,-2604.724693
644.280725,-2294.638420,-11399.171507,-2528.115143
644.281049,-2442.679609,-11917.315666,-1608.800546
644.281373,-1036.288319,-11621.233289,-1378.971896
644.281697,0.000000,-11473.192101,-1149.143247
644.282021,222.061783,-11917.315666,-919.314598
644.282345,444.123565,-10955.047942,-1225.752797
644.282669,444.123565,-10807.006753,-766.095498
644.282993,1406.391290,-10955.047942,-383.047749
644.283317,1406.391290,-11029.068536,383.047749
644.283641,888.247130,-11103.089130,919.314598
644.283965,444.123565,-9400.615463,536.266849
644.284289,592.164754,-8512.368333,-459.657299
644.284613,0.000000,-9030.512492,-1762.019645
644.284937,-296.082377,-8660.409521,-1225.752797
644.285261,-518.144159,-9400.615463,-995.924147
644.285586,-518.144159,-8068.244768,-1149.143247
644.285910,74.020594,-6883.915261,612.876398
644.286234,370.102971,-7994.224174,689.485948
644.286558,962.267725,-9770.718434,76.609550
644.286882,-814.226536,-9178.553681,-459.657299
644.287206,-1406.391290,-8142.265362,0.000000
644.287530,74.020594,-8512.368333,0.000000
644.287854,1110.308913,-9548.656652,383.047749
644.288178,1628.453072,-9770.718434,919.314598
644.288502,1184.329507,-8734.430116,919.314598
644.288826,1258.350101,-9252.574275,766.095498
644.289150,2072.576638,-10140.821405,536.266849
644.289474,1036.288319,-10436.903782,-459.657299
644.289798,-296.082377,-9770.718434,-612.876398
644.290122,-592.164754,-9548.656652,76.609550
644.290446,0.000000,-11621.233289,612.876398
644.290771,-518.144159,-12879.583391,1455.581446
644.291095,-1184.329507,-11695.253884,1608.800546
644.291419,-2442.679609,-9252.574275,383.047749
644.291743,-962.267725,-9104.533087,76.609550
644.292067,666.185348,-10066.800811,536.266849
644.292391,1702.473667,-10881.027347,1608.800546
644.292715,666.185348,-10214.842000,2298.286494
644.293039,222.061783,-8364.327145,2221.676944
644.293363,-296.082377,-7846.182985,1302.362347
644.293687,-1184.329507,-8438.347739,76.609550
644.294011,-1554.432478,-9104.533087,383.047749
644.294335,-1554.432478,-9030.512492,536.266849
644.294659,-740.205942,-8438.347739,-383.047749
644.294983,-814.226536,-7920.203579,229.828649
644.295307,-518.144159,-8808.450710,1685.410096
644.295631,0.000000,-9696.697840,1149.143247
644.295955,0.000000,-10140.821405,1225.752797
644.296280,-666.185348,-9326.594869,995.924147
644.296604,222.061783,-8882.471304,1532.190996
644.296928,1924.535449,-10732.986159,919.314598
644.297252,1998.556043,-10362.883188,1915.238745
644.297576,1924.535449,-8882.471304,1838.629195
644.297900,1258.350101,-9400.615463,1149.143247
644.298224,740.205942,-10881.027347,766.095498
644.298548,0.000000,-10807.006753,1072.533697
644.298872,-666.185348,-9326.594869,153.219100
644.299196,-1110.308913,-8808.450710,-995.924147
644.299520,-962.267725,-8808.450710,-995.924147
644.299844,-592.164754,-9326.594869,-612.876398
644.300168,-518.144159,-9844.739029,-153.219100
644.300492,-1258.350101,-8956.491898,-842.705048
644.300816,-1628.453072,-7920.203579,-612.876398
644.301140,-296.082377,-8660.409521,-766.095498
644.301464,1036.288319,-9992.780217,-306.438199
644.301788,592.164754,-9992.780217,76.609550
644.302112,-148.041188,-9252.574275,0.000000
644.302436,0.000000,-9252.574275,-919.314598
644.302760,222.061783,-11103.089130,-689.485948
644.303084,1036.288319,-11399.171507,-766.095498
644.303408,1480.411884,-10955.047942,-383.047749
644.303732,888.247130,-10732.986159,-1225.752797
644.304056,74.020594,-9992.780217,-2068.457845
644.304380,296.082377,-10955.047942,-1991.848295
644.304704,740.205942,-11251.130318,-1762.019645
644.305028,518.144159,-10881.027347,-1838.629195
644.305352,-518.144159,-10510.924376,-1762.019645
644.305676,-1850.514855,-10362.883188,-1762.019645
644.306000,-3108.864956,-9696.697840,-2374.896044
644.306324,-3404.947333,-9178.553681,-1455.581446
644.306648,-2220.617826,-10066.800811,-766.095498
644.306972,0.000000,-9474.636058,-1225.752797
644.307296,1702.473667,-9178.553681,-536.266849
644.307620,1332.370696,-8364.327145,-229.828649
644.307944,1924.535449,-9030.512492,-842.705048
644.308268,1554.432478,-8808.450710,-1455.581446
644.308592,1036.288319,-9474.636058,-766.095498
644.308916,962.267725,-10140.821405,-536.266849
644.309240,1184.329507,-9770.718434,-536.266849
644.309564,-296.082377,-10288.862594,-306.438199
644.309888,-1702.473667,-10066.800811,-1225.752797
644.310212,-1998.556043,-9918.759623,-1532.190996
644.310536,-1850.514855,-10066.800811,-689.485948
644.310860,-1406.391290,-10066.800811,-1225.752797
644.311184,-1998.556043,-9326.594869,-612.876398
644.311508,-1110.308913,-8586.388927,0.000000
644.311832,-296.082377,-9252.574275,-689.485948
644.312156,-222.061783,-9770.718434,153.219100
644.312480,-222.061783,-9474.636058,536.266849
644.312804,0.000000,-9622.677246,76.609550
644.313128,740.205942,-9992.780217,612.876398
644.313452,2072.576638,-9696.697840,612.876398
644.313776,2738.761985,-9474.636058,1225.752797
644.314100,2516.700203,-9474.636058,766.095498
644.314424,1628.453072,-9474.636058,995.924147
644.314748,666.185348,-9844.739029,995.924147
644.315072,-962.267725,-9104.533087,76.609550
644.315396,-1776.494261,-7772.162391,0.000000
644.315720,-1554.432478,-7772.162391,-153.219100
644.316044,0.000000,-8734.430116,76.609550
644.316368,370.102971,-8734.430116,919.314598
644.316692,814.226536,-9770.718434,1608.800546
644.317016,814.226536,-9252.574275,689.485948
644.317340,666.185348,-9252.574275,383.047749
644.317664,370.102971,-9474.636058,383.047749
644.317988,0.000000,-9548.656652,612.876398
644.318312,148.041188,-11917.315666,1225.752797
644.318636,0.000000,-11695.253884,536.266849
644.318960,370.102971,-10436.903782,0.000000
644.319284,592.164754,-9918.759623,919.314598
644.319608,518.144159,-10955.047942,0.000000
644.319932,592.164754,-11325.150913,0.000000
644.320256,-518.144159,-11547.212695,689.485948
644.320580,-2294.638420,-10955.047942,459.657299
644.320904,-2072.576638,-9474.636058,766.095498
644.321228,-962.267725,-9326.594869,306.438199
644.321552,0.000000,-9178.553681,459.657299
644.321876,-222.061783,-9696.697840,229.828649
644.322200,-1332.370696,-9104.533087,536.266849
644.322524,-1480.411884,-7994.224174,612.876398
644.322848,-1184.329507,-7994.224174,383.047749
644.323172,-296.082377,-8216.285956,229.828649
644.323496,0.000000,-8734.430116,0.000000
644.323820,-666.185348,-8734.430116,229.828649
644.324144,-592.164754,-9178.553681,689.485948
644.324468,-518.144159,-8808.450710,459.657299
644.324792,-148.041188,-8586.388927,-153.219100
644.325116,740.205942,-7994.224174,-306.438199
644.325440,1258.350101,-8438.347739,-306.438199
644.325764,1702.473667,-10510.924376,459.657299
644.326088,2146.597232,-11991.336260,1762.019645
644.326412,2368.659014,-11251.130318,1455.581446
644.326736,2072.576638,-8956.491898,612.876398
644.327060,962.267725,-8734.430116,229.828649
644.327384,-370.102971,-10955.047942,-842.705048
644.327708,-1036.288319,-11621.233289,-919.314598
644.328032,-1554.432478,-9992.780217,153.219100
644.328356,-740.205942,-9548.656652,1072.533697
644.328680,296.082377,-9400.615463,536.266849
644.329004,1258.350101,-8882.471304,0.000000
644.329328,740.205942,-8734.430116,0.000000
644.329652,370.102971,-8882.471304,-1532.190996
644.329976,-740.205942,-8512.368333,-2145.067394
644.330300,-1554.432478,-8660.409521,-229.828649
644.330624,444.123565,-9918.759623,919.314598
644.330948,2368.659014,-10436.903782,1225.752797
644.331272,1480.411884,-8882.471304,306.438199
644.331596,222.061783,-8586.388927,153.219100
644.331920,0.000000,-9474.636058,-1532.190996
644.332244,888.247130,-10140.821405,-995.924147
644.332568,814.226536,-9844.739029,76.609550
644.332892,222.061783,-9770.718434,306.438199
644.333216,-814.226536,-9696.697840,-1149.143247
644.333540,-1332.370696,-10066.800811,-995.924147
644.333864,-1332.370696,-9992.780217,-1072.533697
644.334188,-888.247130,-9844.739029,-1608.800546
644.334512,-518.144159,-10732.986159,-689.485948
644.334836,296.082377,-11991.336260,919.314598
644.335160,1258.350101,-12657.521608,612.876398
644.335484,148.041188,-10732.986159,-383.047749
644.335808,-1628.453072,-9178.553681,-306.438199
644.336132,-1998.556043,-9844.739029,-1302.362347
644.336456,-1702.473667,-10881.027347,-1838.629195
644.336780,-2368.659014,-10584.944971,-612.876398
644.337104,-2516.700203,-9400.615463,-459.657299
644.337428,-1258.350101,-8364.327145,-1149.143247
644.337752,74.020594,-7920.203579,-1915.238745
644.338076,962.267725,-9178.553681,-612.876398
644.338400,888.247130,-9326.594869,0.000000
644.338724,666.185348,-10066.800811,0.000000
644.339048,-1258.350101,-9696.697840,-612.876398
644.339372,-1924.535449,-9474.636058,-306.438199
644.339696,-1332.370696,-10881.027347,306.438199
644.340020,-222.061783,-11177.109724,76.609550
644.340344,222.061783,-10066.800811,76.609550
