#time,accel_x,accel_y,accel_z
472.138213,4737.318029,-6957.935855,1991.848295
472.138537,5995.668130,-7550.100608,2451.505594
472.138861,7031.956449,-7772.162391,2068.457845
472.139186,6587.832884,-8216.285956,536.266849
472.139510,3997.112087,-9844.739029,-306.438199
472.139834,740.205942,-10436.903782,0.000000
472.140158,-814.226536,-11399.171507,229.828649
472.140482,-2516.700203,-11917.315666,1225.752797
472.140807,-3256.906145,-11695.253884,459.657299
472.141131,-4071.132681,-10140.821405,0.000000
472.141455,-5477.523971,-9030.512492,-383.047749
472.141779,-5181.441594,-7846.182985,-689.485948
472.142103,-3256.906145,-7179.997637,-229.828649
472.142428,-1924.535449,-7550.100608,766.095498
472.142752,-444.123565,-7550.100608,689.485948
472.143076,2072.576638,-7476.080014,0.000000
472.143400,3849.070898,-7994.224174,-306.438199
472.143724,4663.297435,-9474.636058,-536.266849
472.144049,2960.823768,-12139.377449,-1149.143247
472.144373,888.247130,-13693.809927,-1225.752797
472.144697,-222.061783,-13175.665768,-1302.362347
472.145021,-962.267725,-12657.521608,-842.705048
472.145345,-1110.308913,-12213.398043,-536.266849
472.145670,-740.205942,-12065.356855,-536.266849
472.145994,-666.185348,-10658.965565,-383.047749
472.146318,-370.102971,-10066.800811,-229.828649
472.146642,-296.082377,-9696.697840,459.657299
472.146966,0.000000,-8882.471304,0.000000
472.147291,370.102971,-8216.285956,-459.657299
472.147615,814.226536,-7772.162391,-1915.238745
472.147939,296.082377,-8068.244768,-2068.457845
472.148263,0.000000,-9622.677246,-1608.800546
472.148588,-888.247130,-10658.965565,-2604.724693
472.148912,-1258.350101,-10658.965565,-1302.362347
472.149236,-740.205942,-10140.821405,-766.095498
472.149560,1184.329507,-10436.903782,153.219100
472.149884,1924.535449,-10807.006753,1225.752797
472.150209,2294.638420,-10214.842000,1685.410096
472.150533,740.205942,-9104.533087,1532.190996
472.150857,-592.164754,-9474.636058,1072.533697
472.151181,-1184.329507,-9474.636058,0.000000
472.151505,-962.267725,-8142.265362,-842.705048
472.151830,-962.267725,-7698.141797,-1455.581446
472.152154,-296.082377,-8808.450710,-1455.581446
472.152478,0.000000,-9548.656652,-1532.190996
472.152802,296.082377,-9326.594869,-536.266849
472.153126,-666.185348,-9770.718434,-459.657299
472.153451,-740.205942,-10436.903782,-306.438199
472.153775,0.000000,-10288.862594,0.000000
472.154099,1554.432478,-9918.759623,1608.800546
472.154423,3034.844362,-9844.739029,2451.505594
472.154747,2812.782580,-9400.615463,2068.457845
472.155072,1702.473667,-8808.450710,1762.019645
472.155396,518.144159,-8512.368333,459.657299
472.155720,-296.082377,-8734.430116,-766.095498
472.156044,-1332.370696,-8956.491898,-689.485948
472.156368,-1332.370696,-9104.533087,-153.219100
472.156693,-518.144159,-8734.430116,-459.657299
472.157017,0.000000,-8734.430116,-383.047749
472.157341,0.000000,-9104.533087,0.000000
472.157665,74.020594,-10362.883188,0.000000
472.157990,666.185348,-10732.986159,766.095498
472.158314,1332.370696,-10214.842000,1149.143247
472.158638,1924.535449,-10288.862594,1838.629195
472.158962,1184.329507,-10140.821405,1685.410096
472.159286,370.102971,-10140.821405,1915.238745
472.159611,-444.123565,-9918.759623,153.219100
472.159935,-1184.329507,-9474.636058,-536.266849
472.160259,-1850.514855,-9178.553681,-1149.143247
472.160583,-1924.535449,-9326.594869,-1072.533697
472.160907,-1184.329507,-8882.471304,0.000000
472.161232,-592.164754,-8808.450710,-229.828649
472.161556,0.000000,-9474.636058,689.485948
472.161880,-222.061783,-9992.780217,536.266849
472.162204,74.020594,-9548.656652,536.266849
472.162528,962.267725,-9770.718434,766.095498
472.162853,888.247130,-10214.842000,995.924147
472.163177,1036.288319,-10658.965565,842.705048
472.163501,518.144159,-11103.089130,383.047749
472.163825,0.000000,-10584.944971,0.000000
472.164149,-888.247130,-9622.677246,-306.438199
472.164474,-1184.329507,-9770.718434,-1149.143247
472.164798,-1036.288319,-9844.739029,-1149.143247
472.165122,-518.144159,-9400.615463,-766.095498
472.165446,74.020594,-8956.491898,-766.095498
472.165770,370.102971,-8808.450710,-229.828649
472.166095,444.123565,-9030.512492,76.609550
472.166419,592.164754,-9252.574275,0.000000
472.166743,740.205942,-9474.636058,76.609550
472.167067,592.164754,-10140.821405,153.219100
472.167392,74.020594,-10436.903782,-306.438199
472.167716,0.000000,-10658.965565,-459.657299
472.168040,148.041188,-10140.821405,-459.657299
472.168364,0.000000,-10288.862594,-612.876398
472.168688,296.082377,-10288.862594,-842.705048
472.169013,0.000000,-9770.718434,-995.924147
472.169337,-444.123565,-9474.636058,-612.876398
472.169661,0.000000,-9400.615463,-612.876398
472.169985,0.000000,-9178.553681,-766.095498
472.170309,148.041188,-9622.677246,0.000000
472.170634,518.144159,-9252.574275,383.047749
472.170958,518.144159,-9400.615463,0.000000
472.171282,74.020594,-9474.636058,0.000000
472.171606,-148.041188,-9548.656652,0.000000
472.171930,-592.164754,-10066.800811,0.000000
472.172255,-444.123565,-10362.883188,-229.828649
472.172579,0.000000,-10066.800811,-153.219100
472.172903,444.123565,-9770.718434,76.609550
472.173227,444.123565,-9104.533087,383.047749
472.173551,148.041188,-8956.491898,-229.828649
472.173876,74.020594,-9178.553681,229.828649
472.174200,0.000000,-9104.533087,0.000000
472.174524,-370.102971,-9030.512492,0.000000
472.174848,-444.123565,-9030.512492,229.828649
472.175172,-148.041188,-9326.594869,0.000000
472.175497,-222.061783,-9326.594869,76.609550
472.175821,-444.123565,-9474.636058,0.000000
472.176145,-518.144159,-9548.656652,-229.828649
472.176469,-518.144159,-10066.800811,76.609550
472.176794,-148.041188,-10140.821405,76.609550
472.177118,0.000000,-10066.800811,383.047749
472.177442,222.061783,-9918.759623,153.219100
472.177767,296.082377,-10066.800811,459.657299
472.178091,0.000000,-9622.677246,153.219100
472.178415,74.020594,-9696.697840,229.828649
472.178739,-148.041188,-9696.697840,153.219100
472.179064,-888.247130,-9548.656652,-153.219100
472.179388,-740.205942,-9770.718434,0.000000
472.179712,-888.247130,-9770.718434,0.000000
472.180036,-888.247130,-9770.718434,-153.219100
472.180361,-518.144159,-10066.800811,383.047749
472.180685,-666.185348,-9696.697840,-153.219100
472.181009,74.020594,-9770.718434,153.219100
472.181333,370.102971,-10066.800811,0.000000
472.181658,518.144159,-9696.697840,0.000000
472.181982,370.102971,-9696.697840,153.219100
472.182306,296.082377,-9696.697840,0.000000
472.182631,222.061783,-9326.594869,0.000000
472.182955,148.041188,-9400.615463,-76.609550
472.183279,74.020594,-9474.636058,0.000000
472.183603,74.020594,-9400.615463,-1149.143247
472.183928,148.041188,-9696.697840,-306.438199
472.184252,296.082377,-9696.697840,-306.438199
472.184576,370.102971,-9622.677246,-383.047749
472.184900,444.123565,-9548.656652,0.000000
472.185225,222.061783,-9474.636058,-459.657299
472.185549,666.185348,-9326.594869,-536.266849
472.185873,444.123565,-9474.636058,0.000000
472.186198,444.123565,-9474.636058,0.000000
472.186522,296.082377,-9252.574275,-306.438199
472.186846,74.020594,-9326.594869,-536.266849
472.187170,-296.082377,-9548.656652,-306.438199
472.187495,-444.123565,-9326.594869,-383.047749
472.187819,-222.061783,-9622.677246,-229.828649
472.188143,0.000000,-9326.594869,0.000000
472.188467,-296.082377,-9400.615463,0.000000
472.188792,-296.082377,-9844.739029,-229.828649
472.189116,-296.082377,-9918.759623,0.000000
472.189440,-518.144159,-9770.718434,-229.828649
472.189764,-222.061783,-9918.759623,0.000000
472.190089,-148.041188,-9992.780217,0.000000
472.190413,0.000000,-9918.759623,153.219100
472.190737,0.000000,-9474.636058,383.047749
472.191062,-148.041188,-9696.697840,-229.828649
472.191386,-222.061783,-9844.739029,-229.828649
472.191710,0.000000,-10140.821405,76.609550
472.192034,-148.041188,-9770.718434,0.000000
472.192359,0.000000,-9770.718434,0.000000
472.192683,74.020594,-9770.718434,842.705048
472.193007,-222.061783,-9770.718434,-306.438199
472.193331,-444.123565,-9474.636058,306.438199
472.193656,-148.041188,-9696.697840,0.000000
472.193980,-222.061783,-9548.656652,76.609550
472.194304,-296.082377,-9622.677246,-153.219100
472.194629,-296.082377,-9770.718434,-306.438199
472.194953,74.020594,-9548.656652,153.219100
472.195277,0.000000,-9400.615463,229.828649
472.195601,666.185348,-9548.656652,-153.219100
472.195926,0.000000,-9474.636058,0.000000
472.196250,222.061783,-9548.656652,0.000000
472.196574,0.000000,-9474.636058,0.000000
472.196898,148.041188,-9770.718434,0.000000
472.197223,222.061783,-9548.656652,76.609550
472.197547,74.020594,-9548.656652,383.047749
472.197871,0.000000,-9400.615463,0.000000
472.198195,74.020594,-9622.677246,-229.828649
472.198520,0.000000,-9622.677246,0.000000
472.198844,74.020594,-9696.697840,0.000000
472.199168,222.061783,-9696.697840,0.000000
472.199493,592.164754,-9696.697840,0.000000
472.199817,592.164754,-9474.636058,0.000000
472.200141,518.144159,-9474.636058,0.000000
472.200465,148.041188,-9474.636058,-229.828649
472.200790,0.000000,-9548.656652,-153.219100
472.201114,-222.061783,-9474.636058,-229.828649
472.201438,-222.061783,-9474.636058,0.000000
472.201762,-222.061783,-9622.677246,-229.828649
472.202087,0.000000,-9622.677246,0.000000
472.202411,0.000000,-9844.739029,76.609550
472.202735,148.041188,-9622.677246,0.000000
472.203059,-518.144159,-9400.615463,0.000000
472.203384,-296.082377,-9474.636058,-383.047749
472.203708,-222.061783,-9770.718434,-229.828649
472.204032,-148.041188,-9918.759623,-229.828649
472.204357,0.000000,-9770.718434,-153.219100
472.204681,148.041188,-9548.656652,76.609550
472.205005,-296.082377,-9770.718434,-383.047749
472.205329,-444.123565,-9548.656652,-612.876398
472.205654,0.000000,-9844.739029,-306.438199
472.205978,-296.082377,-9770.718434,-229.828649
472.206302,-222.061783,-9918.759623,-383.047749
472.206626,-148.041188,-9844.739029,-306.438199
472.206951,0.000000,-9622.677246,-612.876398
472.207275,222.061783,-9622.677246,-612.876398
472.207599,-296.082377,-9474.636058,-612.876398
472.207924,0.000000,-9992.780217,-153.219100
472.208248,-296.082377,-9770.718434,0.000000
472.208572,-370.102971,-9770.718434,-229.828649
472.208896,-296.082377,-9918.759623,-306.438199
472.209221,74.020594,-10066.800811,-306.438199
472.209545,-148.041188,-9474.636058,0.000000
472.209869,-222.061783,-9548.656652,306.438199
472.210193,296.082377,-9844.739029,306.438199
472.210518,0.000000,-9474.636058,76.609550
472.210842,0.000000,-9622.677246,229.828649
472.211166,222.061783,-9622.677246,76.609550
472.211490,148.041188,-9696.697840,153.219100
472.211815,74.020594,-9474.636058,0.000000
472.212139,148.041188,-9474.636058,76.609550
472.212463,0.000000,-9104.533087,76.609550
472.212788,222.061783,-9696.697840,153.219100
472.213112,74.020594,-9770.718434,0.000000
472.213436,74.020594,-9474.636058,76.609550
472.213760,222.061783,-9548.656652,76.609550
472.214085,444.123565,-9548.656652,229.828649
472.214409,444.123565,-9770.718434,0.000000
472.214733,444.123565,-9326.594869,536.266849
472.215057,0.000000,-8956.491898,0.000000
472.215382,0.000000,-9474.636058,0.000000
472.215706,-222.061783,-9474.636058,0.000000
472.216030,-296.082377,-9548.656652,0.000000
472.216355,0.000000,-9770.718434,0.000000
472.216679,-222.061783,-9622.677246,0.000000
472.217003,0.000000,-9622.677246,229.828649
472.217327,0.000000,-9622.677246,76.609550
472.217652,0.000000,-9770.718434,76.609550
472.217976,0.000000,-9770.718434,0.000000
472.218300,-148.041188,-9918.759623,0.000000
472.218624,-222.061783,-10066.800811,0.000000
472.218949,0.000000,-9918.759623,229.828649
472.219273,-518.144159,-9548.656652,153.219100
472.219597,-444.123565,-9844.739029,-306.438199
472.219921,-518.144159,-9770.718434,-766.095498
472.220246,-444.123565,-9770.718434,-383.047749
472.220570,-148.041188,-9622.677246,-612.876398
472.220894,0.000000,-9696.697840,-153.219100
472.221219,0.000000,-9770.718434,0.000000
472.221543,0.000000,-9918.759623,0.000000
472.221867,444.123565,-9770.718434,76.609550
472.222191,74.020594,-9622.677246,153.219100
472.222516,-222.061783,-9844.739029,-306.438199
472.222840,0.000000,-9844.739029,-306.438199
472.223164,-148.041188,-9770.718434,-383.047749
472.223488,0.000000,-9992.780217,-383.047749
472.223813,148.041188,-9548.656652,0.000000
472.224137,0.000000,-9548.656652,-153.219100
472.224461,148.041188,-9548.656652,0.000000
472.224786,74.020594,-9474.636058,229.828649
472.225110,0.000000,-9622.677246,-383.047749
472.225434,74.020594,-9844.739029,-229.828649
472.225758,148.041188,-9696.697840,0.000000
472.226083,148.041188,-9622.677246,-153.219100
472.226407,222.061783,-9696.697840,-306.438199
472.226731,148.041188,-9474.636058,0.000000
472.227055,148.041188,-9252.574275,153.219100
472.227380,148.041188,-9696.697840,76.609550
472.227704,222.061783,-10066.800811,0.000000
472.228028,148.041188,-9770.718434,0.000000
472.228352,74.020594,-9622.677246,306.438199
472.228677,222.061783,-9622.677246,306.438199
472.229001,370.102971,-9622.677246,0.000000
472.229325,-370.102971,-9622.677246,-153.219100
472.229650,0.000000,-9844.739029,306.438199
472.229974,0.000000,-9474.636058,153.219100
472.230298,0.000000,-9548.656652,0.000000
472.230622,-148.041188,-9622.677246,0.000000
472.230947,0.000000,-9770.718434,0.000000
472.231271,0.000000,-9696.697840,306.438199
472.231595,74.020594,-9474.636058,0.000000
472.231919,148.041188,-9474.636058,0.000000
472.232244,0.000000,-9548.656652,0.000000
472.232568,0.000000,-9622.677246,0.000000
472.232892,-296.082377,-9622.677246,76.609550
472.233216,-370.102971,-9696.697840,0.000000
472.233541,-518.144159,-9770.718434,76.609550
472.233865,-444.123565,-9622.677246,-153.219100
472.234189,0.000000,-9622.677246,229.828649
472.234514,-444.123565,-9474.636058,-306.438199
472.234838,0.000000,-9696.697840,-306.438199
472.235162,-296.082377,-9622.677246,0.000000
472.235486,0.000000,-9770.718434,0.000000
472.235811,0.000000,-9696.697840,0.000000
472.236135,222.061783,-9992.780217,76.609550
472.236459,-296.082377,-9696.697840,0.000000
472.236783,-370.102971,-9770.718434,153.219100
472.237108,74.020594,-9770.718434,-229.828649
472.237432,0.000000,-9770.718434,-383.047749
472.237756,0.000000,-9992.780217,-459.657299
472.238081,-148.041188,-9918.759623,-536.266849
472.238405,0.000000,-9696.697840,-383.047749
472.238729,148.041188,-9844.739029,-153.219100
472.239053,-148.041188,-9548.656652,0.000000
472.239378,222.061783,-9696.697840,76.609550
472.239702,74.020594,-9474.636058,0.000000
472.240026,222.061783,-9400.615463,-306.438199
472.240350,222.061783,-9474.636058,-76.609550
472.240675,0.000000,-9696.697840,-153.219100
472.240999,148.041188,-9474.636058,0.000000
472.241323,296.082377,-9548.656652,-76.609550
472.241647,0.000000,-9178.553681,76.609550
472.241972,222.061783,-9400.615463,153.219100
472.242296,0.000000,-9548.656652,-229.828649
472.242620,0.000000,-9474.636058,-306.438199
472.242945,74.020594,-9622.677246,-306.438199
472.243269,0.000000,-9326.594869,153.219100
472.243593,-148.041188,-9474.636058,0.000000
472.243917,-518.144159,-9178.553681,76.609550
472.244242,-370.102971,-9178.553681,76.609550
472.244566,148.041188,-9622.677246,-153.219100
472.244890,-148.041188,-9622.677246,0.000000
472.245214,-296.082377,-9622.677246,229.828649
472.245539,0.000000,-9696.697840,-153.219100
472.245863,0.000000,-9548.656652,0.000000
472.246187,0.000000,-9474.636058,153.219100
472.246512,-148.041188,-9474.636058,153.219100
472.246836,-222.061783,-9622.677246,76.609550
472.247160,-370.102971,-9474.636058,153.219100
472.247484,-148.041188,-9622.677246,76.609550
472.247809,0.000000,-9844.739029,76.609550
472.248133,0.000000,-9474.636058,76.609550
472.248457,0.000000,-9474.636058,153.219100
472.248781,-222.061783,-9992.780217,306.438199
472.249106,-148.041188,-9548.656652,-229.828649
472.249430,-148.041188,-9474.636058,0.000000
472.249754,-148.041188,-9844.739029,76.609550
472.250078,0.000000,-9548.656652,0.000000
472.250403,74.020594,-9844.739029,76.609550
472.250727,0.000000,-10066.800811,0.000000
472.251051,0.000000,-9548.656652,766.095498
472.251376,0.000000,-9918.759623,0.000000
472.251700,74.020594,-9622.677246,0.000000
472.252024,0.000000,-9548.656652,0.000000
472.252348,0.000000,-9918.759623,0.000000
472.252673,74.020594,-9770.718434,-229.828649
472.252997,74.020594,-9770.718434,-459.657299
472.253321,296.082377,-9474.636058,-153.219100
472.253645,370.102971,-9696.697840,-153.219100
472.253970,148.041188,-9696.697840,0.000000
472.254294,74.020594,-9696.697840,0.000000
472.254618,148.041188,-9696.697840,0.000000
472.254943,296.082377,-9696.697840,-306.438199
472.255267,74.020594,-9770.718434,0.000000
472.255591,222.061783,-9992.780217,-383.047749
472.255915,74.020594,-9474.636058,-306.438199
472.256240,296.082377,-9770.718434,0.000000
472.256564,0.000000,-9622.677246,-229.828649
472.256888,-148.041188,-9696.697840,-229.828649
472.257212,-222.061783,-9770.718434,-306.438199
472.257537,0.000000,-9770.718434,76.609550
472.257861,444.123565,-9992.780217,76.609550
472.258185,148.041188,-9696.697840,306.438199
472.258509,222.061783,-9770.718434,536.266849
472.258834,444.123565,-9696.697840,-229.828649
472.259158,-148.041188,-9474.636058,-383.047749
472.259482,-148.041188,-9696.697840,-229.828649
472.259807,-370.102971,-9622.677246,-383.047749
472.260131,-222.061783,-9770.718434,-306.438199
472.260455,-148.041188,-9696.697840,0.000000
472.260779,-518.144159,-9178.553681,0.000000
472.261104,-370.102971,-9400.615463,-689.485948
472.261428,-444.123565,-9252.574275,-459.657299
472.261752,-148.041188,-9622.677246,0.000000
472.262076,-148.041188,-9548.656652,76.609550
472.262401,-148.041188,-9696.697840,153.219100
472.262725,-148.041188,-9918.759623,0.000000
472.263049,-444.123565,-9326.594869,0.000000
472.263373,-518.144159,-9252.574275,0.000000
472.263698,0.000000,-9844.739029,-229.828649
472.264022,-518.144159,-9622.677246,-153.219100
472.264346,-148.041188,-9622.677246,0.000000
472.264671,-148.041188,-9770.718434,-153.219100
472.264995,-148.041188,-9770.718434,0.000000
472.265319,0.000000,-9548.656652,76.609550
472.265643,-148.041188,-9474.636058,-536.266849
472.265968,74.020594,-9474.636058,0.000000
472.266292,296.082377,-10066.800811,-306.438199
472.266616,222.061783,-9918.759623,0.000000
472.266940,0.000000,-9696.697840,-153.219100
472.267265,0.000000,-9844.739029,0.000000
472.267589,-148.041188,-9770.718434,-76.609550
472.267913,74.020594,-9622.677246,0.000000
472.268238,-444.123565,-9622.677246,153.219100
472.268562,296.082377,-9622.677246,76.609550
472.268886,148.041188,-9548.656652,0.000000
472.269210,222.061783,-9918.759623,153.219100
472.269535,296.082377,-9696.697840,-153.219100
472.269859,74.020594,-9548.656652,0.000000
472.270183,296.082377,-9178.553681,0.000000
472.270507,222.061783,-9770.718434,306.438199
472.270832,296.082377,-9622.677246,459.657299
472.271156,148.041188,-10066.800811,0.000000
472.271480,-222.061783,-9622.677246,-153.219100
472.271804,0.000000,-9844.739029,-153.219100
472.272129,-222.061783,-9622.677246,-153.219100
472.272453,0.000000,-9918.759623,306.438199
472.272777,148.041188,-9696.697840,689.485948
472.273102,148.041188,-9400.615463,0.000000
472.273427,148.041188,-9622.677246,459.657299
472.273751,0.000000,-9548.656652,0.000000
472.274075,-148.041188,-9548.656652,0.000000
472.274400,0.000000,-9696.697840,0.000000
472.274724,-222.061783,-9844.739029,0.000000
472.275048,-222.061783,-9770.718434,0.000000
472.275372,-370.102971,-9474.636058,0.000000
472.275696,0.000000,-9030.512492,229.828649
472.276021,0.000000,-9474.636058,0.000000
472.276345,-148.041188,-10066.800811,0.000000
472.276669,-148.041188,-9548.656652,0.000000
472.276993,-222.061783,-9622.677246,0.000000
472.277317,0.000000,-9696.697840,0.000000
472.277642,0.000000,-9622.677246,0.000000
472.277966,74.020594,-9770.718434,153.219100
472.278290,0.000000,-9770.718434,0.000000
472.278614,0.000000,-9844.739029,0.000000
472.278938,0.000000,-9696.697840,-306.438199
472.279263,148.041188,-9622.677246,-153.219100
472.279587,74.020594,-10140.821405,0.000000
472.279911,0.000000,-9770.718434,0.000000
472.280235,0.000000,-9770.718434,0.000000
472.280559,0.000000,-9696.697840,0.000000
472.280884,148.041188,-9696.697840,0.000000
472.281208,148.041188,-9474.636058,-229.828649
472.281532,0.000000,-9474.636058,76.609550
472.281856,296.082377,-9474.636058,0.000000
472.282180,592.164754,-9474.636058,0.000000
472.282504,888.247130,-9844.739029,0.000000
472.282829,962.267725,-10362.883188,153.219100
472.283153,592.164754,-10362.883188,76.609550
472.283477,-148.041188,-9844.739029,153.219100
472.283801,-370.102971,-9474.636058,0.000000
472.284125,-370.102971,-9622.677246,-612.876398
472.284450,296.082377,-9622.677246,459.657299
472.284774,-296.082377,-9696.697840,76.609550
472.285098,-370.102971,-9400.615463,0.000000
472.285422,0.000000,-8956.491898,153.219100
472.285746,592.164754,-9474.636058,536.266849
472.286071,1480.411884,-10140.821405,842.705048
472.286395,1406.391290,-9400.615463,383.047749
472.286719,962.267725,-9104.533087,0.000000
472.287043,592.164754,-9622.677246,0.000000
472.287367,592.164754,-10436.903782,0.000000
472.287692,222.061783,-10732.986159,-153.219100
472.288016,-370.102971,-10584.944971,0.000000
472.288340,-592.164754,-9844.739029,-383.047749
472.288664,-814.226536,-9696.697840,0.000000
472.288988,-592.164754,-9844.739029,306.438199
472.289313,962.267725,-9696.697840,919.314598
472.289637,2220.617826,-9400.615463,1378.971896
472.289961,2960.823768,-9178.553681,1838.629195
472.290285,3701.029710,-9622.677246,2298.286494
472.290609,3701.029710,-9696.697840,1532.190996
472.290934,3404.947333,-9326.594869,1378.971896
472.291258,1554.432478,-9474.636058,229.828649
472.291582,592.164754,-10362.883188,0.000000
472.291906,74.020594,-10881.027347,-306.438199
472.292230,-370.102971,-10362.883188,383.047749
472.292555,-296.082377,-9696.697840,459.657299
472.292879,0.000000,-9326.594869,1149.143247
472.293203,1554.432478,-9326.594869,1455.581446
472.293527,2368.659014,-9474.636058,2528.115143
472.293851,3552.988522,-9252.574275,3370.820191
472.294175,3404.947333,-9400.615463,3294.210641
472.294500,2812.782580,-9622.677246,2757.943793
472.294824,2294.638420,-9696.697840,2068.457845
472.295148,1332.370696,-9474.636058,1608.800546
472.295472,148.041188,-9696.697840,1302.362347
472.295796,-592.164754,-9770.718434,536.266849
472.296121,-814.226536,-9474.636058,1072.533697
472.296445,-444.123565,-8734.430116,1378.971896
472.296769,1184.329507,-8882.471304,1838.629195
472.297093,2442.679609,-8734.430116,2221.676944
472.297417,3404.947333,-8660.409521,3370.820191
472.297742,4367.215058,-9178.553681,3753.867940
472.298066,4885.359217,-9770.718434,3677.258390
472.298390,4885.359217,-9992.780217,3753.867940
472.298714,4589.276840,-10214.842000,3370.820191
472.299038,3775.050304,-10658.965565,3140.991542
472.299363,3108.864956,-11029.068536,2374.896044
472.299687,2516.700203,-11399.171507,2068.457845
472.300011,2220.617826,-10658.965565,2068.457845
472.300335,2220.617826,-10066.800811,1608.800546
472.300659,1702.473667,-10066.800811,2221.676944
472.300984,2294.638420,-9474.636058,2834.553343
472.301308,1628.453072,-8586.388927,3064.381992
472.301632,2072.576638,-8734.430116,3907.087040
472.301956,2368.659014,-8290.306550,3677.258390
472.302280,3108.864956,-8068.244768,4213.525239
472.302605,3404.947333,-7624.121203,4136.915689
472.302929,3923.091493,-7994.224174,3677.258390
472.303253,3552.988522,-8068.244768,2987.772442
472.303577,3108.864956,-9030.512492,1762.019645
472.303901,2220.617826,-9696.697840,1838.629195
472.304226,1628.453072,-10436.903782,1838.629195
472.304550,370.102971,-11103.089130,1838.629195
472.304874,-1036.288319,-11473.192101,2451.505594
472.305198,-2146.597232,-11029.068536,2298.286494
472.305522,-1258.350101,-9992.780217,3294.210641
472.305847,518.144159,-9622.677246,3600.648841
472.306171,3034.844362,-8956.491898,3830.477490
472.306495,4737.318029,-8956.491898,3830.477490
472.306819,4737.318029,-8586.388927,3294.210641
472.307143,4367.215058,-7920.203579,2451.505594
472.307467,3108.864956,-7920.203579,1685.410096
472.307792,1258.350101,-8512.368333,306.438199
472.308116,-518.144159,-8808.450710,153.219100
472.308440,-962.267725,-9252.574275,-153.219100
472.308764,0.000000,-9178.553681,306.438199
472.309088,1184.329507,-9696.697840,1072.533697
472.309413,2516.700203,-10436.903782,1915.238745
472.309737,2664.741391,-10732.986159,2145.067394
472.310061,1480.411884,-10955.047942,1838.629195
472.310385,-1110.308913,-10955.047942,2451.505594
472.310709,-2590.720797,-10807.006753,1455.581446
472.311034,-2220.617826,-10066.800811,536.266849
472.311358,-444.123565,-9252.574275,842.705048
472.311682,2812.782580,-8882.471304,536.266849
472.312006,4959.379811,-8956.491898,0.000000
472.312330,5403.503377,-9178.553681,-689.485948
472.312655,4737.318029,-9252.574275,-612.876398
472.312979,3923.091493,-9400.615463,-766.095498
472.313303,2960.823768,-9696.697840,-229.828649
472.313627,2590.720797,-10214.842000,-229.828649
472.313951,3182.885551,-11029.068536,1149.143247
472.314276,3627.009116,-11843.295072,1378.971896
472.314600,2220.617826,-12361.439231,1149.143247
472.314924,-1110.308913,-11547.212695,995.924147
472.315248,-3478.967927,-10510.924376,383.047749
472.315572,-3849.070898,-9474.636058,153.219100
472.315897,-1406.391290,-9992.780217,536.266849
472.316221,1406.391290,-9770.718434,1302.362347
472.316545,2886.803174,-9030.512492,306.438199
472.316869,2442.679609,-7476.080014,-612.876398
472.317193,1258.350101,-6587.832884,-1455.581446
472.317518,1036.288319,-6661.853478,-1455.581446
472.317842,1184.329507,-7402.059420,-995.924147
472.318166,1628.453072,-8956.491898,536.266849
472.318490,1924.535449,-10362.883188,1378.971896
472.318814,2294.638420,-10881.027347,1685.410096
472.319138,1184.329507,-10658.965565,1685.410096
472.319463,444.123565,-10510.924376,1838.629195
472.319787,0.000000,-9844.739029,2451.505594
472.320111,-148.041188,-10510.924376,2604.724693
472.320435,-962.267725,-11325.150913,2298.286494
472.320759,-2220.617826,-10066.800811,766.095498
472.321084,-2812.782580,-8808.450710,-612.876398
472.321408,-2960.823768,-7772.162391,-2221.676944
472.321732,-444.123565,-8586.388927,-2298.286494
472.322056,444.123565,-9474.636058,-1915.238745
472.322380,-444.123565,-10288.862594,-1455.581446
472.322705,-1998.556043,-10140.821405,-1455.581446
472.323029,-1628.453072,-9622.677246,-612.876398
472.323353,666.185348,-9844.739029,689.485948
472.323677,2812.782580,-10510.924376,2374.896044
472.324001,3182.885551,-11251.130318,2834.553343
472.324326,2368.659014,-11547.212695,2451.505594
472.324650,222.061783,-10362.883188,1762.019645
472.324974,-1036.288319,-9474.636058,1302.362347
472.325298,-1258.350101,-8586.388927,612.876398
472.325622,-1480.411884,-7624.121203,-459.657299
472.325947,-2664.741391,-8068.244768,-1455.581446
472.326271,-4219.173869,-9030.512492,-2298.286494
472.326595,-3997.112087,-9400.615463,-2451.505594
472.326919,-2368.659014,-8882.471304,-1915.238745
472.327243,444.123565,-8956.491898,-689.485948
472.327568,2738.761985,-9844.739029,229.828649
472.327892,4589.276840,-10807.006753,306.438199
472.328216,4367.215058,-10436.903782,995.924147
472.328540,3775.050304,-10510.924376,612.876398
472.328864,2442.679609,-10732.986159,995.924147
472.329189,1554.432478,-11325.150913,1378.971896
472.329513,148.041188,-11695.253884,1149.143247
472.329837,-1406.391290,-11177.109724,536.266849
472.330161,-2072.576638,-10362.883188,-536.266849
472.330485,-1184.329507,-9770.718434,-1378.971896
472.330809,-814.226536,-9252.574275,-842.705048
472.331134,518.144159,-9844.739029,306.438199
472.331458,222.061783,-9918.759623,229.828649
472.331782,-740.205942,-9178.553681,-306.438199
472.332106,-296.082377,-8438.347739,-689.485948
472.332430,1998.556043,-8364.327145,0.000000
472.332755,4145.153275,-8512.368333,1072.533697
472.333079,3034.844362,-9400.615463,1072.533697
472.333403,0.000000,-8734.430116,842.705048
472.333727,-2294.638420,-8512.368333,229.828649
472.334051,-2146.597232,-8660.409521,-306.438199
472.334376,-1332.370696,-8882.471304,153.219100
472.334700,-444.123565,-8364.327145,919.314598
472.335024,0.000000,-8734.430116,1149.143247
472.335348,0.000000,-8808.450710,306.438199
472.335672,592.164754,-8512.368333,1225.752797
472.335997,1258.350101,-9696.697840,1149.143247
472.336321,1258.350101,-10732.986159,842.705048
472.336645,-148.041188,-11325.150913,153.219100
472.336969,-1850.514855,-11029.068536,0.000000
472.337293,-2664.741391,-10436.903782,-383.047749
472.337618,-2072.576638,-10436.903782,-612.876398
472.337942,-592.164754,-10881.027347,-153.219100
472.338266,-222.061783,-10214.842000,0.000000
472.338590,-518.144159,-9474.636058,-306.438199
472.338914,-1628.453072,-8290.306550,-229.828649
472.339239,-592.164754,-7698.141797,0.000000
472.339563,1480.411884,-8438.347739,306.438199
472.339887,2442.679609,-9326.594869,995.924147
472.340211,1628.453072,-9474.636058,842.705048
472.340535,-444.123565,-8956.491898,229.828649
472.340860,-1850.514855,-9104.533087,-842.705048
472.341184,-1850.514855,-9474.636058,-766.095498
472.341508,-1036.288319,-10807.006753,-766.095498
472.341832,-1332.370696,-11251.130318,-919.314598
472.342156,-1850.514855,-10658.965565,-1532.190996
472.342481,-2146.597232,-9622.677246,-1762.019645
472.342805,-1184.329507,-9400.615463,-1455.581446
472.343129,592.164754,-9918.759623,-1072.533697
472.343453,1332.370696,-10362.883188,-229.828649
472.343777,518.144159,-10510.924376,-306.438199
472.344101,-666.185348,-10214.842000,-995.924147
472.344426,-962.267725,-9844.739029,-995.924147
472.344750,74.020594,-10436.903782,-536.266849
472.345074,1998.556043,-11103.089130,0.000000
472.345398,2516.700203,-11695.253884,0.000000
472.345722,592.164754,-10658.965565,-459.657299
472.346047,-296.082377,-9474.636058,-1225.752797
472.346371,-962.267725,-9548.656652,-1455.581446
472.346695,-296.082377,-10140.821405,-1072.533697
472.347019,148.041188,-10214.842000,-766.095498
472.347343,-962.267725,-9548.656652,-766.095498
472.347668,-1258.350101,-8808.450710,-1225.752797
472.347992,-444.123565,-8734.430116,-612.876398
472.348316,666.185348,-8734.430116,-153.219100
472.348640,1258.350101,-9178.553681,383.047749
472.348964,1406.391290,-9474.636058,306.438199
472.349289,814.226536,-8808.450710,0.000000
472.349613,370.102971,-8364.327145,0.000000
472.349937,1332.370696,-8882.471304,0.000000
472.350261,2590.720797,-9622.677246,766.095498
472.350585,2812.782580,-10732.986159,1072.533697
472.350910,1628.453072,-10658.965565,1072.533697
472.351234,-370.102971,-9918.759623,536.266849
472.351558,-1258.350101,-9844.739029,459.657299
472.351882,-518.144159,-10140.821405,459.657299
472.352206,444.123565,-9844.739029,919.314598
472.352531,370.102971,-9696.697840,689.485948
472.352855,-1184.329507,-8882.471304,76.609550
472.353179,-1332.370696,-8364.327145,0.000000
472.353503,-148.041188,-8216.285956,0.000000
472.353827,1036.288319,-8290.306550,766.095498
472.354152,962.267725,-8808.450710,612.876398
472.354476,-222.061783,-8808.450710,229.828649
472.354800,-1406.391290,-8734.430116,229.828649
472.355124,-1776.494261,-8438.347739,229.828649
472.355448,-296.082377,-9178.553681,919.314598
472.355772,814.226536,-10140.821405,919.314598
472.356097,222.061783,-10066.800811,1072.533697
472.356421,-518.144159,-9622.677246,766.095498
472.356745,-1332.370696,-9474.636058,153.219100
472.357069,-1036.288319,-9696.697840,689.485948
472.357393,222.061783,-10584.944971,306.438199
472.357718,74.020594,-10807.006753,459.657299
472.358042,-1184.329507,-10362.883188,0.000000
472.358366,-2442.679609,-9992.780217,-689.485948
472.358690,-2220.617826,-10066.800811,-766.095498
472.359014,-222.061783,-10658.965565,-383.047749
472.359339,1332.370696,-11103.089130,229.828649
472.359663,1406.391290,-11029.068536,229.828649
472.359987,296.082377,-10510.924376,0.000000
472.360311,-296.082377,-8956.491898,536.266849
472.360635,0.000000,-9400.615463,-689.485948
472.360960,1110.308913,-9696.697840,-306.438199
472.361284,1258.350101,-10066.800811,-153.219100
472.361608,0.000000,-9918.759623,0.000000
472.361932,-1406.391290,-9400.615463,-459.657299
472.362256,-1628.453072,-9030.512492,-919.314598
472.362581,-740.205942,-9104.533087,-536.266849
472.362905,592.164754,-9326.594869,0.000000
472.363229,148.041188,-8956.491898,0.000000
472.363553,74.020594,-8068.244768,-612.876398
472.363877,444.123565,-8142.265362,-995.924147
472.364202,1776.494261,-8956.491898,-612.876398
472.364526,2590.720797,-10066.800811,0.000000
472.364850,2220.617826,-10732.986159,0.000000
472.365174,-296.082377,-9992.780217,-766.095498
472.365498,-1998.556043,-9474.636058,-766.095498
472.365823,-1332.370696,-9844.739029,-459.657299
472.366147,518.144159,-10362.883188,459.657299
472.366471,1776.494261,-11103.089130,689.485948
472.366795,1184.329507,-10436.903782,306.438199
472.367119,0.000000,-9104.533087,-153.219100
472.367444,-296.082377,-8512.368333,-766.095498
472.367768,444.123565,-9030.512492,-689.485948
472.368092,1628.453072,-9992.780217,-229.828649
472.368416,1258.350101,-9548.656652,766.095498
472.368740,0.000000,-9252.574275,0.000000
472.369064,-740.205942,-9252.574275,-153.219100
472.369389,-592.164754,-9030.512492,-153.219100
472.369713,518.144159,-9400.615463,76.609550
472.370037,1036.288319,-9696.697840,0.000000
472.370361,222.061783,-9104.533087,306.438199
472.370685,-148.041188,-8660.409521,76.609550
472.371010,-148.041188,-8808.450710,76.609550
472.371334,666.185348,-9548.656652,306.438199
472.371658,1406.391290,-10214.842000,766.095498
472.371982,666.185348,-10584.944971,689.485948
472.372306,-666.185348,-10955.047942,383.047749
472.372631,-2442.679609,-9918.759623,76.609550
472.372955,-1850.514855,-9474.636058,459.657299
472.373279,-888.247130,-10066.800811,689.485948
472.373603,0.000000,-10955.047942,229.828649
472.373927,-370.102971,-10584.944971,0.000000
472.374252,-1184.329507,-9474.636058,0.000000
472.374576,-1258.350101,-8734.430116,-229.828649
472.374900,-370.102971,-8438.347739,-536.266849
472.375224,296.082377,-9474.636058,0.000000
472.375548,74.020594,-9696.697840,229.828649
472.375873,-2072.576638,-9326.594869,-306.438199
472.376197,-2664.741391,-9030.512492,-459.657299
472.376521,-1924.535449,-9252.574275,0.000000
472.376845,-518.144159,-9770.718434,306.438199
472.377169,-222.061783,-9696.697840,76.609550
472.377493,-1110.308913,-8808.450710,-459.657299
472.377817,-1554.432478,-8142.265362,-919.314598
472.378141,-592.164754,-8438.347739,-306.438199
472.378465,1332.370696,-9474.636058,0.000000
472.378789,2146.597232,-10214.842000,153.219100
472.379114,1036.288319,-10362.883188,-229.828649
472.379438,-1036.288319,-9992.780217,-995.924147
472.379762,-1702.473667,-9918.759623,-1149.143247
472.380086,-814.226536,-10066.800811,-459.657299
472.380410,518.144159,-10658.965565,-306.438199
472.380734,1628.453072,-11103.089130,766.095498
472.381058,74.020594,-10288.862594,0.000000
472.381382,-666.185348,-9474.636058,-459.657299
472.381706,-444.123565,-9252.574275,-1149.143247
472.382030,666.185348,-9400.615463,-766.095498
472.382354,1776.494261,-9696.697840,-306.438199
472.382678,962.267725,-9474.636058,-842.705048
472.383002,0.000000,-8956.491898,0.000000
472.383326,-370.102971,-9178.553681,-919.314598
472.383650,740.205942,-9474.636058,-153.219100
472.383974,1998.556043,-9770.718434,0.000000
472.384298,1924.535449,-9548.656652,76.609550
472.384622,1184.329507,-8882.471304,229.828649
472.384947,666.185348,-8068.244768,0.000000
472.385271,2072.576638,-9178.553681,536.266849
472.385595,2664.741391,-9622.677246,1225.752797
472.385919,2368.659014,-10140.821405,919.314598
472.386243,518.144159,-9992.780217,153.219100
472.386567,-1554.432478,-9178.553681,-383.047749
472.386891,-2368.659014,-9400.615463,-842.705048
472.387215,-1258.350101,-9400.615463,-229.828649
472.387539,444.123565,-9918.759623,459.657299
472.387863,740.205942,-10288.862594,536.266849
472.388187,148.041188,-9844.739029,383.047749
472.388511,-740.205942,-8956.491898,0.000000
472.388835,0.000000,-8956.491898,-153.219100
472.389159,518.144159,-9400.615463,229.828649
472.389483,888.247130,-9770.718434,766.095498
472.389807,0.000000,-9770.718434,919.314598
472.390131,-1184.329507,-9326.594869,842.705048
472.390455,-1480.411884,-9918.759623,459.657299
472.390780,-1258.350101,-10140.821405,459.657299
472.391104,-296.082377,-10436.903782,689.485948
472.391428,-592.164754,-10362.883188,536.266849
472.391752,-1628.453072,-9474.636058,229.828649
472.392076,-2294.638420,-9178.553681,-153.219100
472.392400,-740.205942,-9252.574275,-153.219100
472.392724,666.185348,-9474.636058,-153.219100
472.393048,222.061783,-9844.739029,76.609550
472.393372,-740.205942,-9622.677246,0.000000
472.393696,-2146.597232,-9178.553681,-459.657299
472.394020,-1850.514855,-9326.594869,-459.657299
472.394344,-148.041188,-9474.636058,612.876398
472.394668,592.164754,-9622.677246,919.314598
472.394992,814.226536,-10658.965565,842.705048
472.395316,-666.185348,-10066.800811,383.047749
472.395640,-1406.391290,-9918.759623,-229.828649
472.395964,-1184.329507,-9770.718434,-383.047749
472.396288,-518.144159,-10658.965565,0.000000
472.396613,-444.123565,-11029.068536,-306.438199
472.396937,-1184.329507,-10584.944971,-842.705048
472.397261,-2590.720797,-10288.862594,-1302.362347
472.397585,-1998.556043,-9992.780217,-1378.971896
472.397909,-296.082377,-9770.718434,-842.705048
472.398233,1332.370696,-9992.780217,0.000000
472.398557,1776.494261,-9770.718434,306.438199
472.398881,1702.473667,-9178.553681,229.828649
472.399205,2146.597232,-8512.368333,229.828649
472.399529,3034.844362,-8142.265362,-306.438199
472.399853,3775.050304,-8882.471304,536.266849
472.400177,2960.823768,-9030.512492,1072.533697
472.400501,1258.350101,-8882.471304,153.219100
472.400825,-1110.308913,-8512.368333,-229.828649
472.401149,-1554.432478,-8734.430116,-306.438199
472.401473,74.020594,-9326.594869,-919.314598
472.401797,1258.350101,-9104.533087,0.000000
472.402121,962.267725,-8586.388927,76.609550
472.402446,74.020594,-8808.450710,-383.047749
472.402770,-518.144159,-9030.512492,-536.266849
472.403094,222.061783,-9474.636058,-536.266849
472.403418,1406.391290,-10066.800811,76.609550
472.403742,1554.432478,-10732.986159,0.000000
472.404066,1036.288319,-11547.212695,459.657299
472.404390,0.000000,-11177.109724,306.438199
472.404714,370.102971,-10658.965565,-153.219100
472.405038,1036.288319,-11029.068536,459.657299
472.405362,1480.411884,-11621.233289,459.657299
472.405686,962.267725,-10955.047942,612.876398
472.406010,296.082377,-9770.718434,229.828649
472.406334,444.123565,-9030.512492,306.438199
472.406658,1110.308913,-8956.491898,459.657299
472.406982,1110.308913,-9474.636058,536.266849
472.407306,-370.102971,-9178.553681,153.219100
472.407630,-2516.700203,-8364.327145,0.000000
472.407954,-3775.050304,-8364.327145,-459.657299
472.408279,-3108.864956,-8882.471304,0.000000
472.408603,-1480.411884,-9400.615463,306.438199
472.408927,-592.164754,-9474.636058,842.705048
472.409251,-814.226536,-8956.491898,0.000000
472.409575,-1332.370696,-8660.409521,-612.876398
472.409899,-1258.350101,-8956.491898,-766.095498
472.410223,0.000000,-9696.697840,459.657299
472.410547,1258.350101,-10584.944971,1225.752797
472.410871,518.144159,-10955.047942,919.314598
472.411195,-1702.473667,-10732.986159,0.000000
472.411519,-2664.741391,-10288.862594,-919.314598
472.411843,-2664.741391,-9992.780217,-766.095498
472.412167,-1332.370696,-10732.986159,76.609550
472.412491,-962.267725,-11029.068536,0.000000
472.412815,-1554.432478,-9992.780217,0.000000
472.413139,-2294.638420,-8734.430116,-306.438199
472.413463,-1258.350101,-8142.265362,-842.705048
472.413787,444.123565,-8956.491898,-459.657299
472.414111,592.164754,-9178.553681,0.000000
472.414436,296.082377,-9178.553681,536.266849
472.414760,-1036.288319,-8216.285956,-306.438199
472.415084,-1850.514855,-8068.244768,-842.705048
472.415408,-962.267725,-8808.450710,-766.095498
472.415732,518.144159,-9992.780217,0.000000
472.416056,1406.391290,-10510.924376,0.000000
472.416380,888.247130,-9696.697840,-536.266849
472.416704,444.123565,-9104.533087,-995.924147
472.417028,518.144159,-8956.491898,-766.095498
472.417352,2146.597232,-9844.739029,-536.266849
472.417676,3478.967927,-10732.986159,0.000000
472.418000,2442.679609,-11029.068536,-766.095498
472.418324,592.164754,-10584.944971,-766.095498
472.418648,0.000000,-10288.862594,-1225.752797
472.418972,592.164754,-10658.965565,-612.876398
472.419296,1702.473667,-11029.068536,0.000000
472.419620,1702.473667,-11251.130318,0.000000
472.419944,888.247130,-10807.006753,76.609550
472.420269,592.164754,-8956.491898,-612.876398
472.420593,1110.308913,-9030.512492,-612.876398
472.420917,2072.576638,-9770.718434,-229.828649
472.421241,2146.597232,-10436.903782,0.000000
472.421565,222.061783,-9696.697840,229.828649
472.421889,-1332.370696,-8734.430116,-229.828649
472.422213,-1554.432478,-8216.285956,-306.438199
472.422537,-148.041188,-8586.388927,153.219100
472.422861,1776.494261,-9400.615463,689.485948
472.423185,1776.494261,-9400.615463,1072.533697
472.423509,148.041188,-9178.553681,995.924147
472.423833,-1480.411884,-8660.409521,76.609550
472.424157,-1036.288319,-8882.471304,0.000000
472.424481,222.061783,-9178.553681,229.828649
472.424805,1036.288319,-9548.656652,612.876398
472.425129,222.061783,-10066.800811,842.705048
472.425453,-1924.535449,-10066.800811,766.095498
472.425777,-2146.597232,-10066.800811,306.438199
472.426102,-1480.411884,-9622.677246,459.657299
472.426426,-592.164754,-10214.842000,1149.143247
472.426750,-962.267725,-10140.821405,306.438199
472.427074,-1776.494261,-9474.636058,383.047749
472.427398,-1776.494261,-8734.430116,536.266849
472.427722,-740.205942,-8808.450710,229.828649
472.428046,814.226536,-9400.615463,689.485948
472.428370,518.144159,-9104.533087,612.876398
472.428694,-1184.329507,-9252.574275,0.000000
472.429018,-2960.823768,-8216.285956,-612.876398
472.429342,-3182.885551,-8438.347739,-842.705048
472.429666,-1776.494261,-9622.677246,-229.828649
472.429990,0.000000,-10214.842000,919.314598
472.430314,518.144159,-10510.924376,689.485948
472.430638,74.020594,-9770.718434,919.314598
472.430962,-592.164754,-9696.697840,-536.266849
472.431286,-222.061783,-9548.656652,-459.657299
472.431610,962.267725,-10214.842000,0.000000
472.431935,1258.350101,-11103.089130,153.219100
472.432259,370.102971,-10955.047942,-229.828649
472.432583,-666.185348,-10510.924376,-306.438199
472.432907,-592.164754,-10436.903782,-612.876398
472.433231,666.185348,-10584.944971,-1302.362347
472.433555,1332.370696,-11473.192101,0.000000
472.433879,1332.370696,-11251.130318,0.000000
472.434203,444.123565,-10214.842000,-612.876398
472.434527,0.000000,-9474.636058,-1072.533697
472.434851,814.226536,-9770.718434,-919.314598
472.435175,962.267725,-10066.800811,0.000000
472.435499,1036.288319,-10288.862594,-383.047749
472.435823,-296.082377,-9474.636058,-536.266849
472.436147,-1628.453072,-8956.491898,-995.924147
472.436471,-1332.370696,-8586.388927,-1225.752797
472.436795,740.205942,-9400.615463,-459.657299
472.437119,2368.659014,-9770.718434,612.876398
472.437443,2294.638420,-9400.615463,0.000000
472.437768,1184.329507,-8364.327145,-612.876398
472.438092,0.000000,-7920.203579,-612.876398
472.438416,1036.288319,-8808.450710,-383.047749
472.438740,2368.659014,-9770.718434,153.219100
472.439064,2368.659014,-10066.800811,383.047749
472.439388,962.267725,-9770.718434,0.000000
472.439712,-592.164754,-9474.636058,-459.657299
472.440036,-666.185348,-9844.739029,0.000000
472.440360,370.102971,-10140.821405,612.876398
472.440684,740.205942,-10881.027347,842.705048
472.441008,518.144159,-10510.924376,536.266849
472.441332,0.000000,-9474.636058,383.047749
472.441656,0.000000,-8734.430116,76.609550
472.441980,592.164754,-8438.347739,766.095498
472.442304,1406.391290,-9918.759623,919.314598
472.442628,148.041188,-9622.677246,306.438199
472.442952,-1702.473667,-8956.491898,153.219100
472.443276,-3256.906145,-7846.182985,-153.219100
472.443601,-2664.741391,-8734.430116,0.000000
472.443925,-814.226536,-9326.594869,76.609550
472.444249,-148.041188,-10288.862594,1302.362347
472.444573,-814.226536,-9104.533087,919.314598
472.444897,-1406.391290,-8216.285956,459.657299
472.445221,-1406.391290,-8142.265362,459.657299
472.445545,0.000000,-9326.594869,536.266849
472.445869,296.082377,-9474.636058,919.314598
472.446193,-592.164754,-10214.842000,689.485948
472.446517,-2146.597232,-10436.903782,0.000000
472.446841,-2960.823768,-10584.944971,-459.657299
472.447165,-2368.659014,-10214.842000,-306.438199
472.447489,-1258.350101,-10362.883188,-306.438199
472.447813,-814.226536,-10807.006753,-76.609550
472.448137,-518.144159,-10732.986159,0.000000
472.448461,-1110.308913,-10140.821405,-459.657299
472.448785,-222.061783,-9992.780217,-459.657299
472.449109,1110.308913,-10214.842000,0.000000
472.449434,1406.391290,-10584.944971,76.609550
472.449758,74.020594,-10658.965565,306.438199
472.450082,-2368.659014,-9252.574275,-306.438199
472.450406,-3108.864956,-8734.430116,-536.266849
472.450730,-1998.556043,-9178.553681,-766.095498
472.451054,296.082377,-9992.780217,-229.828649
472.451378,1480.411884,-10066.800811,0.000000
472.451702,592.164754,-9178.553681,-919.314598
472.452026,-814.226536,-8216.285956,-1762.019645
472.452350,-1258.350101,-7920.203579,-2298.286494
472.452674,888.247130,-9252.574275,-1838.629195
472.452998,2220.617826,-9918.759623,-842.705048
472.453322,2590.720797,-10658.965565,-229.828649
472.453646,1406.391290,-10362.883188,-459.657299
472.453970,1406.391290,-10436.903782,-766.095498
472.454294,2516.700203,-10807.006753,0.000000
472.454618,3182.885551,-11251.130318,0.000000
472.454942,3478.967927,-11695.253884,919.314598
472.455267,2664.741391,-10732.986159,229.828649
472.455591,1924.535449,-9918.759623,-536.266849
472.455915,1850.514855,-9474.636058,-612.876398
472.456239,2590.720797,-9992.780217,-766.095498
472.456563,3256.906145,-10510.924376,76.609550
472.456887,1258.350101,-9844.739029,0.000000
472.457211,-1184.329507,-8216.285956,-1072.533697
472.457535,-2072.576638,-7698.141797,-919.314598
472.457859,-1554.432478,-8512.368333,-689.485948
472.458183,0.000000,-9400.615463,153.219100
472.458507,888.247130,-9326.594869,383.047749
472.458831,0.000000,-8216.285956,306.438199
472.459155,-814.226536,-7550.100608,306.438199
472.459479,0.000000,-8216.285956,229.828649
472.459803,888.247130,-8660.409521,1072.533697
472.460127,1110.308913,-9104.533087,842.705048
472.460451,148.041188,-9770.718434,689.485948
472.460775,-1110.308913,-9918.759623,306.438199
472.461100,-1924.535449,-9400.615463,76.609550
472.461424,-888.247130,-9326.594869,306.438199
472.461748,-222.061783,-9622.677246,689.485948
472.462072,-814.226536,-10732.986159,459.657299
472.462396,-2146.597232,-9844.739029,536.266849
472.462720,-2368.659014,-9400.615463,0.000000
472.463044,-1702.473667,-9252.574275,0.000000
472.463368,-370.102971,-9918.759623,459.657299
472.463692,-592.164754,-10362.883188,612.876398
472.464016,-1924.535449,-10140.821405,0.000000
472.464340,-3701.029710,-9030.512492,229.828649
472.464664,-3997.112087,-8808.450710,-229.828649
472.464988,-2220.617826,-9474.636058,766.095498
472.465312,-444.123565,-10288.862594,689.485948
472.465636,0.000000,-9770.718434,689.485948
472.465960,-962.267725,-8808.450710,-229.828649
472.466284,-1554.432478,-8660.409521,0.000000
472.466608,-296.082377,-8660.409521,-459.657299
472.466932,1998.556043,-9844.739029,76.609550
472.467257,2146.597232,-9992.780217,612.876398
472.467581,1110.308913,-10214.842000,612.876398
472.467905,-444.123565,-10362.883188,-612.876398
472.468229,-666.185348,-10584.944971,-995.924147
472.468553,592.164754,-11399.171507,-306.438199
472.468877,2072.576638,-11843.295072,-229.828649
472.469201,2738.761985,-11695.253884,229.828649
472.469525,1924.535449,-11029.068536,-306.438199
472.469849,1258.350101,-10140.821405,-1072.533697
472.470173,1036.288319,-10510.924376,-1225.752797
472.470497,1776.494261,-11325.150913,-766.095498
472.470821,1480.411884,-11547.212695,-536.266849
472.471145,0.000000,-10436.903782,-1149.143247
472.471469,-2146.597232,-8882.471304,-1532.190996
472.471793,-2368.659014,-8734.430116,-1991.848295
472.472117,0.000000,-9474.636058,-995.924147
472.472441,2146.597232,-10214.842000,-306.438199
472.472765,2294.638420,-9770.718434,76.609550
472.473090,1110.308913,-8290.306550,-306.438199
472.473414,814.226536,-7328.038826,-536.266849
472.473738,1480.411884,-7846.182985,0.000000
472.474062,2442.679609,-9104.533087,383.047749
472.474386,2442.679609,-9326.594869,536.266849
472.474710,444.123565,-8364.327145,76.609550
472.475034,-444.123565,-8660.409521,-459.657299
472.475358,-740.205942,-9030.512492,-842.705048
472.475682,148.041188,-9622.677246,-766.095498
472.476006,666.185348,-9696.697840,153.219100
472.476330,0.000000,-9622.677246,-459.657299
472.476654,-740.205942,-8882.471304,153.219100
472.476978,-222.061783,-8216.285956,76.609550
472.477302,592.164754,-8956.491898,-383.047749
472.477626,888.247130,-10362.883188,383.047749
472.477950,370.102971,-10955.047942,689.485948
472.478274,-1258.350101,-10066.800811,383.047749
472.478598,-2516.700203,-9548.656652,0.000000
472.478922,-2886.803174,-9252.574275,459.657299
472.479246,-1184.329507,-9918.759623,1149.143247
472.479571,-592.164754,-10658.965565,1072.533697
472.479895,-1184.329507,-9992.780217,842.705048
472.480219,-2146.597232,-8882.471304,0.000000
472.480543,-2294.638420,-8438.347739,-536.266849
472.480867,-1258.350101,-8734.430116,0.000000
472.481191,0.000000,-9696.697840,383.047749
472.481515,74.020594,-10140.821405,306.438199
472.481839,-1184.329507,-9992.780217,153.219100
472.482163,-1480.411884,-9474.636058,0.000000
472.482487,-1110.308913,-9622.677246,0.000000
472.482811,592.164754,-10584.944971,842.705048
472.483135,666.185348,-11399.171507,1072.533697
472.483459,-740.205942,-11029.068536,689.485948
472.483783,-1332.370696,-10362.883188,612.876398
472.484107,-1036.288319,-10214.842000,383.047749
472.484431,0.000000,-9992.780217,689.485948
472.484755,1110.308913,-10955.047942,536.266849
472.485079,0.000000,-11029.068536,383.047749
472.485403,-2368.659014,-9992.780217,-459.657299
472.485727,-3478.967927,-9178.553681,-1225.752797
472.486051,-2516.700203,-8956.491898,-1378.971896
472.486375,-740.205942,-9474.636058,-229.828649
472.486699,740.205942,-9992.780217,-153.219100
472.487023,148.041188,-9326.594869,-536.266849
472.487347,-222.061783,-7920.203579,-842.705048
472.487671,74.020594,-7846.182985,-995.924147
472.487995,1850.514855,-8734.430116,0.000000
472.488319,3182.885551,-9474.636058,995.924147
472.488643,2886.803174,-9548.656652,919.314598
472.488967,1406.391290,-9326.594869,229.828649
472.489292,0.000000,-8882.471304,-153.219100
472.489616,444.123565,-9548.656652,-459.657299
472.489940,1554.432478,-10436.903782,-153.219100
472.490264,2294.638420,-10955.047942,153.219100
472.490588,962.267725,-10214.842000,-306.438199
472.490912,0.000000,-9326.594869,-1225.752797
472.491236,740.205942,-9474.636058,-842.705048
472.491560,2220.617826,-9918.759623,-459.657299
472.491884,2664.741391,-11251.130318,-459.657299
472.492208,1406.391290,-11325.150913,-383.047749
472.492532,-296.082377,-9844.739029,-919.314598
472.492856,-740.205942,-9474.636058,-766.095498
472.493180,0.000000,-10066.800811,-689.485948
472.493504,1406.391290,-10732.986159,153.219100
472.493828,1776.494261,-9844.739029,459.657299
472.494152,296.082377,-8586.388927,229.828649
472.494476,-518.144159,-8068.244768,-153.219100
472.494800,-518.144159,-7772.162391,-536.266849
472.495124,740.205942,-8438.347739,0.000000
472.495448,1110.308913,-8808.450710,0.000000
472.495772,-148.041188,-8512.368333,0.000000
472.496096,-2220.617826,-7846.182985,-995.924147
472.496420,-2664.741391,-8512.368333,-459.657299
472.496744,-1554.432478,-9252.574275,-229.828649
472.497068,-296.082377,-9992.780217,612.876398
472.497392,-222.061783,-10584.944971,689.485948
472.497716,-1480.411884,-9918.759623,-153.219100
472.498040,-1628.453072,-9326.594869,153.219100
472.498364,-962.267725,-9770.718434,0.000000
472.498689,0.000000,-10362.883188,383.047749
472.499013,-296.082377,-10881.027347,995.924147
472.499337,-2220.617826,-10658.965565,306.438199
472.499661,-3330.926739,-9696.697840,-612.876398
472.499985,-3627.009116,-9474.636058,-536.266849
472.500309,-2072.576638,-9992.780217,-229.828649
472.500633,-370.102971,-10510.924376,229.828649
472.500957,0.000000,-10288.862594,842.705048
472.501281,-1036.288319,-9326.594869,383.047749
472.501605,-1924.535449,-8364.327145,-153.219100
472.501929,-814.226536,-8586.388927,76.609550
472.502253,370.102971,-8586.388927,0.000000
472.502577,296.082377,-9696.697840,0.000000
472.502901,-444.123565,-9992.780217,-306.438199
472.503225,-1480.411884,-9844.739029,-842.705048
472.503549,-1036.288319,-9622.677246,-766.095498
472.503873,888.247130,-10288.862594,-306.438199
472.504197,2294.638420,-10362.883188,306.438199
472.504521,2368.659014,-11621.233289,0.000000
472.504845,1628.453072,-10881.027347,0.000000
472.505169,1258.350101,-10066.800811,-612.876398
472.505493,1850.514855,-10288.862594,-459.657299
472.505817,2442.679609,-11251.130318,0.000000
472.506141,2220.617826,-11399.171507,-229.828649
472.506465,370.102971,-10955.047942,-689.485948
472.506789,-2072.576638,-10288.862594,-1915.238745
472.507113,-1776.494261,-9992.780217,-995.924147
472.507437,148.041188,-10362.883188,-612.876398
472.507761,1998.556043,-10584.944971,76.609550
472.508086,1628.453072,-10214.842000,306.438199
472.508410,740.205942,-8956.491898,-229.828649
472.508734,0.000000,-8512.368333,-1149.143247
472.509058,1036.288319,-8660.409521,-459.657299
472.509382,2294.638420,-9104.533087,0.000000
472.509706,2590.720797,-8956.491898,459.657299
472.510030,1036.288319,-8586.388927,459.657299
472.510354,-444.123565,-8438.347739,0.000000
472.510678,-296.082377,-8216.285956,76.609550
472.511002,1110.308913,-8586.388927,612.876398
472.511326,1998.556043,-9252.574275,1072.533697
472.511650,1480.411884,-9326.594869,1685.410096
472.511974,296.082377,-8142.265362,1225.752797
472.512298,0.000000,-8364.327145,1072.533697
472.512622,666.185348,-8808.450710,919.314598
472.512946,1036.288319,-9178.553681,995.924147
472.513270,370.102971,-9696.697840,995.924147
472.513594,-1406.391290,-9696.697840,919.314598
472.513918,-2368.659014,-9770.718434,842.705048
472.514242,-2442.679609,-9474.636058,459.657299
472.514566,-1036.288319,-9548.656652,612.876398
472.514890,-740.205942,-10140.821405,919.314598
472.515214,-1332.370696,-9992.780217,766.095498
472.515538,-2220.617826,-9252.574275,536.266849
472.515862,-2072.576638,-9104.533087,306.438199
472.516186,-592.164754,-9400.615463,459.657299
472.516510,518.144159,-9770.718434,459.657299
472.516834,148.041188,-9400.615463,919.314598
472.517158,-1480.411884,-9474.636058,76.609550
472.517483,-2664.741391,-9548.656652,-153.219100
472.517807,-1924.535449,-9844.739029,76.609550
472.518131,-222.061783,-10066.800811,0.000000
472.518455,0.000000,-10066.800811,-229.828649
472.518779,0.000000,-9844.739029,-383.047749
472.519103,-740.205942,-9474.636058,-689.485948
472.519427,-814.226536,-9770.718434,-919.314598
472.519751,-222.061783,-10140.821405,-995.924147
472.520075,296.082377,-10584.944971,-766.095498
472.520399,0.000000,-10955.047942,-919.314598
472.520723,-1702.473667,-10658.965565,-842.705048
472.521047,-1850.514855,-10881.027347,-766.095498
472.521371,-1110.308913,-10955.047942,-1378.971896
472.521695,1036.288319,-11103.089130,-842.705048
472.522019,1332.370696,-11621.233289,-383.047749
472.522343,444.123565,-11029.068536,-536.266849
472.522667,-740.205942,-10140.821405,-1225.752797
472.522991,-888.247130,-9622.677246,-1838.629195
472.523315,0.000000,-9474.636058,-919.314598
472.523639,666.185348,-9992.780217,-842.705048
472.523963,1850.514855,-10066.800811,-766.095498
472.524287,370.102971,-9326.594869,-1455.581446
472.524611,-444.123565,-8808.450710,-1608.800546
472.524935,222.061783,-9252.574275,-1608.800546
472.525259,1554.432478,-9474.636058,-612.876398
472.525583,2886.803174,-10066.800811,306.438199
472.525907,2294.638420,-9252.574275,-153.219100
472.526231,1776.494261,-8438.347739,-229.828649
472.526555,2220.617826,-8512.368333,-306.438199
472.526880,3330.926739,-9326.594869,-229.828649
472.527204,3330.926739,-9844.739029,76.609550
472.527528,1332.370696,-9696.697840,0.000000
472.527852,-888.247130,-9104.533087,-689.485948
472.528176,-1184.329507,-9252.574275,-1225.752797
472.528500,-222.061783,-9992.780217,-459.657299
472.528824,1258.350101,-10214.842000,612.876398
472.529148,888.247130,-10362.883188,0.000000
472.529472,-296.082377,-9548.656652,459.657299
472.529796,-1332.370696,-8734.430116,153.219100
472.530120,-1036.288319,-8660.409521,0.000000
472.530444,74.020594,-9474.636058,689.485948
472.530768,888.247130,-9696.697840,842.705048
472.531092,-296.082377,-9844.739029,842.705048
472.531416,-1184.329507,-9474.636058,689.485948
472.531740,-2072.576638,-9178.553681,0.000000
472.532064,-1258.350101,-9400.615463,383.047749
472.532388,0.000000,-9844.739029,995.924147
472.532712,74.020594,-9474.636058,1149.143247
472.533036,-740.205942,-8808.450710,1149.143247
472.533360,-1406.391290,-8660.409521,919.314598
472.533684,-370.102971,-8808.450710,689.485948
472.534008,518.144159,-9400.615463,536.266849
472.534332,444.123565,-10288.862594,842.705048
472.534656,-962.267725,-10510.924376,612.876398
472.534980,-3034.844362,-9992.780217,153.219100
472.535304,-3775.050304,-10066.800811,76.609550
472.535628,-3478.967927,-9844.739029,306.438199
472.535952,-1702.473667,-11103.089130,0.000000
472.536277,-1480.411884,-11473.192101,536.266849
472.536601,-1110.308913,-10436.903782,459.657299
472.536925,-1480.411884,-9400.615463,153.219100
472.537249,-666.185348,-9326.594869,0.000000
472.537573,296.082377,-9770.718434,383.047749
472.537897,740.205942,-10066.800811,229.828649
472.538221,0.000000,-10066.800811,459.657299
472.538545,-1406.391290,-9844.739029,0.000000
472.538869,-2368.659014,-9326.594869,0.000000
472.539193,-592.164754,-9326.594869,-229.828649
472.539517,740.205942,-9548.656652,0.000000
472.539841,740.205942,-9548.656652,153.219100
472.540165,444.123565,-8808.450710,536.266849
472.540489,74.020594,-8068.244768,-536.266849
472.540813,1036.288319,-8438.347739,-612.876398
472.541137,2294.638420,-9030.512492,-459.657299
472.541461,2516.700203,-9474.636058,0.000000
472.541785,1554.432478,-9770.718434,-383.047749
472.542109,74.020594,-9622.677246,-766.095498
472.542433,-148.041188,-9696.697840,-995.924147
472.542757,1036.288319,-9992.780217,-612.876398
472.543081,2664.741391,-11103.089130,0.000000
472.543405,2664.741391,-11621.233289,0.000000
472.543729,1406.391290,-10658.965565,-536.266849
472.544053,592.164754,-9844.739029,-842.705048
472.544377,888.247130,-9844.739029,-1455.581446
472.544701,2146.597232,-10658.965565,-536.266849
472.545025,2738.761985,-10807.006753,-306.438199
472.545349,1110.308913,-10288.862594,-383.047749
472.545674,-666.185348,-9474.636058,-766.095498
472.545998,-1258.350101,-9400.615463,-1149.143247
472.546322,0.000000,-9844.739029,-459.657299
472.546646,814.226536,-9770.718434,-459.657299
472.546970,222.061783,-9844.739029,76.609550
472.547294,-74.020594,-9030.512492,0.000000
472.547618,-148.041188,-8290.306550,-153.219100
472.547942,814.226536,-9030.512492,-153.219100
472.548266,1036.288319,-9474.636058,919.314598
472.548590,518.144159,-9622.677246,229.828649
472.548914,-1110.308913,-9474.636058,0.000000
472.549238,-2738.761985,-8956.491898,-536.266849
472.549562,-2960.823768,-9252.574275,-229.828649
472.549886,-1480.411884,-9770.718434,0.000000
472.550210,-222.061783,-10436.903782,306.438199
472.550534,74.020594,-10140.821405,306.438199
472.550858,-1036.288319,-9252.574275,0.000000
472.551182,-1628.453072,-8216.285956,383.047749
472.551506,-592.164754,-8734.430116,0.000000
472.551830,296.082377,-9400.615463,459.657299
472.552154,370.102971,-9844.739029,689.485948
472.552478,-888.247130,-9622.677246,383.047749
472.552802,-1998.556043,-9252.574275,-229.828649
472.553126,-2072.576638,-8808.450710,0.000000
472.553450,-1258.350101,-9474.636058,153.219100
472.553774,-814.226536,-9844.739029,0.000000
472.554098,-1480.411884,-9844.739029,-612.876398
472.554422,-2072.576638,-8956.491898,-153.219100
472.554746,-1554.432478,-8586.388927,-536.266849
472.555070,222.061783,-8956.491898,-229.828649
472.555395,1332.370696,-9622.677246,0.000000
472.555719,740.205942,-10066.800811,-536.266849
472.556043,-814.226536,-10436.903782,-919.314598
472.556367,-2368.659014,-9474.636058,-1072.533697
472.556691,-1924.535449,-10214.842000,-383.047749
472.557015,222.061783,-11029.068536,0.000000
472.557339,1850.514855,-11621.233289,459.657299
472.557663,2146.597232,-11251.130318,-153.219100
472.557987,1628.453072,-10362.883188,-995.924147
472.558311,1406.391290,-10066.800811,-612.876398
472.558635,2220.617826,-10214.842000,229.828649
472.558959,2886.803174,-11029.068536,306.438199
472.559283,2442.679609,-10807.006753,536.266849
472.559607,1258.350101,-10288.862594,-153.219100
472.559931,0.000000,-9844.739029,-689.485948
472.560255,0.000000,-9548.656652,-459.657299
472.560579,1184.329507,-10066.800811,-842.705048
472.560903,1480.411884,-9474.636058,153.219100
472.561227,814.226536,-8882.471304,536.266849
472.561551,-296.082377,-8808.450710,0.000000
472.561875,0.000000,-8438.347739,-153.219100
472.562199,814.226536,-8882.471304,229.828649
472.562523,1480.411884,-9474.636058,689.485948
472.562847,592.164754,-9104.533087,536.266849
472.563171,-1036.288319,-8438.347739,536.266849
472.563495,-1776.494261,-8734.430116,0.000000
472.563819,-1332.370696,-8734.430116,76.609550
472.564143,222.061783,-9622.677246,766.095498
472.564467,1036.288319,-10066.800811,919.314598
472.564792,444.123565,-9474.636058,766.095498
472.565116,-518.144159,-8438.347739,306.438199
472.565440,74.020594,-8142.265362,229.828649
472.565764,1036.288319,-8660.409521,76.609550
472.566088,1924.535449,-9696.697840,919.314598
472.566412,1110.308913,-9622.677246,1072.533697
472.566736,-666.185348,-9252.574275,612.876398
472.567060,-1998.556043,-9400.615463,383.047749
472.567384,-1702.473667,-9326.594869,0.000000
472.567708,-962.267725,-9252.574275,1072.533697
472.568032,-666.185348,-9474.636058,689.485948
472.568356,-1406.391290,-8882.471304,153.219100
472.568680,-2146.597232,-8290.306550,-383.047749
472.569004,-1110.308913,-8364.327145,-306.438199
472.569328,0.000000,-9252.574275,0.000000
472.569652,0.000000,-9844.739029,0.000000
472.569976,-1036.288319,-9918.759623,-153.219100
472.570300,-2738.761985,-9252.574275,-536.266849
472.570624,-2442.679609,-9326.594869,-612.876398
472.570948,-1036.288319,-9622.677246,-459.657299
472.571272,444.123565,-10510.924376,0.000000
472.571596,1036.288319,-11029.068536,0.000000
472.571920,0.000000,-10732.986159,-229.828649
472.572244,-1184.329507,-9992.780217,-995.924147
472.572568,-666.185348,-9844.739029,-1225.752797
472.572892,74.020594,-10288.862594,-1072.533697
472.573216,1110.308913,-10955.047942,-383.047749
472.573540,74.020594,-11325.150913,-689.485948
472.573864,-1184.329507,-11029.068536,-1455.581446
472.574189,-2146.597232,-10436.903782,-1991.848295
472.574513,-1406.391290,-10288.862594,-1915.238745
472.574837,0.000000,-10362.883188,-1762.019645
472.575161,222.061783,-10510.924376,-766.095498
472.575485,-370.102971,-9770.718434,-1455.581446
472.575809,-370.102971,-8882.471304,-1532.190996
472.576133,666.185348,-9030.512492,-1532.190996
472.576457,2072.576638,-9770.718434,-1225.752797
472.576781,2294.638420,-10214.842000,-689.485948
472.577105,1036.288319,-10362.883188,-612.876398
472.577429,-518.144159,-9770.718434,-689.485948
472.577753,-1110.308913,-9548.656652,-766.095498
472.578077,370.102971,-9992.780217,-766.095498
472.578401,1924.535449,-10584.944971,0.000000
472.578725,2368.659014,-10510.924376,0.000000
472.579050,1480.411884,-9622.677246,-536.266849
472.579374,740.205942,-8882.471304,-995.924147
472.579698,666.185348,-8734.430116,-1378.971896
472.580022,2368.659014,-9400.615463,-229.828649
472.580346,2368.659014,-9992.780217,459.657299
472.580671,1776.494261,-10362.883188,153.219100
472.580995,0.000000,-9622.677246,-153.219100
472.581319,-962.267725,-9474.636058,-229.828649
472.581643,148.041188,-9844.739029,383.047749
472.581967,1332.370696,-10362.883188,1149.143247
472.582291,666.185348,-9696.697840,1378.971896
472.582616,-222.061783,-8882.471304,842.705048
472.582940,-1184.329507,-7772.162391,689.485948
472.583264,-592.164754,-7994.224174,995.924147
472.583588,148.041188,-8734.430116,919.314598
472.583912,518.144159,-8882.471304,1149.143247
472.584237,-592.164754,-8586.388927,1072.533697
472.584561,-1850.514855,-7846.182985,306.438199
472.584885,-1850.514855,-8216.285956,842.705048
472.585209,-1036.288319,-8068.244768,1149.143247
472.585533,148.041188,-9178.553681,1149.143247
472.585857,-296.082377,-9400.615463,1149.143247
472.586182,-1480.411884,-8956.491898,612.876398
472.586506,-1998.556043,-8808.450710,689.485948
472.586830,-1110.308913,-9178.553681,766.095498
472.587154,296.082377,-9474.636058,1302.362347
472.587478,518.144159,-10214.842000,1762.019645
472.587803,-888.247130,-10288.862594,919.314598
472.588127,-2368.659014,-9770.718434,1072.533697
472.588451,-2368.659014,-10214.842000,229.828649
472.588775,-1406.391290,-10288.862594,689.485948
472.589099,-740.205942,-10658.965565,612.876398
472.589423,-518.144159,-10510.924376,536.266849
472.589748,-740.205942,-9696.697840,153.219100
472.590072,-666.185348,-9326.594869,229.828649
472.590396,296.082377,-9844.739029,-306.438199
472.590720,666.185348,-10362.883188,0.000000
472.591044,148.041188,-10732.986159,76.609550
472.591369,-1184.329507,-9844.739029,-306.438199
472.591693,-2368.659014,-9474.636058,-612.876398
472.592017,-1628.453072,-9696.697840,-766.095498
472.592341,592.164754,-10362.883188,153.219100
472.592665,1480.411884,-10140.821405,229.828649
472.592989,1332.370696,-9918.759623,0.000000
472.593314,148.041188,-9400.615463,-689.485948
472.593638,148.041188,-9104.533087,-995.924147
472.593962,1554.432478,-9622.677246,-612.876398
472.594286,2886.803174,-10584.944971,0.000000
472.594610,2812.782580,-10807.006753,-229.828649
472.594934,1184.329507,-10362.883188,-306.438199
472.595259,-148.041188,-10288.862594,-766.095498
472.595583,0.000000,-10584.944971,-1455.581446
472.595907,962.267725,-11103.089130,-919.314598
472.596231,1628.453072,-11251.130318,-612.876398
472.596555,1406.391290,-10584.944971,-536.266849
472.596880,888.247130,-9326.594869,0.000000
472.597204,740.205942,-8290.306550,-842.705048
472.597528,1924.535449,-9030.512492,-1072.533697
472.597852,1776.494261,-9326.594869,-689.485948
472.598176,666.185348,-9326.594869,-842.705048
472.598500,-1184.329507,-8290.306550,-1225.752797
472.598825,-2368.659014,-7846.182985,-1225.752797
472.599149,-1110.308913,-8438.347739,-536.266849
472.599473,740.205942,-8512.368333,153.219100
472.599797,1554.432478,-8660.409521,383.047749
472.600121,888.247130,-8364.327145,153.219100
472.600446,-518.144159,-7624.121203,-229.828649
472.600770,-518.144159,-7476.080014,-995.924147
472.601094,74.020594,-8068.244768,-306.438199
472.601418,1184.329507,-9326.594869,76.609550
472.601742,962.267725,-10066.800811,0.000000
472.602066,-148.041188,-10066.800811,153.219100
472.602391,-962.267725,-9696.697840,-689.485948
472.602715,-740.205942,-9696.697840,-612.876398
472.603039,0.000000,-10955.047942,-306.438199
472.603363,-74.020594,-11325.150913,0.000000
472.603687,-1406.391290,-10584.944971,0.000000
472.604012,-2146.597232,-9622.677246,-459.657299
472.604336,-1628.453072,-9844.739029,-536.266849
472.604660,-222.061783,-10362.883188,-153.219100
472.604984,0.000000,-9918.759623,229.828649
472.605308,-1036.288319,-10584.944971,0.000000
472.605632,-3034.844362,-9992.780217,-612.876398
472.605957,-3627.009116,-9474.636058,-612.876398
472.606281,-2368.659014,-9844.739029,0.000000
472.606605,-370.102971,-10140.821405,0.000000
472.606929,148.041188,-10510.924376,306.438199
472.607253,-444.123565,-9918.759623,76.609550
472.607578,-814.226536,-10066.800811,0.000000
472.607902,-888.247130,-9474.636058,-612.876398
472.608226,0.000000,-9770.718434,-306.438199
472.608550,444.123565,-10510.924376,153.219100
472.608874,0.000000,-10732.986159,-153.219100
472.609198,-1480.411884,-10732.986159,-766.095498
472.609523,-1850.514855,-9918.759623,-536.266849
472.609847,-888.247130,-10436.903782,0.000000
472.610171,814.226536,-10584.944971,0.000000
472.610495,1776.494261,-10732.986159,612.876398
472.610819,1258.350101,-10214.842000,612.876398
472.611144,888.247130,-9400.615463,536.266849
472.611468,1776.494261,-9252.574275,76.609550
472.611792,1480.411884,-9400.615463,306.438199
472.612116,1406.391290,-9474.636058,842.705048
472.612440,148.041188,-9548.656652,689.485948
472.612764,-1110.308913,-8660.409521,0.000000
472.613089,-1110.308913,-7994.224174,-153.219100
472.613413,0.000000,-8216.285956,-76.609550
472.613737,1628.453072,-8512.368333,76.609550
472.614061,1628.453072,-8290.306550,689.485948
472.614385,888.247130,-7772.162391,612.876398
472.614710,-222.061783,-7402.059420,-229.828649
472.615034,370.102971,-7920.203579,-536.266849
472.615358,1628.453072,-8660.409521,76.609550
472.615682,2516.700203,-9474.636058,459.657299
472.616006,1924.535449,-9844.739029,153.219100
472.616330,296.082377,-9918.759623,306.438199
472.616655,-518.144159,-10214.842000,76.609550
472.616979,222.061783,-10658.965565,76.609550
472.617303,1406.391290,-11029.068536,459.657299
472.617627,1110.308913,-11547.212695,383.047749
472.617951,296.082377,-10881.027347,229.828649
472.618276,296.082377,-10362.883188,229.828649
472.618600,814.226536,-10288.862594,766.095498
472.618924,1554.432478,-10066.800811,919.314598
472.619248,1184.329507,-10436.903782,612.876398
472.619572,-740.205942,-9474.636058,76.609550
472.619896,-2368.659014,-9474.636058,-153.219100
472.620221,-2442.679609,-9770.718434,-383.047749
472.620545,-1184.329507,-9696.697840,76.609550
472.620869,-518.144159,-9622.677246,689.485948
472.621193,-888.247130,-9326.594869,306.438199
472.621517,-1258.350101,-7994.224174,-229.828649
472.621842,-1776.494261,-7698.141797,383.047749
472.622166,-1110.308913,-8068.244768,459.657299
472.622490,74.020594,-8956.491898,842.705048
472.622814,518.144159,-9400.615463,842.705048
472.623138,-296.082377,-9326.594869,919.314598
472.623462,-1998.556043,-9474.636058,153.219100
472.623787,-2220.617826,-9548.656652,-229.828649
472.624111,-1702.473667,-10362.883188,0.000000
472.624435,-1036.288319,-10955.047942,-229.828649
472.624759,-1110.308913,-10658.965565,0.000000
472.625083,-1480.411884,-10362.883188,-153.219100
472.625408,-1332.370696,-9918.759623,-536.266849
472.625732,0.000000,-10362.883188,-536.266849
472.626056,518.144159,-10510.924376,76.609550
472.626380,222.061783,-10510.924376,-229.828649
472.626704,-1480.411884,-9326.594869,-919.314598
472.627028,-2294.638420,-9326.594869,-689.485948
472.627353,-1850.514855,-9326.594869,-766.095498
472.627677,-296.082377,-9770.718434,-306.438199
472.628001,888.247130,-9696.697840,-153.219100
472.628325,814.226536,-9178.553681,-383.047749
472.628649,444.123565,-8734.430116,-612.876398
472.628974,666.185348,-8734.430116,-766.095498
472.629298,1850.514855,-9178.553681,0.000000
472.629622,2516.700203,-9992.780217,-383.047749
472.629946,2146.597232,-10362.883188,-383.047749
472.630270,666.185348,-10288.862594,-1225.752797
472.630594,0.000000,-10214.842000,-1532.190996
472.630919,888.247130,-11103.089130,-1149.143247
472.631243,2072.576638,-11621.233289,-459.657299
472.631567,2886.803174,-11547.212695,0.000000
472.631891,2442.679609,-10881.027347,0.000000
472.632215,1406.391290,-10288.862594,-229.828649
472.632539,2072.576638,-10214.842000,-1149.143247
472.632864,2738.761985,-10362.883188,-536.266849
472.633188,2738.761985,-10510.924376,76.609550
472.633512,1184.329507,-9918.759623,-229.828649
472.633836,-592.164754,-9400.615463,-383.047749
472.634160,-2294.638420,-8438.347739,-306.438199
472.634485,-1406.391290,-9104.533087,-766.095498
472.634809,-370.102971,-9326.594869,-459.657299
472.635133,-592.164754,-9178.553681,153.219100
472.635457,-1406.391290,-8290.306550,229.828649
472.635781,-2220.617826,-7105.977043,-612.876398
472.636105,-2220.617826,-7402.059420,-766.095498
472.636430,-592.164754,-7698.141797,153.219100
472.636754,518.144159,-8734.430116,1072.533697
472.637078,592.164754,-9326.594869,919.314598
472.637402,-1110.308913,-9474.636058,919.314598
472.637726,-2294.638420,-9770.718434,612.876398
472.638051,-1702.473667,-9992.780217,459.657299
472.638375,-148.041188,-9918.759623,536.266849
472.638699,0.000000,-10066.800811,1149.143247
472.639023,74.020594,-9400.615463,1225.752797
472.639347,0.000000,-9548.656652,766.095498
472.639671,-592.164754,-9178.553681,459.657299
472.639996,148.041188,-9326.594869,459.657299
472.640320,148.041188,-9474.636058,383.047749
472.640644,-814.226536,-9696.697840,383.047749
472.640968,-2442.679609,-9178.553681,459.657299
472.641292,-3330.926739,-8660.409521,229.828649
472.641617,-1924.535449,-8956.491898,76.609550
472.641941,-962.267725,-9770.718434,459.657299
472.642265,148.041188,-10362.883188,1072.533697
472.642589,-296.082377,-9918.759623,612.876398
472.642913,-888.247130,-9474.636058,383.047749
472.643237,-370.102971,-9326.594869,459.657299
472.643562,518.144159,-9326.594869,0.000000
472.643886,1480.411884,-10510.924376,383.047749
472.644210,666.185348,-10955.047942,0.000000
472.644534,0.000000,-11103.089130,-306.438199
472.644858,-518.144159,-11103.089130,-612.876398
472.645183,222.061783,-11103.089130,-536.266849
472.645507,1480.411884,-11621.233289,76.609550
472.645831,2072.576638,-11843.295072,-229.828649
472.646155,1184.329507,-10955.047942,76.609550
472.646479,370.102971,-10066.800811,-153.219100
472.646803,740.205942,-9918.759623,-383.047749
472.647128,1406.391290,-9918.759623,-383.047749
472.647452,1850.514855,-10140.821405,-306.438199
472.647776,814.226536,-9770.718434,0.000000
472.648100,-444.123565,-8956.491898,-229.828649
472.648424,-1184.329507,-8216.285956,-689.485948
472.648749,-370.102971,-8364.327145,-536.266849
472.649073,1258.350101,-9178.553681,76.609550
472.649397,1776.494261,-9400.615463,0.000000
472.649721,740.205942,-8956.491898,-383.047749
472.650045,-222.061783,-8216.285956,-766.095498
472.650369,-296.082377,-8438.347739,-766.095498
472.650694,814.226536,-9252.574275,0.000000
472.651018,2072.576638,-9844.739029,459.657299
472.651342,1184.329507,-9992.780217,229.828649
472.651666,-1036.288319,-9622.677246,0.000000
472.651990,-1406.391290,-9696.697840,-536.266849
472.652315,-740.205942,-10214.842000,0.000000
472.652639,666.185348,-10288.862594,536.266849
472.652963,1036.288319,-10362.883188,536.266849
472.653287,370.102971,-9770.718434,383.047749
472.653611,296.082377,-9252.574275,153.219100
472.653935,1332.370696,-9030.512492,-153.219100
472.654260,1776.494261,-9474.636058,383.047749
472.654584,1554.432478,-9918.759623,306.438199
472.654908,0.000000,-9474.636058,229.828649
472.655232,-1628.453072,-8438.347739,153.219100
472.655556,-2220.617826,-8734.430116,306.438199
472.655881,-888.247130,-9474.636058,0.000000
472.656205,-148.041188,-9770.718434,842.705048
472.656529,-370.102971,-9696.697840,612.876398
472.656853,-1258.350101,-9030.512492,229.828649
472.657177,-1776.494261,-8216.285956,-229.828649
472.657501,-1480.411884,-8438.347739,153.219100
472.657826,-222.061783,-9326.594869,153.219100
472.658150,222.061783,-9992.780217,153.219100
472.658474,-444.123565,-10362.883188,229.828649
472.658798,-1850.514855,-10510.924376,0.000000
472.659122,-2146.597232,-10732.986159,-919.314598
472.659447,-888.247130,-11103.089130,0.000000
472.659771,0.000000,-11769.274478,76.609550
472.660095,-370.102971,-11473.192101,-459.657299
472.660419,-1110.308913,-10955.047942,-689.485948
472.660743,-1258.350101,-9844.739029,0.000000
472.661067,148.041188,-10807.006753,-612.876398
472.661392,444.123565,-10955.047942,-306.438199
472.661716,222.061783,-11029.068536,0.000000
472.662040,-1406.391290,-10362.883188,-153.219100
472.662364,-2886.803174,-9474.636058,-1072.533697
472.662688,-2590.720797,-9252.574275,-766.095498
472.663013,-592.164754,-9474.636058,-536.266849
472.663337,1036.288319,-9844.739029,-229.828649
472.663661,1332.370696,-9622.677246,153.219100
472.663985,444.123565,-8586.388927,229.828649
472.664309,-370.102971,-7698.141797,-919.314598
472.664633,296.082377,-8734.430116,-612.876398
472.664958,1702.473667,-9326.594869,0.000000
472.665282,1628.453072,-9622.677246,306.438199
472.665606,444.123565,-9326.594869,76.609550
472.665930,-518.144159,-9400.615463,0.000000
472.666254,-222.061783,-9548.656652,-536.266849
472.666579,1036.288319,-9992.780217,0.000000
472.666903,1702.473667,-9696.697840,306.438199
472.667227,1554.432478,-9844.739029,229.828649
472.667551,962.267725,-9252.574275,0.000000
472.667875,1184.329507,-9178.553681,-459.657299
472.668199,2220.617826,-9474.636058,0.000000
472.668524,3404.947333,-10288.862594,229.828649
472.668848,2368.659014,-10436.903782,766.095498
472.669172,962.267725,-9992.780217,229.828649
472.669496,-518.144159,-9474.636058,-306.438199
472.669820,0.000000,-9770.718434,-383.047749
472.670144,740.205942,-10362.883188,153.219100
472.670469,1184.329507,-10436.903782,306.438199
472.670793,518.144159,-9622.677246,76.609550
472.671117,-1036.288319,-8808.450710,76.609550
472.671441,-888.247130,-7994.224174,-536.266849
472.671765,74.020594,-8808.450710,-612.876398
472.672090,444.123565,-9326.594869,0.000000
472.672414,222.061783,-9104.533087,0.000000
472.672738,-740.205942,-9178.553681,153.219100
472.673062,-1406.391290,-9474.636058,-383.047749
472.673386,-1110.308913,-9400.615463,-153.219100
472.673710,-370.102971,-9400.615463,76.609550
472.674035,518.144159,-10436.903782,153.219100
472.674359,-814.226536,-10658.965565,76.609550
472.674683,-1406.391290,-10140.821405,0.000000
472.675007,-1184.329507,-9622.677246,76.609550
472.675331,-296.082377,-9992.780217,0.000000
472.675656,296.082377,-10658.965565,229.828649
472.675980,-666.185348,-10658.965565,842.705048
472.676304,-2590.720797,-10066.800811,-383.047749
472.676628,-3478.967927,-8882.471304,-459.657299
472.676952,-2664.741391,-9400.615463,-536.266849
472.677276,-888.247130,-9992.780217,0.000000
472.677601,0.000000,-10288.862594,306.438199
472.677925,-740.205942,-9326.594869,0.000000
472.678249,-1480.411884,-7994.224174,-383.047749
472.678573,-1554.432478,-8142.265362,-919.314598
472.678897,0.000000,-8808.450710,-612.876398
472.679222,740.205942,-9770.718434,76.609550
472.679546,222.061783,-9622.677246,0.000000
472.679870,-1332.370696,-9474.636058,-842.705048
472.680194,-2072.576638,-9326.594869,-995.924147
472.680518,-888.247130,-9622.677246,-459.657299
472.680842,814.226536,-9770.718434,0.000000
472.681167,1554.432478,-10288.862594,-459.657299
472.681491,1258.350101,-10584.944971,-153.219100
472.681815,666.185348,-9844.739029,-459.657299
472.682139,1554.432478,-10066.800811,0.000000
472.682464,2812.782580,-9992.780217,-459.657299
472.682788,3330.926739,-10658.965565,0.000000
472.683112,1776.494261,-11325.150913,0.000000
472.683436,888.247130,-10362.883188,-689.485948
472.683760,222.061783,-10510.924376,-229.828649
472.684085,-148.041188,-10214.842000,-383.047749
472.684409,1036.288319,-10732.986159,0.000000
472.684733,1332.370696,-10584.944971,76.609550
472.685057,444.123565,-9844.739029,0.000000
472.685382,74.020594,-8956.491898,153.219100
472.685706,-148.041188,-8660.409521,0.000000
472.686030,518.144159,-9326.594869,0.000000
472.686354,1628.453072,-9474.636058,612.876398
472.686679,740.205942,-9326.594869,459.657299
472.687003,-962.267725,-8956.491898,229.828649
472.687327,-1184.329507,-9474.636058,229.828649
472.687651,-222.061783,-9622.677246,459.657299
472.687975,888.247130,-9622.677246,1072.533697
472.688300,1406.391290,-10066.800811,1838.629195
472.688624,370.102971,-9918.759623,1608.800546
472.688948,444.123565,-9326.594869,995.924147
472.689272,740.205942,-9178.553681,919.314598
472.689597,1036.288319,-9400.615463,1149.143247
472.689921,740.205942,-9696.697840,919.314598
472.690245,-518.144159,-9548.656652,612.876398
472.690569,-1554.432478,-9178.553681,1072.533697
472.690893,-2072.576638,-8808.450710,76.609550
472.691218,-1110.308913,-9030.512492,689.485948
472.691542,148.041188,-9474.636058,1072.533697
472.691866,148.041188,-9474.636058,1302.362347
472.692190,-666.185348,-8734.430116,536.266849
472.692515,-1850.514855,-8290.306550,0.000000
472.692839,-2368.659014,-7846.182985,229.828649
472.693163,-518.144159,-9104.533087,612.876398
472.693487,444.123565,-9844.739029,153.219100
472.693812,-518.144159,-9622.677246,0.000000
472.694136,-2368.659014,-9178.553681,-612.876398
472.694460,-3108.864956,-9030.512492,-766.095498
472.694784,-2294.638420,-9474.636058,-459.657299
472.695108,-962.267725,-10214.842000,-383.047749
472.695433,-962.267725,-10807.006753,-459.657299
472.695757,-1110.308913,-9844.739029,-612.876398
472.696081,-814.226536,-9844.739029,-153.219100
472.696405,148.041188,-10066.800811,-689.485948
472.696730,1184.329507,-10732.986159,-459.657299
472.697054,1110.308913,-11769.274478,-612.876398
472.697378,-148.041188,-11399.171507,-536.266849
472.697702,-1998.556043,-10732.986159,-1072.533697
472.698027,-1406.391290,-10436.903782,-1455.581446
472.698351,-370.102971,-10955.047942,-689.485948
472.698675,592.164754,-11177.109724,-842.705048
472.698999,814.226536,-11029.068536,-689.485948
472.699323,296.082377,-9548.656652,-1225.752797
472.699648,0.000000,-8882.471304,-1685.410096
472.699972,1110.308913,-9474.636058,-1378.971896
472.700296,1258.350101,-9622.677246,-995.924147
472.700620,1258.350101,-9992.780217,-766.095498
472.700945,148.041188,-10066.800811,-306.438199
472.701269,-814.226536,-9474.636058,-1225.752797
472.701593,-370.102971,-9400.615463,-1072.533697
472.701917,888.247130,-10066.800811,-536.266849
472.702242,2072.576638,-10436.903782,-153.219100
472.702566,1628.453072,-9918.759623,153.219100
472.702890,740.205942,-8882.471304,0.000000
472.703214,1036.288319,-8882.471304,-536.266849
472.703538,1776.494261,-9326.594869,0.000000
472.703863,2442.679609,-9770.718434,0.000000
472.704187,1998.556043,-10066.800811,306.438199
472.704511,222.061783,-9696.697840,-153.219100
472.704835,-1258.350101,-9104.533087,-766.095498
472.705160,-1332.370696,-9178.553681,-1149.143247
472.705484,0.000000,-9474.636058,0.000000
472.705808,592.164754,-9918.759623,383.047749
472.706132,296.082377,-9696.697840,612.876398
472.706457,-296.082377,-8068.244768,229.828649
472.706781,-296.082377,-7550.100608,0.000000
472.707105,814.226536,-8068.244768,306.438199
472.707429,1628.453072,-9104.533087,536.266849
472.707753,1036.288319,-9474.636058,689.485948
472.708078,-740.205942,-9030.512492,306.438199
472.708402,-1998.556043,-8512.368333,-153.219100
472.708726,-1554.432478,-9252.574275,-842.705048
472.709050,-814.226536,-9400.615463,0.000000
472.709375,0.000000,-10214.842000,229.828649
472.709699,-518.144159,-10288.862594,76.609550
472.710023,-1184.329507,-9770.718434,229.828649
472.710347,-1036.288319,-10066.800811,306.438199
472.710672,74.020594,-9844.739029,459.657299
472.710996,814.226536,-10140.821405,919.314598
472.711320,0.000000,-10140.821405,383.047749
472.711644,-1702.473667,-10584.944971,0.000000
472.711968,-2368.659014,-10584.944971,0.000000
472.712293,-1406.391290,-10362.883188,153.219100
472.712617,0.000000,-10288.862594,306.438199
472.712941,222.061783,-10288.862594,459.657299
472.713265,-592.164754,-10140.821405,-229.828649
472.713590,-1924.535449,-9400.615463,-459.657299
472.713914,-1850.514855,-9178.553681,-383.047749
472.714238,0.000000,-9474.636058,-153.219100
472.714562,814.226536,-9992.780217,383.047749
472.714887,518.144159,-9992.780217,229.828649
472.715211,-814.226536,-9696.697840,0.000000
472.715535,-2146.597232,-9474.636058,-459.657299
472.715859,-1406.391290,-9770.718434,0.000000
472.716183,592.164754,-9992.780217,229.828649
472.716508,1184.329507,-9918.759623,459.657299
472.716832,740.205942,-9696.697840,0.000000
472.717156,-222.061783,-9252.574275,-459.657299
472.717480,148.041188,-9252.574275,-766.095498
472.717805,1554.432478,-9696.697840,-229.828649
472.718129,2294.638420,-10436.903782,383.047749
472.718453,1110.308913,-10140.821405,0.000000
472.718777,-148.041188,-10066.800811,-229.828649
472.719101,-740.205942,-9918.759623,-229.828649
472.719426,74.020594,-10214.842000,-229.828649
472.719750,1332.370696,-10436.903782,153.219100
472.720074,1332.370696,-9548.656652,612.876398
472.720398,1110.308913,-9548.656652,76.609550
472.720723,1110.308913,-8438.347739,76.609550
472.721047,1554.432478,-8586.388927,0.000000
472.721371,2368.659014,-9178.553681,0.000000
472.721695,2590.720797,-9622.677246,459.657299
472.722020,1702.473667,-9474.636058,229.828649
472.722344,222.061783,-8882.471304,-229.828649
472.722668,-444.123565,-8808.450710,-306.438199
472.722992,0.000000,-9474.636058,306.438199
472.723316,666.185348,-9770.718434,306.438199
472.723641,1036.288319,-9548.656652,383.047749
472.723965,74.020594,-9104.533087,306.438199
472.724289,-148.041188,-8586.388927,76.609550
472.724613,222.061783,-8586.388927,0.000000
472.724938,888.247130,-8438.347739,689.485948
472.725262,740.205942,-9252.574275,766.095498
472.725586,-888.247130,-9400.615463,76.609550
472.725910,-2516.700203,-9400.615463,-383.047749
472.726235,-2812.782580,-9622.677246,-459.657299
472.726559,-1776.494261,-9992.780217,-229.828649
472.726883,-666.185348,-10288.862594,153.219100
472.727207,-666.185348,-10732.986159,76.609550
472.727531,-1332.370696,-10140.821405,0.000000
472.727856,-1628.453072,-9326.594869,-1072.533697
472.728180,-1110.308913,-9548.656652,-766.095498
472.728504,-370.102971,-9918.759623,0.000000
472.728828,0.000000,-10362.883188,0.000000
472.729153,-1184.329507,-10214.842000,-153.219100
472.729477,-2294.638420,-9844.739029,-689.485948
472.729801,-2146.597232,-9844.739029,-1225.752797
472.730125,-962.267725,-10288.862594,-383.047749
472.730450,0.000000,-10214.842000,-229.828649
472.730774,-296.082377,-10288.862594,0.000000
472.731098,-1258.350101,-9474.636058,-229.828649
472.731422,-1332.370696,-9104.533087,-612.876398
472.731746,-296.082377,-9252.574275,-919.314598
472.732071,1036.288319,-9770.718434,-229.828649
472.732395,1036.288319,-10362.883188,-306.438199
472.732719,-888.247130,-9918.759623,-612.876398
472.733043,-2220.617826,-9696.697840,-766.095498
472.733368,-2220.617826,-9844.739029,-1225.752797
472.733692,-888.247130,-10584.944971,-689.485948
472.734016,444.123565,-10732.986159,-153.219100
472.734340,592.164754,-10584.944971,-383.047749
472.734665,74.020594,-9178.553681,-612.876398
472.734989,370.102971,-9474.636058,-766.095498
472.735313,1184.329507,-9474.636058,-536.266849
472.735637,2072.576638,-9844.739029,-306.438199
472.735961,1628.453072,-9844.739029,-153.219100
472.736286,148.041188,-9548.656652,-306.438199
472.736610,-444.123565,-9696.697840,-842.705048
472.736934,-148.041188,-9844.739029,-689.485948
472.737258,740.205942,-9696.697840,0.000000
472.737583,1184.329507,-9326.594869,0.000000
472.737907,1110.308913,-9326.594869,0.000000
472.738231,222.061783,-8438.347739,-306.438199
472.738555,74.020594,-8290.306550,-536.266849
472.738880,962.267725,-8586.388927,-229.828649
472.739204,1924.535449,-9104.533087,306.438199
472.739528,1554.432478,-9474.636058,459.657299
472.739852,222.061783,-8882.471304,306.438199
472.740176,-444.123565,-8512.368333,-229.828649
472.740501,74.020594,-9474.636058,-229.828649
472.740825,740.205942,-9622.677246,306.438199
472.741149,1998.556043,-9622.677246,459.657299
472.741473,1554.432478,-9918.759623,995.924147
472.741798,962.267725,-9696.697840,612.876398
472.742122,888.247130,-9474.636058,0.000000
472.742446,1258.350101,-9474.636058,229.828649
472.742770,1702.473667,-9770.718434,306.438199
472.743094,1406.391290,-10066.800811,842.705048
472.743419,0.000000,-10214.842000,459.657299
472.743743,-1702.473667,-9992.780217,229.828649
472.744067,-1702.473667,-10214.842000,0.000000
472.744391,-888.247130,-9992.780217,536.266849
472.744716,0.000000,-9844.739029,919.314598
472.745040,-592.164754,-9326.594869,995.924147
472.745364,-1480.411884,-8586.388927,459.657299
472.745688,-1332.370696,-8660.409521,0.000000
472.746013,-592.164754,-9104.533087,229.828649
472.746337,-370.102971,-9548.656652,76.609550
472.746661,-1184.329507,-9622.677246,0.000000
472.746985,-2442.679609,-9252.574275,-306.438199
472.747309,-2960.823768,-9252.574275,-459.657299
472.747634,-2146.597232,-9548.656652,-383.047749
472.747958,-814.226536,-10066.800811,229.828649
472.748282,0.000000,-10436.903782,536.266849
472.748606,-518.144159,-10288.862594,229.828649
472.748931,-1258.350101,-9770.718434,0.000000
472.749255,-1628.453072,-8734.430116,-383.047749
472.749579,-222.061783,-9548.656652,0.000000
472.749903,1258.350101,-10807.006753,0.000000
472.750228,666.185348,-10510.924376,-229.828649
472.750552,-888.247130,-10436.903782,-306.438199
472.750876,-1554.432478,-10140.821405,-1072.533697
472.751200,-1110.308913,-10214.842000,-766.095498
472.751524,222.061783,-10288.862594,0.000000
472.751849,740.205942,-9696.697840,-383.047749
472.752173,296.082377,-9474.636058,0.000000
472.752497,222.061783,-9252.574275,-919.314598
472.752821,148.041188,-8290.306550,-919.314598
472.753146,1406.391290,-9252.574275,-306.438199
472.753470,1924.535449,-9992.780217,0.000000
472.753794,888.247130,-9992.780217,0.000000
472.754118,-370.102971,-9326.594869,-229.828649
472.754443,-1480.411884,-8956.491898,-995.924147
472.754767,-518.144159,-9326.594869,-766.095498
472.755091,1406.391290,-9844.739029,-766.095498
472.755415,2368.659014,-10658.965565,0.000000
472.755739,2220.617826,-10140.821405,0.000000
472.756064,1332.370696,-9178.553681,-689.485948
472.756388,1258.350101,-8956.491898,-1072.533697
472.756712,2072.576638,-9770.718434,-612.876398
472.757036,2590.720797,-11473.192101,-229.828649
472.757361,1702.473667,-10955.047942,229.828649
472.757685,518.144159,-10066.800811,153.219100
472.758009,-148.041188,-9844.739029,-229.828649
472.758333,370.102971,-10658.965565,0.000000
472.758658,1258.350101,-10955.047942,76.609550
472.758982,1184.329507,-10362.883188,766.095498
472.759306,148.041188,-9474.636058,536.266849
472.759630,0.000000,-8882.471304,0.000000
472.759954,148.041188,-8882.471304,-383.047749
472.760279,518.144159,-9178.553681,459.657299
472.760603,444.123565,-9400.615463,229.828649
472.760927,-814.226536,-9326.594869,0.000000
472.761251,-2368.659014,-8882.471304,0.000000
472.761576,-2516.700203,-8882.471304,76.609550
472.761900,-1258.350101,-8808.450710,306.438199
472.762224,0.000000,-9400.615463,842.705048
472.762548,-370.102971,-9474.636058,919.314598
472.762873,-1480.411884,-9252.574275,459.657299
472.763197,-1924.535449,-8956.491898,0.000000
472.763521,-1628.453072,-8882.471304,612.876398
472.763845,0.000000,-9400.615463,1072.533697
472.764169,148.041188,-9844.739029,1455.581446
472.764494,-592.164754,-9696.697840,995.924147
472.764818,-1480.411884,-9622.677246,612.876398
472.765142,-1998.556043,-9918.759623,383.047749
472.765466,-1258.350101,-10288.862594,612.876398
472.765791,-296.082377,-10214.842000,459.657299
472.766115,-592.164754,-9992.780217,153.219100
472.766439,-1184.329507,-9252.574275,0.000000
472.766763,-962.267725,-9474.636058,-612.876398
472.767087,-740.205942,-9474.636058,-383.047749
472.767412,0.000000,-10066.800811,-383.047749
472.767736,-370.102971,-10214.842000,-383.047749
472.768060,-1702.473667,-9918.759623,-459.657299
472.768384,-2738.761985,-9474.636058,-842.705048
472.768709,-2664.741391,-9474.636058,-766.095498
472.769033,-1480.411884,-9548.656652,-383.047749
472.769357,148.041188,-10066.800811,0.000000
472.769681,222.061783,-10584.944971,-612.876398
472.770006,-296.082377,-10214.842000,-689.485948
472.770330,-444.123565,-9622.677246,-1225.752797
472.770654,444.123565,-9548.656652,-1149.143247
472.770978,2146.597232,-10436.903782,-153.219100
472.771302,2812.782580,-11177.109724,-306.438199
472.771627,1924.535449,-10807.006753,-919.314598
472.771951,1110.308913,-9992.780217,-919.314598
472.772275,1110.308913,-10214.842000,-1072.533697
472.772599,1850.514855,-10510.924376,-842.705048
472.772924,2516.700203,-10881.027347,-536.266849
472.773248,2220.617826,-10214.842000,-153.219100
472.773572,1332.370696,-9326.594869,0.000000
472.773896,592.164754,-8364.327145,-766.095498
472.774221,1258.350101,-8586.388927,-1225.752797
472.774545,2368.659014,-9104.533087,-459.657299
472.774869,1332.370696,-9696.697840,-306.438199
472.775193,-444.123565,-9252.574275,-536.266849
472.775517,-1924.535449,-8438.347739,-1072.533697
472.775842,-1850.514855,-8882.471304,-612.876398
472.776166,-518.144159,-9104.533087,-229.828649
472.776490,296.082377,-9696.697840,0.000000
472.776814,814.226536,-9400.615463,76.609550
472.777139,370.102971,-8808.450710,306.438199
472.777463,444.123565,-9178.553681,76.609550
472.777787,1110.308913,-9252.574275,76.609550
472.778111,1554.432478,-9622.677246,536.266849
472.778436,1036.288319,-9918.759623,0.000000
472.778760,0.000000,-10214.842000,689.485948
472.779084,-1258.350101,-10066.800811,153.219100
472.779408,-1184.329507,-10288.862594,-383.047749
472.779732,-518.144159,-10288.862594,459.657299
472.780057,-148.041188,-10066.800811,459.657299
472.780381,-666.185348,-9992.780217,459.657299
472.780705,-1332.370696,-9252.574275,229.828649
472.781029,-1480.411884,-8734.430116,-153.219100
472.781354,-962.267725,-8438.347739,0.000000
472.781678,-592.164754,-8882.471304,76.609550
472.782002,-814.226536,-9252.574275,0.000000
472.782326,-1850.514855,-9474.636058,0.000000
472.782651,-2516.700203,-9474.636058,-153.219100
472.782975,-2146.597232,-9474.636058,0.000000
472.783299,-962.267725,-9400.615463,383.047749
472.783623,-222.061783,-9992.780217,306.438199
472.783948,-888.247130,-9474.636058,76.609550
472.784272,-1406.391290,-9474.636058,306.438199
472.784596,-1184.329507,-9474.636058,-306.438199
472.784920,-222.061783,-9622.677246,-383.047749
472.785244,888.247130,-9918.759623,153.219100
472.785569,1110.308913,-10362.883188,0.000000
472.785893,-74.020594,-10732.986159,-383.047749
472.786217,-1184.329507,-10807.006753,-612.876398
472.786541,-666.185348,-10510.924376,-153.219100
472.786866,592.164754,-11547.212695,153.219100
472.787190,1184.329507,-11325.150913,459.657299
472.787514,740.205942,-10732.986159,76.609550
472.787838,0.000000,-10140.821405,0.000000
472.788163,222.061783,-9548.656652,-612.876398
472.788487,1184.329507,-9770.718434,-306.438199
472.788811,1850.514855,-9548.656652,919.314598
472.789135,814.226536,-9548.656652,229.828649
472.789460,-444.123565,-9178.553681,-612.876398
472.789784,-1998.556043,-8808.450710,-995.924147
472.790108,-1702.473667,-9104.533087,-1149.143247
472.790432,0.000000,-9770.718434,-306.438199
472.790757,1184.329507,-9918.759623,0.000000
472.791081,1110.308913,-8882.471304,0.000000
472.791405,222.061783,-8512.368333,76.609550
472.791729,666.185348,-9104.533087,-306.438199
472.792054,1924.535449,-9326.594869,229.828649
472.792378,3108.864956,-9696.697840,1072.533697
472.792702,2812.782580,-9918.759623,1072.533697
472.793026,1480.411884,-9474.636058,459.657299
472.793351,814.226536,-9326.594869,-229.828649
472.793675,888.247130,-9770.718434,612.876398
472.793999,1850.514855,-10140.821405,1072.533697
472.794323,1850.514855,-10214.842000,1225.752797
472.794648,370.102971,-9696.697840,1072.533697
472.794972,-370.102971,-8808.450710,536.266849
472.795296,-296.082377,-8512.368333,153.219100
472.795620,370.102971,-8512.368333,0.000000
472.795944,0.000000,-9326.594869,306.438199
472.796269,-1036.288319,-9252.574275,153.219100
472.796593,-2442.679609,-7920.203579,383.047749
472.796917,-2516.700203,-7846.182985,76.609550
472.797241,-1480.411884,-8438.347739,0.000000
472.797566,0.000000,-9252.574275,459.657299
472.797890,370.102971,-9770.718434,306.438199
472.798214,0.000000,-9030.512492,689.485948
472.798538,-1184.329507,-8808.450710,229.828649
472.798863,-1554.432478,-9030.512492,536.266849
472.799187,-592.164754,-9918.759623,76.609550
472.799511,0.000000,-10584.944971,153.219100
472.799835,-592.164754,-11029.068536,229.828649
472.800160,-1850.514855,-10584.944971,-306.438199
472.800484,-1702.473667,-10510.924376,-612.876398
472.800808,-1184.329507,-10807.006753,-536.266849
472.801132,444.123565,-11473.192101,0.000000
472.801457,0.000000,-11325.150913,-383.047749
472.801781,-1332.370696,-10732.986159,-689.485948
472.802105,-1702.473667,-9844.739029,-1072.533697
472.802429,-888.247130,-9622.677246,-1225.752797
472.802754,296.082377,-9992.780217,-842.705048
472.803078,148.041188,-10510.924376,-306.438199
472.803402,-1036.288319,-10584.944971,-842.705048
472.803726,-3108.864956,-9696.697840,-1378.971896
472.804051,-3108.864956,-9548.656652,-1762.019645
472.804375,-1998.556043,-10214.842000,-1302.362347
472.804699,-296.082377,-10955.047942,-689.485948
472.805023,148.041188,-10288.862594,-612.876398
472.805348,-444.123565,-9622.677246,-306.438199
472.805672,-1036.288319,-8438.347739,-612.876398
472.805996,518.144159,-9474.636058,-1225.752797
472.806320,1628.453072,-9474.636058,-842.705048
472.806644,1924.535449,-9770.718434,-383.047749
472.806969,1036.288319,-10066.800811,-919.314598
472.807293,74.020594,-10510.924376,-1378.971896
472.807617,0.000000,-10732.986159,-995.924147
472.807941,1332.370696,-10732.986159,-383.047749
472.808266,2146.597232,-10584.944971,0.000000
472.808590,1702.473667,-10362.883188,383.047749
472.808914,370.102971,-9770.718434,-153.219100
472.809238,592.164754,-8956.491898,0.000000
472.809563,1628.453072,-9252.574275,0.000000
472.809887,2590.720797,-9474.636058,536.266849
472.810211,2368.659014,-9474.636058,0.000000
472.810535,444.123565,-8216.285956,766.095498
472.810860,-888.247130,-7846.182985,0.000000
472.811184,-1036.288319,-7994.224174,-459.657299
472.811508,0.000000,-8882.471304,0.000000
472.811832,1332.370696,-9104.533087,689.485948
472.812157,1628.453072,-8734.430116,766.095498
472.812481,296.082377,-7550.100608,842.705048
472.812805,-296.082377,-7846.182985,306.438199
472.813129,148.041188,-7846.182985,1072.533697
472.813454,888.247130,-8660.409521,995.924147
472.813778,1184.329507,-9178.553681,1072.533697
472.814102,0.000000,-9474.636058,766.095498
472.814426,-1110.308913,-9474.636058,459.657299
472.814751,-962.267725,-9918.759623,612.876398
472.815075,518.144159,-9844.739029,1455.581446
472.815399,1702.473667,-10436.903782,1302.362347
472.815723,518.144159,-10584.944971,1072.533697
472.816048,-592.164754,-9770.718434,383.047749
472.816372,-1332.370696,-9326.594869,76.609550
472.816696,-814.226536,-9770.718434,0.000000
472.817020,-444.123565,-10732.986159,229.828649
472.817344,-1036.288319,-10955.047942,306.438199
472.817669,-2146.597232,-9992.780217,459.657299
472.817993,-2960.823768,-9474.636058,0.000000
472.818317,-2368.659014,-9474.636058,-383.047749
472.818641,-1332.370696,-10066.800811,229.828649
472.818966,-222.061783,-10658.965565,995.924147
472.819290,-222.061783,-9622.677246,689.485948
472.819614,-962.267725,-8438.347739,229.828649
472.819938,-740.205942,-8068.244768,0.000000
472.820263,666.185348,-9178.553681,383.047749
472.820587,1332.370696,-9770.718434,383.047749
472.820911,1110.308913,-10140.821405,153.219100
472.821235,-296.082377,-10362.883188,-306.438199
472.821560,-1554.432478,-10584.944971,-995.924147
472.821884,-1258.350101,-10584.944971,-995.924147
472.822208,0.000000,-10881.027347,-612.876398
472.822532,518.144159,-10955.047942,-229.828649
472.822857,-148.041188,-10584.944971,-919.314598
472.823181,-444.123565,-9696.697840,0.000000
472.823505,0.000000,-9548.656652,-612.876398
472.823829,1110.308913,-9844.739029,-689.485948
472.824154,1480.411884,-10436.903782,-536.266849
472.824478,222.061783,-10510.924376,-689.485948
472.824802,-1628.453072,-9474.636058,-1302.362347
472.825126,-1924.535449,-9104.533087,-1915.238745
472.825451,-1258.350101,-9104.533087,-1302.362347
472.825775,370.102971,-10066.800811,-1302.362347
472.826099,1332.370696,-9696.697840,-689.485948
472.826423,1184.329507,-9104.533087,-766.095498
472.826748,444.123565,-8216.285956,-1149.143247
472.827072,370.102971,-8068.244768,-1225.752797
472.827396,1480.411884,-8882.471304,-229.828649
472.827720,2368.659014,-9844.739029,76.609550
472.828044,2590.720797,-9770.718434,306.438199
472.828369,1110.308913,-9400.615463,0.000000
472.828693,444.123565,-9474.636058,-229.828649
472.829017,666.185348,-9770.718434,-536.266849
472.829341,2072.576638,-10214.842000,229.828649
472.829666,2368.659014,-10732.986159,995.924147
472.829990,2146.597232,-10807.006753,842.705048
472.830314,1110.308913,-9622.677246,153.219100
472.830638,1036.288319,-9030.512492,-536.266849
472.830963,1258.350101,-9548.656652,0.000000
472.831287,1036.288319,-10881.027347,76.609550
472.831611,-370.102971,-11177.109724,76.609550
472.831935,-2368.659014,-9918.759623,-153.219100
472.832260,-3108.864956,-9178.553681,0.000000
472.832584,-2812.782580,-9326.594869,153.219100
472.832908,-1628.453072,-10214.842000,536.266849
472.833232,-666.185348,-10214.842000,1225.752797
472.833557,-1110.308913,-9030.512492,1302.362347
472.833881,-1332.370696,-7846.182985,766.095498
472.834205,-1554.432478,-7772.162391,383.047749
472.834529,-296.082377,-8512.368333,689.485948
472.834854,0.000000,-9326.594869,766.095498
472.835178,-888.247130,-9400.615463,612.876398
472.835502,-2368.659014,-8808.450710,229.828649
472.835826,-2664.741391,-8882.471304,76.609550
472.836151,-1184.329507,-9696.697840,306.438199
472.836475,0.000000,-10362.883188,995.924147
472.836799,-222.061783,-10362.883188,842.705048
472.837123,-1628.453072,-9770.718434,306.438199
472.837448,-1998.556043,-9474.636058,0.000000
472.837772,-740.205942,-9548.656652,459.657299
472.838096,814.226536,-10362.883188,919.314598
472.838420,888.247130,-10732.986159,1225.752797
472.838745,-740.205942,-10510.924376,842.705048
472.839069,-2516.700203,-9844.739029,-689.485948
472.839393,-2664.741391,-9400.615463,-919.314598
472.839717,-1332.370696,-10140.821405,-612.876398
472.840041,444.123565,-11103.089130,0.000000
472.840366,1110.308913,-10584.944971,229.828649
472.840690,666.185348,-9252.574275,229.828649
472.841014,148.041188,-8808.450710,-766.095498
472.841338,444.123565,-9030.512492,-1225.752797
472.841663,1480.411884,-9696.697840,-612.876398
472.841987,2220.617826,-9770.718434,0.000000
472.842311,1924.535449,-9918.759623,0.000000
472.842635,814.226536,-9918.759623,-689.485948
472.842960,0.000000,-9400.615463,-1608.800546
472.843284,962.267725,-10140.821405,-1149.143247
472.843608,2294.638420,-10732.986159,-229.828649
472.843932,2146.597232,-10732.986159,-383.047749
472.844257,1850.514855,-9844.739029,0.000000
472.844581,1776.494261,-9696.697840,-306.438199
472.844905,2368.659014,-9992.780217,-306.438199
472.845229,3182.885551,-10510.924376,-766.095498
472.845554,2368.659014,-10955.047942,-383.047749
472.845878,888.247130,-10732.986159,-459.657299
472.846202,-666.185348,-10214.842000,-995.924147
472.846526,-1184.329507,-9474.636058,-919.314598
472.846851,-518.144159,-9770.718434,0.000000
472.847175,296.082377,-10140.821405,-229.828649
472.847499,74.020594,-9252.574275,306.438199
472.847823,-1110.308913,-7994.224174,0.000000
472.848148,-1184.329507,-7105.977043,-306.438199
472.848472,-592.164754,-7476.080014,-153.219100
472.848796,518.144159,-8216.285956,612.876398
472.849120,962.267725,-8586.388927,995.924147
472.849445,-148.041188,-8216.285956,306.438199
472.849769,-1554.432478,-7846.182985,0.000000
472.850093,-1998.556043,-8364.327145,-153.219100
472.850417,-666.185348,-9104.533087,153.219100
472.850741,-222.061783,-9252.574275,459.657299
472.851066,-740.205942,-9622.677246,229.828649
472.851390,-1628.453072,-9400.615463,0.000000
472.851714,-1924.535449,-9252.574275,0.000000
472.852038,-370.102971,-9474.636058,76.609550
472.852363,740.205942,-10436.903782,0.000000
472.852687,-296.082377,-10510.924376,229.828649
472.853011,-1628.453072,-10658.965565,0.000000
472.853335,-2738.761985,-10140.821405,-766.095498
472.853660,-2368.659014,-9918.759623,-383.047749
472.853984,-888.247130,-10362.883188,-76.609550
472.854308,74.020594,-11029.068536,76.609550
472.854632,0.000000,-10955.047942,76.609550
472.854957,-888.247130,-9844.739029,-383.047749
472.855281,-1036.288319,-9326.594869,-1072.533697
472.855605,-444.123565,-9474.636058,-995.924147
472.855929,0.000000,-10140.821405,-536.266849
472.856254,0.000000,-10510.924376,-536.266849
472.856578,-962.267725,-10214.842000,-766.095498
472.856902,-1554.432478,-10288.862594,-766.095498
472.857226,-740.205942,-10436.903782,-1072.533697
472.857551,518.144159,-10510.924376,-306.438199
472.857875,1110.308913,-10658.965565,-536.266849
472.858199,888.247130,-10140.821405,-153.219100
472.858523,296.082377,-10066.800811,-689.485948
472.858848,740.205942,-9918.759623,-766.095498
472.859172,1924.535449,-10140.821405,-306.438199
472.859496,2590.720797,-10732.986159,-459.657299
472.859820,2294.638420,-10658.965565,229.828649
472.860145,444.123565,-10362.883188,0.000000
472.860469,-962.267725,-10288.862594,-536.266849
472.860793,-1110.308913,-10066.800811,-459.657299
472.861117,222.061783,-10362.883188,0.000000
472.861441,1258.350101,-10436.903782,612.876398
472.861766,1258.350101,-9548.656652,766.095498
472.862090,222.061783,-8364.327145,612.876398
472.862414,0.000000,-7550.100608,0.000000
472.862738,1036.288319,-7698.141797,0.000000
472.863063,1850.514855,-8216.285956,919.314598
472.863387,1480.411884,-8660.409521,1149.143247
472.863711,222.061783,-8734.430116,1072.533697
472.864035,-296.082377,-8068.244768,919.314598
472.864360,0.000000,-7994.224174,919.314598
472.864684,1110.308913,-8734.430116,1302.362347
472.865008,962.267725,-8882.471304,1455.581446
472.865332,666.185348,-8586.388927,1532.190996
472.865657,-296.082377,-7698.141797,842.705048
472.865981,0.000000,-7698.141797,919.314598
472.866305,740.205942,-8660.409521,1072.533697
472.866629,1332.370696,-9030.512492,1302.362347
472.866954,518.144159,-9104.533087,1532.190996
472.867278,-888.247130,-8956.491898,1302.362347
472.867602,-1628.453072,-8808.450710,0.000000
472.867926,-1110.308913,-9400.615463,612.876398
472.868251,0.000000,-9992.780217,842.705048
472.868575,296.082377,-10658.965565,1072.533697
472.868899,-740.205942,-10362.883188,766.095498
472.869223,-1332.370696,-9474.636058,229.828649
472.869548,-1184.329507,-9622.677246,0.000000
472.869872,-518.144159,-10066.800811,-153.219100
472.870196,-444.123565,-10510.924376,0.000000
472.870520,-1258.350101,-11251.130318,-229.828649
472.870845,-2738.761985,-10881.027347,-612.876398
472.871169,-3330.926739,-10732.986159,-919.314598
472.871493,-2442.679609,-10658.965565,-536.266849
472.871817,-1110.308913,-11029.068536,-306.438199
472.872141,-444.123565,-11843.295072,0.000000
472.872466,-962.267725,-10955.047942,-536.266849
472.872790,-888.247130,-10510.924376,-1072.533697
472.873114,0.000000,-10732.986159,-995.924147
472.873438,740.205942,-10658.965565,-766.095498
472.873763,1036.288319,-11251.130318,-689.485948
472.874087,296.082377,-11177.109724,-536.266849
472.874411,-1110.308913,-10140.821405,-459.657299
472.874735,-1258.350101,-9622.677246,-1149.143247
472.875060,-666.185348,-9622.677246,-1072.533697
472.875384,296.082377,-10140.821405,-766.095498
472.875708,370.102971,-9696.697840,-612.876398
472.876032,370.102971,-8882.471304,-995.924147
472.876357,-518.144159,-8216.285956,-1225.752797
472.876681,-592.164754,-8142.265362,-1072.533697
472.877005,148.041188,-8808.450710,-689.485948
472.877329,1036.288319,-9252.574275,-689.485948
472.877654,296.082377,-9104.533087,-459.657299
472.877978,-370.102971,-8956.491898,-919.314598
472.878302,-666.185348,-9104.533087,-842.705048
472.878626,222.061783,-9104.533087,-612.876398
472.878951,1406.391290,-9622.677246,0.000000
472.879275,1406.391290,-9548.656652,0.000000
472.879599,666.185348,-8956.491898,-306.438199
472.879923,666.185348,-7846.182985,-536.266849
472.880247,1332.370696,-7772.162391,-689.485948
472.880572,2812.782580,-9326.594869,0.000000
472.880896,2516.700203,-10214.842000,0.000000
472.881220,814.226536,-9770.718434,-383.047749
472.881544,-962.267725,-9104.533087,-919.314598
472.881868,-1332.370696,-9548.656652,-1149.143247
472.882193,0.000000,-9844.739029,-842.705048
472.882517,1628.453072,-10214.842000,229.828649
472.882841,2072.576638,-10066.800811,612.876398
472.883165,1332.370696,-9474.636058,153.219100
472.883489,518.144159,-8956.491898,-76.609550
472.883814,740.205942,-9252.574275,76.609550
472.884138,1184.329507,-9696.697840,153.219100
472.884462,1184.329507,-10214.842000,383.047749
472.884786,296.082377,-9992.780217,0.000000
472.885111,-1628.453072,-10066.800811,-229.828649
472.885435,-1554.432478,-10214.842000,-842.705048
472.885759,-888.247130,-10807.006753,-153.219100
472.886083,-740.205942,-11103.089130,459.657299
472.886407,-814.226536,-10955.047942,689.485948
472.886732,-1554.432478,-9770.718434,383.047749
472.887056,-1184.329507,-9252.574275,612.876398
472.887380,-740.205942,-9474.636058,536.266849
472.887704,444.123565,-10436.903782,766.095498
472.888028,0.000000,-10436.903782,1225.752797
472.888353,-1184.329507,-10584.944971,842.705048
472.888677,-2368.659014,-9844.739029,306.438199
472.889001,-2368.659014,-9326.594869,0.000000
472.889325,-1184.329507,-9844.739029,536.266849
472.889649,0.000000,-10658.965565,459.657299
472.889974,222.061783,-10436.903782,919.314598
472.890298,-518.144159,-9474.636058,612.876398
472.890622,-1184.329507,-8438.347739,383.047749
472.890946,-370.102971,-8364.327145,-153.219100
472.891270,592.164754,-9030.512492,383.047749
472.891595,370.102971,-9474.636058,842.705048
472.891919,-740.205942,-9474.636058,459.657299
472.892243,-2442.679609,-8956.491898,459.657299
472.892567,-2368.659014,-8586.388927,-842.705048
472.892891,-1406.391290,-8882.471304,0.000000
472.893216,-370.102971,-9326.594869,842.705048
472.893540,148.041188,-9400.615463,459.657299
472.893864,-370.102971,-8660.409521,76.609550
472.894188,-370.102971,-8364.327145,-229.828649
472.894513,962.267725,-8586.388927,0.000000
472.894837,1998.556043,-9474.636058,459.657299
472.895161,2590.720797,-10288.862594,76.609550
472.895485,962.267725,-10214.842000,0.000000
472.895809,-296.082377,-9844.739029,-612.876398
472.896134,222.061783,-10362.883188,-459.657299
472.896458,1776.494261,-11103.089130,153.219100
472.896782,2812.782580,-11325.150913,459.657299
472.897106,2146.597232,-10066.800811,383.047749
472.897430,1406.391290,-9400.615463,-229.828649
472.897755,1332.370696,-9030.512492,-306.438199
472.898079,2220.617826,-9178.553681,-536.266849
472.898403,2664.741391,-9548.656652,-229.828649
472.898727,2220.617826,-9844.739029,0.000000
472.899051,222.061783,-9548.656652,-766.095498
472.899376,-888.247130,-9696.697840,-919.314598
472.899700,-1258.350101,-9992.780217,-1838.629195
472.900024,-370.102971,-9992.780217,-383.047749
472.900348,518.144159,-10436.903782,-383.047749
472.900672,0.000000,-10066.800811,153.219100
472.900997,0.000000,-9770.718434,383.047749
472.901321,148.041188,-9770.718434,0.000000
472.901645,962.267725,-9918.759623,0.000000
472.901969,1258.350101,-9918.759623,842.705048
472.902293,0.000000,-10140.821405,612.876398
472.902618,-962.267725,-9622.677246,76.609550
472.902942,-1628.453072,-9474.636058,0.000000
472.903266,-1036.288319,-9474.636058,-153.219100
472.903590,222.061783,-9622.677246,-306.438199
472.903915,518.144159,-10288.862594,229.828649
472.904239,-148.041188,-10214.842000,153.219100
472.904563,-1554.432478,-9104.533087,-383.047749
472.904887,-2442.679609,-8660.409521,-383.047749
472.905211,-1628.453072,-9030.512492,229.828649
472.905536,-296.082377,-10066.800811,612.876398
472.905860,-370.102971,-9992.780217,689.485948
472.906184,-1554.432478,-9178.553681,459.657299
472.906508,-2886.803174,-8364.327145,0.000000
472.906832,-2368.659014,-8808.450710,-766.095498
472.907157,-962.267725,-9326.594869,689.485948
472.907481,-444.123565,-8956.491898,459.657299
472.907805,-1184.329507,-8734.430116,-383.047749
472.908129,-1480.411884,-7994.224174,-536.266849
472.908453,-962.267725,-8438.347739,-766.095498
472.908778,370.102971,-9548.656652,-459.657299
472.909102,444.123565,-9992.780217,0.000000
472.909426,-148.041188,-10140.821405,-536.266849
472.909750,-2072.576638,-9400.615463,-995.924147
472.910074,-2960.823768,-10066.800811,-766.095498
472.910399,-2072.576638,-10214.842000,-1072.533697
472.910723,-444.123565,-10955.047942,-459.657299
472.911047,666.185348,-11325.150913,76.609550
472.911371,962.267725,-10732.986159,-153.219100
472.911695,518.144159,-9548.656652,-153.219100
472.912020,1184.329507,-9400.615463,-306.438199
472.912344,2442.679609,-9992.780217,-459.657299
472.912668,2368.659014,-10807.006753,-919.314598
472.912992,1480.411884,-10807.006753,-536.266849
472.913316,74.020594,-10658.965565,-919.314598
472.913641,-370.102971,-10732.986159,-1149.143247
472.913965,444.123565,-10436.903782,-1225.752797
472.914289,1554.432478,-10955.047942,-459.657299
472.914613,962.267725,-10658.965565,-459.657299
472.914938,0.000000,-9326.594869,-229.828649
472.915262,-296.082377,-9030.512492,-306.438199
472.915586,444.123565,-9030.512492,76.609550
472.915910,1332.370696,-9474.636058,383.047749
472.916234,1628.453072,-9400.615463,1149.143247
472.916559,1110.308913,-9252.574275,229.828649
472.916883,0.000000,-8586.388927,229.828649
472.917207,-518.144159,-8512.368333,153.219100
472.917531,444.123565,-9252.574275,459.657299
472.917855,1628.453072,-9548.656652,995.924147
472.918180,1924.535449,-9474.636058,919.314598
472.918504,962.267725,-8734.430116,229.828649
472.918828,370.102971,-7772.162391,0.000000
472.919152,1036.288319,-8290.306550,306.438199
472.919476,1850.514855,-8438.347739,766.095498
472.919801,1998.556043,-9178.553681,1302.362347
472.920125,814.226536,-9252.574275,1378.971896
472.920449,-1110.308913,-9030.512492,842.705048
472.920773,-2294.638420,-9252.574275,229.828649
472.921097,-1924.535449,-9474.636058,766.095498
472.921422,-444.123565,-9696.697840,1302.362347
472.921746,-370.102971,-9548.656652,1455.581446
472.922070,-1036.288319,-8438.347739,1149.143247
472.922394,-1184.329507,-8438.347739,229.828649
472.922718,-814.226536,-8660.409521,-459.657299
472.923043,-222.061783,-9770.718434,-536.266849
472.923367,-592.164754,-10214.842000,-153.219100
472.923691,-1554.432478,-10066.800811,0.000000
472.924015,-2590.720797,-9178.553681,-612.876398
472.924340,-2294.638420,-9696.697840,-229.828649
472.924664,-962.267725,-10584.944971,0.000000
472.924988,148.041188,-11177.109724,153.219100
472.925312,0.000000,-11325.150913,306.438199
472.925636,-814.226536,-10214.842000,-306.438199
472.925961,-1554.432478,-9622.677246,-536.266849
472.926285,0.000000,-10140.821405,-536.266849
472.926609,962.267725,-10436.903782,612.876398
472.926933,888.247130,-10584.944971,76.609550
472.927257,-592.164754,-10362.883188,-766.095498
472.927582,-1776.494261,-10066.800811,-1532.190996
472.927906,-1702.473667,-10214.842000,-1532.190996
472.928230,-444.123565,-10658.965565,-1225.752797
472.928554,1110.308913,-10881.027347,-383.047749
472.928878,740.205942,-10510.924376,-229.828649
472.929203,0.000000,-9548.656652,-842.705048
472.929527,222.061783,-8882.471304,-1149.143247
472.929851,888.247130,-9030.512492,-612.876398
472.930175,1480.411884,-9844.739029,153.219100
472.930499,1184.329507,-10214.842000,612.876398
472.930824,-222.061783,-9548.656652,0.000000
472.931148,-1480.411884,-8734.430116,-383.047749
472.931472,-962.267725,-9104.533087,-612.876398
472.931796,962.267725,-9622.677246,-536.266849
472.932120,1850.514855,-9474.636058,229.828649
472.932445,2368.659014,-9770.718434,153.219100
472.932769,1702.473667,-9178.553681,-383.047749
472.933093,888.247130,-8586.388927,-459.657299
472.933417,1332.370696,-8882.471304,-612.876398
472.933741,1702.473667,-9548.656652,0.000000
472.934066,1406.391290,-9844.739029,383.047749
472.934390,1036.288319,-10140.821405,383.047749
472.934714,148.041188,-9770.718434,383.047749
472.935038,148.041188,-9622.677246,306.438199
472.935363,370.102971,-9696.697840,459.657299
472.935687,148.041188,-9548.656652,459.657299
472.936011,-296.082377,-9474.636058,612.876398
472.936335,-666.185348,-8882.471304,842.705048
472.936659,-370.102971,-8586.388927,0.000000
472.936984,0.000000,-8660.409521,-76.609550
472.937308,74.020594,-9474.636058,-689.485948
472.937632,0.000000,-9770.718434,-153.219100
472.937956,-1184.329507,-9696.697840,-536.266849
472.938280,-1998.556043,-9178.553681,-459.657299
472.938605,-1554.432478,-9252.574275,-306.438199
472.938929,0.000000,-9622.677246,153.219100
472.939253,814.226536,-10436.903782,459.657299
472.939577,740.205942,-10658.965565,383.047749
472.939901,-592.164754,-10066.800811,689.485948
472.940226,-888.247130,-9326.594869,-153.219100
472.940550,0.000000,-9696.697840,76.609550
472.940874,962.267725,-10658.965565,536.266849
472.941198,518.144159,-11251.130318,383.047749
472.941522,-1184.329507,-10658.965565,-229.828649
472.941847,-2442.679609,-10140.821405,-153.219100
472.942171,-1998.556043,-10140.821405,-689.485948
472.942495,-592.164754,-10732.986159,-383.047749
472.942819,148.041188,-10955.047942,153.219100
472.943143,-222.061783,-10584.944971,306.438199
472.943468,-666.185348,-9622.677246,0.000000
472.943792,-814.226536,-9104.533087,-689.485948
472.944116,-222.061783,-9178.553681,-383.047749
472.944440,222.061783,-9844.739029,76.609550
472.944765,-592.164754,-9918.759623,0.000000
472.945089,-2220.617826,-9104.533087,0.000000
472.945413,-2516.700203,-9178.553681,0.000000
472.945737,-1554.432478,-9474.636058,0.000000
472.946061,0.000000,-9770.718434,383.047749
472.946386,1184.329507,-9622.677246,919.314598
472.946710,0.000000,-9178.553681,459.657299
472.947034,-666.185348,-8512.368333,0.000000
472.947358,0.000000,-8290.306550,-383.047749
472.947682,1332.370696,-9030.512492,383.047749
472.948007,2294.638420,-9844.739029,459.657299
472.948331,1554.432478,-10288.862594,306.438199
472.948655,0.000000,-9474.636058,0.000000
472.948979,-370.102971,-9400.615463,-383.047749
472.949303,0.000000,-9696.697840,-383.047749
472.949628,666.185348,-10362.883188,383.047749
472.949952,296.082377,-9918.759623,229.828649
472.950276,-148.041188,-9326.594869,0.000000
472.950600,-444.123565,-8438.347739,-153.219100
472.950924,370.102971,-8364.327145,-306.438199
472.951249,1406.391290,-8586.388927,76.609550
472.951573,1628.453072,-9030.512492,-536.266849
472.951897,518.144159,-9178.553681,0.000000
472.952221,-592.164754,-8512.368333,-612.876398
472.952545,-1110.308913,-9104.533087,-612.876398
472.952870,0.000000,-9622.677246,-459.657299
472.953194,1776.494261,-9992.780217,0.000000
472.953518,2812.782580,-10214.842000,76.609550
472.953842,1406.391290,-9400.615463,-766.095498
472.954166,518.144159,-9400.615463,-612.876398
472.954491,666.185348,-9696.697840,-689.485948
472.954815,1776.494261,-10436.903782,-383.047749
472.955139,2294.638420,-10955.047942,0.000000
472.955463,1406.391290,-11399.171507,-383.047749
472.955788,-148.041188,-11251.130318,-536.266849
472.956112,-518.144159,-11325.150913,-612.876398
472.956436,148.041188,-11621.233289,-383.047749
472.956760,1036.288319,-11473.192101,306.438199
472.957084,740.205942,-11325.150913,0.000000
472.957409,148.041188,-10214.842000,-229.828649
472.957733,-518.144159,-9770.718434,-536.266849
472.958057,-814.226536,-9770.718434,-995.924147
472.958381,74.020594,-9992.780217,-766.095498
472.958705,0.000000,-9696.697840,-383.047749
472.959030,-1406.391290,-9252.574275,-383.047749
472.959354,-2442.679609,-8438.347739,-612.876398
472.959678,-2442.679609,-8512.368333,-689.485948
472.960002,-1998.556043,-9178.553681,-153.219100
472.960326,-1036.288319,-9770.718434,0.000000
472.960651,-1332.370696,-9252.574275,0.000000
472.960975,-2072.576638,-8512.368333,536.266849
472.961299,-2738.761985,-7772.162391,0.000000
472.961623,-1850.514855,-8290.306550,-306.438199
472.961947,-222.061783,-8808.450710,-383.047749
472.962272,0.000000,-9326.594869,229.828649
472.962596,-740.205942,-9548.656652,229.828649
472.962920,-1554.432478,-9622.677246,0.000000
472.963244,-1480.411884,-9992.780217,0.000000
472.963568,-962.267725,-9622.677246,383.047749
472.963893,-518.144159,-9622.677246,153.219100
472.964217,0.000000,-9918.759623,842.705048
