#time,accel_x,accel_y,accel_z
443.488718,8290.306550,-6883.915261,4443.353888
443.489042,9622.677246,-9474.636058,4136.915689
443.489366,8364.327145,-11473.192101,3447.429741
443.489690,5181.441594,-10807.006753,766.095498
443.490014,888.247130,-10140.821405,-2451.505594
443.490338,-962.267725,-11695.253884,-2145.067394
443.490662,-1258.350101,-13249.686362,306.438199
443.490986,-814.226536,-13767.830521,1532.190996
443.491310,-1776.494261,-11325.150913,1149.143247
443.491634,-3108.864956,-7846.182985,306.438199
443.491958,-2368.659014,-7031.956449,153.219100
443.492282,-370.102971,-8216.285956,0.000000
443.492606,740.205942,-7846.182985,1378.971896
443.492930,444.123565,-6439.791695,3294.210641
443.493254,1924.535449,-7031.956449,2681.334243
443.493578,2664.741391,-8438.347739,1072.533697
443.493902,3182.885551,-9918.759623,76.609550
443.494226,3478.967927,-11473.192101,-383.047749
443.494550,3923.091493,-12583.501014,-536.266849
443.494875,3330.926739,-12213.398043,76.609550
443.495199,2072.576638,-11843.295072,612.876398
443.495523,1628.453072,-11325.150913,919.314598
443.495847,888.247130,-10955.047942,842.705048
443.496171,222.061783,-10584.944971,919.314598
443.496495,518.144159,-9918.759623,1838.629195
443.496819,1480.411884,-9400.615463,2528.115143
443.497143,1554.432478,-8956.491898,2451.505594
443.497467,1480.411884,-8216.285956,2528.115143
443.497791,1776.494261,-9104.533087,2145.067394
443.498115,1110.308913,-10066.800811,766.095498
443.498439,1110.308913,-10510.924376,766.095498
443.498763,2220.617826,-10066.800811,1072.533697
443.499087,4219.173869,-9622.677246,1455.581446
443.499411,5477.523971,-10658.965565,1915.238745
443.499735,5995.668130,-11251.130318,3524.039291
443.500059,6143.709319,-10436.903782,2604.724693
443.500383,6069.688724,-10732.986159,3677.258390
443.500707,5181.441594,-10807.006753,4290.134789
443.501031,4515.256246,-10807.006753,4903.011187
443.501355,3552.988522,-10140.821405,5132.839837
443.501679,2072.576638,-8734.430116,4519.963438
443.502003,518.144159,-8068.244768,3677.258390
443.502327,-592.164754,-6883.915261,2911.162892
443.502651,-296.082377,-6217.729913,3294.210641
443.502975,888.247130,-5995.668130,3140.991542
443.503299,1850.514855,-6143.709319,3294.210641
443.503623,2516.700203,-6365.771101,2987.772442
443.503947,2664.741391,-6735.874072,2528.115143
443.504271,2442.679609,-7846.182985,2221.676944
443.504596,2368.659014,-8734.430116,2834.553343
443.504920,1628.453072,-10214.842000,3830.477490
443.505244,444.123565,-11621.233289,4673.182538
443.505568,444.123565,-12139.377449,5286.058936
443.505892,444.123565,-11621.233289,4903.011187
443.506216,1406.391290,-10732.986159,4519.963438
443.506540,2960.823768,-10066.800811,4673.182538
443.506864,4441.235652,-8438.347739,3370.820191
443.507188,4589.276840,-6809.894666,3677.258390
443.507512,4293.194464,-6365.771101,3064.381992
443.507836,2664.741391,-7328.038826,2298.286494
443.508160,370.102971,-8512.368333,842.705048
443.508484,-1554.432478,-8808.450710,-1149.143247
443.508808,-3701.029710,-8290.306550,-1838.629195
443.509132,-4293.194464,-8882.471304,-919.314598
443.509456,-2516.700203,-10658.965565,766.095498
443.509780,0.000000,-10955.047942,2145.067394
443.510104,2294.638420,-10955.047942,2528.115143
443.510428,2960.823768,-10214.842000,1991.848295
443.510752,2368.659014,-9918.759623,689.485948
443.511076,370.102971,-10436.903782,-459.657299
443.511400,-2368.659014,-10214.842000,-459.657299
443.511724,-3182.885551,-10584.944971,-536.266849
443.512048,-888.247130,-11177.109724,-995.924147
443.512372,1702.473667,-11251.130318,-995.924147
443.512696,4441.235652,-11399.171507,-1762.019645
443.513020,5551.544565,-11547.212695,-2221.676944
443.513344,5625.565159,-12805.562797,-2145.067394
443.513668,2960.823768,-13619.789333,-1685.410096
443.513992,370.102971,-13101.645173,-842.705048
443.514316,-666.185348,-11917.315666,-306.438199
443.514641,222.061783,-11103.089130,-153.219100
443.514965,1258.350101,-9622.677246,-766.095498
443.515289,2220.617826,-9770.718434,-1378.971896
443.515613,1110.308913,-9400.615463,-1302.362347
443.515937,-1184.329507,-8512.368333,-1608.800546
443.516261,-3330.926739,-7402.059420,-2374.896044
443.516585,-4885.359217,-6809.894666,-2451.505594
443.516909,-4811.338623,-6809.894666,-3294.210641
443.517233,-2072.576638,-7624.121203,-2834.553343
443.517558,2072.576638,-8660.409521,-1608.800546
443.517882,5033.400406,-9178.553681,0.000000
443.518206,5181.441594,-10288.862594,689.485948
443.518530,2664.741391,-11029.068536,0.000000
443.518855,-518.144159,-10436.903782,-995.924147
443.519179,-3108.864956,-9992.780217,-1455.581446
443.519503,-3849.070898,-10510.924376,-1149.143247
443.519828,-2516.700203,-10288.862594,-919.314598
443.520152,-814.226536,-9252.574275,-919.314598
443.520476,-148.041188,-8216.285956,-229.828649
443.520800,-222.061783,-7920.203579,-459.657299
443.521125,-1480.411884,-7994.224174,-766.095498
443.521449,-1702.473667,-7254.018232,-689.485948
443.521773,-962.267725,-6883.915261,-383.047749
443.522098,1036.288319,-8068.244768,459.657299
443.522422,2738.761985,-9992.780217,689.485948
443.522746,2738.761985,-11473.192101,689.485948
443.523070,962.267725,-11769.274478,0.000000
443.523395,-1258.350101,-10807.006753,-1302.362347
443.523719,-3108.864956,-10066.800811,-1915.238745
443.524043,-3923.091493,-9474.636058,-612.876398
443.524367,-2442.679609,-10140.821405,-459.657299
443.524692,-1184.329507,-11029.068536,153.219100
443.525016,-296.082377,-10881.027347,306.438199
443.525340,518.144159,-10140.821405,536.266849
443.525665,1258.350101,-9548.656652,689.485948
443.525989,2590.720797,-9178.553681,1532.190996
443.526313,3108.864956,-9400.615463,2604.724693
443.526637,3701.029710,-10732.986159,2221.676944
443.526962,2886.803174,-12213.398043,1838.629195
443.527286,1184.329507,-13471.748144,689.485948
443.527610,-962.267725,-13323.706956,-536.266849
443.527935,-3330.926739,-11399.171507,-995.924147
443.528259,-4219.173869,-10510.924376,-689.485948
443.528583,-3330.926739,-9030.512492,0.000000
443.528907,-1332.370696,-8364.327145,536.266849
443.529232,370.102971,-8068.244768,1302.362347
443.529556,962.267725,-8290.306550,1455.581446
443.529880,1036.288319,-7920.203579,1455.581446
443.530205,888.247130,-7402.059420,1608.800546
443.530529,740.205942,-7476.080014,2221.676944
443.530853,1406.391290,-7772.162391,1072.533697
443.531177,2590.720797,-8290.306550,1685.410096
443.531502,2886.803174,-9474.636058,1455.581446
443.531826,1554.432478,-11325.150913,689.485948
443.532150,-370.102971,-11843.295072,153.219100
443.532475,-2368.659014,-10658.965565,-229.828649
443.532799,-3849.070898,-9474.636058,0.000000
443.533123,-3627.009116,-8364.327145,0.000000
443.533447,-888.247130,-8364.327145,1072.533697
443.533772,2220.617826,-8290.306550,1455.581446
443.534096,3627.009116,-8882.471304,2221.676944
443.534420,3330.926739,-8512.368333,1991.848295
443.534745,1924.535449,-7624.121203,919.314598
443.535069,518.144159,-7328.038826,459.657299
443.535393,296.082377,-7920.203579,306.438199
443.535717,740.205942,-8290.306550,153.219100
443.536042,1332.370696,-8956.491898,-306.438199
443.536366,1406.391290,-10732.986159,-689.485948
443.536690,0.000000,-11103.089130,-689.485948
443.537014,-2220.617826,-10214.842000,-1378.971896
443.537339,-4589.276840,-9252.574275,-1608.800546
443.537663,-5033.400406,-8216.285956,-1072.533697
443.537987,-3182.885551,-9030.512492,-689.485948
443.538312,0.000000,-9992.780217,842.705048
443.538636,2072.576638,-9918.759623,919.314598
443.538960,2590.720797,-10214.842000,0.000000
443.539284,1184.329507,-10140.821405,-766.095498
443.539609,-296.082377,-9770.718434,-1608.800546
443.539933,-962.267725,-9844.739029,-1838.629195
443.540257,-148.041188,-10658.965565,-1762.019645
443.540582,1258.350101,-11547.212695,-1302.362347
443.540906,2368.659014,-12657.521608,-1378.971896
443.541230,2368.659014,-13175.665768,-1149.143247
443.541554,1036.288319,-12583.501014,-1532.190996
443.541879,-1110.308913,-11621.233289,-1378.971896
443.542203,-2368.659014,-10881.027347,-995.924147
443.542527,-2072.576638,-10436.903782,-153.219100
443.542852,-518.144159,-10510.924376,153.219100
443.543176,518.144159,-10584.944971,689.485948
443.543500,444.123565,-9696.697840,-306.438199
443.543824,0.000000,-9178.553681,-842.705048
443.544149,-666.185348,-7994.224174,-1685.410096
443.544473,-740.205942,-7402.059420,-1915.238745
443.544797,-148.041188,-7550.100608,-1608.800546
443.545122,1036.288319,-8586.388927,-842.705048
443.545446,888.247130,-9770.718434,-536.266849
443.545770,148.041188,-10510.924376,0.000000
443.546094,-1480.411884,-9992.780217,-842.705048
443.546419,-2886.803174,-9622.677246,-1149.143247
443.546743,-3478.967927,-9400.615463,-766.095498
443.547067,-2294.638420,-9178.553681,76.609550
443.547392,-1036.288319,-9326.594869,689.485948
443.547716,0.000000,-9844.739029,842.705048
443.548040,-370.102971,-9104.533087,536.266849
443.548364,-592.164754,-8660.409521,-766.095498
443.548689,-1036.288319,-7624.121203,-1225.752797
443.549013,-1110.308913,-7402.059420,-1302.362347
443.549337,518.144159,-7846.182985,-689.485948
443.549662,2294.638420,-8512.368333,-536.266849
443.549986,3404.947333,-10066.800811,-383.047749
443.550310,3034.844362,-11399.171507,-306.438199
443.550634,1184.329507,-11177.109724,-153.219100
443.550959,-740.205942,-10658.965565,-536.266849
443.551283,-2368.659014,-10288.862594,-689.485948
443.551607,-2220.617826,-10140.821405,0.000000
443.551931,-666.185348,-10288.862594,766.095498
443.552256,666.185348,-10955.047942,1378.971896
443.552580,1628.453072,-10362.883188,1149.143247
443.552904,962.267725,-9104.533087,0.000000
443.553229,592.164754,-7994.224174,-229.828649
443.553553,666.185348,-8438.347739,-459.657299
443.553877,1776.494261,-9252.574275,0.000000
443.554201,3034.844362,-9918.759623,306.438199
443.554526,3552.988522,-11251.130318,766.095498
443.554850,2516.700203,-12435.459826,612.876398
443.555174,592.164754,-12065.356855,306.438199
443.555499,-1850.514855,-11695.253884,-306.438199
443.555823,-3627.009116,-10807.006753,76.609550
443.556147,-3478.967927,-10066.800811,459.657299
443.556471,-1850.514855,-9992.780217,1225.752797
443.556796,-222.061783,-9696.697840,1455.581446
443.557120,740.205942,-9030.512492,1302.362347
443.557444,814.226536,-7846.182985,766.095498
443.557769,-740.205942,-6883.915261,383.047749
443.558093,-1036.288319,-6735.874072,76.609550
443.558417,-370.102971,-7328.038826,153.219100
443.558741,888.247130,-8216.285956,229.828649
443.559066,2442.679609,-9844.739029,842.705048
443.559390,2664.741391,-11103.089130,536.266849
443.559714,1998.556043,-11325.150913,536.266849
443.560039,-444.123565,-10214.842000,306.438199
443.560363,-2294.638420,-9844.739029,306.438199
443.560687,-2072.576638,-9770.718434,842.705048
443.561011,-1110.308913,-9622.677246,1608.800546
443.561336,814.226536,-9474.636058,2374.896044
443.561660,1258.350101,-9252.574275,1915.238745
443.561984,962.267725,-8364.327145,1378.971896
443.562309,-222.061783,-7624.121203,459.657299
443.562633,-518.144159,-7476.080014,153.219100
443.562957,-148.041188,-7994.224174,0.000000
443.563281,1480.411884,-8660.409521,229.828649
443.563606,1850.514855,-9622.677246,-153.219100
443.563930,1110.308913,-10955.047942,306.438199
443.564254,-814.226536,-11251.130318,-612.876398
443.564578,-3034.844362,-10214.842000,-919.314598
443.564903,-4145.153275,-9696.697840,-1072.533697
443.565227,-3775.050304,-9548.656652,76.609550
443.565551,-1554.432478,-9548.656652,229.828649
443.565876,296.082377,-9918.759623,1302.362347
443.566200,740.205942,-9918.759623,919.314598
443.566524,666.185348,-9252.574275,-229.828649
443.566848,-444.123565,-8290.306550,-995.924147
443.567173,-1110.308913,-7994.224174,-1762.019645
443.567497,-222.061783,-8512.368333,-1378.971896
443.567821,1850.514855,-9474.636058,-1072.533697
443.568146,3034.844362,-10584.944971,-1072.533697
443.568470,3256.906145,-12139.377449,-1302.362347
443.568794,1480.411884,-12583.501014,-1608.800546
443.569118,-888.247130,-11843.295072,-1762.019645
443.569443,-3034.844362,-11177.109724,-1762.019645
443.569767,-3627.009116,-10658.965565,-1838.629195
443.570091,-2072.576638,-10436.903782,-536.266849
443.570416,-444.123565,-10881.027347,-229.828649
443.570740,370.102971,-10732.986159,306.438199
443.571064,148.041188,-9770.718434,-383.047749
443.571388,-370.102971,-8808.450710,-1225.752797
443.571713,-518.144159,-7920.203579,-1608.800546
443.572037,370.102971,-8438.347739,-1532.190996
443.572361,2368.659014,-9178.553681,-1149.143247
443.572686,3701.029710,-10436.903782,-612.876398
443.573010,3552.988522,-11251.130318,-153.219100
443.573334,1258.350101,-11103.089130,-229.828649
443.573658,-1036.288319,-10436.903782,-1072.533697
443.573983,-2812.782580,-9918.759623,-1149.143247
443.574307,-3256.906145,-9474.636058,-536.266849
443.574631,-1480.411884,-9252.574275,-153.219100
443.574956,74.020594,-9400.615463,1225.752797
443.575280,592.164754,-8882.471304,1072.533697
443.575604,74.020594,-8216.285956,306.438199
443.575928,-518.144159,-7328.038826,-306.438199
443.576253,-1184.329507,-7254.018232,-612.876398
443.576577,-518.144159,-7846.182985,-689.485948
443.576901,1480.411884,-8364.327145,-459.657299
443.577225,3404.947333,-9400.615463,-459.657299
443.577550,3701.029710,-10881.027347,536.266849
443.577874,2442.679609,-12213.398043,0.000000
443.578198,148.041188,-11399.171507,-459.657299
443.578523,-2960.823768,-10658.965565,-536.266849
443.578847,-3701.029710,-10436.903782,-459.657299
443.579171,-2590.720797,-10362.883188,0.000000
443.579495,-962.267725,-9992.780217,1302.362347
443.579820,296.082377,-10214.842000,1455.581446
443.580144,814.226536,-9474.636058,1838.629195
443.580468,148.041188,-7624.121203,383.047749
443.580793,0.000000,-7105.977043,0.000000
443.581117,74.020594,-7698.141797,-229.828649
443.581441,1702.473667,-8734.430116,76.609550
443.581765,3108.864956,-9992.780217,536.266849
443.582090,3182.885551,-11029.068536,842.705048
443.582414,1776.494261,-11399.171507,842.705048
443.582738,-370.102971,-10732.986159,153.219100
443.583063,-2368.659014,-10140.821405,0.000000
443.583387,-3182.885551,-10362.883188,536.266849
443.583711,-1702.473667,-10510.924376,919.314598
443.584035,74.020594,-9918.759623,2068.457845
443.584360,1480.411884,-9622.677246,2604.724693
443.584684,1850.514855,-8734.430116,2451.505594
443.585008,592.164754,-8068.244768,1915.238745
443.585333,-1184.329507,-7328.038826,689.485948
443.585657,-1924.535449,-7698.141797,0.000000
443.585981,-444.123565,-8364.327145,76.609550
443.586305,1628.453072,-9844.739029,689.485948
443.586630,2590.720797,-11251.130318,919.314598
443.586954,1998.556043,-11251.130318,1225.752797
443.587278,-518.144159,-10362.883188,383.047749
443.587603,-2812.782580,-9548.656652,-153.219100
443.587927,-3775.050304,-9918.759623,-153.219100
443.588251,-2664.741391,-9548.656652,536.266849
443.588575,-592.164754,-9696.697840,1378.971896
443.588900,592.164754,-9622.677246,1455.581446
443.589224,1184.329507,-8808.450710,1302.362347
443.589548,1036.288319,-7550.100608,536.266849
443.589872,0.000000,-7105.977043,0.000000
443.590197,148.041188,-7105.977043,-229.828649
443.590521,1702.473667,-8216.285956,-766.095498
443.590845,2960.823768,-9474.636058,-153.219100
443.591170,3478.967927,-11399.171507,76.609550
443.591494,2220.617826,-11843.295072,-153.219100
443.591818,0.000000,-11177.109724,-536.266849
443.592142,-2886.803174,-10140.821405,-1838.629195
443.592467,-3923.091493,-9770.718434,-1378.971896
443.592791,-2368.659014,-9474.636058,-1072.533697
443.593115,-666.185348,-10066.800811,-306.438199
443.593440,148.041188,-10288.862594,0.000000
443.593764,0.000000,-9844.739029,-153.219100
443.594088,-814.226536,-8808.450710,-306.438199
443.594412,-1184.329507,-7846.182985,-1762.019645
443.594737,-1184.329507,-7624.121203,-1991.848295
443.595061,444.123565,-8364.327145,-1838.629195
443.595385,2072.576638,-9770.718434,-1685.410096
443.595710,2516.700203,-11473.192101,-1302.362347
443.596034,1776.494261,-12213.398043,-995.924147
443.596358,-148.041188,-11991.336260,-1685.410096
443.596682,-2516.700203,-11399.171507,-2911.162892
443.597007,-3478.967927,-10362.883188,-1378.971896
443.597331,-2516.700203,-9918.759623,-1302.362347
443.597655,-222.061783,-10288.862594,-842.705048
443.597980,1110.308913,-10732.986159,-153.219100
443.598304,1110.308913,-10214.842000,0.000000
443.598628,666.185348,-9252.574275,-229.828649
443.598952,296.082377,-8438.347739,-536.266849
443.599277,888.247130,-8290.306550,-1685.410096
443.599601,2072.576638,-8216.285956,-612.876398
443.599925,3775.050304,-9474.636058,-459.657299
443.600250,3849.070898,-11325.150913,0.000000
443.600574,2812.782580,-12213.398043,0.000000
443.600898,444.123565,-11843.295072,-612.876398
443.601222,-2146.597232,-10510.924376,-919.314598
443.601547,-3701.029710,-9548.656652,-1072.533697
443.601871,-2886.803174,-9326.594869,-689.485948
443.602195,-1406.391290,-9400.615463,0.000000
443.602519,-444.123565,-8956.491898,1378.971896
443.602844,74.020594,-8586.388927,1378.971896
443.603168,-444.123565,-7550.100608,919.314598
443.603492,-1110.308913,-7031.956449,612.876398
443.603817,-962.267725,-6883.915261,536.266849
443.604141,-444.123565,-7031.956449,-153.219100
443.604465,148.041188,-7846.182985,153.219100
443.604789,814.226536,-9252.574275,306.438199
443.605114,592.164754,-11399.171507,995.924147
443.605438,0.000000,-11399.171507,919.314598
443.605762,-1628.453072,-10584.944971,995.924147
443.606087,-2738.761985,-9918.759623,1072.533697
443.606411,-2442.679609,-9548.656652,689.485948
443.606735,-814.226536,-10214.842000,1378.971896
443.607059,592.164754,-10436.903782,2145.067394
443.607384,1332.370696,-10436.903782,1762.019645
443.607708,1480.411884,-9252.574275,1685.410096
443.608032,1480.411884,-8216.285956,1532.190996
443.608357,1480.411884,-8142.265362,1149.143247
443.608681,1776.494261,-8586.388927,842.705048
443.609005,2516.700203,-9474.636058,153.219100
443.609329,2442.679609,-10807.006753,-306.438199
443.609654,1628.453072,-11695.253884,766.095498
443.609978,222.061783,-11917.315666,229.828649
443.610302,-1702.473667,-10658.965565,0.000000
443.610627,-3478.967927,-10066.800811,0.000000
443.610951,-2812.782580,-9622.677246,-229.828649
443.611275,-1480.411884,-9548.656652,536.266849
443.611599,-666.185348,-9696.697840,766.095498
443.611924,-222.061783,-9622.677246,1762.019645
443.612248,-296.082377,-8956.491898,153.219100
443.612572,-1110.308913,-8216.285956,76.609550
443.612897,-1110.308913,-8216.285956,-153.219100
443.613221,222.061783,-8364.327145,-612.876398
443.613545,1850.514855,-9400.615463,-612.876398
443.613869,2294.638420,-10288.862594,0.000000
443.614194,2294.638420,-11547.212695,0.000000
443.614518,296.082377,-11473.192101,-766.095498
443.614842,-2368.659014,-10955.047942,-919.314598
443.615167,-3775.050304,-10436.903782,-1225.752797
443.615491,-3775.050304,-9770.718434,-1302.362347
443.615815,-2072.576638,-9474.636058,-459.657299
443.616139,-222.061783,-9178.553681,0.000000
443.616464,962.267725,-9030.512492,229.828649
443.616788,592.164754,-8364.327145,-306.438199
443.617112,-370.102971,-7402.059420,-842.705048
443.617436,0.000000,-7328.038826,-1225.752797
443.617761,1406.391290,-7920.203579,-1225.752797
443.618085,3256.906145,-8734.430116,-995.924147
443.618409,4219.173869,-9992.780217,-842.705048
443.618733,3330.926739,-11399.171507,-306.438199
443.619057,1036.288319,-11843.295072,-306.438199
443.619381,-1480.411884,-10807.006753,-1302.362347
443.619706,-3478.967927,-10510.924376,-1532.190996
443.620030,-3256.906145,-10066.800811,-995.924147
443.620354,-1702.473667,-10140.821405,-612.876398
443.620678,-148.041188,-10214.842000,0.000000
443.621002,0.000000,-9622.677246,76.609550
443.621326,-814.226536,-8808.450710,306.438199
443.621651,-1184.329507,-8290.306550,-1378.971896
443.621975,-370.102971,-8068.244768,-766.095498
443.622299,518.144159,-7994.224174,-1072.533697
443.622623,1776.494261,-8364.327145,-1149.143247
443.622947,2368.659014,-9844.739029,-1149.143247
443.623271,2072.576638,-11843.295072,-766.095498
443.623596,148.041188,-11991.336260,-766.095498
443.623920,-1554.432478,-11769.274478,-612.876398
443.624244,-3552.988522,-10214.842000,-1455.581446
443.624568,-3552.988522,-9918.759623,-1378.971896
443.624892,-1850.514855,-9844.739029,-612.876398
443.625216,-296.082377,-10214.842000,689.485948
443.625541,0.000000,-10214.842000,842.705048
443.625865,0.000000,-8956.491898,842.705048
443.626189,-592.164754,-8142.265362,536.266849
443.626513,370.102971,-7920.203579,-153.219100
443.626837,1628.453072,-7994.224174,-612.876398
443.627161,3404.947333,-9326.594869,-306.438199
443.627486,4071.132681,-11103.089130,459.657299
443.627810,3182.885551,-12657.521608,612.876398
443.628134,1036.288319,-12287.418637,1072.533697
443.628458,-888.247130,-11473.192101,689.485948
443.628782,-2812.782580,-10436.903782,383.047749
443.629106,-1924.535449,-9622.677246,76.609550
443.629430,-222.061783,-9474.636058,919.314598
443.629755,1036.288319,-9622.677246,2068.457845
443.630079,1184.329507,-9696.697840,2145.067394
443.630403,0.000000,-8512.368333,1685.410096
443.630727,-888.247130,-7105.977043,229.828649
443.631051,-1998.556043,-6661.853478,-229.828649
443.631375,-1850.514855,-7105.977043,-229.828649
443.631700,74.020594,-7920.203579,0.000000
443.632024,1776.494261,-9326.594869,383.047749
443.632348,2220.617826,-10732.986159,459.657299
443.632672,888.247130,-11029.068536,459.657299
443.632996,-1406.391290,-10658.965565,0.000000
443.633320,-3701.029710,-9918.759623,76.609550
443.633645,-3627.009116,-9992.780217,459.657299
443.633969,-1998.556043,-10214.842000,1378.971896
443.634293,-222.061783,-10584.944971,1762.019645
443.634617,1036.288319,-10362.883188,2145.067394
443.634941,1776.494261,-8808.450710,1455.581446
443.635265,1110.308913,-8142.265362,919.314598
443.635590,444.123565,-7476.080014,229.828649
443.635914,814.226536,-8216.285956,153.219100
443.636238,1554.432478,-8956.491898,0.000000
443.636562,2368.659014,-10288.862594,383.047749
443.636886,2072.576638,-11695.253884,76.609550
443.637210,814.226536,-11621.233289,0.000000
443.637535,-1184.329507,-10436.903782,-689.485948
443.637859,-2886.803174,-9548.656652,-1072.533697
443.638183,-2442.679609,-9252.574275,-153.219100
443.638507,-1184.329507,-9252.574275,459.657299
443.638831,518.144159,-9844.739029,919.314598
443.639155,592.164754,-9622.677246,459.657299
443.639480,222.061783,-8734.430116,0.000000
443.639804,-518.144159,-7920.203579,-689.485948
443.640128,-1184.329507,-7624.121203,-1072.533697
443.640452,-444.123565,-7994.224174,-842.705048
443.640776,1036.288319,-8956.491898,-766.095498
443.641100,2590.720797,-10436.903782,-306.438199
443.641425,2442.679609,-11251.130318,-766.095498
443.641749,1110.308913,-11917.315666,-995.924147
443.642073,-888.247130,-11473.192101,-1685.410096
443.642397,-2812.782580,-10584.944971,-1991.848295
443.642721,-3701.029710,-9992.780217,-1455.581446
443.643045,-2664.741391,-9770.718434,-995.924147
443.643370,-592.164754,-10214.842000,-383.047749
443.643694,296.082377,-10436.903782,0.000000
443.644018,0.000000,-9696.697840,-612.876398
443.644342,-518.144159,-8586.388927,-1378.971896
443.644666,-592.164754,-7920.203579,-1685.410096
443.644990,444.123565,-8290.306550,-1762.019645
443.645315,2220.617826,-8808.450710,-1302.362347
443.645639,3552.988522,-9548.656652,-612.876398
443.645963,3923.091493,-11029.068536,-842.705048
443.646287,2664.741391,-11917.315666,-306.438199
443.646611,444.123565,-11547.212695,-1149.143247
443.646935,-1258.350101,-10584.944971,-1072.533697
443.647260,-1776.494261,-10362.883188,-766.095498
443.647584,-296.082377,-10214.842000,-229.828649
443.647908,1258.350101,-10214.842000,842.705048
443.648232,1776.494261,-10066.800811,1072.533697
443.648556,1480.411884,-9622.677246,459.657299
443.648880,-518.144159,-7920.203579,-536.266849
443.649205,-1702.473667,-7624.121203,-536.266849
443.649529,-1924.535449,-7402.059420,-1072.533697
443.649853,-814.226536,-8216.285956,-766.095498
443.650177,370.102971,-9400.615463,-306.438199
443.650501,962.267725,-10436.903782,-153.219100
443.650825,296.082377,-10955.047942,76.609550
443.651150,-814.226536,-10436.903782,612.876398
443.651474,-2516.700203,-9918.759623,383.047749
443.651798,-3627.009116,-9844.739029,459.657299
443.652122,-2294.638420,-9918.759623,842.705048
443.652446,74.020594,-10214.842000,1915.238745
443.652770,1628.453072,-10066.800811,2145.067394
443.653095,1924.535449,-9474.636058,1991.848295
443.653419,1258.350101,-8512.368333,1378.971896
443.653743,-518.144159,-7105.977043,536.266849
443.654067,-888.247130,-7550.100608,306.438199
443.654391,0.000000,-7402.059420,306.438199
443.654715,962.267725,-8882.471304,76.609550
443.655040,1110.308913,-10140.821405,536.266849
443.655364,296.082377,-10658.965565,459.657299
443.655688,-2072.576638,-10658.965565,383.047749
443.656012,-2960.823768,-10066.800811,153.219100
443.656336,-2886.803174,-9918.759623,689.485948
443.656660,-1554.432478,-9770.718434,1149.143247
443.656985,666.185348,-10436.903782,1762.019645
443.657309,1924.535449,-10807.006753,2451.505594
443.657633,2072.576638,-10510.924376,2068.457845
443.657957,888.247130,-9252.574275,1608.800546
443.658281,-1110.308913,-8290.306550,-459.657299
443.658605,-1480.411884,-8290.306550,-766.095498
443.658930,-888.247130,-9030.512492,-612.876398
443.659254,1332.370696,-9918.759623,-766.095498
443.659578,1776.494261,-11103.089130,0.000000
443.659902,1184.329507,-11547.212695,0.000000
443.660226,-592.164754,-10881.027347,-459.657299
443.660550,-2368.659014,-9918.759623,-766.095498
443.660875,-2368.659014,-9992.780217,-919.314598
443.661199,-1184.329507,-9548.656652,383.047749
443.661523,592.164754,-9844.739029,1302.362347
443.661847,1776.494261,-9992.780217,1685.410096
443.662171,1776.494261,-9400.615463,1149.143247
443.662495,888.247130,-8586.388927,306.438199
443.662820,-444.123565,-8142.265362,-1072.533697
443.663144,-814.226536,-7328.038826,-1072.533697
443.663468,0.000000,-8216.285956,-1225.752797
443.663792,1924.535449,-9696.697840,0.000000
443.664116,2368.659014,-11251.130318,-842.705048
443.664440,1110.308913,-11621.233289,-612.876398
443.664765,-740.205942,-11399.171507,-1302.362347
443.665089,-2886.803174,-10732.986159,-1608.800546
443.665413,-3108.864956,-10066.800811,-919.314598
443.665737,-1776.494261,-9918.759623,-459.657299
443.666061,518.144159,-10288.862594,459.657299
443.666385,2072.576638,-10140.821405,153.219100
443.666710,1850.514855,-9770.718434,612.876398
443.667034,592.164754,-8882.471304,-306.438199
443.667358,-814.226536,-7846.182985,-1225.752797
443.667682,-1628.453072,-7550.100608,-1378.971896
443.668006,-296.082377,-7772.162391,-1532.190996
443.668330,666.185348,-8586.388927,-1532.190996
443.668655,2146.597232,-10214.842000,-459.657299
443.668979,1702.473667,-11103.089130,-306.438199
443.669303,296.082377,-10436.903782,-919.314598
443.669627,-1628.453072,-9844.739029,-1302.362347
443.669951,-2368.659014,-9474.636058,-1149.143247
443.670275,-1702.473667,-9474.636058,-153.219100
443.670600,592.164754,-10066.800811,229.828649
443.670924,1850.514855,-10658.965565,919.314598
443.671248,2442.679609,-9918.759623,766.095498
443.671572,1776.494261,-9474.636058,689.485948
443.671896,222.061783,-8660.409521,-383.047749
443.672220,-592.164754,-8438.347739,-919.314598
443.672545,-444.123565,-8956.491898,-1302.362347
443.672869,444.123565,-9918.759623,-1149.143247
443.673193,888.247130,-11473.192101,-842.705048
443.673517,666.185348,-11843.295072,-383.047749
443.673841,-888.247130,-11325.150913,-306.438199
443.674165,-2442.679609,-10732.986159,-1225.752797
443.674490,-3404.947333,-10214.842000,-766.095498
443.674814,-2146.597232,-9992.780217,0.000000
443.675138,666.185348,-10140.821405,766.095498
443.675462,2220.617826,-10510.924376,2145.067394
443.675786,2220.617826,-9622.677246,2374.896044
443.676110,1110.308913,-9104.533087,1532.190996
443.676435,-296.082377,-8438.347739,459.657299
443.676759,-1554.432478,-8068.244768,0.000000
443.677083,-1110.308913,-8216.285956,-306.438199
443.677407,74.020594,-8586.388927,0.000000
443.677731,444.123565,-9548.656652,76.609550
443.678055,0.000000,-10658.965565,-229.828649
443.678380,-1332.370696,-10732.986159,229.828649
443.678704,-2960.823768,-10066.800811,-459.657299
443.679028,-4367.215058,-9400.615463,-766.095498
443.679352,-3849.070898,-9326.594869,-306.438199
443.679676,-1850.514855,-9474.636058,842.705048
443.680000,814.226536,-9992.780217,1532.190996
443.680325,1628.453072,-9844.739029,1838.629195
443.680649,1332.370696,-8290.306550,1608.800546
443.680973,592.164754,-8364.327145,459.657299
443.681297,-740.205942,-7624.121203,0.000000
443.681621,74.020594,-8438.347739,-689.485948
443.681945,888.247130,-9178.553681,-383.047749
443.682270,1850.514855,-10584.944971,-306.438199
443.682594,1702.473667,-11547.212695,-459.657299
443.682918,296.082377,-10955.047942,0.000000
443.683242,-1554.432478,-10140.821405,-1225.752797
443.683566,-2812.782580,-9622.677246,-536.266849
443.683890,-1924.535449,-9548.656652,-459.657299
443.684215,222.061783,-9622.677246,306.438199
443.684539,2368.659014,-10066.800811,995.924147
443.684863,3404.947333,-9696.697840,1378.971896
443.685187,2664.741391,-9400.615463,919.314598
443.685511,444.123565,-8364.327145,0.000000
443.685835,-592.164754,-8290.306550,-536.266849
443.686160,-592.164754,-8734.430116,-919.314598
443.686484,518.144159,-9474.636058,-842.705048
443.686808,1480.411884,-10658.965565,-383.047749
443.687132,2072.576638,-11843.295072,-229.828649
443.687456,814.226536,-12213.398043,-536.266849
443.687780,-1110.308913,-11399.171507,-229.828649
443.688104,-2886.803174,-10214.842000,-1149.143247
443.688429,-2738.761985,-9622.677246,-919.314598
443.688753,-666.185348,-10066.800811,-306.438199
443.689077,1110.308913,-10214.842000,689.485948
443.689401,2146.597232,-9992.780217,1378.971896
443.689725,1998.556043,-9252.574275,612.876398
443.690049,518.144159,-7994.224174,0.000000
443.690374,-814.226536,-7179.997637,76.609550
443.690698,-518.144159,-7476.080014,-612.876398
443.691022,296.082377,-8734.430116,-459.657299
443.691346,1184.329507,-9992.780217,-383.047749
443.691670,888.247130,-11103.089130,0.000000
443.691994,-444.123565,-11547.212695,0.000000
443.692319,-2294.638420,-11029.068536,-229.828649
443.692643,-2960.823768,-10140.821405,-383.047749
443.692967,-2812.782580,-9400.615463,-536.266849
443.693291,-592.164754,-9844.739029,153.219100
443.693615,1110.308913,-10140.821405,1149.143247
443.693939,2146.597232,-10214.842000,1225.752797
443.694264,1776.494261,-9252.574275,995.924147
443.694588,444.123565,-8068.244768,383.047749
443.694912,-740.205942,-8216.285956,-229.828649
443.695236,-518.144159,-7772.162391,-919.314598
443.695560,1110.308913,-8068.244768,-1072.533697
443.695884,1406.391290,-9992.780217,0.000000
443.696209,1554.432478,-11325.150913,0.000000
443.696533,444.123565,-11103.089130,0.000000
443.696857,-1776.494261,-10584.944971,76.609550
443.697181,-3404.947333,-9770.718434,-995.924147
443.697505,-2960.823768,-9992.780217,0.000000
443.697829,-2294.638420,-9770.718434,0.000000
443.698154,-296.082377,-9696.697840,995.924147
443.698478,1554.432478,-10214.842000,1302.362347
443.698802,2072.576638,-8956.491898,766.095498
443.699126,1110.308913,-8438.347739,153.219100
443.699450,148.041188,-8142.265362,-153.219100
443.699774,370.102971,-7846.182985,-612.876398
443.700099,1406.391290,-8808.450710,-536.266849
443.700423,2072.576638,-10066.800811,-689.485948
443.700747,1406.391290,-11695.253884,-536.266849
443.701071,0.000000,-11917.315666,-766.095498
443.701395,-2220.617826,-10881.027347,-1225.752797
443.701719,-3701.029710,-10288.862594,-1532.190996
443.702044,-3404.947333,-9622.677246,-842.705048
443.702368,-1406.391290,-9622.677246,-306.438199
443.702692,592.164754,-9770.718434,459.657299
443.703016,1480.411884,-9918.759623,459.657299
443.703340,1036.288319,-9104.533087,383.047749
443.703664,148.041188,-8808.450710,-306.438199
443.703989,-592.164754,-8438.347739,-995.924147
443.704313,-148.041188,-8142.265362,-1072.533697
443.704637,518.144159,-8660.409521,-459.657299
443.704961,2220.617826,-9992.780217,-536.266849
443.705285,2442.679609,-11843.295072,-536.266849
443.705609,1554.432478,-11917.315666,-229.828649
443.705934,-148.041188,-11547.212695,-306.438199
443.706258,-2368.659014,-10881.027347,-842.705048
443.706582,-3034.844362,-10288.862594,0.000000
443.706906,-2220.617826,-10214.842000,383.047749
443.707230,0.000000,-10510.924376,766.095498
443.707554,962.267725,-9918.759623,1532.190996
443.707879,1110.308913,-9474.636058,1149.143247
443.708203,74.020594,-8142.265362,536.266849
443.708527,-370.102971,-7402.059420,76.609550
443.708851,-296.082377,-7698.141797,-612.876398
443.709175,370.102971,-7846.182985,-383.047749
443.709499,1406.391290,-8734.430116,-229.828649
443.709824,1776.494261,-10584.944971,0.000000
443.710148,740.205942,-11177.109724,-153.219100
443.710472,-1184.329507,-10658.965565,-306.438199
443.710796,-2738.761985,-9844.739029,-536.266849
443.711120,-2368.659014,-9770.718434,-229.828649
443.711444,-370.102971,-9696.697840,842.705048
443.711769,2220.617826,-9844.739029,1378.971896
443.712093,3478.967927,-10066.800811,1991.848295
443.712417,2516.700203,-9252.574275,1532.190996
443.712741,1110.308913,-8808.450710,995.924147
443.713065,-740.205942,-8142.265362,0.000000
443.713389,-1258.350101,-8142.265362,-383.047749
443.713714,-296.082377,-8734.430116,-842.705048
443.714038,1110.308913,-9474.636058,0.000000
443.714362,1850.514855,-10955.047942,-459.657299
443.714686,1554.432478,-10807.006753,153.219100
443.715010,0.000000,-11029.068536,-459.657299
443.715334,-2294.638420,-10584.944971,-689.485948
443.715659,-3034.844362,-10140.821405,-153.219100
443.715983,-1850.514855,-10140.821405,536.266849
443.716307,740.205942,-10288.862594,1991.848295
443.716631,1998.556043,-10362.883188,2451.505594
443.716955,2294.638420,-9474.636058,1762.019645
443.717279,1110.308913,-8364.327145,1072.533697
443.717604,-148.041188,-7772.162391,229.828649
443.717928,0.000000,-7920.203579,-229.828649
443.718252,814.226536,-8364.327145,-306.438199
443.718576,1480.411884,-9548.656652,-536.266849
443.718900,1554.432478,-10807.006753,383.047749
443.719224,370.102971,-11547.212695,229.828649
443.719548,-962.267725,-11325.150913,-306.438199
443.719872,-2368.659014,-10658.965565,-536.266849
443.720196,-2960.823768,-9918.759623,-306.438199
443.720520,-1776.494261,-9474.636058,76.609550
443.720844,666.185348,-9844.739029,766.095498
443.721169,1480.411884,-10214.842000,1302.362347
443.721493,1406.391290,-9326.594869,995.924147
443.721817,740.205942,-8142.265362,612.876398
443.722141,-444.123565,-7476.080014,-153.219100
443.722465,-1258.350101,-6735.874072,-1149.143247
443.722789,-666.185348,-7698.141797,-1225.752797
443.723113,814.226536,-8438.347739,-1149.143247
443.723437,1702.473667,-10288.862594,-536.266849
443.723761,1554.432478,-11399.171507,-306.438199
443.724085,-148.041188,-11177.109724,-766.095498
443.724409,-1554.432478,-11177.109724,-1149.143247
443.724733,-3701.029710,-9770.718434,-1072.533697
443.725058,-3552.988522,-10288.862594,-766.095498
443.725382,-1332.370696,-10732.986159,-229.828649
443.725706,0.000000,-10658.965565,689.485948
443.726030,666.185348,-9696.697840,689.485948
443.726354,444.123565,-8586.388927,0.000000
443.726678,74.020594,-8068.244768,0.000000
443.727002,-148.041188,-7698.141797,-1532.190996
443.727326,148.041188,-7920.203579,-1378.971896
443.727650,888.247130,-8956.491898,-1455.581446
443.727974,1036.288319,-10436.903782,-1225.752797
443.728298,148.041188,-11621.233289,-995.924147
443.728622,-1036.288319,-11843.295072,-1302.362347
443.728947,-2738.761985,-11177.109724,-1302.362347
443.729271,-3552.988522,-10584.944971,-1378.971896
443.729595,-1924.535449,-10288.862594,76.609550
443.729919,444.123565,-10584.944971,306.438199
443.730243,2146.597232,-10584.944971,919.314598
443.730567,2368.659014,-9844.739029,766.095498
443.730891,1480.411884,-8956.491898,0.000000
443.731215,0.000000,-7920.203579,-766.095498
443.731539,-592.164754,-7846.182985,-919.314598
443.731863,74.020594,-7994.224174,-1149.143247
443.732187,1998.556043,-8734.430116,-995.924147
443.732511,2664.741391,-10436.903782,-459.657299
443.732836,2072.576638,-11769.274478,-383.047749
443.733160,444.123565,-11917.315666,-383.047749
443.733484,-1406.391290,-11917.315666,-383.047749
443.733808,-3330.926739,-10658.965565,-459.657299
443.734132,-2812.782580,-10066.800811,229.828649
443.734456,-666.185348,-10066.800811,1225.752797
443.734780,962.267725,-10436.903782,1455.581446
443.735104,1628.453072,-9622.677246,1455.581446
443.735428,1332.370696,-8512.368333,766.095498
443.735752,222.061783,-7402.059420,766.095498
443.736076,-222.061783,-7105.977043,76.609550
443.736400,444.123565,-7624.121203,-612.876398
443.736725,740.205942,-8068.244768,-383.047749
443.737049,1110.308913,-9548.656652,-153.219100
443.737373,740.205942,-11103.089130,-306.438199
443.737697,-518.144159,-11103.089130,-383.047749
443.738021,-2146.597232,-10288.862594,-459.657299
443.738345,-2886.803174,-9844.739029,-306.438199
443.738669,-1554.432478,-9770.718434,0.000000
443.738993,148.041188,-9844.739029,919.314598
443.739317,1924.535449,-10066.800811,1608.800546
443.739641,1924.535449,-9844.739029,1532.190996
443.739965,1628.453072,-8956.491898,1455.581446
443.740289,814.226536,-8216.285956,612.876398
443.740614,0.000000,-8142.265362,-153.219100
443.740938,222.061783,-7994.224174,0.000000
443.741262,1776.494261,-8956.491898,0.000000
443.741586,2368.659014,-10510.924376,-306.438199
443.741910,1628.453072,-11399.171507,-383.047749
443.742234,148.041188,-11843.295072,-536.266849
443.742558,-1776.494261,-11251.130318,-842.705048
443.742882,-2812.782580,-10881.027347,-766.095498
443.743206,-2368.659014,-10362.883188,76.609550
443.743530,-444.123565,-10362.883188,1072.533697
443.743854,1554.432478,-10140.821405,1762.019645
443.744178,2146.597232,-9918.759623,1762.019645
443.744503,1628.453072,-9104.533087,1378.971896
443.744827,666.185348,-7994.224174,536.266849
443.745151,-222.061783,-7476.080014,0.000000
443.745475,148.041188,-7846.182985,0.000000
443.745799,1332.370696,-8808.450710,76.609550
443.746123,1480.411884,-9844.739029,0.000000
443.746447,296.082377,-10510.924376,0.000000
443.746771,-1480.411884,-10732.986159,-1302.362347
443.747095,-3627.009116,-10362.883188,-1302.362347
443.747419,-4811.338623,-9918.759623,-1072.533697
443.747743,-3923.091493,-9548.656652,-689.485948
443.748067,-1776.494261,-9252.574275,919.314598
443.748392,518.144159,-9622.677246,1378.971896
443.748716,1850.514855,-9770.718434,1455.581446
443.749040,666.185348,-8808.450710,1302.362347
443.749364,-296.082377,-7994.224174,229.828649
443.749688,-962.267725,-7624.121203,-459.657299
443.750012,-296.082377,-8068.244768,-536.266849
443.750336,1110.308913,-8882.471304,-459.657299
443.750660,1850.514855,-9770.718434,-306.438199
443.750984,1924.535449,-11621.233289,-306.438199
443.751308,-148.041188,-11695.253884,-766.095498
443.751632,-1554.432478,-10955.047942,-1302.362347
443.751956,-3108.864956,-10288.862594,-1455.581446
443.752281,-3108.864956,-9770.718434,-995.924147
443.752605,-1332.370696,-9992.780217,0.000000
443.752929,296.082377,-10362.883188,1149.143247
443.753253,1480.411884,-9918.759623,689.485948
443.753577,1258.350101,-8734.430116,229.828649
443.753901,740.205942,-7920.203579,-229.828649
443.754225,148.041188,-7920.203579,-919.314598
443.754549,592.164754,-8586.388927,-1225.752797
443.754873,962.267725,-9252.574275,-1225.752797
443.755197,1332.370696,-10732.986159,-1378.971896
443.755521,1036.288319,-12139.377449,-1149.143247
443.755846,0.000000,-11843.295072,-766.095498
443.756170,-1628.453072,-11991.336260,-1225.752797
443.756494,-2812.782580,-11029.068536,-1915.238745
443.756818,-2294.638420,-10584.944971,-1378.971896
443.757142,-222.061783,-10732.986159,-612.876398
443.757466,1702.473667,-10881.027347,383.047749
443.757790,2294.638420,-10214.842000,995.924147
443.758114,1406.391290,-8438.347739,229.828649
443.758438,592.164754,-8068.244768,-306.438199
443.758762,-296.082377,-7624.121203,-766.095498
443.759086,296.082377,-7994.224174,-842.705048
443.759410,1702.473667,-8734.430116,-459.657299
443.759735,2516.700203,-9474.636058,-459.657299
443.760059,2368.659014,-10658.965565,-229.828649
443.760383,814.226536,-11251.130318,-689.485948
443.760707,-1184.329507,-10881.027347,-459.657299
443.761031,-3034.844362,-10362.883188,-1072.533697
443.761355,-2738.761985,-10510.924376,-536.266849
443.761679,-888.247130,-10362.883188,306.438199
443.762003,1036.288319,-10288.862594,919.314598
443.762327,2368.659014,-9918.759623,1608.800546
443.762651,1850.514855,-8734.430116,919.314598
443.762975,444.123565,-7772.162391,153.219100
443.763299,-814.226536,-7550.100608,153.219100
443.763624,-740.205942,-7846.182985,0.000000
443.763948,0.000000,-8660.409521,0.000000
443.764272,518.144159,-9474.636058,0.000000
443.764596,222.061783,-10510.924376,153.219100
443.764920,-1258.350101,-10584.944971,0.000000
443.765244,-2664.741391,-10066.800811,-459.657299
443.765568,-3775.050304,-9474.636058,-306.438199
443.765892,-3552.988522,-9030.512492,383.047749
443.766216,-1628.453072,-9252.574275,1149.143247
443.766540,888.247130,-9770.718434,1762.019645
443.766864,1702.473667,-9622.677246,1915.238745
443.767188,1554.432478,-8734.430116,1302.362347
443.767513,666.185348,-7920.203579,919.314598
443.767837,-296.082377,-8290.306550,229.828649
443.768161,-148.041188,-8364.327145,229.828649
443.768485,740.205942,-8808.450710,306.438199
443.768809,2220.617826,-10140.821405,229.828649
443.769133,2146.597232,-11917.315666,153.219100
443.769457,1036.288319,-12435.459826,-153.219100
443.769781,-1036.288319,-11917.315666,-536.266849
443.770105,-2294.638420,-11695.253884,229.828649
443.770429,-2960.823768,-10807.006753,612.876398
443.770753,-1776.494261,-10658.965565,612.876398
443.771077,222.061783,-10510.924376,1072.533697
443.771402,1628.453072,-10288.862594,1915.238745
443.771726,1776.494261,-9400.615463,766.095498
443.772050,740.205942,-8586.388927,76.609550
443.772374,-222.061783,-7624.121203,-459.657299
443.772698,-222.061783,-7476.080014,-995.924147
443.773022,592.164754,-7920.203579,-919.314598
443.773346,1776.494261,-9030.512492,-153.219100
443.773670,1850.514855,-9992.780217,-306.438199
443.773994,592.164754,-10807.006753,-383.047749
443.774318,-888.247130,-10362.883188,-612.876398
443.774642,-2516.700203,-9696.697840,-229.828649
443.774966,-2368.659014,-9252.574275,-229.828649
443.775291,-1036.288319,-9252.574275,383.047749
443.775615,962.267725,-9474.636058,1225.752797
443.775939,1702.473667,-9326.594869,1378.971896
443.776263,1184.329507,-8512.368333,1149.143247
443.776587,0.000000,-8068.244768,0.000000
443.776911,-1184.329507,-7772.162391,-995.924147
443.777235,-1554.432478,-7698.141797,-1302.362347
443.777559,-518.144159,-8586.388927,-1302.362347
443.777883,1628.453072,-9622.677246,-1455.581446
443.778207,2812.782580,-11029.068536,-536.266849
443.778531,2220.617826,-11621.233289,-919.314598
443.778855,222.061783,-11029.068536,-842.705048
443.779180,-2294.638420,-10807.006753,-1302.362347
443.779504,-3404.947333,-10436.903782,-1455.581446
443.779828,-2664.741391,-10140.821405,-612.876398
443.780152,-888.247130,-10510.924376,153.219100
443.780476,888.247130,-10436.903782,995.924147
443.780800,1554.432478,-9770.718434,842.705048
443.781124,1702.473667,-9030.512492,-383.047749
443.781448,592.164754,-8290.306550,-1302.362347
443.781772,370.102971,-8512.368333,-1225.752797
443.782096,1036.288319,-9548.656652,-1149.143247
443.782420,1776.494261,-10584.944971,-995.924147
443.782744,2220.617826,-11843.295072,-459.657299
443.783069,1036.288319,-12287.418637,-612.876398
443.783393,-1258.350101,-11769.274478,-1532.190996
443.783717,-2960.823768,-10955.047942,-919.314598
443.784041,-3552.988522,-10584.944971,-842.705048
443.784365,-2516.700203,-10066.800811,0.000000
443.784689,-222.061783,-10066.800811,306.438199
443.785013,148.041188,-9770.718434,766.095498
443.785337,296.082377,-9178.553681,612.876398
443.785661,-148.041188,-8290.306550,612.876398
443.785985,-888.247130,-7254.018232,0.000000
443.786309,-740.205942,-7402.059420,-383.047749
443.786634,888.247130,-8216.285956,-153.219100
443.786958,3108.864956,-9178.553681,76.609550
443.787282,3701.029710,-10214.842000,383.047749
443.787606,2590.720797,-11103.089130,306.438199
443.787930,444.123565,-11251.130318,306.438199
443.788254,-1554.432478,-10362.883188,153.219100
443.788578,-2738.761985,-9696.697840,76.609550
443.788902,-1480.411884,-9696.697840,689.485948
443.789226,740.205942,-9770.718434,1455.581446
443.789550,2368.659014,-9696.697840,1991.848295
443.789874,2294.638420,-8808.450710,1762.019645
443.790198,962.267725,-8364.327145,1072.533697
443.790523,-962.267725,-7402.059420,76.609550
443.790847,-1850.514855,-7254.018232,-153.219100
443.791171,-1332.370696,-8216.285956,0.000000
443.791495,148.041188,-9252.574275,153.219100
443.791819,1036.288319,-10214.842000,0.000000
443.792143,148.041188,-10658.965565,0.000000
443.792467,-1184.329507,-10288.862594,-536.266849
443.792791,-2960.823768,-9696.697840,-689.485948
443.793115,-3997.112087,-9622.677246,-689.485948
443.793439,-2960.823768,-9474.636058,0.000000
443.793763,-1480.411884,-9548.656652,842.705048
443.794087,296.082377,-10066.800811,1225.752797
443.794412,888.247130,-9474.636058,1072.533697
443.794736,592.164754,-8364.327145,229.828649
443.795060,444.123565,-7920.203579,459.657299
443.795384,-814.226536,-8216.285956,-229.828649
443.795708,666.185348,-9252.574275,76.609550
443.796032,1702.473667,-10140.821405,-306.438199
443.796356,2516.700203,-11621.233289,-306.438199
443.796680,2294.638420,-12657.521608,-459.657299
443.797004,444.123565,-11991.336260,-995.924147
443.797328,-1702.473667,-11103.089130,-1532.190996
443.797652,-2516.700203,-10658.965565,-1225.752797
443.797976,-2294.638420,-10362.883188,-995.924147
443.798301,-444.123565,-10362.883188,612.876398
443.798625,740.205942,-10436.903782,306.438199
443.798949,1110.308913,-9992.780217,536.266849
443.799273,1110.308913,-9104.533087,153.219100
443.799597,740.205942,-8438.347739,-229.828649
443.799921,592.164754,-7920.203579,-612.876398
443.800245,1036.288319,-7994.224174,-612.876398
443.800569,2072.576638,-9548.656652,-612.876398
443.800893,2738.761985,-10807.006753,-153.219100
443.801217,1480.411884,-11621.233289,-383.047749
443.801541,-370.102971,-11325.150913,-459.657299
443.801865,-2368.659014,-10436.903782,-1072.533697
443.802190,-3404.947333,-9474.636058,-689.485948
443.802514,-2442.679609,-8882.471304,-612.876398
443.802838,-740.205942,-8956.491898,612.876398
443.803162,666.185348,-9104.533087,842.705048
443.803486,1184.329507,-8660.409521,1302.362347
443.803810,592.164754,-7846.182985,383.047749
443.804134,-518.144159,-7179.997637,153.219100
443.804458,-888.247130,-7476.080014,-306.438199
443.804782,0.000000,-8290.306550,-459.657299
443.805106,222.061783,-8586.388927,-383.047749
443.805430,1702.473667,-9844.739029,229.828649
443.805754,1998.556043,-11399.171507,0.000000
443.806079,666.185348,-11769.274478,-306.438199
443.806403,-1480.411884,-10955.047942,-612.876398
443.806727,-2886.803174,-10140.821405,-842.705048
443.807051,-2442.679609,-10066.800811,0.000000
443.807375,-296.082377,-10140.821405,842.705048
443.807699,1332.370696,-9992.780217,1302.362347
443.808023,2368.659014,-9992.780217,1532.190996
443.808347,1776.494261,-9030.512492,383.047749
443.808671,666.185348,-8068.244768,-229.828649
443.808995,-74.020594,-7994.224174,-612.876398
443.809319,74.020594,-8882.471304,0.000000
443.809643,1776.494261,-9326.594869,-459.657299
443.809968,2072.576638,-10807.006753,0.000000
443.810292,1776.494261,-11399.171507,0.000000
443.810616,666.185348,-11769.274478,0.000000
443.810940,-1702.473667,-10955.047942,-306.438199
443.811264,-3256.906145,-10436.903782,-612.876398
443.811588,-3330.926739,-9992.780217,-76.609550
443.811912,-1850.514855,-9992.780217,153.219100
443.812236,0.000000,-10066.800811,1149.143247
443.812560,1480.411884,-9918.759623,842.705048
443.812884,1036.288319,-8882.471304,383.047749
443.813208,-148.041188,-7698.141797,-153.219100
443.813532,-1110.308913,-7920.203579,-306.438199
443.813857,-666.185348,-8438.347739,-612.876398
443.814181,740.205942,-9104.533087,0.000000
443.814505,2146.597232,-9918.759623,229.828649
443.814829,2368.659014,-11325.150913,153.219100
443.815153,1110.308913,-11251.130318,76.609550
443.815477,-1110.308913,-10436.903782,-383.047749
443.815801,-2812.782580,-9992.780217,-689.485948
443.816125,-2664.741391,-9622.677246,0.000000
443.816449,-1110.308913,-9474.636058,306.438199
443.816773,370.102971,-9030.512492,919.314598
443.817097,1480.411884,-8512.368333,842.705048
443.817421,888.247130,-8290.306550,842.705048
443.817746,-222.061783,-7624.121203,0.000000
443.818070,-888.247130,-7624.121203,-766.095498
443.818394,-222.061783,-7698.141797,-383.047749
443.818718,1110.308913,-8882.471304,-459.657299
443.819042,1924.535449,-10436.903782,0.000000
443.819366,1480.411884,-11325.150913,383.047749
443.819690,-222.061783,-11917.315666,-689.485948
443.820015,-2146.597232,-11325.150913,-612.876398
443.820339,-3478.967927,-10436.903782,-995.924147
443.820663,-3108.864956,-10436.903782,-536.266849
443.820987,-1554.432478,-10510.924376,0.000000
443.821311,0.000000,-10288.862594,383.047749
443.821635,962.267725,-9992.780217,612.876398
443.821960,740.205942,-9252.574275,459.657299
443.822284,-444.123565,-8438.347739,-766.095498
443.822608,-1184.329507,-7994.224174,-766.095498
443.822932,-222.061783,-8216.285956,-1838.629195
443.823256,1036.288319,-8956.491898,-1072.533697
443.823580,2220.617826,-10214.842000,-919.314598
443.823905,2220.617826,-11547.212695,-306.438199
443.824229,1110.308913,-11695.253884,0.000000
443.824553,-888.247130,-11177.109724,-842.705048
443.824877,-3256.906145,-10732.986159,-1685.410096
443.825201,-2442.679609,-10362.883188,-1072.533697
443.825525,-888.247130,-10510.924376,0.000000
443.825850,1406.391290,-10436.903782,919.314598
443.826174,2294.638420,-9844.739029,1225.752797
443.826498,2072.576638,-9326.594869,612.876398
443.826822,1258.350101,-8290.306550,-153.219100
443.827146,0.000000,-7994.224174,-536.266849
443.827470,-222.061783,-8438.347739,-842.705048
443.827795,1110.308913,-9252.574275,-995.924147
443.828119,2146.597232,-10140.821405,-536.266849
443.828443,2220.617826,-11251.130318,0.000000
443.828767,1036.288319,-11547.212695,0.000000
443.829091,-888.247130,-10807.006753,-383.047749
443.829415,-2368.659014,-9918.759623,-1225.752797
443.829739,-2812.782580,-9104.533087,229.828649
443.830064,-740.205942,-9104.533087,995.924147
443.830388,888.247130,-9474.636058,1532.190996
443.830712,1628.453072,-9326.594869,2068.457845
443.831036,1258.350101,-8364.327145,1149.143247
443.831360,-296.082377,-7179.997637,229.828649
443.831684,-1184.329507,-7105.977043,229.828649
443.832009,-1628.453072,-7920.203579,0.000000
443.832333,74.020594,-8438.347739,0.000000
443.832657,1110.308913,-9474.636058,306.438199
443.832981,1554.432478,-10732.986159,612.876398
443.833305,518.144159,-11547.212695,459.657299
443.833629,-962.267725,-11029.068536,153.219100
443.833954,-2886.803174,-10214.842000,0.000000
443.834278,-3182.885551,-10066.800811,153.219100
443.834602,-1998.556043,-10066.800811,842.705048
443.834926,666.185348,-10140.821405,1838.629195
443.835250,1332.370696,-10140.821405,1915.238745
443.835574,1110.308913,-9400.615463,1225.752797
443.835899,0.000000,-8438.347739,229.828649
443.836223,-1184.329507,-8290.306550,-76.609550
443.836547,-814.226536,-8438.347739,-153.219100
443.836871,296.082377,-8660.409521,-689.485948
443.837195,2294.638420,-9696.697840,153.219100
443.837519,1998.556043,-11103.089130,76.609550
443.837844,962.267725,-11843.295072,76.609550
443.838168,-1036.288319,-11103.089130,-306.438199
443.838492,-2516.700203,-10510.924376,-766.095498
443.838816,-2590.720797,-9992.780217,-612.876398
443.839140,-1036.288319,-9918.759623,766.095498
443.839464,740.205942,-9622.677246,1302.362347
443.839789,1998.556043,-10214.842000,1378.971896
443.840113,1480.411884,-9696.697840,842.705048
443.840437,74.020594,-8660.409521,0.000000
443.840761,-1184.329507,-8142.265362,-842.705048
443.841085,-1554.432478,-7994.224174,-1302.362347
443.841409,-444.123565,-8734.430116,-1149.143247
443.841733,1406.391290,-9992.780217,-995.924147
443.842058,1628.453072,-11325.150913,0.000000
443.842382,962.267725,-11547.212695,-919.314598
443.842706,-518.144159,-11103.089130,-919.314598
443.843030,-2368.659014,-10066.800811,-1302.362347
443.843354,-2590.720797,-9696.697840,-919.314598
443.843678,-1184.329507,-10066.800811,153.219100
443.844003,592.164754,-9918.759623,689.485948
443.844327,2442.679609,-9548.656652,1455.581446
443.844651,2368.659014,-9252.574275,1072.533697
443.844975,1554.432478,-8512.368333,-306.438199
443.845299,0.000000,-7994.224174,-1149.143247
443.845623,-592.164754,-8142.265362,-1149.143247
443.845948,296.082377,-8808.450710,-1225.752797
443.846272,1332.370696,-9474.636058,-842.705048
443.846596,2368.659014,-11325.150913,-459.657299
443.846920,962.267725,-11103.089130,-689.485948
443.847244,-1184.329507,-11695.253884,-1149.143247
443.847568,-3182.885551,-10436.903782,-1608.800546
443.847893,-3923.091493,-9696.697840,-1225.752797
443.848217,-2368.659014,-9474.636058,-536.266849
443.848541,-444.123565,-9622.677246,306.438199
443.848865,1110.308913,-9474.636058,612.876398
443.849189,962.267725,-8956.491898,612.876398
443.849513,1110.308913,-8290.306550,76.609550
443.849838,-518.144159,-7920.203579,-383.047749
443.850162,-592.164754,-8068.244768,-536.266849
443.850486,148.041188,-8512.368333,-766.095498
443.850810,1258.350101,-9474.636058,-459.657299
443.851134,2220.617826,-11103.089130,0.000000
443.851458,1332.370696,-11695.253884,229.828649
443.851782,-222.061783,-11399.171507,-536.266849
443.852107,-2368.659014,-10658.965565,-766.095498
443.852431,-3256.906145,-10140.821405,-689.485948
443.852755,-2368.659014,-10066.800811,-459.657299
443.853079,-666.185348,-9918.759623,536.266849
443.853403,1258.350101,-10066.800811,689.485948
443.853727,2220.617826,-9844.739029,1378.971896
443.854052,1332.370696,-8808.450710,383.047749
443.854376,222.061783,-8438.347739,-229.828649
443.854700,-222.061783,-8512.368333,-459.657299
443.855024,222.061783,-9252.574275,-306.438199
443.855348,1332.370696,-10140.821405,0.000000
443.855672,2072.576638,-11251.130318,229.828649
443.855997,1480.411884,-11843.295072,536.266849
443.856321,444.123565,-11917.315666,536.266849
443.856645,-2072.576638,-10584.944971,0.000000
443.856969,-2368.659014,-10066.800811,-383.047749
443.857293,-1924.535449,-8734.430116,919.314598
443.857617,-296.082377,-9030.512492,1378.971896
443.857942,1258.350101,-9104.533087,1455.581446
443.858266,1110.308913,-8586.388927,1225.752797
443.858590,0.000000,-7550.100608,612.876398
443.858914,-1110.308913,-6735.874072,0.000000
443.859238,-1924.535449,-6883.915261,-995.924147
443.859562,-888.247130,-7402.059420,-229.828649
443.859887,518.144159,-8586.388927,0.000000
443.860211,1406.391290,-9992.780217,229.828649
443.860535,1184.329507,-11251.130318,306.438199
443.860859,-148.041188,-11473.192101,0.000000
443.861183,-1776.494261,-11177.109724,306.438199
443.861507,-2812.782580,-9770.718434,306.438199
443.861832,-1998.556043,-10214.842000,459.657299
443.862156,-666.185348,-9770.718434,689.485948
443.862480,1036.288319,-10140.821405,1455.581446
443.862804,1702.473667,-9844.739029,919.314598
443.863128,1184.329507,-9104.533087,229.828649
443.863452,666.185348,-9030.512492,-306.438199
443.863776,-518.144159,-8142.265362,-919.314598
443.864101,814.226536,-8882.471304,-612.876398
443.864425,1554.432478,-9326.594869,-229.828649
443.864749,2072.576638,-10732.986159,-306.438199
443.865073,1480.411884,-11843.295072,0.000000
443.865397,-148.041188,-11621.233289,-383.047749
443.865721,-1776.494261,-10807.006753,-612.876398
443.866046,-2368.659014,-10140.821405,0.000000
443.866370,-1702.473667,-9844.739029,0.000000
443.866694,148.041188,-9770.718434,919.314598
443.867018,1702.473667,-10066.800811,1149.143247
443.867342,1998.556043,-9622.677246,919.314598
443.867666,1036.288319,-8882.471304,153.219100
443.867991,-222.061783,-8142.265362,-612.876398
443.868315,-1110.308913,-8216.285956,-1225.752797
443.868639,-666.185348,-8882.471304,-153.219100
443.868963,1110.308913,-9252.574275,-536.266849
443.869287,1776.494261,-10288.862594,0.000000
443.869611,1184.329507,-11621.233289,-153.219100
443.869936,0.000000,-11177.109724,-383.047749
443.870260,-1702.473667,-10732.986159,-995.924147
443.870584,-3182.885551,-10214.842000,-612.876398
443.870908,-2368.659014,-9548.656652,-306.438199
443.871232,-1036.288319,-9030.512492,842.705048
443.871556,666.185348,-9474.636058,842.705048
443.871881,1850.514855,-9178.553681,919.314598
443.872205,888.247130,-8364.327145,229.828649
443.872529,0.000000,-7624.121203,-689.485948
443.872853,-592.164754,-7179.997637,-1302.362347
443.873177,0.000000,-7550.100608,-995.924147
443.873501,1554.432478,-8734.430116,-689.485948
443.873825,2738.761985,-10288.862594,0.000000
443.874150,1998.556043,-11621.233289,-536.266849
443.874474,148.041188,-11769.274478,-766.095498
443.874798,-1998.556043,-11547.212695,-919.314598
443.875122,-2886.803174,-11399.171507,-766.095498
443.875446,-1924.535449,-11177.109724,306.438199
443.875770,-296.082377,-10510.924376,689.485948
443.876095,1702.473667,-10510.924376,1915.238745
443.876419,1998.556043,-10362.883188,1378.971896
443.876743,1184.329507,-9622.677246,383.047749
443.877067,-222.061783,-8586.388927,-153.219100
443.877391,-1110.308913,-8142.265362,-459.657299
443.877715,-592.164754,-8068.244768,-919.314598
443.878040,370.102971,-8660.409521,-689.485948
443.878364,1554.432478,-9992.780217,-306.438199
443.878688,1850.514855,-11177.109724,0.000000
443.879012,296.082377,-11177.109724,0.000000
443.879336,-1850.514855,-10362.883188,-536.266849
443.879660,-3182.885551,-9696.697840,-459.657299
443.879985,-2960.823768,-9400.615463,0.000000
443.880309,-1184.329507,-9326.594869,1072.533697
443.880633,666.185348,-9622.677246,1838.629195
443.880957,1776.494261,-9622.677246,1838.629195
443.881281,1406.391290,-8586.388927,1149.143247
443.881605,222.061783,-7550.100608,766.095498
443.881930,-296.082377,-7476.080014,306.438199
443.882254,148.041188,-8142.265362,0.000000
443.882578,1036.288319,-8956.491898,0.000000
443.882902,2368.659014,-10066.800811,306.438199
443.883226,1924.535449,-11325.150913,306.438199
443.883550,148.041188,-10955.047942,0.000000
443.883875,-2146.597232,-10807.006753,-689.485948
443.884199,-3627.009116,-9918.759623,-689.485948
443.884523,-3552.988522,-9326.594869,-153.219100
443.884847,-1776.494261,-8956.491898,383.047749
443.885171,666.185348,-9548.656652,1608.800546
443.885495,1554.432478,-9104.533087,1838.629195
443.885819,592.164754,-8660.409521,919.314598
443.886144,0.000000,-7476.080014,-459.657299
443.886468,-1258.350101,-7772.162391,-383.047749
443.886792,-814.226536,-8068.244768,-689.485948
443.887116,592.164754,-8956.491898,-612.876398
443.887440,2220.617826,-10436.903782,0.000000
443.887764,2220.617826,-11843.295072,0.000000
443.888089,1480.411884,-12879.583391,0.000000
443.888413,-740.205942,-11177.109724,-459.657299
443.888737,-2368.659014,-10510.924376,-1302.362347
443.889061,-2442.679609,-10584.944971,-766.095498
443.889385,-1332.370696,-10510.924376,0.000000
443.889709,74.020594,-10881.027347,919.314598
443.890034,814.226536,-10288.862594,1455.581446
443.890358,962.267725,-9622.677246,459.657299
443.890682,-370.102971,-8290.306550,-612.876398
443.891006,-1036.288319,-7846.182985,-612.876398
443.891330,-148.041188,-8290.306550,-919.314598
443.891654,1258.350101,-9030.512492,-536.266849
443.891979,2146.597232,-9992.780217,-459.657299
443.892303,1776.494261,-10955.047942,0.000000
443.892627,518.144159,-11473.192101,-459.657299
443.892951,-1480.411884,-10584.944971,-919.314598
443.893275,-3256.906145,-9918.759623,-1532.190996
443.893599,-3330.926739,-9474.636058,-919.314598
443.893924,-1480.411884,-9622.677246,0.000000
443.894248,814.226536,-9844.739029,766.095498
443.894572,1850.514855,-9770.718434,1302.362347
443.894896,1628.453072,-9104.533087,842.705048
443.895220,962.267725,-8586.388927,76.609550
443.895544,-222.061783,-7772.162391,-842.705048
443.895868,74.020594,-8216.285956,-459.657299
443.896193,1480.411884,-8882.471304,-306.438199
443.896517,2368.659014,-10214.842000,-383.047749
443.896841,2294.638420,-11547.212695,-306.438199
443.897165,592.164754,-11621.233289,-536.266849
443.897489,-1332.370696,-10955.047942,-995.924147
443.897813,-2812.782580,-10658.965565,-919.314598
443.898138,-3108.864956,-10066.800811,-766.095498
443.898462,-2146.597232,-9696.697840,76.609550
443.898786,-296.082377,-9770.718434,919.314598
443.899110,740.205942,-9992.780217,1072.533697
443.899434,962.267725,-9030.512492,842.705048
443.899758,666.185348,-7772.162391,153.219100
443.900083,148.041188,-7846.182985,-153.219100
443.900407,222.061783,-8142.265362,-689.485948
443.900731,1628.453072,-8438.347739,-306.438199
443.901055,2368.659014,-10066.800811,-306.438199
443.901379,2590.720797,-11621.233289,-459.657299
443.901703,1332.370696,-11991.336260,-459.657299
443.902028,-592.164754,-11695.253884,-612.876398
443.902352,-2516.700203,-10584.944971,-842.705048
443.902676,-3182.885551,-10066.800811,-459.657299
443.903000,-1554.432478,-10066.800811,689.485948
443.903324,296.082377,-10214.842000,1302.362347
443.903648,1628.453072,-10436.903782,1455.581446
443.903973,1332.370696,-9474.636058,766.095498
443.904297,74.020594,-8290.306550,229.828649
443.904621,-518.144159,-8216.285956,-842.705048
443.904945,-666.185348,-7994.224174,76.609550
443.905269,74.020594,-8660.409521,0.000000
443.905593,1110.308913,-9622.677246,-612.876398
443.905918,1776.494261,-10807.006753,0.000000
443.906242,1110.308913,-11843.295072,0.000000
443.906566,-296.082377,-11325.150913,-383.047749
443.906890,-2442.679609,-9844.739029,-229.828649
443.907214,-3256.906145,-9474.636058,-459.657299
443.907538,-2442.679609,-8586.388927,229.828649
443.907862,-740.205942,-9252.574275,995.924147
443.908187,222.061783,-9474.636058,1302.362347
443.908511,592.164754,-9104.533087,1072.533697
443.908835,74.020594,-8068.244768,153.219100
443.909159,-666.185348,-7179.997637,-459.657299
443.909483,-888.247130,-7402.059420,-536.266849
443.909807,740.205942,-8586.388927,-306.438199
443.910132,1850.514855,-9770.718434,76.609550
443.910456,1924.535449,-10436.903782,229.828649
443.910780,1332.370696,-11843.295072,-153.219100
443.911104,-592.164754,-11399.171507,-459.657299
443.911428,-2294.638420,-11029.068536,-1149.143247
443.911752,-2812.782580,-10140.821405,-536.266849
443.912077,-1776.494261,-10066.800811,306.438199
443.912401,222.061783,-9992.780217,1302.362347
443.912725,1480.411884,-9474.636058,919.314598
443.913049,1332.370696,-9400.615463,842.705048
443.913373,740.205942,-8660.409521,153.219100
443.913697,-222.061783,-8068.244768,-383.047749
443.914022,-444.123565,-7772.162391,-383.047749
443.914346,370.102971,-8142.265362,-536.266849
443.914670,1998.556043,-9548.656652,-153.219100
443.914994,2960.823768,-10881.027347,153.219100
443.915318,1776.494261,-11769.274478,-536.266849
443.915642,-592.164754,-11399.171507,-689.485948
443.915967,-2294.638420,-10436.903782,-842.705048
443.916291,-2886.803174,-10214.842000,-536.266849
443.916615,-1480.411884,-10066.800811,0.000000
443.916939,444.123565,-10140.821405,689.485948
443.917263,1776.494261,-9844.739029,995.924147
443.917587,2294.638420,-9474.636058,1149.143247
443.917911,1110.308913,-8956.491898,229.828649
443.918236,0.000000,-8216.285956,-459.657299
443.918560,-592.164754,-8290.306550,-995.924147
443.918884,0.000000,-8808.450710,-919.314598
443.919208,1184.329507,-9474.636058,-383.047749
443.919532,1702.473667,-11325.150913,-153.219100
443.919856,1776.494261,-12213.398043,0.000000
443.920180,-296.082377,-11917.315666,-1225.752797
443.920504,-2368.659014,-11029.068536,-536.266849
443.920828,-3256.906145,-10510.924376,-383.047749
443.921153,-2072.576638,-10214.842000,153.219100
443.921477,-296.082377,-9992.780217,842.705048
443.921801,1184.329507,-9474.636058,1149.143247
443.922125,1924.535449,-8882.471304,1225.752797
443.922449,1110.308913,-7846.182985,76.609550
443.922773,296.082377,-7402.059420,-153.219100
443.923097,-222.061783,-7402.059420,-459.657299
443.923421,518.144159,-8068.244768,-306.438199
443.923745,1776.494261,-8734.430116,-383.047749
443.924069,2294.638420,-9770.718434,0.000000
443.924393,1406.391290,-11103.089130,-306.438199
443.924717,74.020594,-11103.089130,-459.657299
443.925042,-1998.556043,-10510.924376,-1149.143247
443.925366,-3330.926739,-9844.739029,-306.438199
443.925690,-2886.803174,-9622.677246,76.609550
443.926014,-1036.288319,-9696.697840,766.095498
443.926338,518.144159,-10214.842000,1608.800546
443.926662,1406.391290,-9770.718434,1915.238745
443.926986,888.247130,-8512.368333,1072.533697
443.927310,-592.164754,-7402.059420,-306.438199
443.927634,-814.226536,-7994.224174,-689.485948
443.927958,-444.123565,-8364.327145,-766.095498
443.928282,962.267725,-9474.636058,-612.876398
443.928607,1702.473667,-10732.986159,0.000000
443.928931,962.267725,-11695.253884,76.609550
443.929255,-518.144159,-11177.109724,-153.219100
443.929579,-2516.700203,-10584.944971,-1072.533697
443.929903,-3552.988522,-10066.800811,-459.657299
443.930227,-2368.659014,-9844.739029,229.828649
443.930551,0.000000,-9918.759623,919.314598
443.930875,2072.576638,-9918.759623,1762.019645
443.931199,2590.720797,-9474.636058,1762.019645
443.931523,1628.453072,-8364.327145,995.924147
443.931847,148.041188,-8290.306550,229.828649
443.932171,-1258.350101,-7846.182985,-995.924147
443.932496,-962.267725,-8586.388927,-842.705048
443.932820,148.041188,-9622.677246,-919.314598
443.933144,1110.308913,-10732.986159,-689.485948
443.933468,962.267725,-11917.315666,-306.438199
443.933792,0.000000,-11991.336260,-766.095498
443.934116,-1998.556043,-11251.130318,-612.876398
443.934440,-3182.885551,-10658.965565,-766.095498
443.934764,-2516.700203,-9844.739029,0.000000
443.935088,-1258.350101,-9918.759623,459.657299
443.935412,148.041188,-10140.821405,919.314598
443.935736,962.267725,-9844.739029,1225.752797
443.936061,666.185348,-8216.285956,383.047749
443.936385,0.000000,-7105.977043,-459.657299
443.936709,-1184.329507,-6883.915261,-1149.143247
443.937033,0.000000,-7846.182985,-1302.362347
443.937357,1184.329507,-8364.327145,-1072.533697
443.937681,1702.473667,-9844.739029,-995.924147
443.938005,1258.350101,-10955.047942,-612.876398
443.938329,-148.041188,-11177.109724,-842.705048
443.938653,-1776.494261,-10436.903782,-1225.752797
443.938977,-2516.700203,-9696.697840,-995.924147
443.939301,-1850.514855,-9474.636058,-383.047749
443.939625,0.000000,-9844.739029,229.828649
443.939950,2072.576638,-10362.883188,919.314598
443.940274,2368.659014,-9844.739029,1072.533697
443.940598,2072.576638,-9178.553681,153.219100
443.940922,814.226536,-8438.347739,-766.095498
443.941246,-296.082377,-8660.409521,-766.095498
443.941570,74.020594,-9474.636058,-1378.971896
443.941894,1110.308913,-10214.842000,0.000000
443.942218,1924.535449,-10807.006753,-842.705048
443.942542,1924.535449,-11843.295072,-536.266849
443.942866,740.205942,-11843.295072,-689.485948
443.943190,-814.226536,-11399.171507,-1072.533697
443.943515,-2146.597232,-10658.965565,-919.314598
443.943839,-2220.617826,-9918.759623,-383.047749
443.944163,-592.164754,-9548.656652,0.000000
443.944487,1110.308913,-9252.574275,459.657299
443.944811,1924.535449,-9326.594869,919.314598
443.945135,1554.432478,-8438.347739,689.485948
443.945459,814.226536,-8142.265362,0.000000
443.945783,-148.041188,-7846.182985,-383.047749
443.946107,0.000000,-8142.265362,-766.095498
443.946431,666.185348,-8808.450710,-306.438199
443.946755,1332.370696,-10140.821405,-612.876398
443.947079,370.102971,-11621.233289,-153.219100
443.947404,-1036.288319,-11843.295072,229.828649
443.947728,-2960.823768,-11177.109724,-459.657299
443.948052,-4293.194464,-10214.842000,-459.657299
443.948376,-4219.173869,-9622.677246,0.000000
443.948700,-1924.535449,-9696.697840,919.314598
443.949024,-148.041188,-9696.697840,1532.190996
443.949348,1406.391290,-9400.615463,1532.190996
443.949672,1110.308913,-8512.368333,1302.362347
443.949996,148.041188,-8068.244768,459.657299
443.950320,-888.247130,-7550.100608,-229.828649
443.950644,-1184.329507,-7772.162391,-459.657299
443.950969,-296.082377,-8438.347739,-383.047749
443.951293,1332.370696,-9696.697840,76.609550
443.951617,1850.514855,-11621.233289,153.219100
443.951941,1850.514855,-11695.253884,76.609550
443.952265,0.000000,-10214.842000,-153.219100
443.952589,-1850.514855,-10066.800811,76.609550
443.952913,-1776.494261,-10066.800811,306.438199
443.953237,-296.082377,-9918.759623,995.924147
443.953561,1776.494261,-9844.739029,1302.362347
443.953885,2220.617826,-9770.718434,2068.457845
443.954209,1850.514855,-9030.512492,1378.971896
443.954533,888.247130,-8512.368333,306.438199
443.954858,-444.123565,-8216.285956,-459.657299
443.955182,-370.102971,-8438.347739,-306.438199
443.955506,370.102971,-9474.636058,-536.266849
443.955830,1036.288319,-10584.944971,-459.657299
443.956154,444.123565,-11399.171507,-536.266849
443.956478,-888.247130,-11843.295072,-612.876398
443.956802,-2738.761985,-10955.047942,-766.095498
443.957126,-3478.967927,-10288.862594,-306.438199
443.957450,-2960.823768,-9622.677246,-383.047749
443.957774,-888.247130,-9400.615463,536.266849
443.958098,1628.453072,-9400.615463,1225.752797
443.958423,2664.741391,-9178.553681,1378.971896
443.958747,2664.741391,-8586.388927,766.095498
443.959071,962.267725,-7698.141797,0.000000
443.959395,0.000000,-7402.059420,-919.314598
443.959719,-444.123565,-8068.244768,-995.924147
443.960043,370.102971,-8808.450710,-1149.143247
443.960367,1628.453072,-9474.636058,-689.485948
443.960691,1924.535449,-11103.089130,-612.876398
443.961015,962.267725,-11917.315666,-612.876398
443.961339,-370.102971,-11547.212695,-536.266849
443.961663,-2590.720797,-10732.986159,-1225.752797
443.961988,-2812.782580,-10066.800811,-612.876398
443.962312,-1480.411884,-9992.780217,0.000000
443.962636,370.102971,-10658.965565,689.485948
443.962960,1480.411884,-10658.965565,1072.533697
443.963284,1332.370696,-9844.739029,766.095498
443.963608,370.102971,-8660.409521,-229.828649
443.963932,-888.247130,-7550.100608,-1072.533697
443.964256,-740.205942,-8438.347739,-842.705048
443.964580,74.020594,-8956.491898,-612.876398
443.964904,1110.308913,-9918.759623,-1225.752797
443.965228,1406.391290,-11251.130318,-766.095498
443.965552,0.000000,-11251.130318,-612.876398
443.965877,-1332.370696,-10584.944971,-1149.143247
443.966201,-2516.700203,-10066.800811,-995.924147
443.966525,-2220.617826,-9474.636058,-459.657299
443.966849,0.000000,-9548.656652,995.924147
443.967173,1332.370696,-9696.697840,995.924147
443.967497,2516.700203,-9548.656652,1915.238745
443.967821,2738.761985,-8956.491898,1225.752797
443.968145,1702.473667,-8142.265362,306.438199
443.968469,-370.102971,-7846.182985,-766.095498
443.968793,-888.247130,-8142.265362,-1302.362347
443.969117,0.000000,-8956.491898,-383.047749
443.969442,1184.329507,-9696.697840,-229.828649
443.969766,2072.576638,-11843.295072,153.219100
443.970090,962.267725,-12435.459826,-306.438199
443.970414,-962.267725,-11843.295072,-459.657299
443.970738,-2368.659014,-10732.986159,-306.438199
443.971062,-2812.782580,-10066.800811,153.219100
443.971386,-1332.370696,-9548.656652,842.705048
443.971710,592.164754,-9548.656652,1838.629195
443.972034,1702.473667,-9548.656652,1838.629195
443.972358,1554.432478,-8882.471304,1608.800546
443.972682,444.123565,-8142.265362,306.438199
443.973006,-962.267725,-7031.956449,-153.219100
443.973331,-1332.370696,-7254.018232,-459.657299
443.973655,0.000000,-7920.203579,-306.438199
443.973979,1184.329507,-8660.409521,0.000000
443.974303,888.247130,-9770.718434,76.609550
443.974627,222.061783,-10658.965565,0.000000
443.974951,-1406.391290,-10510.924376,-306.438199
443.975275,-3330.926739,-9696.697840,-689.485948
443.975599,-3997.112087,-9326.594869,-612.876398
443.975923,-2516.700203,-9474.636058,383.047749
443.976247,0.000000,-9622.677246,1455.581446
443.976571,1850.514855,-9844.739029,1302.362347
443.976896,1998.556043,-9400.615463,995.924147
443.977220,592.164754,-8734.430116,306.438199
443.977544,-962.267725,-8734.430116,-459.657299
443.977868,-1776.494261,-9178.553681,-1378.971896
443.978192,-888.247130,-9770.718434,-1072.533697
443.978516,518.144159,-10436.903782,-612.876398
443.978840,1406.391290,-12213.398043,-536.266849
443.979164,1036.288319,-12139.377449,-766.095498
443.979488,-296.082377,-11843.295072,-1225.752797
443.979812,-1554.432478,-10881.027347,-1378.971896
443.980136,-2442.679609,-10066.800811,-1149.143247
443.980460,-1480.411884,-9696.697840,-766.095498
443.980785,148.041188,-9696.697840,76.609550
443.981109,1628.453072,-10066.800811,1072.533697
443.981433,2516.700203,-9770.718434,995.924147
443.981757,2368.659014,-9104.533087,-153.219100
443.982081,666.185348,-8364.327145,-689.485948
443.982405,518.144159,-7994.224174,-1225.752797
443.982729,1036.288319,-8808.450710,-459.657299
443.983053,1702.473667,-9992.780217,-536.266849
443.983377,1776.494261,-11251.130318,0.000000
443.983701,666.185348,-11769.274478,-612.876398
443.984025,-962.267725,-11547.212695,-766.095498
443.984350,-2368.659014,-10658.965565,-612.876398
443.984674,-2960.823768,-9844.739029,-1225.752797
443.984998,-1702.473667,-9548.656652,-306.438199
443.985322,74.020594,-9104.533087,612.876398
443.985646,1480.411884,-9474.636058,1225.752797
443.985970,1702.473667,-9104.533087,1378.971896
443.986294,592.164754,-8216.285956,536.266849
443.986618,-518.144159,-7476.080014,0.000000
443.986942,-1406.391290,-7624.121203,-306.438199
443.987266,0.000000,-8364.327145,-689.485948
443.987590,962.267725,-8660.409521,0.000000
443.987914,1998.556043,-9992.780217,76.609550
443.988239,1702.473667,-10881.027347,0.000000
443.988563,74.020594,-10881.027347,-229.828649
443.988887,-1776.494261,-10066.800811,-766.095498
443.989211,-2664.741391,-9474.636058,-383.047749
443.989535,-2368.659014,-9252.574275,0.000000
443.989859,0.000000,-10140.821405,766.095498
443.990183,1184.329507,-10066.800811,1455.581446
443.990507,1850.514855,-9992.780217,1302.362347
443.990831,814.226536,-8956.491898,383.047749
443.991155,-740.205942,-8290.306550,-459.657299
443.991479,-1184.329507,-8364.327145,-612.876398
443.991804,-148.041188,-9178.553681,-842.705048
443.992128,1406.391290,-10584.944971,76.609550
443.992452,2072.576638,-11399.171507,0.000000
443.992776,888.247130,-12065.356855,306.438199
443.993100,-592.164754,-11917.315666,-229.828649
443.993424,-2368.659014,-10955.047942,-612.876398
443.993748,-3256.906145,-10066.800811,-383.047749
443.994072,-2220.617826,-9696.697840,0.000000
443.994396,296.082377,-9622.677246,1608.800546
443.994720,1998.556043,-9252.574275,1915.238745
443.995044,2590.720797,-8956.491898,1455.581446
443.995368,1998.556043,-8364.327145,536.266849
443.995693,592.164754,-7920.203579,-153.219100
443.996017,-296.082377,-7550.100608,-459.657299
443.996341,74.020594,-8142.265362,-383.047749
443.996665,1258.350101,-8956.491898,-689.485948
443.996989,2072.576638,-10214.842000,-153.219100
443.997313,1850.514855,-11621.233289,0.000000
443.997637,444.123565,-11843.295072,-229.828649
443.997961,-1628.453072,-11029.068536,-612.876398
443.998285,-2960.823768,-10066.800811,-306.438199
443.998609,-2220.617826,-10066.800811,229.828649
443.998933,-740.205942,-9992.780217,306.438199
443.999258,740.205942,-10066.800811,1149.143247
443.999582,1110.308913,-9252.574275,1072.533697
443.999906,296.082377,-8956.491898,0.000000
444.000230,-962.267725,-8142.265362,-536.266849
444.000554,-1480.411884,-7772.162391,-919.314598
444.000878,-814.226536,-8438.347739,-1149.143247
444.001202,222.061783,-9104.533087,-689.485948
444.001526,1110.308913,-10140.821405,-1225.752797
444.001850,1036.288319,-11251.130318,153.219100
444.002174,0.000000,-11621.233289,-536.266849
444.002498,-2072.576638,-10288.862594,-842.705048
444.002822,-3108.864956,-9548.656652,-612.876398
444.003147,-2664.741391,-9548.656652,-306.438199
444.003471,-1110.308913,-9474.636058,76.609550
444.003795,444.123565,-9622.677246,842.705048
444.004119,1480.411884,-9178.553681,1149.143247
444.004443,962.267725,-8808.450710,153.219100
444.004767,74.020594,-8068.244768,-383.047749
444.005091,-666.185348,-7698.141797,-1072.533697
444.005415,0.000000,-8438.347739,-1302.362347
444.005739,1184.329507,-9474.636058,-1149.143247
444.006063,2072.576638,-10584.944971,-689.485948
444.006387,1924.535449,-11769.274478,-383.047749
444.006712,592.164754,-12361.439231,-536.266849
444.007036,-740.205942,-11843.295072,-459.657299
444.007360,-2664.741391,-10955.047942,-689.485948
444.007684,-2590.720797,-10140.821405,0.000000
444.008008,-814.226536,-10140.821405,689.485948
444.008332,1702.473667,-10436.903782,1072.533697
444.008656,2072.576638,-9474.636058,1762.019645
444.008980,2294.638420,-8808.450710,536.266849
444.009304,1332.370696,-7772.162391,0.000000
444.009628,-296.082377,-7846.182985,-1072.533697
444.009952,0.000000,-8216.285956,-1302.362347
444.010277,1258.350101,-8956.491898,-1072.533697
444.010601,2368.659014,-9770.718434,-459.657299
444.010925,2072.576638,-11103.089130,0.000000
444.011249,592.164754,-11621.233289,229.828649
444.011573,-1184.329507,-11029.068536,-306.438199
444.011897,-3034.844362,-9696.697840,-383.047749
444.012221,-3256.906145,-9474.636058,0.000000
444.012545,-1554.432478,-9474.636058,689.485948
444.012869,444.123565,-9770.718434,1378.971896
444.013193,1480.411884,-9474.636058,1762.019645
444.013517,1184.329507,-8216.285956,1378.971896
444.013841,0.000000,-7920.203579,76.609550
444.014166,-962.267725,-7624.121203,-459.657299
444.014490,-814.226536,-8364.327145,-1225.752797
444.014814,222.061783,-8956.491898,-1072.533697
444.015138,1850.514855,-10288.862594,-459.657299
444.015462,2442.679609,-11695.253884,0.000000
444.015786,1332.370696,-12065.356855,383.047749
444.016110,0.000000,-11621.233289,-306.438199
444.016434,-2146.597232,-9918.759623,0.000000
444.016758,-2442.679609,-9548.656652,229.828649
444.017082,-740.205942,-10066.800811,1149.143247
444.017406,1184.329507,-10066.800811,1838.629195
444.017731,2146.597232,-9548.656652,2221.676944
444.018055,2294.638420,-8660.409521,1378.971896
444.018379,370.102971,-7698.141797,612.876398
444.018703,-370.102971,-7772.162391,-689.485948
444.019027,-814.226536,-8512.368333,-842.705048
444.019351,-296.082377,-9030.512492,-1149.143247
444.019675,518.144159,-9992.780217,-689.485948
444.019999,518.144159,-11621.233289,-229.828649
444.020323,-592.164754,-12435.459826,-536.266849
444.020647,-2368.659014,-11177.109724,-459.657299
444.020972,-3849.070898,-10436.903782,-536.266849
444.021296,-3404.947333,-10066.800811,306.438199
444.021620,-1480.411884,-10066.800811,919.314598
444.021944,296.082377,-9918.759623,1378.971896
444.022268,1406.391290,-9992.780217,1762.019645
444.022592,1036.288319,-9326.594869,1302.362347
444.022916,148.041188,-8290.306550,459.657299
444.023240,-1554.432478,-7328.038826,-153.219100
444.023564,-1406.391290,-7476.080014,-1225.752797
444.023889,-814.226536,-7846.182985,-766.095498
444.024213,666.185348,-9178.553681,-995.924147
444.024537,1554.432478,-10807.006753,-766.095498
444.024861,1110.308913,-11325.150913,-919.314598
444.025185,-222.061783,-10732.986159,-919.314598
444.025509,-1628.453072,-9844.739029,-919.314598
444.025833,-1702.473667,-9252.574275,-459.657299
444.026157,-444.123565,-9400.615463,306.438199
444.026481,1776.494261,-9548.656652,1149.143247
444.026806,3108.864956,-10288.862594,1762.019645
444.027130,2738.761985,-9844.739029,1532.190996
444.027454,1554.432478,-9030.512492,766.095498
444.027778,0.000000,-7994.224174,-536.266849
444.028102,-888.247130,-8142.265362,-1072.533697
444.028426,-296.082377,-9030.512492,-689.485948
444.028750,444.123565,-9992.780217,-1225.752797
444.029074,1036.288319,-11399.171507,-536.266849
444.029398,-370.102971,-11473.192101,-1072.533697
444.029723,-1924.535449,-11029.068536,-1149.143247
444.030047,-3330.926739,-9844.739029,-1455.581446
444.030371,-3478.967927,-9474.636058,-919.314598
444.030695,-1850.514855,-9252.574275,459.657299
444.031019,518.144159,-9474.636058,1072.533697
444.031343,1554.432478,-9326.594869,2068.457845
444.031667,2072.576638,-8660.409521,919.314598
444.031991,1258.350101,-8068.244768,306.438199
444.032315,-222.061783,-7254.018232,-612.876398
444.032640,-888.247130,-7772.162391,-995.924147
444.032964,296.082377,-9252.574275,-1149.143247
444.033288,1998.556043,-10436.903782,-842.705048
444.033612,2516.700203,-11547.212695,-383.047749
444.033936,1702.473667,-12139.377449,0.000000
444.034260,-148.041188,-12287.418637,-1072.533697
444.034584,-2368.659014,-11325.150913,-1149.143247
444.034908,-2886.803174,-10881.027347,-766.095498
444.035232,-1480.411884,-10732.986159,0.000000
444.035557,370.102971,-10510.924376,76.609550
444.035881,1702.473667,-10584.944971,1455.581446
444.036205,1628.453072,-10362.883188,1378.971896
444.036529,666.185348,-8956.491898,0.000000
444.036853,-740.205942,-7846.182985,-766.095498
444.037177,-1036.288319,-7624.121203,-919.314598
444.037501,74.020594,-8734.430116,-842.705048
444.037825,1702.473667,-9770.718434,-459.657299
444.038149,1776.494261,-10510.924376,229.828649
444.038473,666.185348,-11547.212695,0.000000
444.038798,-1184.329507,-11103.089130,-306.438199
444.039122,-2812.782580,-9918.759623,-612.876398
444.039446,-2886.803174,-9400.615463,0.000000
444.039770,-1332.370696,-9030.512492,459.657299
444.040094,888.247130,-9474.636058,1378.971896
444.040418,2738.761985,-9178.553681,1991.848295
444.040742,2516.700203,-8290.306550,2451.505594
444.041066,1406.391290,-7328.038826,766.095498
444.041390,0.000000,-7031.956449,153.219100
444.041715,-1258.350101,-7254.018232,-153.219100
444.042039,-666.185348,-8068.244768,-229.828649
444.042363,444.123565,-9104.533087,-306.438199
444.042687,1184.329507,-10881.027347,76.609550
444.043011,518.144159,-11843.295072,0.000000
444.043335,-1110.308913,-11843.295072,229.828649
444.043659,-2664.741391,-10807.006753,-536.266849
444.043983,-3108.864956,-10066.800811,-306.438199
444.044307,-2072.576638,-9844.739029,229.828649
444.044632,0.000000,-9770.718434,995.924147
444.044956,1628.453072,-10140.821405,1838.629195
444.045280,2738.761985,-9770.718434,919.314598
444.045604,1480.411884,-8290.306550,842.705048
444.045928,296.082377,-7402.059420,-459.657299
444.046252,74.020594,-7698.141797,-383.047749
444.046576,444.123565,-8586.388927,-1302.362347
444.046900,1036.288319,-9770.718434,-1149.143247
444.047224,1480.411884,-11177.109724,-766.095498
444.047549,592.164754,-11843.295072,-842.705048
444.047873,-1110.308913,-11473.192101,-766.095498
444.048197,-2368.659014,-11177.109724,-1838.629195
444.048521,-2960.823768,-10584.944971,-229.828649
444.048845,-1850.514855,-10288.862594,229.828649
444.049169,-148.041188,-10436.903782,689.485948
444.049493,1110.308913,-10436.903782,842.705048
444.049817,1554.432478,-9992.780217,612.876398
444.050141,1110.308913,-8882.471304,842.705048
444.050466,0.000000,-8142.265362,-689.485948
444.050790,-444.123565,-7550.100608,-1455.581446
444.051114,-296.082377,-8142.265362,-1302.362347
444.051438,814.226536,-9474.636058,-1608.800546
444.051762,1480.411884,-10807.006753,-842.705048
444.052086,1110.308913,-11917.315666,-1072.533697
444.052410,-444.123565,-11769.274478,-1072.533697
444.052734,-1924.535449,-10807.006753,-689.485948
444.053058,-2664.741391,-10140.821405,-1149.143247
444.053383,-1850.514855,-9770.718434,0.000000
444.053707,222.061783,-9474.636058,383.047749
444.054031,1998.556043,-10066.800811,1302.362347
444.054355,3034.844362,-9474.636058,1455.581446
444.054679,2590.720797,-8364.327145,612.876398
444.055003,1406.391290,-7846.182985,-306.438199
444.055327,74.020594,-7772.162391,-689.485948
444.055651,0.000000,-8068.244768,-919.314598
444.055975,1184.329507,-9474.636058,-229.828649
444.056300,1480.411884,-10732.986159,-689.485948
444.056624,740.205942,-11695.253884,-459.657299
444.056948,-1036.288319,-11621.233289,-766.095498
444.057272,-2812.782580,-10807.006753,-766.095498
444.057596,-4071.132681,-10066.800811,-536.266849
444.057920,-2442.679609,-9844.739029,1072.533697
444.058244,-592.164754,-9474.636058,1532.190996
444.058568,1480.411884,-9252.574275,2068.457845
444.058892,2220.617826,-8808.450710,1915.238745
444.059217,1850.514855,-8512.368333,1149.143247
444.059541,518.144159,-7254.018232,0.000000
444.059865,-888.247130,-6957.935855,-306.438199
444.060189,-592.164754,-7476.080014,-459.657299
444.060513,222.061783,-8660.409521,-766.095498
444.060837,1554.432478,-9770.718434,229.828649
444.061161,1628.453072,-11769.274478,0.000000
444.061485,444.123565,-11695.253884,76.609550
444.061809,-1554.432478,-11029.068536,-383.047749
444.062134,-2886.803174,-10510.924376,0.000000
444.062458,-2146.597232,-10140.821405,612.876398
444.062782,-592.164754,-10362.883188,1455.581446
444.063106,1554.432478,-10807.006753,2298.286494
444.063430,1850.514855,-10066.800811,2145.067394
444.063754,1406.391290,-9474.636058,1532.190996
444.064078,0.000000,-8956.491898,76.609550
444.064402,-1184.329507,-8586.388927,-153.219100
444.064726,-1480.411884,-8586.388927,-766.095498
444.065051,0.000000,-9178.553681,-919.314598
444.065375,1036.288319,-10288.862594,-612.876398
444.065699,666.185348,-11695.253884,153.219100
444.066023,-666.185348,-11843.295072,-383.047749
444.066347,-2072.576638,-10955.047942,-612.876398
444.066671,-2886.803174,-9844.739029,-536.266849
444.066995,-1998.556043,-9400.615463,383.047749
444.067319,370.102971,-9326.594869,1072.533697
444.067643,2220.617826,-8882.471304,1838.629195
444.067968,2738.761985,-9104.533087,1991.848295
444.068292,2368.659014,-8586.388927,1225.752797
444.068616,222.061783,-7328.038826,-306.438199
444.068940,-1480.411884,-6883.915261,-919.314598
444.069264,-1406.391290,-7550.100608,-919.314598
444.069588,0.000000,-8586.388927,-919.314598
444.069912,814.226536,-9252.574275,-919.314598
444.070236,592.164754,-10288.862594,-919.314598
444.070560,-518.144159,-11473.192101,-612.876398
444.070885,-2294.638420,-11177.109724,-1455.581446
444.071209,-3108.864956,-10436.903782,-1302.362347
444.071533,-2738.761985,-9770.718434,-919.314598
444.071857,-1110.308913,-9400.615463,0.000000
444.072181,1332.370696,-10140.821405,995.924147
444.072505,2220.617826,-10436.903782,995.924147
444.072829,1998.556043,-9400.615463,536.266849
444.073153,1258.350101,-8586.388927,459.657299
444.073477,0.000000,-7846.182985,-689.485948
444.073802,148.041188,-7994.224174,-1608.800546
444.074126,1036.288319,-8956.491898,-1225.752797
444.074450,1924.535449,-10584.944971,-1302.362347
444.074774,1332.370696,-11991.336260,-1149.143247
444.075098,-814.226536,-11843.295072,-1608.800546
444.075422,-2664.741391,-10881.027347,-1991.848295
444.075746,-3182.885551,-10066.800811,-2068.457845
444.076070,-2368.659014,-9918.759623,-1225.752797
444.076394,-888.247130,-9474.636058,153.219100
444.076719,666.185348,-9918.759623,383.047749
444.077043,1036.288319,-9992.780217,306.438199
444.077367,888.247130,-9548.656652,306.438199
444.077691,74.020594,-8512.368333,-459.657299
444.078015,-518.144159,-8142.265362,-153.219100
444.078339,-740.205942,-8734.430116,-612.876398
444.078663,0.000000,-9400.615463,-1072.533697
444.078987,1480.411884,-10214.842000,-842.705048
444.079311,1406.391290,-11621.233289,-689.485948
444.079636,0.000000,-11917.315666,-919.314598
444.079960,-1406.391290,-11251.130318,-1455.581446
444.080284,-2664.741391,-10288.862594,-1302.362347
444.080608,-1998.556043,-9622.677246,-766.095498
444.080932,-518.144159,-9622.677246,153.219100
444.081256,1628.453072,-10066.800811,919.314598
444.081580,2664.741391,-9770.718434,1532.190996
444.081904,2960.823768,-8734.430116,1072.533697
444.082228,1702.473667,-7846.182985,306.438199
444.082553,592.164754,-7624.121203,-459.657299
444.082877,148.041188,-7624.121203,-995.924147
444.083201,1332.370696,-8438.347739,-612.876398
444.083525,2072.576638,-9696.697840,0.000000
444.083849,1480.411884,-11177.109724,-229.828649
444.084173,74.020594,-11843.295072,-229.828649
444.084497,-1850.514855,-11325.150913,-612.876398
444.084821,-2886.803174,-10436.903782,-383.047749
444.085145,-2516.700203,-9918.759623,0.000000
444.085470,-1110.308913,-9548.656652,1149.143247
444.085794,1258.350101,-9696.697840,2068.457845
444.086118,2368.659014,-9770.718434,2298.286494
444.086442,1702.473667,-9252.574275,1762.019645
444.086766,296.082377,-8438.347739,919.314598
444.087090,-1406.391290,-7846.182985,0.000000
444.087414,-1998.556043,-7846.182985,0.000000
444.087738,-1110.308913,-8438.347739,-383.047749
444.088062,148.041188,-9400.615463,536.266849
444.088387,148.041188,-10510.924376,612.876398
444.088711,-296.082377,-11177.109724,-306.438199
444.089035,-1702.473667,-10436.903782,-459.657299
444.089359,-2516.700203,-9622.677246,-612.876398
444.089683,-3034.844362,-9474.636058,229.828649
444.090007,-1924.535449,-9252.574275,766.095498
444.090331,592.164754,-9844.739029,1455.581446
444.090655,1850.514855,-9474.636058,2221.676944
444.090979,2146.597232,-9474.636058,2145.067394
444.091304,1628.453072,-9400.615463,1302.362347
444.091628,518.144159,-8956.491898,689.485948
444.091952,222.061783,-8734.430116,459.657299
444.092276,592.164754,-9252.574275,459.657299
444.092600,1406.391290,-10436.903782,459.657299
444.092924,1184.329507,-11621.233289,0.000000
444.093248,-296.082377,-12065.356855,0.000000
444.093572,-1480.411884,-11473.192101,-383.047749
444.093896,-2960.823768,-10436.903782,-612.876398
444.094221,-2738.761985,-9696.697840,76.609550
444.094545,-1406.391290,-9400.615463,612.876398
444.094869,962.267725,-9104.533087,1608.800546
444.095193,1776.494261,-9326.594869,2374.896044
444.095517,1998.556043,-9252.574275,2298.286494
444.095841,962.267725,-8290.306550,1225.752797
444.096165,-222.061783,-7624.121203,459.657299
444.096489,-740.205942,-7105.977043,-306.438199
444.096813,148.041188,-7698.141797,-536.266849
444.097138,1480.411884,-8290.306550,-612.876398
444.097462,2368.659014,-9992.780217,0.000000
444.097786,1924.535449,-10807.006753,-536.266849
444.098110,222.061783,-10658.965565,-229.828649
444.098434,-1776.494261,-9770.718434,-919.314598
444.098758,-2590.720797,-9474.636058,-995.924147
444.099082,-1850.514855,-9326.594869,-536.266849
444.099406,-148.041188,-9844.739029,383.047749
444.099730,1554.432478,-9844.739029,1149.143247
444.100055,2072.576638,-9400.615463,1225.752797
444.100379,1036.288319,-8734.430116,459.657299
444.100703,148.041188,-8586.388927,-766.095498
444.101027,-444.123565,-8142.265362,-1378.971896
444.101351,296.082377,-8660.409521,-1532.190996
444.101675,1628.453072,-9918.759623,-1225.752797
444.101999,2220.617826,-10881.027347,-919.314598
444.102323,1480.411884,-11843.295072,-1149.143247
444.102647,-370.102971,-11769.274478,-1991.848295
444.102972,-2294.638420,-10658.965565,-1608.800546
444.103296,-2886.803174,-9622.677246,-2068.457845
444.103620,-1924.535449,-9770.718434,-1225.752797
444.103944,148.041188,-9770.718434,-383.047749
444.104268,1776.494261,-10140.821405,536.266849
444.104592,1776.494261,-9992.780217,766.095498
444.104916,1332.370696,-9104.533087,-306.438199
444.105240,74.020594,-8438.347739,-1225.752797
444.105564,-370.102971,-8068.244768,-1378.971896
444.105889,0.000000,-9030.512492,-1302.362347
444.106213,1110.308913,-10140.821405,-919.314598
444.106537,1702.473667,-11621.233289,-612.876398
444.106861,962.267725,-12509.480420,-536.266849
444.107185,-444.123565,-12213.398043,-919.314598
444.107509,-2738.761985,-10807.006753,-2145.067394
444.107833,-3997.112087,-10214.842000,-1762.019645
444.108157,-3478.967927,-10066.800811,-1608.800546
444.108481,-1702.473667,-10140.821405,-153.219100
444.108805,0.000000,-10066.800811,689.485948
444.109130,518.144159,-9400.615463,1072.533697
444.109454,296.082377,-8068.244768,766.095498
444.109778,0.000000,-7179.997637,-459.657299
444.110102,-370.102971,-6735.874072,229.828649
444.110426,740.205942,-7550.100608,153.219100
444.110750,1702.473667,-9030.512492,0.000000
444.111074,1998.556043,-9918.759623,229.828649
444.111398,740.205942,-10732.986159,0.000000
444.111722,-1110.308913,-10732.986159,-689.485948
444.112047,-2812.782580,-10288.862594,-153.219100
444.112371,-3404.947333,-9770.718434,-383.047749
444.112695,-2368.659014,-9474.636058,459.657299
444.113019,-444.123565,-9400.615463,1455.581446
444.113343,592.164754,-9474.636058,1608.800546
444.113667,1036.288319,-9400.615463,1608.800546
444.113991,518.144159,-9178.553681,766.095498
444.114315,-592.164754,-8364.327145,612.876398
444.114639,-1258.350101,-8438.347739,459.657299
444.114964,-666.185348,-8882.471304,0.000000
444.115288,444.123565,-9400.615463,459.657299
444.115612,1332.370696,-9992.780217,0.000000
444.115936,1036.288319,-11325.150913,229.828649
444.116260,592.164754,-11843.295072,76.609550
444.116584,-1406.391290,-10658.965565,-153.219100
444.116908,-2368.659014,-9918.759623,0.000000
444.117232,-2072.576638,-9696.697840,536.266849
444.117556,-518.144159,-9770.718434,1302.362347
444.117881,666.185348,-9548.656652,1762.019645
444.118205,1628.453072,-9474.636058,1378.971896
444.118529,1332.370696,-8882.471304,612.876398
444.118853,1036.288319,-8142.265362,153.219100
444.119177,370.102971,-7994.224174,76.609550
444.119501,666.185348,-8734.430116,0.000000
444.119825,1776.494261,-9622.677246,0.000000
444.120149,2590.720797,-10881.027347,153.219100
444.120474,2294.638420,-11843.295072,459.657299
444.120798,444.123565,-11917.315666,76.609550
444.121122,-1702.473667,-11103.089130,-459.657299
444.121446,-2812.782580,-10658.965565,-383.047749
444.121770,-2812.782580,-10510.924376,0.000000
444.122095,-888.247130,-10362.883188,689.485948
444.122419,888.247130,-10362.883188,1302.362347
444.122743,1554.432478,-9548.656652,1608.800546
444.123067,1110.308913,-8734.430116,1149.143247
444.123391,444.123565,-7920.203579,-536.266849
444.123715,-740.205942,-7550.100608,-689.485948
444.124040,-740.205942,-7772.162391,-689.485948
444.124364,740.205942,-8512.368333,-612.876398
444.124688,1702.473667,-9622.677246,-306.438199
444.125012,1776.494261,-10658.965565,0.000000
444.125336,444.123565,-10658.965565,0.000000
444.125660,-592.164754,-10066.800811,-383.047749
444.125985,-1924.535449,-9178.553681,-842.705048
444.126309,-1776.494261,-9030.512492,0.000000
444.126633,-148.041188,-9030.512492,612.876398
444.126957,1036.288319,-9326.594869,842.705048
444.127281,1702.473667,-9178.553681,995.924147
444.127605,1480.411884,-8586.388927,0.000000
444.127930,222.061783,-7994.224174,-842.705048
444.128254,-444.123565,-8068.244768,-1455.581446
444.128578,-148.041188,-8142.265362,-995.924147
444.128902,962.267725,-9474.636058,-1225.752797
444.129226,1628.453072,-10881.027347,-1149.143247
444.129551,962.267725,-12139.377449,-995.924147
444.129875,-592.164754,-12065.356855,-459.657299
444.130199,-1998.556043,-11473.192101,-1455.581446
444.130523,-3034.844362,-10807.006753,-995.924147
444.130847,-2442.679609,-10288.862594,-995.924147
444.131171,-444.123565,-9992.780217,-383.047749
444.131496,962.267725,-10436.903782,229.828649
444.131820,1406.391290,-10510.924376,536.266849
444.132144,962.267725,-9622.677246,153.219100
444.132468,148.041188,-8438.347739,-306.438199
444.132792,-444.123565,-8216.285956,-766.095498
444.133116,-888.247130,-8364.327145,-1378.971896
444.133441,222.061783,-9030.512492,-1685.410096
444.133765,1258.350101,-10214.842000,-842.705048
444.134089,1332.370696,-11325.150913,-536.266849
444.134413,0.000000,-11473.192101,-919.314598
444.134737,-1850.514855,-10732.986159,-995.924147
444.135061,-3849.070898,-10510.924376,-766.095498
444.135386,-3330.926739,-9548.656652,-306.438199
444.135710,-2664.741391,-9622.677246,0.000000
444.136034,-1258.350101,-9992.780217,536.266849
444.136358,148.041188,-9844.739029,1072.533697
444.136682,370.102971,-9104.533087,612.876398
444.137007,0.000000,-8142.265362,153.219100
444.137331,-666.185348,-7994.224174,-459.657299
444.137655,-222.061783,-8142.265362,-1532.190996
444.137979,592.164754,-8364.327145,-919.314598
444.138303,1998.556043,-9918.759623,-306.438199
444.138627,1850.514855,-11325.150913,0.000000
444.138952,740.205942,-11769.274478,-383.047749
444.139276,-1036.288319,-10955.047942,-383.047749
444.139600,-1998.556043,-9992.780217,-153.219100
444.139924,-1924.535449,-9474.636058,689.485948
444.140248,-370.102971,-9104.533087,842.705048
444.140572,1480.411884,-9178.553681,1378.971896
444.140897,2738.761985,-9326.594869,1838.629195
444.141221,2072.576638,-8586.388927,1378.971896
444.141545,1036.288319,-7476.080014,459.657299
444.141869,-148.041188,-7179.997637,0.000000
444.142193,-740.205942,-7846.182985,-1072.533697
444.142517,74.020594,-8290.306550,-1225.752797
444.142842,1332.370696,-9548.656652,-459.657299
444.143166,1554.432478,-11029.068536,76.609550
444.143490,814.226536,-12065.356855,-76.609550
444.143814,-814.226536,-11473.192101,-536.266849
444.144138,-2516.700203,-10881.027347,0.000000
444.144463,-2294.638420,-10584.944971,459.657299
444.144787,-1554.432478,-10066.800811,1225.752797
444.145111,74.020594,-9844.739029,1378.971896
444.145435,1628.453072,-9622.677246,1762.019645
444.145759,1628.453072,-9030.512492,1378.971896
444.146083,740.205942,-8216.285956,459.657299
444.146408,-148.041188,-7624.121203,0.000000
444.146732,-444.123565,-7994.224174,-306.438199
444.147056,222.061783,-8142.265362,0.000000
444.147380,1184.329507,-9696.697840,-1532.190996
444.147704,1184.329507,-10881.027347,-153.219100
444.148028,74.020594,-12287.418637,-689.485948
444.148353,-1480.411884,-11843.295072,-1149.143247
444.148677,-2960.823768,-10955.047942,-689.485948
444.149001,-2886.803174,-10288.862594,-306.438199
444.149325,-1184.329507,-9770.718434,306.438199
444.149649,814.226536,-10288.862594,1685.410096
444.149973,2442.679609,-10140.821405,1762.019645
444.150298,1406.391290,-9474.636058,1532.190996
444.150622,518.144159,-8734.430116,459.657299
444.150946,0.000000,-8438.347739,-153.219100
444.151270,-444.123565,-7994.224174,-383.047749
444.151594,148.041188,-8660.409521,-689.485948
444.151919,1110.308913,-9844.739029,-383.047749
444.152243,1110.308913,-10881.027347,-459.657299
444.152567,296.082377,-11621.233289,-536.266849
444.152891,-1036.288319,-11399.171507,-612.876398
444.153215,-2590.720797,-10584.944971,-306.438199
444.153539,-2738.761985,-10066.800811,0.000000
444.153864,-1554.432478,-9622.677246,842.705048
444.154188,518.144159,-9474.636058,1608.800546
444.154512,2220.617826,-9622.677246,1838.629195
444.154836,3108.864956,-8808.450710,1762.019645
444.155160,2442.679609,-7402.059420,842.705048
444.155484,740.205942,-6883.915261,0.000000
444.155809,0.000000,-7105.977043,-459.657299
444.156133,518.144159,-8216.285956,-842.705048
444.156457,1406.391290,-9770.718434,-766.095498
444.156781,1184.329507,-10807.006753,229.828649
444.157105,222.061783,-11695.253884,76.609550
444.157429,-1480.411884,-11399.171507,-229.828649
444.157754,-3478.967927,-10140.821405,-1149.143247
444.158078,-3701.029710,-9918.759623,0.000000
444.158402,-2146.597232,-9844.739029,536.266849
444.158726,-222.061783,-9918.759623,1072.533697
444.159050,1332.370696,-10066.800811,1991.848295
444.159375,1628.453072,-9178.553681,1455.581446
444.159699,444.123565,-8142.265362,76.609550
444.160023,-296.082377,-8216.285956,-536.266849
444.160347,-1184.329507,-8438.347739,-919.314598
444.160671,-518.144159,-8956.491898,-1149.143247
444.160995,888.247130,-9992.780217,-536.266849
444.161320,1850.514855,-11177.109724,-229.828649
444.161644,888.247130,-11843.295072,153.219100
444.161968,-592.164754,-11843.295072,-995.924147
444.162292,-2294.638420,-10658.965565,-995.924147
444.162616,-3701.029710,-9918.759623,-612.876398
444.162940,-2516.700203,-9992.780217,0.000000
444.163265,-592.164754,-9918.759623,919.314598
444.163589,1036.288319,-9770.718434,1302.362347
444.163913,1924.535449,-8956.491898,1072.533697
444.164237,1406.391290,-8290.306550,76.609550
444.164561,592.164754,-7698.141797,-383.047749
444.164885,-370.102971,-7402.059420,-1532.190996
444.165210,-370.102971,-8142.265362,-1608.800546
444.165534,740.205942,-9474.636058,-1378.971896
444.165858,1258.350101,-11103.089130,-1149.143247
444.166182,444.123565,-11843.295072,-995.924147
444.166506,-1258.350101,-11843.295072,-1302.362347
444.166831,-2886.803174,-10214.842000,-995.924147
444.167155,-3034.844362,-9474.636058,-766.095498
444.167479,-1924.535449,-9548.656652,-612.876398
444.167803,592.164754,-9844.739029,306.438199
444.168127,2220.617826,-10140.821405,1072.533697
444.168451,2812.782580,-9622.677246,1149.143247
444.168776,2146.597232,-8586.388927,153.219100
444.169100,592.164754,-7624.121203,-229.828649
444.169424,-814.226536,-7624.121203,-919.314598
444.169748,148.041188,-8364.327145,-1455.581446
444.170072,1110.308913,-9696.697840,-1225.752797
444.170396,2146.597232,-10732.986159,-919.314598
444.170721,1480.411884,-11695.253884,-995.924147
444.171045,0.000000,-11103.089130,-1378.971896
444.171369,-1554.432478,-10584.944971,-1149.143247
444.171693,-2442.679609,-10584.944971,-995.924147
444.172017,-1924.535449,-9770.718434,-229.828649
444.172341,0.000000,-10066.800811,689.485948
444.172666,1554.432478,-9992.780217,1302.362347
444.172990,1850.514855,-9474.636058,1455.581446
444.173314,1480.411884,-8438.347739,919.314598
444.173638,666.185348,-8438.347739,-612.876398
444.173962,-222.061783,-7550.100608,-229.828649
444.174287,-666.185348,-7994.224174,-306.438199
444.174611,666.185348,-9400.615463,-612.876398
444.174935,962.267725,-11029.068536,-153.219100
444.175259,222.061783,-11991.336260,-153.219100
444.175583,-1184.329507,-11843.295072,-459.657299
444.175907,-2738.761985,-10658.965565,-229.828649
444.176232,-3552.988522,-9696.697840,383.047749
444.176556,-1332.370696,-9770.718434,842.705048
444.176880,666.185348,-9548.656652,2298.286494
444.177204,2072.576638,-9844.739029,2528.115143
444.177528,2368.659014,-9474.636058,2221.676944
444.177852,1480.411884,-8512.368333,1532.190996
444.178177,-444.123565,-7550.100608,612.876398
444.178501,-1406.391290,-7476.080014,0.000000
444.178825,-1036.288319,-8734.430116,0.000000
444.179149,-444.123565,-8956.491898,229.828649
444.179473,1480.411884,-10362.883188,459.657299
444.179797,1184.329507,-11325.150913,76.609550
444.180122,-148.041188,-11325.150913,-153.219100
444.180446,-1924.535449,-10807.006753,0.000000
444.180770,-2664.741391,-9918.759623,383.047749
444.181094,-2220.617826,-9474.636058,612.876398
444.181418,0.000000,-9326.594869,1532.190996
444.181743,1184.329507,-9030.512492,1378.971896
444.182067,2072.576638,-9400.615463,1608.800546
444.182391,1924.535449,-8660.409521,1302.362347
444.182715,740.205942,-7920.203579,383.047749
444.183039,-296.082377,-7402.059420,0.000000
444.183363,-148.041188,-7624.121203,0.000000
444.183688,222.061783,-8882.471304,-995.924147
444.184012,814.226536,-10436.903782,-383.047749
444.184336,222.061783,-11547.212695,0.000000
444.184660,-1258.350101,-11251.130318,-995.924147
444.184984,-2516.700203,-10510.924376,-1072.533697
444.185308,-3404.947333,-9844.739029,-1225.752797
444.185633,-2294.638420,-9474.636058,153.219100
444.185957,0.000000,-9400.615463,229.828649
444.186281,2220.617826,-10436.903782,1378.971896
444.186605,2812.782580,-9918.759623,1149.143247
444.186929,2368.659014,-9104.533087,383.047749
444.187253,666.185348,-8660.409521,-536.266849
444.187578,-444.123565,-8512.368333,-1072.533697
444.187902,-592.164754,-8808.450710,-1455.581446
444.188226,592.164754,-9696.697840,-1225.752797
444.188550,1924.535449,-11251.130318,-995.924147
444.188874,2294.638420,-12287.418637,-1072.533697
444.189199,518.144159,-11991.336260,-1302.362347
444.189523,-1850.514855,-11547.212695,-1838.629195
444.189847,-3330.926739,-10807.006753,-1455.581446
444.190171,-2664.741391,-10288.862594,-995.924147
444.190495,-740.205942,-10658.965565,-153.219100
444.190819,1036.288319,-9918.759623,766.095498
444.191144,1628.453072,-9400.615463,689.485948
444.191468,1850.514855,-9104.533087,306.438199
444.191792,222.061783,-8068.244768,-842.705048
444.192116,-666.185348,-7920.203579,-1225.752797
444.192440,-518.144159,-8068.244768,-1608.800546
444.192764,592.164754,-8808.450710,-1378.971896
444.193089,1332.370696,-10066.800811,-766.095498
444.193413,962.267725,-11251.130318,-1838.629195
444.193737,-296.082377,-11547.212695,-995.924147
444.194061,-2220.617826,-10881.027347,-1455.581446
444.194385,-3330.926739,-10066.800811,-1225.752797
444.194709,-2368.659014,-9474.636058,0.000000
444.195034,-222.061783,-9474.636058,995.924147
444.195358,1702.473667,-9474.636058,1378.971896
444.195682,2220.617826,-9474.636058,1149.143247
444.196006,1628.453072,-8808.450710,689.485948
444.196330,666.185348,-7846.182985,-229.828649
444.196655,-518.144159,-7846.182985,-459.657299
444.196979,-518.144159,-7846.182985,-612.876398
444.197303,740.205942,-8734.430116,-612.876398
444.197627,1924.535449,-10066.800811,-153.219100
444.197951,2146.597232,-11399.171507,0.000000
444.198275,1110.308913,-11843.295072,153.219100
444.198600,-592.164754,-11399.171507,306.438199
444.198924,-2072.576638,-10288.862594,229.828649
444.199248,-3034.844362,-9474.636058,612.876398
444.199572,-2516.700203,-9252.574275,1838.629195
444.199896,-814.226536,-9622.677246,1685.410096
444.200220,814.226536,-9548.656652,1838.629195
444.200545,962.267725,-8882.471304,1302.362347
444.200869,370.102971,-7846.182985,536.266849
444.201193,-148.041188,-7328.038826,0.000000
444.201517,0.000000,-7772.162391,-153.219100
444.201841,222.061783,-8882.471304,-229.828649
444.202165,1258.350101,-9992.780217,-306.438199
444.202490,1332.370696,-11621.233289,76.609550
444.202814,222.061783,-11991.336260,-153.219100
444.203138,-1850.514855,-11177.109724,-383.047749
444.203462,-3404.947333,-10288.862594,153.219100
444.203786,-3034.844362,-9992.780217,229.828649
444.204111,-2072.576638,-9548.656652,1072.533697
444.204435,74.020594,-9770.718434,1838.629195
444.204759,888.247130,-9400.615463,2068.457845
444.205083,888.247130,-9030.512492,1378.971896
444.205407,-148.041188,-8216.285956,383.047749
444.205731,-1110.308913,-7772.162391,-383.047749
444.206056,-1184.329507,-8438.347739,-383.047749
444.206380,74.020594,-9474.636058,-459.657299
444.206704,1628.453072,-10066.800811,-306.438199
444.207028,2442.679609,-11325.150913,-229.828649
444.207352,1480.411884,-11991.336260,-459.657299
444.207676,-296.082377,-11473.192101,-612.876398
444.208001,-1776.494261,-10362.883188,-536.266849
444.208325,-2072.576638,-9696.697840,-306.438199
444.208649,-222.061783,-9400.615463,842.705048
444.208973,222.061783,-9474.636058,1685.410096
444.209297,1406.391290,-9474.636058,1685.410096
444.209621,1702.473667,-8734.430116,689.485948
444.209946,814.226536,-7772.162391,-153.219100
444.210270,0.000000,-7179.997637,-919.314598
444.210594,-370.102971,-7550.100608,-995.924147
444.210918,888.247130,-8364.327145,-689.485948
444.211242,1776.494261,-9474.636058,-1225.752797
444.211567,1776.494261,-11177.109724,-306.438199
444.211891,370.102971,-11769.274478,-919.314598
444.212215,-1332.370696,-11547.212695,-1072.533697
444.212539,-2812.782580,-10584.944971,-1149.143247
444.212863,-2886.803174,-10214.842000,-536.266849
444.213187,-1480.411884,-10066.800811,766.095498
444.213512,0.000000,-9844.739029,689.485948
444.213836,592.164754,-9252.574275,689.485948
444.214160,814.226536,-8956.491898,459.657299
444.214484,148.041188,-8512.368333,-536.266849
444.214808,-888.247130,-8068.244768,-1302.362347
444.215132,-1036.288319,-7846.182985,-1532.190996
444.215457,0.000000,-8734.430116,-1455.581446
444.215781,1702.473667,-9918.759623,-919.314598
444.216105,2368.659014,-11177.109724,-689.485948
444.216429,1628.453072,-11769.274478,-995.924147
444.216753,444.123565,-11769.274478,-459.657299
444.217077,-1258.350101,-10955.047942,-766.095498
444.217402,-2220.617826,-10436.903782,-306.438199
444.217726,-1702.473667,-10214.842000,0.000000
444.218050,0.000000,-10214.842000,459.657299
444.218374,1036.288319,-10066.800811,1072.533697
444.218698,1702.473667,-9252.574275,612.876398
444.219023,1332.370696,-8956.491898,0.000000
444.219347,222.061783,-7920.203579,-612.876398
444.219671,-444.123565,-8068.244768,-919.314598
444.219995,0.000000,-8882.471304,-919.314598
444.220319,1036.288319,-9992.780217,-612.876398
444.220643,814.226536,-11325.150913,0.000000
444.220968,-148.041188,-11769.274478,0.000000
444.221292,-1480.411884,-11029.068536,-229.828649
444.221616,-2590.720797,-10955.047942,-383.047749
444.221940,-2738.761985,-9992.780217,229.828649
444.222264,-1628.453072,-9178.553681,612.876398
444.222588,74.020594,-9104.533087,1302.362347
444.222912,1332.370696,-9326.594869,1455.581446
444.223237,1480.411884,-8068.244768,1838.629195
444.223561,962.267725,-7105.977043,766.095498
444.223885,-518.144159,-6439.791695,-229.828649
444.224209,-740.205942,-7179.997637,-612.876398
444.224533,148.041188,-7994.224174,-536.266849
444.224857,1776.494261,-9104.533087,-153.219100
444.225181,2442.679609,-10510.924376,153.219100
444.225506,1628.453072,-11325.150913,229.828649
444.225830,148.041188,-11843.295072,76.609550
444.226154,-1702.473667,-10140.821405,0.000000
444.226478,-2738.761985,-9844.739029,536.266849
444.226802,-1850.514855,-9696.697840,766.095498
444.227126,0.000000,-9622.677246,1532.190996
444.227450,1332.370696,-9474.636058,1991.848295
444.227775,1480.411884,-8734.430116,1608.800546
444.228099,740.205942,-8438.347739,306.438199
444.228423,-740.205942,-7624.121203,0.000000
444.228747,-1702.473667,-7624.121203,-1072.533697
444.229071,-1036.288319,-8734.430116,-842.705048
444.229395,222.061783,-9992.780217,-459.657299
444.229720,962.267725,-11103.089130,-383.047749
444.230044,444.123565,-11991.336260,-383.047749
444.230368,-666.185348,-11399.171507,-766.095498
444.230692,-1998.556043,-10658.965565,-842.705048
444.231016,-2368.659014,-9770.718434,0.000000
444.231340,-1554.432478,-9918.759623,153.219100
444.231664,222.061783,-10362.883188,919.314598
444.231989,1850.514855,-10214.842000,1455.581446
444.232313,2072.576638,-9622.677246,995.924147
444.232637,1110.308913,-9178.553681,0.000000
444.232961,-370.102971,-8142.265362,-612.876398
444.233285,-666.185348,-8068.244768,-919.314598
444.233609,0.000000,-8882.471304,-995.924147
444.233933,1332.370696,-9992.780217,-766.095498
444.234258,1406.391290,-11029.068536,-766.095498
444.234582,888.247130,-11695.253884,-995.924147
444.234906,-148.041188,-11547.212695,-919.314598
444.235230,-1776.494261,-11103.089130,-1225.752797
444.235554,-2368.659014,-10436.903782,-689.485948
444.235878,-2072.576638,-9622.677246,0.000000
444.236202,444.123565,-9474.636058,689.485948
444.236527,2146.597232,-9474.636058,1302.362347
444.236851,2442.679609,-9400.615463,1149.143247
444.237175,2072.576638,-8956.491898,459.657299
444.237499,592.164754,-8142.265362,-383.047749
444.237823,0.000000,-7476.080014,-536.266849
444.238147,0.000000,-7550.100608,-1302.362347
444.238472,518.144159,-8734.430116,-306.438199
444.238796,740.205942,-9770.718434,-612.876398
444.239120,-296.082377,-10955.047942,-536.266849
444.239444,-1480.411884,-11399.171507,-766.095498
444.239768,-2960.823768,-10214.842000,-1225.752797
444.240092,-3182.885551,-9474.636058,-612.876398
444.240416,-1702.473667,-8956.491898,76.609550
444.240741,296.082377,-9030.512492,1532.190996
444.241065,1184.329507,-9326.594869,1072.533697
444.241389,1776.494261,-9474.636058,1302.362347
444.241713,1110.308913,-8808.450710,306.438199
444.242037,-148.041188,-8142.265362,-306.438199
444.242361,-814.226536,-7772.162391,-766.095498
444.242685,-222.061783,-8586.388927,-995.924147
444.243010,814.226536,-9326.594869,-766.095498
444.243334,1924.535449,-10584.944971,-383.047749
444.243658,1850.514855,-11991.336260,-306.438199
444.243982,444.123565,-12435.459826,-459.657299
444.244306,-1258.350101,-11695.253884,-612.876398
444.244630,-2146.597232,-10881.027347,-459.657299
444.244954,-1332.370696,-10584.944971,76.609550
444.245279,666.185348,-10214.842000,1225.752797
444.245603,2072.576638,-9992.780217,1378.971896
444.245927,2516.700203,-9992.780217,1532.190996
444.246251,1850.514855,-9252.574275,612.876398
444.246575,370.102971,-8586.388927,-153.219100
444.246899,-888.247130,-8438.347739,-536.266849
444.247224,-888.247130,-9030.512492,-306.438199
444.247548,-518.144159,-9400.615463,-612.876398
444.247872,296.082377,-10658.965565,0.000000
444.248196,222.061783,-11177.109724,229.828649
444.248520,-1554.432478,-11621.233289,-153.219100
444.248844,-2812.782580,-10807.006753,-153.219100
444.249168,-3627.009116,-9770.718434,0.000000
444.249493,-2812.782580,-9400.615463,536.266849
444.249817,-1036.288319,-9104.533087,229.828649
444.250141,444.123565,-8290.306550,842.705048
444.250465,1406.391290,-9030.512492,1455.581446
444.250789,1110.308913,-8438.347739,1072.533697
444.251113,0.000000,-7179.997637,383.047749
444.251437,-962.267725,-7105.977043,-229.828649
444.251762,-962.267725,-7328.038826,-459.657299
444.252086,74.020594,-8364.327145,-229.828649
444.252410,1184.329507,-9844.739029,0.000000
444.252734,1110.308913,-10362.883188,-229.828649
444.253058,-444.123565,-10658.965565,-459.657299
444.253382,-1924.535449,-10658.965565,-689.485948
444.253706,-2590.720797,-10140.821405,-383.047749
444.254031,-1850.514855,-9622.677246,0.000000
444.254355,74.020594,-9400.615463,995.924147
444.254679,2146.597232,-9770.718434,1608.800546
444.255003,3108.864956,-9770.718434,1455.581446
444.255327,2590.720797,-8956.491898,459.657299
444.255651,1480.411884,-8290.306550,-383.047749
444.255976,-296.082377,-8290.306550,-842.705048
444.256300,-592.164754,-8808.450710,-1302.362347
444.256624,148.041188,-9622.677246,-1608.800546
444.256948,370.102971,-10732.986159,-1302.362347
444.257272,0.000000,-11843.295072,-1378.971896
444.257596,-888.247130,-12139.377449,-536.266849
444.257920,-2368.659014,-11621.233289,-1225.752797
444.258245,-3182.885551,-10658.965565,-995.924147
444.258569,-2368.659014,-9918.759623,-383.047749
444.258893,-666.185348,-9992.780217,153.219100
444.259217,962.267725,-10288.862594,919.314598
444.259541,2442.679609,-10436.903782,689.485948
444.259865,2072.576638,-10066.800811,536.266849
444.260189,296.082377,-8512.368333,-766.095498
444.260514,-666.185348,-8142.265362,-1149.143247
444.260838,-814.226536,-8956.491898,-1685.410096
444.261162,666.185348,-10066.800811,-1532.190996
444.261486,1554.432478,-10807.006753,-689.485948
444.261810,1332.370696,-11695.253884,-612.876398
444.262134,370.102971,-11991.336260,-1072.533697
444.262458,-1184.329507,-10955.047942,-1225.752797
444.262783,-2516.700203,-10066.800811,-1225.752797
444.263107,-2072.576638,-9844.739029,0.000000
444.263431,-148.041188,-9770.718434,689.485948
444.263755,1628.453072,-9474.636058,1302.362347
444.264079,2442.679609,-9252.574275,1378.971896
444.264403,2516.700203,-8216.285956,612.876398
444.264728,1554.432478,-8142.265362,-459.657299
444.265052,0.000000,-7105.977043,-459.657299
444.265376,0.000000,-7328.038826,-766.095498
444.265700,370.102971,-8512.368333,-842.705048
444.266024,1184.329507,-9770.718434,-536.266849
444.266348,666.185348,-10955.047942,-229.828649
444.266672,-1036.288319,-11399.171507,-612.876398
444.266997,-2442.679609,-10214.842000,-306.438199
444.267321,-3108.864956,-9474.636058,536.266849
444.267645,-2516.700203,-9252.574275,153.219100
444.267969,-1036.288319,-9400.615463,919.314598
444.268293,888.247130,-9400.615463,1685.410096
444.268617,1702.473667,-8882.471304,1991.848295
444.268941,1332.370696,-8364.327145,1225.752797
444.269266,74.020594,-7402.059420,306.438199
444.269590,-444.123565,-8068.244768,0.000000
444.269914,-296.082377,-8290.306550,-459.657299
444.270238,222.061783,-8660.409521,-766.095498
444.270562,1110.308913,-9992.780217,-229.828649
444.270886,1628.453072,-11695.253884,153.219100
444.271210,222.061783,-12435.459826,-306.438199
444.271535,-1184.329507,-12139.377449,-383.047749
444.271859,-2886.803174,-10955.047942,-306.438199
444.272183,-2664.741391,-10807.006753,0.000000
444.272507,-1480.411884,-10584.944971,995.924147
444.272831,666.185348,-10288.862594,1762.019645
444.273155,1924.535449,-10140.821405,1838.629195
444.273480,1850.514855,-9696.697840,1225.752797
444.273804,962.267725,-8956.491898,76.609550
444.274128,-592.164754,-8216.285956,-306.438199
444.274452,-1036.288319,-8142.265362,-995.924147
444.274776,74.020594,-9178.553681,-306.438199
444.275100,518.144159,-10732.986159,-919.314598
444.275424,740.205942,-11695.253884,0.000000
444.275749,-444.123565,-11843.295072,-459.657299
444.276073,-2072.576638,-11325.150913,-766.095498
444.276397,-3182.885551,-10140.821405,-229.828649
444.276721,-2664.741391,-9474.636058,0.000000
444.277045,-962.267725,-9178.553681,995.924147
444.277369,592.164754,-8956.491898,1378.971896
444.277693,1702.473667,-8808.450710,1685.410096
444.278018,1554.432478,-8068.244768,689.485948
444.278342,592.164754,-7476.080014,0.000000
444.278666,-296.082377,-7105.977043,-536.266849
444.278990,-592.164754,-7179.997637,-1072.533697
444.279314,296.082377,-7994.224174,-1072.533697
444.279638,1480.411884,-9030.512492,-995.924147
444.279962,1998.556043,-10362.883188,-612.876398
444.280287,1110.308913,-11843.295072,-842.705048
444.280611,-592.164754,-11843.295072,-842.705048
444.280935,-2146.597232,-10955.047942,-1072.533697
444.281259,-2220.617826,-10288.862594,-459.657299
444.281583,-148.041188,-10436.903782,612.876398
444.281907,1480.411884,-10288.862594,1072.533697
444.282232,3552.988522,-10510.924376,1838.629195
444.282556,3404.947333,-9622.677246,1072.533697
444.282880,2368.659014,-8586.388927,-229.828649
444.283204,888.247130,-7994.224174,-995.924147
444.283528,74.020594,-8216.285956,-1608.800546
444.283852,666.185348,-9030.512492,-1608.800546
444.284176,1480.411884,-9548.656652,-995.924147
444.284501,1702.473667,-10955.047942,-1225.752797
444.284825,370.102971,-11399.171507,-995.924147
444.285149,-1628.453072,-11769.274478,-1225.752797
444.285473,-2960.823768,-10584.944971,-1302.362347
444.285797,-3330.926739,-9844.739029,-842.705048
444.286121,-2146.597232,-9548.656652,153.219100
444.286445,0.000000,-9696.697840,1378.971896
444.286770,1332.370696,-9622.677246,1915.238745
444.287094,1998.556043,-9104.533087,1455.581446
444.287418,1036.288319,-7772.162391,229.828649
444.287742,-814.226536,-7402.059420,-766.095498
444.288066,-1332.370696,-7920.203579,-995.924147
444.288390,-444.123565,-8882.471304,-1225.752797
444.288714,518.144159,-9770.718434,-919.314598
444.289039,1184.329507,-11473.192101,0.000000
444.289363,666.185348,-12139.377449,-306.438199
444.289687,-1258.350101,-11843.295072,-919.314598
444.290011,-3034.844362,-10955.047942,-536.266849
444.290335,-3404.947333,-9992.780217,0.000000
444.290659,-2220.617826,-9696.697840,459.657299
444.290984,0.000000,-9474.636058,1608.800546
444.291308,1258.350101,-9104.533087,1532.190996
444.291632,1480.411884,-8364.327145,1762.019645
444.291956,1036.288319,-8068.244768,919.314598
444.292280,-370.102971,-7402.059420,0.000000
444.292604,-740.205942,-7328.038826,-153.219100
444.292928,0.000000,-7920.203579,-536.266849
444.293253,1406.391290,-9400.615463,-153.219100
444.293577,2146.597232,-10807.006753,-383.047749
444.293901,1406.391290,-12583.501014,-229.828649
444.294225,-666.185348,-11547.212695,0.000000
444.294549,-2368.659014,-10436.903782,-536.266849
444.294873,-3034.844362,-9918.759623,0.000000
444.295197,-1628.453072,-9918.759623,459.657299
444.295522,518.144159,-9918.759623,1378.971896
444.295846,1702.473667,-9992.780217,1685.410096
444.296170,2294.638420,-9474.636058,1915.238745
444.296494,1184.329507,-8438.347739,1072.533697
444.296818,-296.082377,-8142.265362,76.609550
444.297142,-1480.411884,-7920.203579,-612.876398
444.297466,-1406.391290,-8660.409521,-995.924147
444.297791,0.000000,-9400.615463,-919.314598
444.298115,1036.288319,-10732.986159,-383.047749
444.298439,1110.308913,-11843.295072,-612.876398
444.298763,-296.082377,-11769.274478,-842.705048
444.299087,-2294.638420,-10732.986159,-766.095498
444.299411,-2960.823768,-10140.821405,-995.924147
444.299736,-1998.556043,-9548.656652,-306.438199
444.300060,0.000000,-9474.636058,536.266849
