#time,accel_x,accel_y,accel_z
761.089399,8290.306550,-11991.336260,5209.449386
761.089723,1554.432478,-11399.171507,2834.553343
761.090047,-3182.885551,-9326.594869,1532.190996
761.090371,-4367.215058,-9474.636058,153.219100
761.090695,-4219.173869,-11843.295072,-306.438199
761.091019,-4219.173869,-11547.212695,-612.876398
761.091343,-4589.276840,-7846.182985,-995.924147
761.091667,-6069.688724,-8216.285956,76.609550
761.091991,-7624.121203,-11325.150913,-1225.752797
761.092315,-5625.565159,-10288.862594,-1608.800546
761.092639,-3849.070898,-7105.977043,-1149.143247
761.092963,-2664.741391,-4885.359217,229.828649
761.093287,-1554.432478,-6587.832884,766.095498
761.093611,-370.102971,-8512.368333,76.609550
761.093935,222.061783,-8142.265362,612.876398
761.094259,814.226536,-9844.739029,306.438199
761.094583,1332.370696,-12213.398043,766.095498
761.094907,3108.864956,-11621.233289,1685.410096
761.095231,3627.009116,-10807.006753,3447.429741
761.095555,2812.782580,-12509.480420,2681.334243
761.095878,444.123565,-13767.830521,842.705048
761.096202,-1110.308913,-12435.459826,536.266849
761.096526,-666.185348,-9918.759623,1072.533697
761.096850,-444.123565,-8586.388927,842.705048
761.097174,-2294.638420,-7698.141797,766.095498
761.097498,-4885.359217,-7402.059420,1302.362347
761.097822,-6661.853478,-8512.368333,-1072.533697
761.098146,-7105.977043,-7476.080014,-2298.286494
761.098470,-6365.771101,-6957.935855,-1685.410096
761.098794,-4737.318029,-8808.450710,0.000000
761.099118,-2516.700203,-10362.883188,383.047749
761.099442,-1776.494261,-11325.150913,1149.143247
761.099766,-1998.556043,-11177.109724,2374.896044
761.100090,-2294.638420,-11769.274478,2604.724693
761.100414,-1554.432478,-12583.501014,2834.553343
761.100738,74.020594,-12287.418637,3830.477490
761.101062,2146.597232,-11843.295072,4826.401637
761.101386,3182.885551,-12139.377449,5362.668486
761.101710,3478.967927,-11769.274478,4903.011187
761.102034,1998.556043,-9252.574275,3830.477490
761.102358,296.082377,-7179.997637,2987.772442
761.102682,-2368.659014,-5773.606348,1302.362347
761.103006,-3404.947333,-4885.359217,-1608.800546
761.103330,-4441.235652,-6735.874072,-536.266849
761.103654,-4441.235652,-9992.780217,-383.047749
761.103978,-3775.050304,-10807.006753,-1915.238745
761.104302,-4737.318029,-9844.739029,76.609550
761.104626,-3923.091493,-8734.430116,1149.143247
761.104950,-740.205942,-8808.450710,1455.581446
761.105274,1554.432478,-9400.615463,2681.334243
761.105598,3108.864956,-8586.388927,4290.134789
761.105922,4737.318029,-8364.327145,4903.011187
761.106246,4589.276840,-10362.883188,5362.668486
761.106570,3775.050304,-10807.006753,5439.278036
761.106894,3627.009116,-9844.739029,4979.620737
761.107218,3182.885551,-9918.759623,4979.620737
761.107542,1184.329507,-9252.574275,3677.258390
761.107866,-1480.411884,-6957.935855,0.000000
761.108190,-3923.091493,-5847.626942,-4213.525239
761.108514,-7105.977043,-9844.739029,-3064.381992
761.108838,-6143.709319,-12213.398043,-4290.134789
761.109162,-3552.988522,-10066.800811,-5898.935335
761.109486,-3256.906145,-7698.141797,-2221.676944
761.109810,-888.247130,-6069.688724,-2681.334243
761.110134,1850.514855,-7994.224174,-3294.210641
761.110458,2886.803174,-9474.636058,-995.924147
761.110782,3849.070898,-9252.574275,2374.896044
761.111106,5255.462188,-10658.965565,2451.505594
761.111430,3849.070898,-12065.356855,2451.505594
761.111754,1628.453072,-11473.192101,4673.182538
761.112078,2072.576638,-12731.542202,3830.477490
761.112402,2368.659014,-14656.077652,2298.286494
761.112726,74.020594,-14359.995275,1685.410096
761.113050,-296.082377,-10140.821405,229.828649
761.113374,0.000000,-4737.318029,-4903.011187
761.113698,-1924.535449,-5921.647536,-7584.345430
761.114022,-3552.988522,-9992.780217,-6435.202183
761.114346,-296.082377,-11177.109724,-8197.221829
761.114670,0.000000,-9918.759623,-7814.174080
761.114994,-3775.050304,-9400.615463,-3677.258390
761.115318,-3478.967927,-9622.677246,-4213.525239
761.115642,-1258.350101,-11029.068536,-4213.525239
761.115966,-666.185348,-11843.295072,-1149.143247
761.116290,0.000000,-10732.986159,536.266849
761.116614,1332.370696,-11769.274478,689.485948
761.116938,-370.102971,-15396.283594,3907.087040
761.117262,2220.617826,-16802.674883,7048.078582
761.117586,6661.853478,-12361.439231,3524.039291
761.117910,6513.812290,-7698.141797,1762.019645
761.118234,2812.782580,-7624.121203,2298.286494
761.118558,3701.029710,-9252.574275,383.047749
761.118882,5477.523971,-6809.894666,-2451.505594
761.119206,888.247130,2368.659014,-10648.727422
761.119530,-6217.729913,-1184.329507,-6818.249932
761.119854,-8364.327145,-14878.139434,-3294.210641
761.120178,-2590.720797,-17764.942608,-10572.117872
761.120502,-7698.141797,-10732.986159,-3753.867940
761.120826,-10955.047942,-5107.421000,4443.353888
761.121150,-3775.050304,-9252.574275,-1072.533697
761.121474,-3552.988522,-13027.624579,-1685.410096
761.121798,-3849.070898,-5181.441594,459.657299
761.122122,2664.741391,-5921.647536,7048.078582
761.122446,9770.718434,-20503.704593,11261.603821
761.122770,12139.377449,-16654.633695,7584.345430
761.123094,9030.512492,-962.267725,6205.373534
761.123418,2812.782580,1702.473667,6818.249932
761.123742,2220.617826,-11547.212695,919.314598
761.124066,1850.514855,-15396.283594,-2221.676944
761.124390,-740.205942,3478.967927,-13330.061665
761.124714,-5921.647536,0.000000,-1991.848295
761.125038,-9178.553681,-19985.560434,-1149.143247
761.125362,-4811.338623,-20725.766376,-10648.727422
761.125686,-9622.677246,-9326.594869,919.314598
761.126010,-9104.533087,-2590.720797,4290.134789
761.126334,-2368.659014,-10658.965565,-1685.410096
761.126658,-1924.535449,-14878.139434,306.438199
761.126983,4589.276840,-1998.556043,3447.429741
761.127307,13397.727550,-5107.421000,10572.117872
761.127631,13693.809927,-21688.034101,8733.488677
761.127955,8808.450710,-17394.839637,5822.325785
761.128279,5551.544565,-4293.194464,6971.469032
761.128603,3330.926739,-1702.473667,4290.134789
761.128927,-962.267725,-5551.544565,-10648.727422
761.129251,-7179.997637,-13619.789333,-8044.002729
761.129575,-6143.709319,-15322.262999,-2221.676944
761.129899,1776.494261,-16062.468941,-5975.544884
761.130223,-3701.029710,-14359.995275,-3064.381992
761.130547,-10066.800811,-5995.668130,5822.325785
761.130871,-3997.112087,-4885.359217,76.609550
761.131195,-3923.091493,-9474.636058,-3830.477490
761.131519,-6143.709319,-8290.306550,-536.266849
761.131843,2072.576638,-8216.285956,5209.449386
761.132167,11177.109724,-15840.407159,9039.926876
761.132491,9622.677246,-16432.571912,7967.393179
761.132815,4441.235652,-6217.729913,5286.058936
761.133139,740.205942,-370.102971,4826.401637
761.133463,0.000000,-8512.368333,-1302.362347
761.133787,-2220.617826,-11695.253884,-4519.963438
761.134111,-1628.453072,-1184.329507,-10189.070123
761.134435,-1480.411884,-6809.894666,-766.095498
761.134759,-1628.453072,-19245.354492,-153.219100
761.135083,-1480.411884,-17024.736666,-6588.421283
761.135407,-8142.265362,-7846.182985,1685.410096
761.135731,-7772.162391,-4145.153275,1915.238745
761.136055,-2886.803174,-10881.027347,-1532.190996
761.136379,370.102971,-12065.356855,0.000000
761.136703,5847.626942,-3034.844362,2987.772442
761.137027,9104.533087,-6661.853478,6741.640382
761.137351,7105.977043,-16432.571912,3830.477490
761.137675,2664.741391,-11325.150913,3140.991542
761.137999,-222.061783,-1702.473667,2068.457845
761.138323,-4071.132681,1702.473667,-6588.421283
761.138647,-7550.100608,-7402.059420,-11031.775171
761.138971,-7550.100608,-16284.530724,-5515.887586
761.139295,2442.679609,-15692.365970,-3907.087040
761.139619,2590.720797,-14952.160028,-2528.115143
761.139944,-4219.173869,-11695.253884,1915.238745
761.140268,-2368.659014,-7105.977043,1302.362347
761.140592,444.123565,-10732.986159,-842.705048
761.140916,74.020594,-11399.171507,-459.657299
761.141240,2072.576638,-10732.986159,2757.943793
761.141564,7698.141797,-13619.789333,4903.011187
761.141888,9548.656652,-14878.139434,5822.325785
761.142212,5625.565159,-10214.842000,4596.572988
761.142536,814.226536,-3627.009116,2221.676944
761.142860,-2812.782580,1924.535449,-9193.145976
761.143184,-9104.533087,-7772.162391,-12027.699319
761.143508,-9622.677246,-16062.468941,-7048.078582
761.143832,740.205942,-13989.892304,-7431.126331
761.144156,2516.700203,-13101.645173,-2834.553343
761.144480,-3256.906145,-10881.027347,3217.601092
761.144804,-1554.432478,-8586.388927,-919.314598
761.145128,-888.247130,-10807.006753,-1991.848295
761.145452,0.000000,-9992.780217,1302.362347
761.145776,7031.956449,-10510.924376,3294.210641
761.146100,13545.768739,-14285.974681,6052.154434
761.146424,11621.233289,-14137.933492,8120.612279
761.146748,5403.503377,-9992.780217,6741.640382
761.147072,0.000000,-5921.647536,4290.134789
761.147396,-3923.091493,-4811.338623,-1608.800546
761.147720,-8586.388927,-2516.700203,-11721.261119
761.148044,-10288.862594,-4589.276840,-10648.727422
761.148368,-6069.688724,-12139.377449,-3753.867940
761.148692,2220.617826,-15544.324782,-4673.182538
761.149016,-444.123565,-12731.542202,-1991.848295
761.149340,-8808.450710,-8068.244768,2987.772442
761.149664,-6143.709319,-5477.523971,-1378.971896
761.149988,-3997.112087,-9104.533087,-1072.533697
761.150312,-222.061783,-9622.677246,1378.971896
761.150636,8808.450710,-10140.821405,6741.640382
761.150960,14508.036463,-17616.901420,9882.631924
761.151284,10955.047942,-15692.365970,7890.783629
761.151608,4959.379811,-4367.215058,4903.011187
761.151932,-2960.823768,-592.164754,4366.744339
761.152256,-5625.565159,-7402.059420,0.000000
761.152580,-5181.441594,-12287.418637,-4366.744339
761.152904,-5181.441594,518.144159,-12410.747068
761.153229,-4811.338623,-592.164754,-3677.258390
761.153553,-5921.647536,-18357.107362,1225.752797
761.153877,-1480.411884,-20651.745782,-7660.954980
761.154201,-7105.977043,-9622.677246,229.828649
761.154525,-9104.533087,-3404.947333,5669.106685
761.154849,592.164754,-10288.862594,689.485948
761.155173,4589.276840,-17616.901420,1378.971896
761.155497,9178.553681,-7402.059420,4213.525239
761.155821,14804.118840,-4367.215058,9269.755526
761.156145,12731.542202,-16210.510130,7277.907231
761.156469,4737.318029,-15100.201217,4443.353888
761.156793,0.000000,-3552.988522,4519.963438
761.157117,-4515.256246,3108.864956,-4596.572988
761.157441,-9030.512492,-7624.121203,-9729.412825
761.157765,-10807.006753,-20133.601622,-6052.154434
761.158089,-1258.350101,-15248.242405,-6128.763984
761.158413,1702.473667,-10436.903782,-2604.724693
761.158737,-5107.421000,-9474.636058,2374.896044
761.159061,-4589.276840,-6735.874072,1915.238745
761.159385,-1776.494261,-8586.388927,-919.314598
761.159709,-592.164754,-8142.265362,-1072.533697
761.160033,1258.350101,-10140.821405,4060.306139
761.160357,9474.636058,-16580.613101,7124.688131
761.160681,13471.748144,-15396.283594,9193.145976
761.161005,9400.615463,-7920.203579,7201.297681
761.161329,1110.308913,-3627.009116,4979.620737
761.161653,-3404.947333,-4885.359217,842.705048
761.161977,-3997.112087,-8512.368333,-6665.030833
761.162301,-6143.709319,-1184.329507,-14096.157163
761.162625,-7328.038826,-5033.400406,-3983.696590
761.162949,-4145.153275,-18579.169144,-689.485948
761.163273,148.041188,-19541.436869,-6894.859482
761.163597,-6661.853478,-10881.027347,229.828649
761.163921,-7179.997637,-2886.803174,2604.724693
761.164245,0.000000,-9030.512492,-1225.752797
761.164569,2886.803174,-16136.489536,536.266849
761.164893,9770.718434,-6365.771101,2987.772442
761.165217,14952.160028,-5847.626942,8427.050478
761.165541,12287.418637,-17246.798449,7277.907231
761.165865,4885.359217,-14952.160028,4749.792088
761.166190,518.144159,-4515.256246,3294.210641
761.166514,-2294.638420,222.061783,689.485948
761.166838,-6513.812290,-1702.473667,-11721.261119
761.167162,-9400.615463,-8142.265362,-13023.623466
761.167486,-7846.182985,-12213.398043,-3677.258390
761.167810,666.185348,-15840.407159,-4903.011187
761.168134,-2738.761985,-15618.345376,-5132.839837
761.168458,-10288.862594,-8882.471304,4673.182538
761.168782,-3256.906145,-5847.626942,229.828649
761.169106,666.185348,-11547.212695,-2451.505594
761.169430,0.000000,-11843.295072,-306.438199
761.169754,6883.915261,-9992.780217,4443.353888
761.170078,14434.015869,-15544.324782,7814.174080
761.170402,11325.150913,-18061.024985,7124.688131
761.170726,4071.132681,-9474.636058,4749.792088
761.171050,-1258.350101,-1332.370696,3370.820191
761.171374,-2294.638420,-5033.400406,-1915.238745
761.171698,-7105.977043,-6513.812290,-11721.261119
761.172022,-8068.244768,-3256.906145,-12257.527968
761.172346,-6439.791695,-9844.739029,-1532.190996
761.172670,592.164754,-18949.272115,-2987.772442
761.172994,-1480.411884,-15914.427753,-5056.230287
761.173318,-9770.718434,-6735.874072,4443.353888
761.173642,-5107.421000,-5033.400406,229.828649
761.173966,0.000000,-13323.706956,-2451.505594
761.174290,3256.906145,-13101.645173,459.657299
761.174614,10436.903782,-5921.647536,6128.763984
761.174938,14730.098246,-11473.192101,8886.707777
761.175262,9474.636058,-18209.066173,7048.078582
761.175586,2886.803174,-9548.656652,4673.182538
761.175910,-592.164754,148.041188,1685.410096
761.176234,-4219.173869,-666.185348,-4749.792088
761.176558,-8586.388927,-6957.935855,-14096.157163
761.176882,-9622.677246,-11843.295072,-5898.935335
761.177206,-1702.473667,-13619.789333,-1072.533697
761.177530,1554.432478,-15618.345376,-4290.134789
761.177854,-6217.729913,-12213.398043,3217.601092
761.178178,-5847.626942,-5033.400406,3907.087040
761.178502,-1184.329507,-6735.874072,-1225.752797
761.178826,-1332.370696,-10807.006753,-536.266849
761.179150,3108.864956,-9326.594869,2987.772442
761.179475,11843.295072,-11621.233289,7431.126331
761.179799,13545.768739,-15988.448347,8427.050478
761.180123,6661.853478,-11695.253884,6894.859482
761.180447,962.267725,-3552.988522,4596.572988
761.180771,-962.267725,-444.123565,842.705048
761.181095,-5995.668130,-3256.906145,-9499.584175
761.181419,-9326.594869,-5477.523971,-11797.870669
761.181743,-7920.203579,-11251.130318,-2604.724693
761.182067,1332.370696,-17987.004391,-1532.190996
761.182391,888.247130,-16506.592507,-2604.724693
761.182715,-7772.162391,-8512.368333,5132.839837
761.183039,-4737.318029,-5255.462188,1991.848295
761.183363,-888.247130,-11769.274478,-1532.190996
761.183687,1184.329507,-13175.665768,536.266849
761.184011,9030.512492,-7550.100608,5056.230287
761.184335,14952.160028,-10955.047942,8656.879127
761.184659,10732.986159,-17024.736666,7737.564530
761.184983,3330.926739,-11177.109724,5362.668486
761.185307,-1184.329507,-1776.494261,2068.457845
761.185631,-6291.750507,2220.617826,-8963.317327
761.185955,-11621.233289,-8142.265362,-12563.966167
761.186279,-10881.027347,-16136.489536,-6052.154434
761.186603,1628.453072,-14211.954086,-3907.087040
761.186927,1850.514855,-13323.706956,-2221.676944
761.187251,-6439.791695,-11251.130318,4596.572988
761.187575,-5107.421000,-7105.977043,766.095498
761.187899,-3034.844362,-9326.594869,-2681.334243
761.188223,-3182.885551,-9548.656652,-612.876398
761.188547,3478.967927,-10362.883188,3064.381992
761.188871,13989.892304,-16210.510130,8503.660028
761.189195,14878.139434,-16654.633695,9193.145976
761.189519,8068.244768,-7846.182985,5132.839837
761.189843,-1480.411884,-2072.576638,4596.572988
761.190167,-3701.029710,-4959.379811,-689.485948
761.190491,-4663.297435,-9400.615463,-7507.735880
761.190815,-7254.018232,-740.205942,-15015.471761
761.191139,-7698.141797,-3552.988522,-3907.087040
761.191463,-3997.112087,-18431.127956,612.876398
761.191787,222.061783,-20503.704593,-7277.907231
761.192111,-7402.059420,-9696.697840,1455.581446
761.192436,-7624.121203,-2146.597232,3524.039291
761.192760,-888.247130,-9474.636058,-2221.676944
761.193084,2368.659014,-16358.551318,-153.219100
761.193408,9104.533087,-7179.997637,3753.867940
761.193732,16210.510130,-6735.874072,9039.926876
761.194056,13915.871710,-17172.777854,7507.735880
761.194380,4885.359217,-13767.830521,4673.182538
761.194704,222.061783,-3034.844362,2528.115143
761.195028,-3701.029710,2738.761985,-2528.115143
761.195352,-7920.203579,-2590.720797,-15245.300410
761.195676,-12583.501014,-14730.098246,-8810.098227
761.196000,-5181.441594,-15248.242405,-3830.477490
761.196324,2590.720797,-14211.954086,-5362.668486
761.196648,-4071.132681,-12509.480420,1225.752797
761.196972,-6809.894666,-6365.771101,4366.744339
761.197296,-1332.370696,-7846.182985,-1838.629195
761.197620,-1110.308913,-11177.109724,-2145.067394
761.197944,888.247130,-9326.594869,1608.800546
761.198268,10955.047942,-11843.295072,5898.935335
761.198592,16580.613101,-16580.613101,8580.269578
761.198916,9844.739029,-13767.830521,7431.126331
761.199240,2146.597232,-6957.935855,6281.983084
761.199564,-1998.556043,-1776.494261,995.924147
761.199888,-6217.729913,-4293.194464,-8580.269578
761.200212,-10214.842000,-4885.359217,-15398.519510
761.200536,-10436.903782,-9474.636058,-5286.058936
761.200860,-1184.329507,-16654.633695,-1225.752797
761.201184,2294.638420,-16950.716072,-4519.963438
761.201508,-6143.709319,-10066.800811,4290.134789
761.201832,-5329.482782,-4071.132681,1455.581446
761.202156,-1184.329507,-9326.594869,-2604.724693
761.202480,444.123565,-13471.748144,-383.047749
761.202804,8808.450710,-8142.265362,3830.477490
761.203128,16432.571912,-10066.800811,9269.755526
761.203452,13619.789333,-16580.613101,8580.269578
761.203776,4589.276840,-12139.377449,6128.763984
761.204100,-1258.350101,-3478.967927,2987.772442
761.204424,-5995.668130,888.247130,-5056.230287
761.204748,-11695.253884,-5699.585753,-13406.671215
761.205072,-14063.912898,-14211.954086,-7660.954980
761.205396,-2960.823768,-13397.727550,-3983.696590
761.205721,2664.741391,-12805.562797,-2298.286494
761.206045,-4737.318029,-12435.459826,3677.258390
761.206369,-5847.626942,-7179.997637,2451.505594
761.206693,-2516.700203,-7476.080014,-2451.505594
761.207017,-2294.638420,-9252.574275,-1072.533697
761.207341,2516.700203,-9844.739029,2987.772442
761.207665,12213.398043,-14211.954086,7431.126331
761.207989,15322.262999,-16728.654289,9499.584175
761.208313,8660.409521,-11843.295072,7354.516781
761.208637,740.205942,-5255.462188,4903.011187
761.208961,-3478.967927,-2220.617826,689.485948
761.209285,-5181.441594,-5699.585753,-5745.716235
761.209609,-8290.306550,-1480.411884,-13866.328514
761.209933,-9030.512492,-5033.400406,-6128.763984
761.210257,-5329.482782,-15988.448347,0.000000
761.210581,-222.061783,-18653.189738,-4596.572988
761.210905,-4737.318029,-11325.150913,153.219100
761.211229,-6513.812290,-3849.070898,3294.210641
761.211553,-962.267725,-7920.203579,-1225.752797
761.211877,2664.741391,-14804.118840,536.266849
761.212201,9770.718434,-9030.512492,4443.353888
761.212525,16062.468941,-8660.409521,8886.707777
761.212849,14878.139434,-16358.551318,8580.269578
761.213173,7772.162391,-13841.851115,6435.202183
761.213497,1998.556043,-4663.297435,2681.334243
761.213821,-4589.276840,3627.009116,-6511.811733
761.214145,-11177.109724,-4589.276840,-12563.966167
761.214469,-14137.933492,-17320.819043,-7814.174080
761.214793,-3034.844362,-14878.139434,-7201.297681
761.215117,1332.370696,-11177.109724,-3830.477490
761.215441,-5477.523971,-9844.739029,2757.943793
761.215765,-4515.256246,-7846.182985,1838.629195
761.216089,-2516.700203,-9770.718434,-2068.457845
761.216413,-1850.514855,-8142.265362,-1838.629195
761.216737,1776.494261,-9178.553681,3600.648841
761.217061,10510.924376,-17468.860231,7201.297681
761.217385,14730.098246,-18283.086767,9959.241474
761.217709,11695.253884,-9474.636058,7201.297681
761.218034,2294.638420,-3923.091493,5056.230287
761.218358,-3552.988522,-5847.626942,842.705048
761.218682,-4219.173869,-10881.027347,-5822.325785
761.219006,-7105.977043,-1036.288319,-12717.185267
761.219330,-7846.182985,962.267725,-8273.831378
761.219654,-8660.409521,-15322.262999,-536.266849
761.219978,-2738.761985,-22280.198854,-5592.497135
761.220302,-4959.379811,-13767.830521,-5439.278036
761.220626,-10214.842000,-3701.029710,3753.867940
761.220950,-3108.864956,-6809.894666,0.000000
761.221274,2590.720797,-16802.674883,-766.095498
761.221598,7846.182985,-10732.986159,2604.724693
761.221922,14434.015869,-4959.379811,8120.612279
761.222246,15766.386565,-14359.995275,8963.317327
761.222570,9548.656652,-17246.798449,5286.058936
761.222895,3108.864956,-6513.812290,4213.525239
761.223219,-666.185348,148.041188,2145.067394
761.223543,-4515.256246,-1184.329507,-7124.688131
761.223867,-9104.533087,-7846.182985,-14555.814462
761.224191,-11769.274478,-12287.418637,-4290.134789
761.224515,-3552.988522,-14063.912898,-3370.820191
761.224839,-814.226536,-14582.057057,-6665.030833
761.225163,-9178.553681,-9844.739029,5209.449386
761.225487,-5995.668130,-5181.441594,2604.724693
761.225811,-222.061783,-9326.594869,-3064.381992
761.226135,-1184.329507,-12583.501014,0.000000
761.226459,4885.359217,-9844.739029,3294.210641
761.226783,14804.118840,-13027.624579,8427.050478
761.227107,14211.954086,-15026.180623,8427.050478
761.227431,5995.668130,-9030.512492,5822.325785
761.227756,-740.205942,-2960.823768,4213.525239
761.228080,-2442.679609,-5033.400406,-1302.362347
761.228404,-6439.791695,-7254.018232,-9806.022374
761.228728,-8882.471304,-4663.297435,-11414.822920
761.229052,-7328.038826,-10214.842000,-1838.629195
761.229376,222.061783,-17616.901420,-1762.019645
761.229700,-370.102971,-15322.262999,-4290.134789
761.230024,-9178.553681,-7105.977043,5592.497135
761.230348,-3923.091493,-5995.668130,1225.752797
761.230672,1480.411884,-12583.501014,-1838.629195
761.230996,3256.906145,-11769.274478,1149.143247
761.231320,11547.212695,-5477.523971,6128.763984
761.231644,15766.386565,-10658.965565,8963.317327
761.231968,9622.677246,-15692.365970,5898.935335
761.232293,2072.576638,-8216.285956,4213.525239
761.232617,-2664.741391,74.020594,0.000000
761.232941,-6365.771101,-370.102971,-11184.994271
761.233265,-12731.542202,-14211.954086,-9193.145976
761.233589,-8808.450710,-17246.798449,-5822.325785
761.233913,1998.556043,-11769.274478,-5362.668486
761.234237,-1332.370696,-12435.459826,1532.190996
761.234561,-5773.606348,-10362.883188,3447.429741
761.234885,-2368.659014,-7698.141797,-153.219100
761.235209,-1554.432478,-9030.512492,-1608.800546
761.235533,74.020594,-9104.533087,1072.533697
761.235857,7254.018232,-13989.892304,5975.544884
761.236181,14063.912898,-17468.860231,8810.098227
761.236505,12139.377449,-11103.089130,8044.002729
761.236829,4145.153275,-4737.318029,5362.668486
761.237154,-2886.803174,-4515.256246,2221.676944
761.237478,-4663.297435,-7994.224174,-4060.306139
761.237802,-7402.059420,-4367.215058,-9959.241474
761.238126,-7624.121203,962.267725,-11797.870669
761.238450,-8438.347739,-10881.027347,-1378.971896
761.238774,-2886.803174,-20577.725188,-3140.991542
761.239098,-2294.638420,-15026.180623,-5132.839837
761.239422,-8438.347739,-6809.894666,4826.401637
761.239746,-2220.617826,-5551.544565,2145.067394
761.240070,3404.947333,-14656.077652,0.000000
761.240394,6439.791695,-13989.892304,2374.896044
761.240718,12435.459826,-5329.482782,7354.516781
761.241042,15322.262999,-11325.150913,8810.098227
761.241366,9696.697840,-17838.963202,5745.716235
761.241690,2886.803174,-8956.491898,4903.011187
761.242015,-1776.494261,-962.267725,1991.848295
761.242339,-7476.080014,2072.576638,-8580.269578
761.242663,-13545.768739,-7698.141797,-13713.109414
761.242987,-13841.851115,-15322.262999,-6128.763984
761.243311,-1554.432478,-12583.501014,-5669.106685
761.243635,-148.041188,-12361.439231,-3830.477490
761.243959,-7846.182985,-8586.388927,4136.915689
761.244283,-4441.235652,-5255.462188,2068.457845
761.244607,148.041188,-9548.656652,-1991.848295
761.244931,888.247130,-11843.295072,1225.752797
761.245255,6735.874072,-13101.645173,5975.544884
761.245579,15618.345376,-16876.695478,9422.974625
761.245903,15766.386565,-14508.036463,9576.193725
761.246227,7328.038826,-7105.977043,5669.106685
761.246551,-1850.514855,-2886.803174,3907.087040
761.246876,-5329.482782,-4737.318029,-2451.505594
761.247200,-9400.615463,-5995.668130,-11491.432470
761.247524,-10436.903782,-2294.638420,-12947.013916
761.247848,-8734.430116,-9622.677246,-2757.943793
761.248172,-1258.350101,-18135.045579,-3217.601092
761.248496,-1406.391290,-15914.427753,-5975.544884
761.248820,-9474.636058,-7476.080014,4596.572988
761.249144,-3997.112087,-5847.626942,1915.238745
761.249468,1776.494261,-14137.933492,-1225.752797
761.249792,5107.421000,-14359.995275,2221.676944
761.250116,13989.892304,-7105.977043,7048.078582
761.250440,18653.189738,-12139.377449,9882.631924
761.250764,13027.624579,-17987.004391,7354.516781
761.251088,3627.009116,-9992.780217,5056.230287
761.251412,-2442.679609,-222.061783,1072.533697
761.251737,-7772.162391,1998.556043,-11108.384721
761.252061,-14508.036463,-11917.315666,-11568.042020
761.252385,-12213.398043,-17468.860231,-6588.421283
761.252709,666.185348,-12213.398043,-6741.640382
761.253033,-740.205942,-11843.295072,-612.876398
761.253357,-7105.977043,-9030.512492,2911.162892
761.253681,-4071.132681,-5403.503377,459.657299
761.254005,-814.226536,-8734.430116,-1302.362347
761.254329,592.164754,-9622.677246,766.095498
761.254653,7846.182985,-14137.933492,7048.078582
761.254977,16136.489536,-18875.251521,10955.165621
761.255301,15618.345376,-12805.562797,8810.098227
761.255625,6957.935855,-4737.318029,5745.716235
761.255949,-2812.782580,-2368.659014,3907.087040
761.256273,-5255.462188,-7031.956449,-3524.039291
761.256598,-8734.430116,-5699.585753,-10572.117872
761.256922,-9400.615463,518.144159,-11874.480219
761.257246,-8068.244768,-8512.368333,-1532.190996
761.257570,-2072.576638,-18801.230927,-3753.867940
761.257894,-2516.700203,-15026.180623,-6358.592633
761.258218,-10732.986159,-6365.771101,3907.087040
761.258542,-3923.091493,-4293.194464,2298.286494
761.258866,2812.782580,-13175.665768,-995.924147
761.259190,5773.606348,-14063.912898,2834.553343
761.259514,13397.727550,-5773.606348,7584.345430
761.259838,17024.736666,-11769.274478,9576.193725
761.260162,10584.944971,-18949.272115,6435.202183
761.260486,1554.432478,-9178.553681,4060.306139
761.260810,-3330.926739,222.061783,1915.238745
761.261135,-7328.038826,1924.535449,-6741.640382
761.261459,-10955.047942,-6365.771101,-15934.786358
761.261783,-12509.480420,-14211.954086,-6205.373534
761.262107,-1332.370696,-13767.830521,-3983.696590
761.262431,666.185348,-14804.118840,-5898.935335
761.262755,-8216.285956,-10881.027347,3677.258390
761.263079,-5995.668130,-5255.462188,2451.505594
761.263403,592.164754,-10288.862594,-1838.629195
761.263727,814.226536,-14063.912898,76.609550
761.264051,4663.297435,-12879.583391,4443.353888
761.264375,14434.015869,-15766.386565,9422.974625
761.264699,16950.716072,-17246.798449,8886.707777
761.265023,8364.327145,-10362.883188,5592.497135
761.265347,-1110.308913,-2442.679609,3907.087040
761.265671,-3997.112087,-2442.679609,-1378.971896
761.265996,-8586.388927,-5181.441594,-12640.575717
761.266320,-11399.171507,-5033.400406,-13100.233016
761.266644,-8512.368333,-9548.656652,-3677.258390
761.266968,1036.288319,-16950.716072,-3907.087040
761.267292,0.000000,-16432.571912,-5132.839837
761.267616,-8660.409521,-7254.018232,3830.477490
761.267940,-3108.864956,-4737.318029,1378.971896
761.268264,962.267725,-12879.583391,-1072.533697
761.268588,3627.009116,-13767.830521,1608.800546
761.268912,12805.562797,-7994.224174,7048.078582
761.269236,18653.189738,-12213.398043,10035.851024
761.269560,13175.665768,-17172.777854,8197.221829
761.269884,3701.029710,-8882.471304,4519.963438
761.270208,-2220.617826,0.000000,1608.800546
761.270532,-7105.977043,1628.453072,-7124.688131
761.270857,-11103.089130,-6661.853478,-15398.519510
761.271181,-11843.295072,-12879.583391,-6588.421283
761.271505,-1036.288319,-12657.521608,-3294.210641
761.271829,1258.350101,-13915.871710,-4826.401637
761.272153,-8364.327145,-10881.027347,2987.772442
761.272477,-6661.853478,-4589.276840,1532.190996
761.272801,-1258.350101,-7772.162391,-2145.067394
761.273125,-518.144159,-12139.377449,-383.047749
761.273449,4885.359217,-11991.336260,4826.401637
761.273773,14878.139434,-15100.201217,10342.289223
761.274097,16654.633695,-16506.592507,8963.317327
761.274421,7994.224174,-8808.450710,5209.449386
761.274745,-1776.494261,-1776.494261,3907.087040
761.275069,-4737.318029,-3108.864956,-612.876398
761.275393,-6069.688724,-10066.800811,-6588.421283
761.275718,-8512.368333,-1332.370696,-14555.814462
761.276042,-8512.368333,-2516.700203,-4979.620737
761.276366,-6217.729913,-17246.798449,-153.219100
761.276690,-1998.556043,-20281.642811,-8197.221829
761.277014,-8068.244768,-10510.924376,-306.438199
761.277338,-7994.224174,-3330.926739,4519.963438
761.277662,222.061783,-10362.883188,-1532.190996
761.277986,3552.988522,-17690.922014,0.000000
761.278310,10807.006753,-9030.512492,4136.915689
761.278634,17172.777854,-7994.224174,9806.022374
761.278958,14359.995275,-18431.127956,7354.516781
761.279282,4663.297435,-14063.912898,3677.258390
761.279606,-1258.350101,-1776.494261,2068.457845
761.279930,-4885.359217,2812.782580,-3983.696590
761.280254,-8734.430116,-5329.482782,-15245.300410
761.280579,-13397.727550,-16358.551318,-7507.735880
761.280903,-4293.194464,-14285.974681,-4290.134789
761.281227,2220.617826,-12731.542202,-4826.401637
761.281551,-6069.688724,-12213.398043,1991.848295
761.281875,-6661.853478,-6069.688724,2834.553343
761.282199,-1332.370696,-7920.203579,-1991.848295
761.282523,444.123565,-11621.233289,-612.876398
761.282847,3775.050304,-11621.233289,4519.963438
761.283171,13397.727550,-15396.283594,8656.879127
761.283495,17098.757260,-15692.365970,9346.365076
761.283819,10288.862594,-9178.553681,6588.421283
761.284143,222.061783,-3701.029710,4290.134789
761.284467,-3923.091493,-2442.679609,-153.219100
761.284791,-6217.729913,-6735.874072,-8044.002729
761.285115,-8734.430116,-3034.844362,-14402.595362
761.285440,-8882.471304,-5551.544565,-3983.696590
761.285764,-2516.700203,-16876.695478,-919.314598
761.286088,74.020594,-17690.922014,-6358.592633
761.286412,-8660.409521,-9548.656652,2834.553343
761.286736,-7105.977043,-3330.926739,2451.505594
761.287060,-444.123565,-9770.718434,-995.924147
761.287384,2368.659014,-15396.283594,1225.752797
761.287708,10881.027347,-8290.306550,5362.668486
761.288032,17764.942608,-9030.512492,10265.679673
761.288356,14211.954086,-17320.819043,6971.469032
761.288680,4071.132681,-11473.192101,5056.230287
761.289004,-2738.761985,-1036.288319,2145.067394
761.289328,-5477.523971,74.020594,-1302.362347
761.289652,-9474.636058,-3182.885551,-14709.033562
761.289977,-11843.295072,-9030.512492,-10725.336972
761.290301,-7254.018232,-12361.439231,-1149.143247
761.290625,1924.535449,-16358.551318,-5132.839837
761.290949,-3552.988522,-14508.036463,-2451.505594
761.291273,-10807.006753,-6513.812290,5132.839837
761.291597,-4293.194464,-5477.523971,-995.924147
761.291921,-518.144159,-13915.871710,-1455.581446
761.292245,2146.597232,-14211.954086,2068.457845
761.292569,12583.501014,-12361.439231,8427.050478
761.292893,18801.230927,-16062.468941,10418.898773
761.293217,12287.418637,-13619.789333,5515.887586
761.293541,1998.556043,-4737.318029,4290.134789
761.293865,-3404.947333,-962.267725,1225.752797
761.294189,-4737.318029,-7105.977043,-4519.963438
761.294513,-9252.574275,-5773.606348,-14172.766713
761.294838,-9400.615463,-3256.906145,-8580.269578
761.295162,-5625.565159,-12805.562797,536.266849
761.295486,962.267725,-20429.683999,-5898.935335
761.295810,-4959.379811,-13989.892304,-2451.505594
761.296134,-9474.636058,-4737.318029,5439.278036
761.296458,-1702.473667,-7031.956449,-612.876398
761.296782,2368.659014,-15692.365970,-383.047749
761.297106,7105.977043,-11399.171507,2145.067394
761.297430,15618.345376,-6069.688724,9039.926876
761.297754,16802.674883,-15174.221811,9039.926876
761.298078,7624.121203,-15988.448347,5132.839837
761.298402,-74.020594,-3997.112087,3370.820191
761.298726,-3997.112087,2812.782580,-842.705048
761.299050,-7698.141797,-1332.370696,-14172.766713
761.299374,-13619.789333,-14285.974681,-8886.707777
761.299699,-7994.224174,-15470.304188,-3983.696590
761.300023,2294.638420,-11843.295072,-4749.792088
761.300347,-3478.967927,-12805.562797,842.705048
761.300671,-7624.121203,-6883.915261,2757.943793
761.300995,-3627.009116,-4737.318029,-689.485948
761.301319,-1110.308913,-10881.027347,-1762.019645
761.301643,1110.308913,-11695.253884,1838.629195
761.301967,9918.759623,-13767.830521,7737.564530
761.302291,16136.489536,-15618.345376,9193.145976
761.302615,11843.295072,-9992.780217,7354.516781
761.302939,2368.659014,-3775.050304,4519.963438
761.303263,-3478.967927,-2146.597232,1072.533697
761.303587,-5107.421000,-7328.038826,-5209.449386
761.303911,-9030.512492,-4441.235652,-12947.013916
761.304235,-7624.121203,-2590.720797,-7660.954980
761.304560,-4663.297435,-14285.974681,306.438199
761.304884,370.102971,-20947.828159,-5898.935335
761.305208,-5403.503377,-13767.830521,-2987.772442
761.305532,-9474.636058,-6069.688724,4749.792088
761.305856,-1702.473667,-7846.182985,306.438199
761.306180,3552.988522,-16358.551318,0.000000
761.306504,8808.450710,-11103.089130,2911.162892
761.306828,16284.530724,-4959.379811,8427.050478
761.307152,16358.551318,-14137.933492,7737.564530
761.307476,7179.997637,-16876.695478,4519.963438
761.307800,-740.205942,-4885.359217,2145.067394
761.308124,-5773.606348,5107.421000,-7201.297681
761.308448,-11473.192101,-4441.235652,-11184.994271
761.308772,-13619.789333,-20059.581028,-8350.440928
761.309096,-2368.659014,-16580.613101,-7737.564530
761.309421,2516.700203,-10288.862594,-2374.896044
761.309745,-3849.070898,-10584.944971,2681.334243
761.310069,-4811.338623,-8290.306550,842.705048
761.310393,-2960.823768,-8068.244768,-1225.752797
761.310717,-740.205942,-7920.203579,-306.438199
761.311041,3182.885551,-11843.295072,4826.401637
761.311365,11843.295072,-19023.292709,8120.612279
761.311689,15766.386565,-15692.365970,9729.412825
761.312013,11473.192101,-6217.729913,7048.078582
761.312337,518.144159,-2960.823768,5056.230287
761.312661,-5625.565159,-5329.482782,-612.876398
761.312985,-6143.709319,-7772.162391,-6971.469032
761.313309,-8586.388927,1110.308913,-14249.376263
761.313633,-8364.327145,-3923.091493,-4596.572988
761.313957,-5255.462188,-17468.860231,-766.095498
761.314282,74.020594,-18431.127956,-7124.688131
761.314606,-6439.791695,-10807.006753,229.828649
761.314930,-7698.141797,-3330.926739,4136.915689
761.315254,-1332.370696,-8808.450710,229.828649
761.315578,2516.700203,-15322.262999,1149.143247
761.315902,9548.656652,-7698.141797,4673.182538
761.316226,16506.592507,-7624.121203,9882.631924
761.316550,15322.262999,-17690.922014,8044.002729
761.316874,6291.750507,-14285.974681,5515.887586
761.317198,-296.082377,-2516.700203,3753.867940
761.317522,-4885.359217,518.144159,229.828649
761.317846,-10066.800811,-1998.556043,-12257.527968
761.318171,-12583.501014,-8290.306550,-13406.671215
761.318495,-10140.821405,-12139.377449,-3294.210641
761.318819,0.000000,-15988.448347,-3983.696590
761.319143,-1850.514855,-15396.283594,-4673.182538
761.319467,-10510.924376,-8142.265362,5898.935335
761.319792,-4219.173869,-5329.482782,995.924147
761.320116,370.102971,-11843.295072,-1532.190996
761.320440,1332.370696,-14211.954086,1991.848295
761.320764,9548.656652,-12139.377449,6741.640382
761.321089,17690.922014,-15174.221811,9193.145976
761.321413,13841.851115,-16358.551318,7584.345430
761.321737,5033.400406,-8216.285956,5132.839837
761.322061,-1850.514855,-148.041188,2298.286494
761.322385,-4811.338623,-1924.535449,-5515.887586
761.322710,-9770.718434,-6439.791695,-15092.081311
761.323034,-11769.274478,-10362.883188,-7354.516781
761.323358,-1924.535449,-13693.809927,-2451.505594
761.323682,3256.906145,-15914.427753,-5669.106685
761.324006,-5625.565159,-12065.356855,1915.238745
761.324331,-6809.894666,-4663.297435,2757.943793
761.324655,-1332.370696,-8512.368333,-1532.190996
761.324979,370.102971,-12879.583391,-459.657299
761.325303,6661.853478,-9992.780217,3294.210641
761.325628,15396.283594,-10807.006753,9576.193725
761.325952,16654.633695,-16136.489536,8733.488677
761.326276,8290.306550,-12953.603985,6741.640382
761.326600,370.102971,-3997.112087,3294.210641
761.326924,-3552.988522,666.185348,-1762.019645
761.327249,-8586.388927,-2812.782580,-15551.738609
761.327573,-13249.686362,-11917.315666,-9576.193725
761.327897,-6439.791695,-13471.748144,-3830.477490
761.328221,2664.741391,-14137.933492,-5056.230287
761.328546,-3997.112087,-13915.871710,919.314598
761.328870,-8142.265362,-6587.832884,2451.505594
761.329194,-2960.823768,-5329.482782,-2145.067394
761.329518,-2146.597232,-10288.862594,-1302.362347
761.329842,296.082377,-9918.759623,1378.971896
761.330167,10881.027347,-12213.398043,7814.174080
761.330491,17098.757260,-17394.839637,10725.336972
761.330815,12287.418637,-12731.542202,6358.592633
761.331139,2220.617826,-3552.988522,3983.696590
761.331464,-4219.173869,-1036.288319,2374.896044
761.331788,-5255.462188,-7994.224174,-4443.353888
761.332112,-8808.450710,-4737.318029,-12793.794817
761.332436,-7624.121203,814.226536,-10418.898773
761.332760,-5699.585753,-11769.274478,1072.533697
761.333085,148.041188,-23094.425390,-4903.011187
761.333409,-4293.194464,-16580.613101,-6128.763984
761.333733,-11843.295072,-5033.400406,4749.792088
761.334057,-3552.988522,-5921.647536,612.876398
761.334382,2368.659014,-17616.901420,-1149.143247
761.334706,6513.812290,-13471.748144,1532.190996
761.335030,13545.768739,-4441.235652,7737.564530
761.335354,16210.510130,-14285.974681,8886.707777
761.335678,9474.636058,-20059.581028,4903.011187
761.336003,1554.432478,-7624.121203,3677.258390
761.336327,-2960.823768,1406.391290,2298.286494
761.336651,-7402.059420,370.102971,-9652.803275
761.336975,-11547.212695,-9622.677246,-13942.938064
761.337300,-11177.109724,-13915.871710,-4443.353888
761.337624,518.144159,-13545.768739,-2987.772442
761.337948,0.000000,-14804.118840,-4673.182538
761.338272,-8808.450710,-9030.512492,3983.696590
761.338596,-4885.359217,-4589.276840,2604.724693
761.338921,296.082377,-10732.986159,-1915.238745
761.339245,518.144159,-13101.645173,919.314598
761.339569,5107.421000,-10807.006753,5515.887586
761.339893,15026.180623,-14359.995275,9039.926876
761.340218,14730.098246,-15988.448347,9039.926876
761.340542,6143.709319,-9918.759623,6281.983084
761.340866,-1406.391290,-1776.494261,3753.867940
761.341190,-4293.194464,-2146.597232,-995.924147
761.341514,-8956.491898,-5255.462188,-12640.575717
761.341839,-9918.759623,-4737.318029,-10189.070123
761.342163,-6883.915261,-10510.924376,-995.924147
761.342487,1184.329507,-17320.819043,-3294.210641
761.342811,-2072.576638,-14730.098246,-2681.334243
761.343135,-9548.656652,-6143.709319,4749.792088
761.343460,-3923.091493,-4071.132681,1455.581446
761.343784,592.164754,-12435.459826,0.000000
761.344108,5551.544565,-10955.047942,1762.019645
761.344432,14508.036463,-5995.668130,7890.783629
761.344757,17690.922014,-12287.418637,9193.145976
761.345081,10510.924376,-15840.407159,6741.640382
761.345405,1998.556043,-7550.100608,4443.353888
761.345729,-2368.659014,148.041188,612.876398
761.346053,-7105.977043,740.205942,-10801.946522
761.346378,-11991.336260,-11473.192101,-12104.308868
761.346702,-9548.656652,-15026.180623,-4749.792088
761.347026,2812.782580,-13693.809927,-4060.306139
761.347350,592.164754,-14804.118840,-1991.848295
761.347675,-7698.141797,-10288.862594,3294.210641
761.347999,-4737.318029,-6365.771101,-153.219100
761.348323,-2072.576638,-9992.780217,-2528.115143
761.348647,-666.185348,-10807.006753,-919.314598
761.348971,6143.709319,-12657.521608,4366.744339
761.349296,13693.809927,-16358.551318,7048.078582
761.349620,12583.501014,-15766.386565,7890.783629
761.349944,5329.482782,-9992.780217,4826.401637
761.350268,-1628.453072,-3478.967927,2604.724693
761.350593,-4071.132681,-4441.235652,-2987.772442
761.350917,-8216.285956,-5033.400406,-12717.185267
761.351241,-9030.512492,-4589.276840,-11414.822920
761.351565,-6513.812290,-11769.274478,-1608.800546
761.351889,1332.370696,-18949.272115,-3370.820191
761.352214,-1258.350101,-15766.386565,-2681.334243
761.352538,-9400.615463,-6661.853478,3294.210641
761.352862,-4885.359217,-4589.276840,306.438199
761.353186,-518.144159,-13545.768739,-1072.533697
761.353511,4515.256246,-12509.480420,612.876398
761.353835,12805.562797,-6883.915261,6741.640382
761.354159,15618.345376,-12361.439231,8886.707777
761.354483,9622.677246,-16284.530724,6894.859482
761.354807,1776.494261,-7476.080014,4519.963438
761.355132,-3404.947333,-296.082377,1685.410096
761.355456,-8068.244768,0.000000,-7124.688131
761.355780,-11547.212695,-7031.956449,-14019.547613
761.356104,-11029.068536,-12065.356855,-5209.449386
761.356429,-74.020594,-12805.562797,-1608.800546
761.356753,2220.617826,-13915.871710,-3447.429741
761.357077,-6439.791695,-10436.903782,4826.401637
761.357401,-5551.544565,-4737.318029,2681.334243
761.357725,-1332.370696,-8290.306550,-2068.457845
761.358050,-740.205942,-11325.150913,229.828649
761.358374,4885.359217,-10732.986159,4596.572988
761.358698,14434.015869,-13915.871710,8886.707777
761.359022,15544.324782,-16062.468941,9039.926876
761.359347,7105.977043,-9918.759623,6128.763984
761.359671,-814.226536,-2146.597232,3753.867940
761.359995,-3701.029710,-1702.473667,-766.095498
761.360319,-7772.162391,-4737.318029,-10189.070123
761.360643,-8882.471304,-3182.885551,-13253.452115
761.360968,-7624.121203,-9252.574275,-2298.286494
761.361292,148.041188,-18357.107362,-1685.410096
761.361616,740.205942,-17024.736666,-5439.278036
761.361940,-7994.224174,-8364.327145,3907.087040
761.362265,-4663.297435,-5625.565159,1762.019645
761.362589,592.164754,-13101.645173,-1455.581446
761.362913,3997.112087,-14434.015869,1225.752797
761.363237,12065.356855,-7772.162391,5669.106685
761.363561,16802.674883,-11399.171507,8733.488677
761.363886,12139.377449,-17468.860231,6741.640382
761.364210,3997.112087,-10807.006753,3830.477490
761.364534,-2516.700203,-666.185348,-153.219100
761.364858,-7402.059420,1628.453072,-10648.727422
761.365182,-14508.036463,-13027.624579,-10648.727422
761.365507,-10288.862594,-17764.942608,-7354.516781
761.365831,1332.370696,-11473.192101,-6818.249932
761.366155,296.082377,-11251.130318,995.924147
761.366479,-3108.864956,-9474.636058,2374.896044
761.366804,-2146.597232,-8068.244768,-689.485948
761.367128,-2368.659014,-7994.224174,-2145.067394
761.367452,-962.267725,-7402.059420,-153.219100
761.367776,4737.318029,-13471.748144,4366.744339
761.368100,12731.542202,-19171.333898,7814.174080
761.368425,13027.624579,-14508.036463,9269.755526
761.368749,6587.832884,-7402.059420,5592.497135
761.369073,-2146.597232,-3849.070898,3064.381992
761.369397,-4737.318029,-6587.832884,-2451.505594
761.369722,-6513.812290,-6069.688724,-7890.783629
761.370046,-6587.832884,1332.370696,-12947.013916
761.370370,-7698.141797,-6365.771101,-3447.429741
761.370694,-4663.297435,-18505.148550,-153.219100
761.371018,-296.082377,-17468.860231,-6281.983084
761.371343,-7105.977043,-9400.615463,995.924147
761.371667,-7254.018232,-3330.926739,2757.943793
761.371991,-370.102971,-11177.109724,-1608.800546
761.372315,4145.153275,-14952.160028,536.266849
761.372640,10584.944971,-6513.812290,4749.792088
761.372964,14063.912898,-8734.430116,9039.926876
761.373288,11399.171507,-17024.736666,6588.421283
761.373612,4663.297435,-11769.274478,4060.306139
761.373936,-1406.391290,-2738.761985,2451.505594
761.374261,-5255.462188,962.267725,-2145.067394
761.374585,-8808.450710,-3108.864956,-14555.814462
761.374909,-11991.336260,-12065.356855,-7507.735880
761.375233,-5699.585753,-13471.748144,-2221.676944
761.375558,1924.535449,-13989.892304,-4979.620737
761.375882,-4293.194464,-12287.418637,2298.286494
761.376206,-7550.100608,-6883.915261,4596.572988
761.376530,-1554.432478,-8142.265362,-1149.143247
761.376854,-370.102971,-11991.336260,-536.266849
761.377179,2072.576638,-11177.109724,2221.676944
761.377503,11325.150913,-13101.645173,7354.516781
761.377827,16358.551318,-16580.613101,8044.002729
761.378151,10066.800811,-13027.624579,7354.516781
761.378476,1924.535449,-5477.523971,4979.620737
761.378800,-2294.638420,-1110.308913,229.828649
761.379124,-6735.874072,-2294.638420,-13483.280765
761.379448,-12953.603985,-10658.965565,-9499.584175
761.379772,-8734.430116,-14211.954086,-3830.477490
761.380097,2812.782580,-14656.077652,-4979.620737
761.380421,666.185348,-13767.830521,0.000000
761.380745,-5329.482782,-7105.977043,4903.011187
761.381069,-2368.659014,-6217.729913,-842.705048
761.381394,-1554.432478,-10807.006753,-1225.752797
761.381718,1850.514855,-9030.512492,919.314598
761.382042,11621.233289,-10066.800811,6818.249932
761.382366,16950.716072,-14730.098246,8580.269578
761.382690,12139.377449,-13989.892304,8656.879127
761.383015,3627.009116,-7624.121203,6052.154434
761.383339,-1850.514855,-2368.659014,2068.457845
761.383663,-7624.121203,-814.226536,-10648.727422
761.383987,-12509.480420,-7105.977043,-12410.747068
761.384311,-10658.965565,-12509.480420,-5439.278036
761.384636,1702.473667,-14359.995275,-3830.477490
761.384960,2220.617826,-14063.912898,-2757.943793
761.385284,-7179.997637,-9696.697840,4596.572988
761.385608,-5329.482782,-6291.750507,-383.047749
761.385933,-2664.741391,-8956.491898,-2834.553343
761.386257,-1924.535449,-9622.677246,153.219100
761.386581,5921.647536,-9622.677246,4673.182538
761.386905,14285.974681,-15248.242405,8120.612279
761.387229,14063.912898,-17690.922014,8733.488677
761.387554,6291.750507,-9326.594869,5898.935335
761.387878,-1184.329507,-2368.659014,3447.429741
761.388202,-5403.503377,-4367.215058,-306.438199
761.388526,-7105.977043,-9474.636058,-4290.134789
761.388851,-7105.977043,-740.205942,-9806.022374
761.389175,-4663.297435,1998.556043,-8503.660028
761.389499,-6661.853478,-13841.851115,229.828649
761.389823,-4367.215058,-21910.095883,-3600.648841
761.390147,-5329.482782,-12879.583391,-5439.278036
761.390472,-9992.780217,-4663.297435,4443.353888
761.390796,-3330.926739,-8142.265362,383.047749
761.391120,3701.029710,-17024.736666,-153.219100
761.391444,9178.553681,-11917.315666,3140.991542
761.391769,13767.830521,-6439.791695,7201.297681
761.392093,13101.645173,-14137.933492,7277.907231
761.392417,7328.038826,-16284.530724,3217.601092
761.392741,814.226536,-5773.606348,1149.143247
761.393065,-4515.256246,1702.473667,-5898.935335
761.393390,-9548.656652,-7105.977043,-8886.707777
761.393714,-10140.821405,-19245.354492,-8044.002729
761.394038,-4293.194464,-14656.077652,-7507.735880
761.394362,-1332.370696,-9252.574275,-1378.971896
761.394687,-2368.659014,-8660.409521,1225.752797
761.395011,-2146.597232,-8882.471304,1072.533697
761.395335,-2294.638420,-8660.409521,-229.828649
761.395659,222.061783,-7994.224174,0.000000
761.395983,3182.885551,-10436.903782,3294.210641
761.396308,9326.594869,-16432.571912,5286.058936
761.396632,11917.315666,-13989.892304,8273.831378
761.396956,9030.512492,-8808.450710,8120.612279
761.397280,2442.679609,-6217.729913,4519.963438
761.397605,-2664.741391,-5699.585753,-842.705048
761.397929,-6217.729913,-1110.308913,-9729.412825
761.398253,-7254.018232,-2220.617826,-11951.089769
761.398577,-7772.162391,-13101.645173,-2068.457845
761.398901,0.000000,-18283.086767,-3830.477490
761.399226,74.020594,-13545.768739,-3064.381992
761.399550,-7105.977043,-7476.080014,4749.792088
761.399874,-3701.029710,-5921.647536,306.438199
761.400198,0.000000,-11991.336260,-842.705048
761.400523,3997.112087,-10066.800811,1072.533697
761.400847,12065.356855,-5329.482782,5975.544884
761.401171,15766.386565,-12583.501014,8044.002729
761.401495,10807.006753,-15174.221811,7201.297681
761.401819,3182.885551,-7698.141797,5975.544884
761.402144,-2738.761985,-2516.700203,2298.286494
761.402468,-7476.080014,-148.041188,-7737.564530
761.402792,-11621.233289,-5773.606348,-13559.890315
761.403116,-11547.212695,-12805.562797,-6281.983084
761.403440,-962.267725,-13397.727550,-4060.306139
761.403765,1998.556043,-13841.851115,-4673.182538
761.404089,-7031.956449,-10436.903782,4136.915689
761.404413,-6143.709319,-7846.182985,2374.896044
761.404737,-2294.638420,-10436.903782,-3140.991542
761.405062,-1332.370696,-10955.047942,-153.219100
761.405386,4515.256246,-10955.047942,3524.039291
761.405710,13619.789333,-16580.613101,7584.345430
761.406034,15026.180623,-18727.210333,7814.174080
761.406358,7476.080014,-11991.336260,6128.763984
761.406683,74.020594,-4515.256246,4519.963438
761.407007,-4145.153275,-3701.029710,-1072.533697
761.407331,-7179.997637,-6883.915261,-8503.660028
761.407655,-8142.265362,-1628.453072,-14709.033562
761.407980,-7994.224174,-6069.688724,-5209.449386
761.408304,-2516.700203,-17246.798449,-1225.752797
761.408628,296.082377,-17468.860231,-5669.106685
761.408952,-7105.977043,-9622.677246,2068.457845
761.409276,-6735.874072,-4219.173869,1762.019645
761.409601,-1628.453072,-10436.903782,-2451.505594
761.409925,1258.350101,-14656.077652,0.000000
761.410249,8956.491898,-8734.430116,4749.792088
761.410573,15100.201217,-11621.233289,9193.145976
761.410898,13767.830521,-18431.127956,8273.831378
761.411222,6883.915261,-12213.398043,5669.106685
761.411546,1258.350101,-3256.906145,4213.525239
761.411870,-3849.070898,-1110.308913,-1225.752797
761.412194,-8956.491898,-4071.132681,-13330.061665
761.412519,-13027.624579,-10510.924376,-8503.660028
761.412843,-7105.977043,-12435.459826,-2528.115143
761.413167,518.144159,-13323.706956,-4673.182538
761.413491,-3923.091493,-11695.253884,153.219100
761.413816,-6735.874072,-4737.318029,4979.620737
761.414140,-2220.617826,-5033.400406,-306.438199
761.414464,-888.247130,-9474.636058,-766.095498
761.414788,962.267725,-8882.471304,2757.943793
761.415112,9104.533087,-11103.089130,7354.516781
761.415437,14359.995275,-16358.551318,8273.831378
761.415761,9696.697840,-13767.830521,7660.954980
761.416085,2738.761985,-5847.626942,6128.763984
761.416409,-814.226536,-1998.556043,2221.676944
761.416734,-3849.070898,-5255.462188,-3524.039291
761.417058,-7846.182985,-3108.864956,-12257.527968
761.417382,-8290.306550,-4589.276840,-6894.859482
761.417706,-5181.441594,-14582.057057,-153.219100
761.418030,444.123565,-19023.292709,-4673.182538
761.418355,-3849.070898,-12435.459826,-229.828649
761.418679,-7105.977043,-5477.523971,3064.381992
761.419003,-1998.556043,-8142.265362,-1378.971896
761.419327,1998.556043,-15026.180623,76.609550
761.419652,8068.244768,-9992.780217,2145.067394
761.419976,14582.057057,-7698.141797,7584.345430
761.420300,13693.809927,-15248.242405,7737.564530
761.420624,6513.812290,-14804.118840,5898.935335
761.420949,666.185348,-6587.832884,2834.553343
761.421273,-4515.256246,740.205942,-5286.058936
761.421597,-9696.697840,-6365.771101,-11108.384721
761.421921,-11547.212695,-17764.942608,-7890.783629
761.422245,-1924.535449,-13841.851115,-7737.564530
761.422570,2368.659014,-10214.842000,-3064.381992
761.422894,-2664.741391,-10955.047942,2221.676944
761.423218,-3330.926739,-9178.553681,536.266849
761.423542,-1998.556043,-9104.533087,-1762.019645
761.423867,-1036.288319,-7994.224174,-1838.629195
761.424191,2516.700203,-10140.821405,2681.334243
761.424515,9104.533087,-16580.613101,4596.572988
761.424839,11917.315666,-16580.613101,7737.564530
761.425164,8734.430116,-11251.130318,6818.249932
761.425488,1554.432478,-6735.874072,3600.648841
761.425812,-3701.029710,-5255.462188,383.047749
761.426136,-5995.668130,-6883.915261,-4979.620737
761.426461,-7254.018232,222.061783,-13559.890315
761.426785,-8068.244768,-3330.926739,-7124.688131
761.427109,-6809.894666,-14730.098246,-1685.410096
761.427433,-1184.329507,-16654.633695,-4979.620737
761.427758,-4663.297435,-11251.130318,-1762.019645
761.428082,-7624.121203,-4589.276840,2604.724693
761.428406,-1628.453072,-7328.038826,-306.438199
761.428730,2812.782580,-14508.036463,0.000000
761.429054,8956.491898,-9474.636058,3140.991542
761.429379,14730.098246,-8068.244768,7967.393179
761.429703,14730.098246,-15100.201217,7354.516781
761.430027,7698.141797,-13175.665768,5439.278036
761.430351,1184.329507,-5699.585753,3830.477490
761.430676,-3775.050304,-1406.391290,689.485948
761.431000,-8290.306550,-962.267725,-12027.699319
761.431324,-12805.562797,-9178.553681,-10801.946522
761.431648,-10362.883188,-13175.665768,-3677.258390
761.431973,296.082377,-13101.645173,-5515.887586
761.432297,-1998.556043,-12731.542202,-2374.896044
761.432621,-8734.430116,-7476.080014,4979.620737
761.432945,-3775.050304,-6587.832884,0.000000
761.433270,-814.226536,-11547.212695,-1225.752797
761.433594,814.226536,-11325.150913,1225.752797
761.433918,8216.285956,-13619.789333,6971.469032
761.434242,14952.160028,-17764.942608,8886.707777
761.434567,12287.418637,-13693.809927,6435.202183
761.434891,3478.967927,-6217.729913,6205.373534
761.435215,-2146.597232,-3478.967927,3600.648841
761.435539,-2516.700203,-6957.935855,-3217.601092
761.435863,-8364.327145,-3997.112087,-12947.013916
761.436188,-10214.842000,-2812.782580,-9116.536426
761.436512,-7402.059420,-13397.727550,-766.095498
761.436836,666.185348,-19985.560434,-5975.544884
761.437160,-3404.947333,-13915.871710,-1915.238745
761.437485,-8438.347739,-4663.297435,5822.325785
761.437809,-814.226536,-6217.729913,76.609550
761.438133,3404.947333,-15396.283594,919.314598
761.438457,8216.285956,-10584.944971,3064.381992
761.438782,16062.468941,-6809.894666,9269.755526
761.439106,17098.757260,-15100.201217,9116.536426
761.439430,8956.491898,-15766.386565,5592.497135
761.439754,370.102971,-5477.523971,4443.353888
761.440079,-4441.235652,1332.370696,-612.876398
761.440403,-8586.388927,-2146.597232,-12563.966167
761.440727,-15396.283594,-14359.995275,-8886.707777
761.441051,-8290.306550,-14359.995275,-5745.716235
761.441375,1406.391290,-10362.883188,-5439.278036
761.441700,-2738.761985,-12287.418637,1608.800546
761.442024,-5477.523971,-7698.141797,3294.210641
761.442348,-1924.535449,-6291.750507,-612.876398
761.442672,-814.226536,-9104.533087,-1378.971896
761.442997,1184.329507,-9844.739029,2451.505594
761.443321,9770.718434,-14359.995275,6818.249932
761.443645,16136.489536,-17690.922014,9806.022374
761.443969,12731.542202,-11399.171507,7967.393179
761.444294,3923.091493,-4663.297435,5132.839837
761.444618,-3849.070898,-4071.132681,2528.115143
761.444942,-5329.482782,-8290.306550,-4519.963438
761.445266,-8438.347739,-2738.761985,-12257.527968
761.445591,-8956.491898,1406.391290,-10035.851024
761.445915,-8364.327145,-12213.398043,-153.219100
761.446239,-2442.679609,-20577.725188,-4366.744339
761.446563,-4663.297435,-13693.809927,-5362.668486
761.446888,-10362.883188,-4663.297435,4290.134789
761.447212,-2886.803174,-6217.729913,842.705048
761.447536,3404.947333,-16802.674883,-1302.362347
761.447860,7698.141797,-12953.603985,2911.162892
761.448184,14359.995275,-6661.853478,8197.221829
761.448509,16580.613101,-14804.118840,9729.412825
761.448833,9474.636058,-17987.004391,5592.497135
761.449157,1184.329507,-7476.080014,3983.696590
761.449481,-2886.803174,-592.164754,1378.971896
761.449806,-6883.915261,444.123565,-9346.365076
761.450130,-11769.274478,-8216.285956,-13789.718964
761.450454,-12583.501014,-14063.912898,-5056.230287
761.450778,-1258.350101,-13175.665768,-4903.011187
761.451103,0.000000,-13323.706956,-5515.887586
761.451427,-8734.430116,-8734.430116,4366.744339
761.451751,-4737.318029,-5181.441594,2068.457845
761.452075,74.020594,-9992.780217,-2987.772442
761.452400,74.020594,-11917.315666,612.876398
761.452724,6735.874072,-12139.377449,5515.887586
761.453048,16136.489536,-16802.674883,9652.803275
761.453372,15840.407159,-16728.654289,7890.783629
761.453697,6587.832884,-8216.285956,5132.839837
761.454021,-1702.473667,-2220.617826,3753.867940
761.454345,-3256.906145,-4737.318029,-2298.286494
761.454669,-7550.100608,-7105.977043,-10342.289223
761.454993,-9474.636058,-2294.638420,-12947.013916
761.455318,-8956.491898,-8364.327145,-3524.039291
761.455642,-2442.679609,-18357.107362,-2834.553343
761.455966,-1924.535449,-16432.571912,-5592.497135
761.456290,-9992.780217,-6809.894666,4596.572988
761.456615,-4515.256246,-4589.276840,1608.800546
761.456939,1998.556043,-12953.603985,-1455.581446
761.457263,5255.462188,-13767.830521,1455.581446
761.457587,13249.686362,-6587.832884,6511.811733
761.457912,17468.860231,-11621.233289,9882.631924
761.458236,12509.480420,-17172.777854,6741.640382
761.458560,3478.967927,-9400.615463,4903.011187
761.458884,-1184.329507,-1184.329507,2298.286494
761.459209,-5847.626942,814.226536,-8503.660028
761.459533,-10584.944971,-9400.615463,-12870.404366
761.459857,-11399.171507,-15248.242405,-5822.325785
761.460181,-518.144159,-12139.377449,-4673.182538
761.460505,0.000000,-12953.603985,-3370.820191
761.460830,-8068.244768,-10214.842000,3600.648841
761.461154,-5329.482782,-5107.421000,1225.752797
761.461478,-1702.473667,-9030.512492,-2604.724693
761.461802,-296.082377,-11547.212695,0.000000
761.462127,6365.771101,-12213.398043,5056.230287
761.462451,15692.365970,-16284.530724,8427.050478
761.462775,15618.345376,-15174.221811,8733.488677
761.463099,6809.894666,-8290.306550,5592.497135
761.463424,-1776.494261,-3182.885551,2987.772442
761.463748,-4737.318029,-4885.359217,-1838.629195
761.464072,-6365.771101,-8438.347739,-7354.516781
761.464396,-6957.935855,-1554.432478,-12717.185267
761.464721,-6957.935855,-6069.688724,-3217.601092
761.465045,-4071.132681,-17764.942608,-1072.533697
761.465369,-1332.370696,-17098.757260,-6435.202183
761.465693,-6809.894666,-8586.388927,1532.190996
761.466018,-5847.626942,-4441.235652,2911.162892
761.466342,444.123565,-10881.027347,-1072.533697
761.466666,4441.235652,-14804.118840,995.924147
761.466990,11029.068536,-7179.997637,4903.011187
761.467314,14952.160028,-9252.574275,8886.707777
761.467639,11029.068536,-17024.736666,5822.325785
761.467963,2368.659014,-11029.068536,3217.601092
761.468287,-2738.761985,-2220.617826,1762.019645
761.468611,-7031.956449,666.185348,-4749.792088
761.468936,-9548.656652,-6883.915261,-12870.404366
761.469260,-11991.336260,-14656.077652,-6205.373534
761.469584,-3256.906145,-12879.583391,-3524.039291
761.469908,740.205942,-12953.603985,-3447.429741
761.470233,-6439.791695,-11769.274478,2451.505594
761.470557,-5403.503377,-6143.709319,2757.943793
761.470881,-592.164754,-8290.306550,-1532.190996
761.471205,148.041188,-12361.439231,229.828649
761.471530,4441.235652,-12139.377449,4060.306139
761.471854,12657.521608,-15100.201217,8197.221829
761.472178,14730.098246,-14804.118840,8197.221829
761.472502,8142.265362,-8438.347739,6052.154434
761.472827,-1110.308913,-3997.112087,3677.258390
761.473151,-4589.276840,-3775.050304,-153.219100
761.473475,-5625.565159,-8068.244768,-5669.106685
761.473799,-7772.162391,-1924.535449,-12334.137518
761.474123,-7328.038826,-4367.215058,-4903.011187
761.474448,-5773.606348,-16728.654289,229.828649
761.474772,-888.247130,-18727.210333,-4903.011187
761.475096,-5107.421000,-10140.821405,689.485948
761.475420,-7254.018232,-5181.441594,4596.572988
761.475745,370.102971,-9696.697840,76.609550
761.476069,5329.482782,-15100.201217,1455.581446
761.476393,11917.315666,-8290.306550,4903.011187
761.476717,16876.695478,-7624.121203,9729.412825
761.477042,13767.830521,-15618.345376,7277.907231
761.477366,4885.359217,-11843.295072,3983.696590
761.477690,-1702.473667,-2368.659014,2298.286494
761.478014,-6365.771101,2516.700203,-6665.030833
761.478339,-10658.965565,-7328.038826,-11797.870669
761.478663,-12731.542202,-17098.757260,-6971.469032
761.478987,-2590.720797,-12361.439231,-6818.249932
761.479311,370.102971,-10362.883188,-2528.115143
761.479636,-5329.482782,-9992.780217,3217.601092
761.479960,-3627.009116,-7179.997637,1685.410096
761.480284,-888.247130,-8512.368333,-689.485948
761.480608,1258.350101,-9548.656652,-229.828649
761.480932,5995.668130,-12139.377449,5132.839837
761.481257,13619.789333,-17468.860231,7354.516781
761.481581,15100.201217,-14508.036463,8656.879127
761.481905,8512.368333,-7920.203579,6281.983084
761.482229,-296.082377,-5625.565159,2604.724693
761.482554,-5033.400406,-5551.544565,-3064.381992
761.482878,-7254.018232,-6069.688724,-8503.660028
761.483202,-8734.430116,518.144159,-14096.157163
761.483526,-8808.450710,-7402.059420,-4290.134789
761.483851,-5033.400406,-19097.313304,-2604.724693
761.484175,-1258.350101,-16876.695478,-6741.640382
761.484499,-7254.018232,-8586.388927,1378.971896
761.484823,-6217.729913,-5181.441594,2068.457845
761.485148,-222.061783,-11103.089130,-1532.190996
761.485472,4663.297435,-15100.201217,383.047749
761.485796,11695.253884,-7846.182985,5056.230287
761.486120,16950.716072,-10658.965565,9039.926876
761.486444,13471.748144,-17764.942608,6128.763984
761.486769,3997.112087,-11547.212695,4213.525239
761.487093,-2146.597232,-2812.782580,1455.581446
761.487417,-5921.647536,-3330.926739,-1915.238745
761.487741,-10288.862594,-4959.379811,-13176.842566
761.488066,-12879.583391,-8068.244768,-10955.165621
761.488390,-9548.656652,-11473.192101,-1991.848295
761.488714,-592.164754,-15766.386565,-4366.744339
761.489038,-3034.844362,-14137.933492,-2528.115143
761.489363,-9474.636058,-6291.750507,5209.449386
761.489687,-2738.761985,-5033.400406,-995.924147
761.490011,74.020594,-12509.480420,-689.485948
761.490335,2590.720797,-13841.851115,1915.238745
761.490660,11473.192101,-11917.315666,7431.126331
761.490984,17394.839637,-15100.201217,9499.584175
761.491308,11991.336260,-13545.768739,5745.716235
761.491632,2738.761985,-5403.503377,4290.134789
761.491957,-2812.782580,-1554.432478,1455.581446
761.492281,-4959.379811,-5329.482782,-4673.182538
761.492605,-9548.656652,-4737.318029,-12640.575717
761.492929,-10732.986159,-6143.709319,-6971.469032
761.493253,-6291.750507,-13471.748144,306.438199
761.493578,296.082377,-16580.613101,-5209.449386
761.493902,-4441.235652,-11177.109724,995.924147
761.494226,-7105.977043,-4589.276840,5132.839837
761.494550,222.061783,-7920.203579,-536.266849
761.494875,4071.132681,-13619.789333,1072.533697
761.495199,9326.594869,-9474.636058,4290.134789
761.495523,16728.654289,-7994.224174,10189.070123
761.495847,16136.489536,-14211.954086,8733.488677
761.496172,6957.935855,-13249.686362,5056.230287
761.496496,-1184.329507,-3849.070898,2298.286494
761.496820,-6069.688724,1998.556043,-8580.269578
761.497144,-12213.398043,-9548.656652,-10035.851024
761.497469,-12953.603985,-19319.375086,-6052.154434
761.497793,-2146.597232,-12657.521608,-7737.564530
761.498117,444.123565,-9474.636058,766.095498
761.498441,-3849.070898,-10066.800811,3447.429741
761.498766,-2812.782580,-8364.327145,0.000000
761.499090,-1628.453072,-8142.265362,-1302.362347
761.499414,0.000000,-7624.121203,-306.438199
761.499738,5033.400406,-12435.459826,5362.668486
761.500062,12731.542202,-18949.272115,8120.612279
761.500387,14359.995275,-13693.809927,9116.536426
761.500711,8586.388927,-5995.668130,6281.983084
761.501035,-1036.288319,-5403.503377,3294.210641
761.501359,-5403.503377,-8586.388927,-2834.553343
761.501684,-6143.709319,-7328.038826,-7277.907231
761.502008,-7402.059420,1998.556043,-13866.328514
761.502332,-8290.306550,-5033.400406,-4673.182538
761.502656,-6143.709319,-18949.272115,-995.924147
761.502981,-962.267725,-18653.189738,-6894.859482
761.503305,-6069.688724,-10510.924376,-536.266849
761.503629,-6661.853478,-4515.256246,2604.724693
761.503953,592.164754,-11177.109724,-689.485948
761.504278,5181.441594,-16284.530724,1072.533697
761.504602,11695.253884,-7328.038826,4673.182538
761.504926,15618.345376,-8290.306550,9652.803275
761.505250,12139.377449,-17616.901420,6052.154434
761.505574,4515.256246,-12583.501014,3524.039291
761.505899,-1554.432478,-3923.091493,2451.505594
761.506223,-5773.606348,-1776.494261,-612.876398
761.506547,-9992.780217,-3330.926739,-12717.185267
761.506871,-13101.645173,-8142.265362,-12027.699319
761.507196,-10436.903782,-10955.047942,-2681.334243
761.507520,222.061783,-14434.015869,-4903.011187
761.507844,-1628.453072,-14137.933492,-2604.724693
761.508168,-8438.347739,-7328.038826,6205.373534
761.508493,-1924.535449,-6069.688724,306.438199
761.508817,1480.411884,-11991.336260,-1225.752797
761.509141,2220.617826,-13249.686362,1762.019645
761.509465,10140.821405,-11917.315666,6741.640382
761.509790,16950.716072,-15100.201217,8963.317327
761.510114,12879.583391,-14804.118840,7354.516781
761.510438,3552.988522,-6661.853478,4826.401637
761.510762,-3330.926739,-1628.453072,1762.019645
761.511087,-6587.832884,-3849.070898,-6205.373534
761.511411,-10732.986159,-5551.544565,-14785.643111
761.511735,-12435.459826,-8586.388927,-6435.202183
761.512059,-3997.112087,-13175.665768,-1302.362347
761.512383,2146.597232,-14952.160028,-5056.230287
761.512708,-4441.235652,-10510.924376,2834.553343
761.513032,-5329.482782,-4589.276840,3447.429741
761.513356,-296.082377,-8882.471304,-1378.971896
761.513680,1850.514855,-13619.789333,229.828649
761.514005,8068.244768,-10288.862594,4366.744339
761.514329,15988.448347,-11251.130318,9959.241474
761.514653,16136.489536,-15766.386565,8350.440928
761.514977,7328.038826,-11917.315666,5745.716235
761.515302,-1036.288319,-3552.988522,2757.943793
761.515626,-5033.400406,0.000000,-4290.134789
761.515950,-9474.636058,-6217.729913,-14019.547613
761.516274,-13767.830521,-14211.954086,-7124.688131
761.516599,-4589.276840,-12435.459826,-4136.915689
761.516923,1850.514855,-12583.501014,-4519.963438
761.517247,-5255.462188,-12509.480420,3294.210641
761.517571,-5847.626942,-7476.080014,1762.019645
761.517896,-1480.411884,-7772.162391,-1302.362347
761.518220,-370.102971,-9696.697840,-842.705048
761.518544,4219.173869,-10288.862594,3447.429741
761.518868,13101.645173,-15100.201217,8503.660028
761.519194,16284.530724,-17024.736666,8810.098227
761.519518,9548.656652,-11177.109724,7124.688131
761.519842,518.144159,-4811.338623,3600.648841
761.520166,-3478.967927,-3330.926739,0.000000
761.520491,-5181.441594,-7179.997637,-4979.620737
761.520815,-7994.224174,-962.267725,-12717.185267
761.521139,-7698.141797,-1850.514855,-7431.126331
761.521463,-6587.832884,-15248.242405,-229.828649
761.521787,-1480.411884,-19541.436869,-5592.497135
761.522111,-5699.585753,-12065.356855,-2298.286494
761.522435,-9178.553681,-4811.338623,4366.744339
761.522759,-2146.597232,-7846.182985,229.828649
761.523083,3108.864956,-16210.510130,-306.438199
761.523407,8586.388927,-10807.006753,2911.162892
761.523732,15322.262999,-7772.162391,8580.269578
761.524056,15396.283594,-15766.386565,7737.564530
761.524380,7698.141797,-14878.139434,4826.401637
761.524704,148.041188,-4589.276840,2987.772442
761.525028,-5033.400406,-814.226536,306.438199
761.525352,-9326.594869,-2442.679609,-10418.898773
761.525676,-12287.418637,-7254.018232,-14325.985813
761.526000,-11325.150913,-11621.233289,-3600.648841
761.526324,-888.247130,-15026.180623,-3370.820191
761.526648,-666.185348,-14656.077652,-5209.449386
761.526973,-8734.430116,-7772.162391,5439.278036
761.527297,-4737.318029,-4885.359217,1455.581446
761.527621,0.000000,-11843.295072,-2757.943793
761.527945,444.123565,-13989.892304,766.095498
761.528269,7550.100608,-11473.192101,5362.668486
761.528593,16136.489536,-15174.221811,9499.584175
761.528917,14582.057057,-15692.365970,7660.954980
761.529241,5477.523971,-7624.121203,4826.401637
761.529565,-2294.638420,-1702.473667,3294.210641
761.529889,-4071.132681,-4737.318029,-2834.553343
761.530214,-7031.956449,-7846.182985,-8580.269578
761.530538,-7698.141797,-1554.432478,-12410.747068
761.530862,-7846.182985,-6809.894666,-2374.896044
761.531186,-3849.070898,-19023.292709,-1608.800546
761.531510,-2220.617826,-17172.777854,-6358.592633
761.531834,-8142.265362,-7624.121203,3983.696590
761.532158,-3997.112087,-5625.565159,2528.115143
761.532482,2812.782580,-12361.439231,-842.705048
761.532806,6735.874072,-13545.768739,2145.067394
761.533130,13767.830521,-5773.606348,6128.763984
761.533455,16950.716072,-10140.821405,10265.679673
761.533779,11547.212695,-17542.880825,5898.935335
761.534103,2590.720797,-9918.759623,3983.696590
761.534427,-3627.009116,1998.556043,-2068.457845
761.534751,-7105.977043,-592.164754,-9269.755526
761.535075,-12435.459826,-16062.468941,-8197.221829
761.535399,-7476.080014,-17024.736666,-7507.735880
761.535723,-518.144159,-9474.636058,-5362.668486
761.536047,-3923.091493,-9474.636058,2451.505594
761.536371,-4219.173869,-9548.656652,1225.752797
761.536696,-2294.638420,-8216.285956,229.828649
761.537020,-1554.432478,-6883.915261,-1455.581446
761.537344,2220.617826,-8808.450710,2604.724693
761.537668,8142.265362,-16358.551318,6358.592633
761.537992,13323.706956,-17690.922014,7814.174080
761.538316,11769.274478,-9918.759623,8503.660028
761.538640,4515.256246,-4737.318029,4979.620737
761.538964,-3182.885551,-5255.462188,689.485948
761.539288,-5773.606348,-7846.182985,-4290.134789
761.539612,-6661.853478,-2072.576638,-10342.289223
761.539937,-5403.503377,-592.164754,-9499.584175
761.540261,-7031.956449,-13249.686362,-1225.752797
761.540585,-2960.823768,-19911.539840,-3294.210641
761.540909,-3701.029710,-14285.974681,-4596.572988
761.541233,-9474.636058,-7105.977043,3370.820191
761.541557,-4145.153275,-7328.038826,766.095498
761.541881,3034.844362,-15544.324782,-766.095498
761.542205,7698.141797,-11843.295072,2451.505594
761.542529,14211.954086,-7105.977043,7124.688131
761.542853,15544.324782,-13471.748144,8197.221829
761.543178,8734.430116,-16580.613101,4979.620737
761.543502,0.000000,-7624.121203,2681.334243
761.543826,-4737.318029,-1850.514855,842.705048
761.544150,-7698.141797,-1850.514855,-6435.202183
761.544474,-10140.821405,-7105.977043,-15704.957709
761.544798,-11843.295072,-12361.439231,-5209.449386
761.545122,-3923.091493,-14137.933492,-3217.601092
761.545446,148.041188,-14952.160028,-5745.716235
761.545770,-7550.100608,-11177.109724,4903.011187
761.546094,-6143.709319,-5773.606348,3600.648841
761.546419,0.000000,-9030.512492,-1762.019645
761.546743,444.123565,-13471.748144,459.657299
761.547067,6661.853478,-12287.418637,4136.915689
761.547391,15322.262999,-14063.912898,8503.660028
761.547715,15988.448347,-15248.242405,8427.050478
761.548039,7920.203579,-9104.533087,5745.716235
761.548363,-592.164754,-2886.803174,3907.087040
761.548687,-3701.029710,-2960.823768,-1455.581446
761.549011,-7550.100608,-5181.441594,-9346.365076
761.549335,-8882.471304,-3627.009116,-13023.623466
761.549660,-9474.636058,-8586.388927,-2681.334243
761.549984,-1850.514855,-17098.757260,-1685.410096
761.550308,148.041188,-15544.324782,-4749.792088
761.550632,-7105.977043,-7179.997637,5592.497135
761.550956,-3552.988522,-5329.482782,3140.991542
761.551280,1258.350101,-11251.130318,-766.095498
761.551604,4737.318029,-12065.356855,1455.581446
761.551928,12139.377449,-7105.977043,6665.030833
761.552252,17616.901420,-11251.130318,10035.851024
761.552576,13027.624579,-16210.510130,7124.688131
761.552901,3478.967927,-8734.430116,4749.792088
761.553225,-2590.720797,-1036.288319,1762.019645
761.553549,-7105.977043,370.102971,-8963.317327
761.553873,-11843.295072,-10510.924376,-11338.213370
761.554197,-12435.459826,-15766.386565,-6281.983084
761.554521,-962.267725,-12139.377449,-5898.935335
761.554845,-444.123565,-12731.542202,-2221.676944
761.555169,-6883.915261,-10436.903782,3294.210641
761.555493,-3404.947333,-6735.874072,1149.143247
761.555817,-962.267725,-8734.430116,-1991.848295
761.556142,222.061783,-9178.553681,-1072.533697
761.556466,6143.709319,-11029.068536,5898.935335
761.556790,14878.139434,-16580.613101,7431.126331
761.557114,14285.974681,-15322.262999,7890.783629
761.557438,6217.729913,-9030.512492,5822.325785
761.557762,-1406.391290,-5033.400406,2757.943793
761.558086,-4515.256246,-6143.709319,-2528.115143
761.558410,-7328.038826,-6291.750507,-9269.755526
761.558734,-8512.368333,-1332.370696,-13713.109414
761.559059,-8956.491898,-9474.636058,-3217.601092
761.559383,-3108.864956,-19911.539840,-2681.334243
761.559707,-1480.411884,-17246.798449,-5056.230287
761.560031,-7994.224174,-8734.430116,2528.115143
761.560355,-5181.441594,-5255.462188,995.924147
761.560679,740.205942,-12139.377449,-1762.019645
761.561003,5255.462188,-14137.933492,536.266849
761.561327,11769.274478,-6735.874072,5362.668486
761.561651,15692.365970,-10214.842000,8273.831378
761.561975,11695.253884,-16506.592507,5669.106685
761.562300,3256.906145,-9992.780217,3830.477490
761.562624,-2368.659014,-2220.617826,842.705048
761.562948,-7624.121203,1110.308913,-9193.145976
761.563272,-12361.439231,-9178.553681,-12717.185267
761.563596,-11843.295072,-15618.345376,-6435.202183
761.563920,-148.041188,-12139.377449,-6052.154434
761.564244,518.144159,-11769.274478,-1838.629195
761.564568,-5921.647536,-9400.615463,4519.963438
761.564892,-3478.967927,-6587.832884,1455.581446
761.565216,-962.267725,-9326.594869,-2068.457845
761.565541,0.000000,-9326.594869,229.828649
761.565865,5773.606348,-11399.171507,4749.792088
761.566189,13989.892304,-15988.448347,7201.297681
761.566513,14211.954086,-14434.015869,8656.879127
761.566837,7254.018232,-8216.285956,6435.202183
761.567161,-1258.350101,-3997.112087,3600.648841
761.567485,-4959.379811,-5033.400406,-2221.676944
761.567809,-8364.327145,-4293.194464,-9422.974625
761.568133,-9030.512492,-222.061783,-12870.404366
761.568457,-8882.471304,-9696.697840,-2221.676944
761.568782,-2220.617826,-19319.375086,-1149.143247
761.569106,74.020594,-15914.427753,-4060.306139
761.569430,-7105.977043,-7328.038826,4903.011187
761.569754,-4145.153275,-4515.256246,2221.676944
761.570078,814.226536,-11843.295072,-1072.533697
761.570402,4811.338623,-12879.583391,1838.629195
761.570726,12879.583391,-6661.853478,6281.983084
761.571050,16876.695478,-11769.274478,9576.193725
761.571374,12287.418637,-16876.695478,7354.516781
761.571698,3478.967927,-9474.636058,5209.449386
761.572023,-2220.617826,-2294.638420,2145.067394
761.572347,-7550.100608,962.267725,-7354.516781
761.572671,-12953.603985,-8512.368333,-13483.280765
761.572995,-13767.830521,-15322.262999,-6358.592633
761.573319,-2146.597232,-12583.501014,-4596.572988
761.573643,962.267725,-13915.871710,-2834.553343
761.573967,-5699.585753,-11399.171507,5056.230287
761.574291,-3256.906145,-7031.956449,2604.724693
761.574615,-962.267725,-9178.553681,-1149.143247
761.574939,74.020594,-9918.759623,-536.266849
761.575264,5107.421000,-10955.047942,4290.134789
761.575588,13989.892304,-16432.571912,7967.393179
761.575912,15100.201217,-16728.654289,8733.488677
761.576236,8142.265362,-10066.800811,6894.859482
761.576560,148.041188,-4441.235652,3830.477490
761.576884,-4589.276840,-4219.173869,-1149.143247
761.577208,-7846.182985,-5625.565159,-8963.317327
761.577532,-8882.471304,-1332.370696,-13406.671215
761.577856,-8660.409521,-8438.347739,-3370.820191
761.578180,-2220.617826,-17764.942608,-1532.190996
761.578505,296.082377,-15692.365970,-4826.401637
761.578829,-7031.956449,-7846.182985,3447.429741
761.579153,-5033.400406,-3701.029710,919.314598
761.579477,0.000000,-11473.192101,-1532.190996
761.579801,3849.070898,-13915.871710,153.219100
761.580125,11695.253884,-7402.059420,5209.449386
761.580449,16062.468941,-10955.047942,8503.660028
761.580773,11991.336260,-17024.736666,6588.421283
761.581097,3552.988522,-10881.027347,4596.572988
761.581421,-2590.720797,-2960.823768,1532.190996
761.581746,-7846.182985,0.000000,-6511.811733
761.582070,-12287.418637,-7179.997637,-14096.157163
761.582394,-13175.665768,-13989.892304,-6818.249932
761.582718,-2812.782580,-12287.418637,-4060.306139
761.583042,1110.308913,-12879.583391,-3753.867940
761.583366,-5995.668130,-10288.862594,3064.381992
761.583690,-5255.462188,-5773.606348,1608.800546
761.584014,-1850.514855,-8660.409521,-2451.505594
761.584338,-518.144159,-10214.842000,-689.485948
761.584662,4885.359217,-10807.006753,3294.210641
761.584987,13101.645173,-15100.201217,7277.907231
761.585311,14730.098246,-16506.592507,7660.954980
761.585635,8068.244768,-10658.965565,5669.106685
761.585959,296.082377,-4737.318029,3600.648841
761.586283,-3182.885551,-3701.029710,-1225.752797
761.586607,-6661.853478,-6735.874072,-7124.688131
761.586931,-7994.224174,-1998.556043,-13636.499864
761.587255,-8956.491898,-7179.997637,-4519.963438
761.587579,-4663.297435,-18061.024985,-842.705048
761.587903,74.020594,-18357.107362,-5056.230287
761.588228,-5625.565159,-10140.821405,2145.067394
761.588552,-5699.585753,-4811.338623,2834.553343
761.588876,0.000000,-10140.821405,-1149.143247
761.589200,3923.091493,-14582.057057,536.266849
761.589524,11177.109724,-8438.347739,4749.792088
761.589848,16284.530724,-9844.739029,9039.926876
761.590172,13693.809927,-16802.674883,7507.735880
761.590496,5773.606348,-11769.274478,4673.182538
761.590820,-1480.411884,-3256.906145,2145.067394
761.591144,-7179.997637,1998.556043,-7507.735880
761.591469,-11917.315666,-7846.182985,-11951.089769
761.591793,-12805.562797,-16654.633695,-6281.983084
761.592117,-1110.308913,-13027.624579,-5822.325785
761.592441,1702.473667,-11103.089130,-1378.971896
761.592765,-4959.379811,-9622.677246,3140.991542
761.593089,-3701.029710,-6661.853478,1225.752797
761.593413,-1406.391290,-9326.594869,-766.095498
761.593737,0.000000,-8882.471304,-229.828649
761.594061,5181.441594,-10584.944971,4903.011187
761.594385,13175.665768,-16210.510130,7660.954980
761.594710,14582.057057,-14508.036463,8580.269578
761.595034,8290.306550,-9030.512492,7277.907231
761.595358,148.041188,-4441.235652,4443.353888
761.595682,-4885.359217,-5033.400406,-1225.752797
761.596006,-8142.265362,-6735.874072,-7124.688131
761.596330,-8364.327145,-222.061783,-13866.328514
761.596654,-8512.368333,-6069.688724,-4903.011187
761.596978,-4811.338623,-17468.860231,-919.314598
761.597302,-444.123565,-16728.654289,-4749.792088
761.597627,-5773.606348,-9252.574275,1838.629195
761.597951,-6143.709319,-3849.070898,2451.505594
761.598275,-592.164754,-9918.759623,-1072.533697
761.598599,4441.235652,-15174.221811,536.266849
761.598923,11547.212695,-8586.388927,4749.792088
761.599247,15766.386565,-10214.842000,8963.317327
761.599571,13027.624579,-16580.613101,7048.078582
761.599895,4737.318029,-11399.171507,4060.306139
761.600219,-1110.308913,-4219.173869,2221.676944
761.600543,-5477.523971,-2664.741391,-1915.238745
761.600868,-9548.656652,-5033.400406,-13942.938064
761.601192,-13323.706956,-11177.109724,-9576.193725
761.601516,-8142.265362,-12361.439231,-2987.772442
761.601840,444.123565,-14359.995275,-4903.011187
761.602164,-3997.112087,-13027.624579,306.438199
761.602488,-7105.977043,-6735.874072,3907.087040
761.602812,-2146.597232,-6883.915261,-1685.410096
761.603136,444.123565,-11991.336260,-995.924147
761.603460,3330.926739,-11843.295072,1915.238745
761.603784,11029.068536,-12583.501014,7124.688131
761.604109,16136.489536,-15692.365970,8120.612279
761.604433,10807.006753,-12805.562797,7124.688131
761.604757,1998.556043,-6587.832884,4903.011187
761.605081,-3256.906145,-2590.720797,1532.190996
761.605405,-5995.668130,-5921.647536,-5975.544884
761.605729,-8734.430116,-4515.256246,-13406.671215
761.606053,-9992.780217,-7402.059420,-6052.154434
761.606377,-4293.194464,-14359.995275,-1302.362347
761.606701,962.267725,-15544.324782,-5209.449386
761.607025,-4811.338623,-9696.697840,3217.601092
761.607350,-4811.338623,-4145.153275,3064.381992
761.607674,222.061783,-7846.182985,-1302.362347
761.607998,2738.761985,-12731.542202,536.266849
761.608322,8660.409521,-8586.388927,3447.429741
761.608646,15026.180623,-9400.615463,8350.440928
761.608970,13619.789333,-15174.221811,7507.735880
761.609294,5329.482782,-11769.274478,5669.106685
761.609618,-1110.308913,-4367.215058,3064.381992
761.609942,-5033.400406,148.041188,-4673.182538
761.610266,-9696.697840,-5995.668130,-12717.185267
761.610591,-12509.480420,-14211.954086,-7201.297681
761.610915,-3478.967927,-12509.480420,-4826.401637
761.611239,1406.391290,-11843.295072,-3600.648841
761.611563,-5033.400406,-11103.089130,2757.943793
761.611887,-4959.379811,-6735.874072,1915.238745
761.612211,-1184.329507,-8290.306550,-919.314598
761.612535,74.020594,-9918.759623,-1762.019645
761.612859,4515.256246,-10288.862594,2681.334243
761.613183,11621.233289,-13989.892304,6511.811733
761.613507,14211.954086,-16062.468941,6665.030833
761.613832,8364.327145,-11917.315666,6741.640382
761.614156,148.041188,-7031.956449,4136.915689
761.614480,-3627.009116,-5699.585753,-842.705048
761.614804,-5699.585753,-7994.224174,-5898.935335
761.615128,-7624.121203,-1776.494261,-13406.671215
761.615452,-7920.203579,-4885.359217,-6665.030833
761.615776,-5699.585753,-16358.551318,-1455.581446
761.616100,-518.144159,-18431.127956,-5056.230287
761.616424,-4293.194464,-11843.295072,0.000000
761.616748,-6291.750507,-4811.338623,2221.676944
761.617073,-1258.350101,-8512.368333,-383.047749
761.617397,3552.988522,-15174.221811,229.828649
761.617721,10066.800811,-10362.883188,2834.553343
761.618045,14582.057057,-8586.388927,8273.831378
761.618369,12879.583391,-16136.489536,6435.202183
761.618693,5403.503377,-13249.686362,4136.915689
761.619017,-518.144159,-4885.359217,2681.334243
761.619341,-4959.379811,0.000000,-3064.381992
761.619665,-9326.594869,-4737.318029,-12104.308868
761.619990,-13175.665768,-13397.727550,-9269.755526
761.620314,-5847.626942,-12435.459826,-5132.839837
761.620638,888.247130,-10510.924376,-4519.963438
761.620962,-3404.947333,-10732.986159,1149.143247
761.621286,-5181.441594,-6883.915261,3217.601092
761.621610,-2146.597232,-8216.285956,-536.266849
761.621934,-518.144159,-10066.800811,-995.924147
761.622259,3034.844362,-10881.027347,3677.258390
761.622583,10510.924376,-14804.118840,6818.249932
761.622907,14434.015869,-16062.468941,8427.050478
761.623231,9770.718434,-11103.089130,8120.612279
761.623555,2812.782580,-6439.791695,5056.230287
761.623879,-2960.823768,-4885.359217,1685.410096
761.624203,-5477.523971,-7179.997637,-4060.306139
761.624527,-7476.080014,-1850.514855,-8427.050478
761.624852,-6439.791695,1036.288319,-10418.898773
761.625176,-8142.265362,-11473.192101,-1991.848295
761.625500,-4293.194464,-19171.333898,-3064.381992
761.625824,-2590.720797,-14137.933492,-4519.963438
761.626148,-7550.100608,-6291.750507,4903.011187
761.626472,-2072.576638,-6661.853478,2298.286494
761.626796,4589.276840,-14137.933492,459.657299
761.627121,9474.636058,-11621.233289,2987.772442
761.627445,14508.036463,-7179.997637,7201.297681
761.627769,14211.954086,-13323.706956,9806.022374
761.628093,8290.306550,-16136.489536,5132.839837
761.628417,1628.453072,-7105.977043,3677.258390
761.628741,-4145.153275,1998.556043,-2298.286494
761.629065,-8216.285956,-666.185348,-11261.603821
761.629390,-14434.015869,-15248.242405,-9346.365076
761.629714,-8438.347739,-16876.695478,-7124.688131
761.630038,-518.144159,-10732.986159,-6435.202183
761.630362,-3627.009116,-10658.965565,2604.724693
761.630686,-4441.235652,-8438.347739,2757.943793
761.631010,-1776.494261,-9104.533087,0.000000
761.631334,296.082377,-10362.883188,-842.705048
761.631659,3404.947333,-10955.047942,3294.210641
761.631983,9696.697840,-16728.654289,6588.421283
761.632307,14063.912898,-17912.983796,8503.660028
761.632631,11399.171507,-10807.006753,8350.440928
761.632955,3552.988522,-5921.647536,4519.963438
761.633279,-3849.070898,-5255.462188,459.657299
761.633603,-6439.791695,-6587.832884,-6588.421283
761.633928,-8290.306550,-1036.288319,-15551.738609
761.634252,-10066.800811,-5921.647536,-4366.744339
761.634576,-5921.647536,-16432.571912,-1838.629195
761.634900,296.082377,-16210.510130,-6588.421283
761.635224,-4959.379811,-9844.739029,1302.362347
761.635548,-6957.935855,-4293.194464,2757.943793
761.635872,148.041188,-9104.533087,-995.924147
761.636196,3404.947333,-14952.160028,689.485948
761.636521,10362.883188,-8512.368333,4596.572988
761.636845,17468.860231,-9474.636058,10342.289223
761.637169,15692.365970,-16580.613101,7890.783629
761.637493,6217.729913,-12509.480420,5439.278036
761.637817,-1850.514855,-3182.885551,2757.943793
761.638141,-6365.771101,-740.205942,-1378.971896
761.638465,-11251.130318,-1702.473667,-15168.690860
761.638790,-15248.242405,-8808.450710,-11261.603821
761.639114,-10288.862594,-12065.356855,-3140.991542
761.639438,1258.350101,-14582.057057,-5898.935335
761.639762,-2368.659014,-13101.645173,-1915.238745
761.640086,-8586.388927,-5477.523971,5362.668486
761.640410,-2738.761985,-5181.441594,-1225.752797
761.640734,-148.041188,-12583.501014,-1072.533697
761.641059,2516.700203,-12509.480420,1991.848295
761.641383,12287.418637,-13989.892304,8580.269578
761.641707,18801.230927,-18209.066173,11338.213370
761.642031,14434.015869,-12731.542202,5745.716235
761.642355,3108.864956,-4145.153275,4596.572988
761.642679,-4441.235652,-2590.720797,2451.505594
761.643003,-4737.318029,-8216.285956,-6205.373534
761.643328,-10436.903782,-3849.070898,-16241.224558
761.643652,-13249.686362,-2812.782580,-9346.365076
761.643976,-8364.327145,-13249.686362,-766.095498
761.644300,814.226536,-20577.725188,-7890.783629
761.644624,-3997.112087,-12731.542202,-1991.848295
761.644948,-8438.347739,-2960.823768,5822.325785
761.645272,444.123565,-7698.141797,-1455.581446
761.645596,3330.926739,-17246.798449,-229.828649
761.645921,8364.327145,-11621.233289,3370.820191
761.646245,17246.798449,-7772.162391,10265.679673
761.646569,18801.230927,-17024.736666,9193.145976
761.646893,9400.615463,-17542.880825,5515.887586
761.647217,222.061783,-5403.503377,3983.696590
761.647541,-3849.070898,444.123565,612.876398
761.647865,-8586.388927,-1406.391290,-14709.033562
761.648190,-15174.221811,-11695.253884,-11261.603821
761.648514,-11325.150913,-13693.809927,-4749.792088
761.648838,1480.411884,-12435.459826,-5822.325785
761.649162,-2072.576638,-13693.809927,-2221.676944
761.649486,-8290.306550,-6587.832884,4290.134789
761.649810,-2146.597232,-4293.194464,0.000000
761.650134,666.185348,-10362.883188,-1685.410096
761.650459,2368.659014,-10436.903782,1762.019645
761.650783,10584.944971,-11843.295072,7890.783629
761.651107,18061.024985,-17098.757260,9882.631924
761.651431,14285.974681,-14730.098246,8963.317327
761.651755,4293.194464,-6735.874072,5515.887586
761.652079,-3182.885551,-1850.514855,2987.772442
761.652403,-5995.668130,-5551.544565,-3524.039291
761.652728,-10140.821405,-5107.421000,-10955.165621
761.653052,-9548.656652,-222.061783,-10418.898773
761.653376,-7698.141797,-9770.718434,-459.657299
761.653700,-2220.617826,-18727.210333,-3600.648841
761.654024,-4145.153275,-13619.789333,-3983.696590
761.654348,-10214.842000,-4145.153275,4060.306139
761.654672,-3701.029710,-4589.276840,919.314598
761.654997,2368.659014,-14878.139434,-1225.752797
761.655321,7772.162391,-13619.789333,2757.943793
761.655645,15692.365970,-6883.915261,8580.269578
761.655969,17246.798449,-13545.768739,9116.536426
761.656293,8808.450710,-16358.551318,5439.278036
761.656617,-296.082377,-7624.121203,3600.648841
761.656941,-4441.235652,-1702.473667,153.219100
761.657265,-8734.430116,-1258.350101,-10342.289223
761.657590,-13397.727550,-10807.006753,-12104.308868
761.657914,-11695.253884,-14359.995275,-4519.963438
761.658238,0.000000,-12435.459826,-3983.696590
761.658562,-592.164754,-13767.830521,-2451.505594
761.658886,-7624.121203,-9474.636058,3140.991542
761.659210,-4515.256246,-5773.606348,612.876398
761.659534,0.000000,-10807.006753,-1608.800546
761.659859,2368.659014,-12435.459826,1149.143247
761.660183,9548.656652,-13249.686362,5898.935335
761.660507,15840.407159,-15766.386565,8810.098227
761.660831,13175.665768,-14730.098246,7354.516781
761.661155,4737.318029,-9030.512492,4596.572988
761.661479,-3404.947333,-3552.988522,2298.286494
761.661803,-5181.441594,-2886.803174,-5132.839837
761.662128,-9104.533087,-3404.947333,-15551.738609
761.662452,-12213.398043,-8216.285956,-7354.516781
761.662776,-5847.626942,-14359.995275,-1991.848295
761.663100,2220.617826,-16210.510130,-6281.983084
761.663424,-3256.906145,-11991.336260,1225.752797
761.663748,-5699.585753,-4737.318029,3753.867940
761.664072,740.205942,-7179.997637,-689.485948
761.664397,2886.803174,-13397.727550,612.876398
761.664721,8068.244768,-9844.739029,3600.648841
761.665045,16432.571912,-10510.924376,9499.584175
761.665369,17987.004391,-16062.468941,8427.050478
761.665693,8882.471304,-13027.624579,6588.421283
761.666017,-222.061783,-4515.256246,4290.134789
761.666341,-4737.318029,-222.061783,-1532.190996
761.666666,-10362.883188,-2072.576638,-15475.129060
761.666990,-16136.489536,-11029.068536,-9959.241474
761.667314,-9770.718434,-12361.439231,-4979.620737
761.667638,1702.473667,-11917.315666,-5439.278036
761.667962,-2812.782580,-12361.439231,612.876398
761.668286,-7105.977043,-6143.709319,3983.696590
761.668610,-2442.679609,-5403.503377,-1378.971896
761.668934,-1110.308913,-10288.862594,-2221.676944
761.669259,2294.638420,-10955.047942,2681.334243
761.669583,11769.274478,-14137.933492,8350.440928
761.669907,18653.189738,-18431.127956,10801.946522
761.670231,13175.665768,-13101.645173,7967.393179
761.670555,2516.700203,-5551.544565,4903.011187
761.670879,-5181.441594,-3701.029710,1762.019645
761.671203,-6513.812290,-9326.594869,-4903.011187
761.671528,-9252.574275,-5773.606348,-9959.241474
761.671852,-8808.450710,2812.782580,-12640.575717
761.672176,-8586.388927,-8882.471304,-1149.143247
761.672500,-4071.132681,-20799.786970,-3217.601092
761.672824,-3330.926739,-15544.324782,-7124.688131
761.673148,-9622.677246,-5477.523971,3830.477490
761.673472,-4071.132681,-4663.297435,1838.629195
761.673797,3775.050304,-15322.262999,153.219100
761.674121,9474.636058,-14952.160028,3600.648841
761.674445,16654.633695,-7179.997637,7890.783629
761.674769,17616.901420,-13619.789333,9729.412825
761.675093,9770.718434,-18505.148550,4903.011187
761.675417,1332.370696,-9030.512492,3447.429741
761.675741,-3478.967927,-592.164754,2145.067394
761.676066,-7624.121203,888.247130,-9806.022374
761.676390,-13397.727550,-9992.780217,-12717.185267
761.676714,-12953.603985,-15248.242405,-5515.887586
761.677038,-518.144159,-11843.295072,-5592.497135
761.677362,-740.205942,-12361.439231,-2681.334243
761.677686,-7846.182985,-8660.409521,3600.648841
761.678010,-4737.318029,-4589.276840,1915.238745
761.678334,-592.164754,-10066.800811,-1915.238745
761.678659,1702.473667,-11917.315666,766.095498
761.678983,8438.347739,-13471.748144,6435.202183
761.679307,15988.448347,-17690.922014,9499.584175
761.679631,14730.098246,-14582.057057,9116.536426
761.679955,6365.771101,-7105.977043,5132.839837
761.680279,-2738.761985,-3330.926739,3064.381992
761.680603,-4959.379811,-4811.338623,-3370.820191
761.680928,-7994.224174,-4811.338623,-11491.432470
761.681252,-9030.512492,-888.247130,-11568.042020
761.681576,-8438.347739,-8882.471304,-1149.143247
761.681900,-2072.576638,-18727.210333,-3294.210641
761.682224,-2516.700203,-14434.015869,-5515.887586
761.682548,-9844.739029,-6069.688724,4213.525239
761.682872,-3997.112087,-4959.379811,1149.143247
761.683197,1998.556043,-13027.624579,-1378.971896
761.683521,6439.791695,-13101.645173,2528.115143
761.683845,15248.242405,-6735.874072,7814.174080
761.684169,19023.292709,-13175.665768,10495.508323
761.684493,11769.274478,-18357.107362,6281.983084
761.684817,1924.535449,-8216.285956,3677.258390
761.685141,-3404.947333,-222.061783,1378.971896
761.685466,-6809.894666,-1924.535449,-3983.696590
761.685790,-9548.656652,-5699.585753,-16700.881856
761.686114,-12139.377449,-9474.636058,-7277.907231
761.686438,-5107.421000,-12805.562797,-2068.457845
761.686762,962.267725,-16802.674883,-5822.325785
761.687086,-6439.791695,-12805.562797,1838.629195
761.687410,-7105.977043,-4145.153275,3753.867940
761.687735,-592.164754,-7254.018232,-2374.896044
761.688059,370.102971,-14508.036463,-306.438199
761.688383,4811.338623,-12731.542202,2987.772442
761.688707,14508.036463,-13915.871710,9806.022374
761.689031,16950.716072,-17468.860231,8503.660028
761.689355,8882.471304,-11177.109724,5822.325785
761.689679,-592.164754,-2220.617826,3064.381992
761.690003,-4737.318029,-2072.576638,-536.266849
761.690328,-6661.853478,-9030.512492,-7201.297681
761.690652,-9178.553681,-4219.173869,-13942.938064
761.690976,-8586.388927,-3627.009116,-5898.935335
761.691300,-5329.482782,-14804.118840,306.438199
761.691624,-370.102971,-18727.210333,-6358.592633
761.691948,-6587.832884,-9918.759623,0.000000
761.692272,-7179.997637,-4367.215058,4060.306139
761.692597,740.205942,-9770.718434,-1455.581446
761.692921,4811.338623,-16358.551318,383.047749
761.693245,10881.027347,-9622.677246,4366.744339
761.693569,16284.530724,-6957.935855,10112.460574
761.693893,13397.727550,-15174.221811,7124.688131
761.694217,3701.029710,-12731.542202,2374.896044
761.694541,-3182.885551,-2516.700203,995.924147
761.694866,-6513.812290,1036.288319,-5286.058936
761.695190,-9474.636058,-7031.956449,-12410.747068
761.695514,-12509.480420,-15766.386565,-6971.469032
761.695838,-3997.112087,-12287.418637,-5056.230287
761.696162,222.061783,-11695.253884,-3064.381992
761.696486,-5699.585753,-12361.439231,1915.238745
761.696810,-4959.379811,-6291.750507,1455.581446
761.697135,-222.061783,-7031.956449,-766.095498
761.697459,1554.432478,-10881.027347,-383.047749
761.697783,5625.565159,-12065.356855,4213.525239
761.698107,12805.562797,-14878.139434,7354.516781
761.698431,14730.098246,-14434.015869,8656.879127
761.698755,8438.347739,-8660.409521,5669.106685
761.699079,-370.102971,-4885.359217,3294.210641
761.699404,-4959.379811,-4145.153275,-766.095498
761.699728,-6365.771101,-6069.688724,-7124.688131
761.700052,-7624.121203,-2516.700203,-13176.842566
761.700376,-8142.265362,-7476.080014,-4060.306139
761.700700,-4811.338623,-17764.942608,-1149.143247
761.701024,-666.185348,-17172.777854,-5056.230287
761.701348,-5551.544565,-10807.006753,1378.971896
761.701672,-5181.441594,-5921.647536,2451.505594
761.701997,1554.432478,-10362.883188,306.438199
761.702321,5255.462188,-15174.221811,1455.581446
761.702645,11843.295072,-8216.285956,5056.230287
761.702969,16876.695478,-7624.121203,9422.974625
761.703293,13249.686362,-14878.139434,6971.469032
761.703617,4071.132681,-11251.130318,4060.306139
761.703941,-3108.864956,-3034.844362,1455.581446
761.704266,-7772.162391,1480.411884,-7048.078582
761.704590,-12435.459826,-7179.997637,-12257.527968
761.704914,-13767.830521,-15766.386565,-6741.640382
761.705238,-2738.761985,-12139.377449,-5362.668486
761.705562,1258.350101,-11177.109724,-2298.286494
761.705886,-4663.297435,-10584.944971,2681.334243
761.706210,-4219.173869,-6513.812290,1762.019645
761.706535,-814.226536,-8438.347739,-1378.971896
761.706859,592.164754,-9770.718434,153.219100
761.707183,5403.503377,-12139.377449,5362.668486
761.707507,13027.624579,-16876.695478,7890.783629
761.707831,15174.221811,-15100.201217,9116.536426
761.708155,8882.471304,-7920.203579,5822.325785
761.708479,-1332.370696,-4737.318029,3064.381992
761.708804,-6809.894666,-5995.668130,-1302.362347
761.709128,-7772.162391,-8216.285956,-5669.106685
761.709452,-8956.491898,-2072.576638,-8886.707777
761.709776,-6957.935855,-1554.432478,-7967.393179
761.710100,-7772.162391,-14137.933492,-1302.362347
761.710424,-4071.132681,-19097.313304,-3370.820191
761.710748,-4145.153275,-12509.480420,-4290.134789
761.711072,-8142.265362,-6143.709319,3677.258390
761.711397,-1554.432478,-8438.347739,1302.362347
761.711721,6587.832884,-14656.077652,1072.533697
761.712045,12879.583391,-10955.047942,4673.182538
761.712369,16580.613101,-7179.997637,8427.050478
761.712693,13471.748144,-13693.809927,7737.564530
761.713017,5551.544565,-13841.851115,3524.039291
761.713341,-1036.288319,-6143.709319,1991.848295
761.713666,-5551.544565,-592.164754,-2374.896044
761.713990,-8956.491898,-2220.617826,-11491.432470
761.714314,-13767.830521,-13101.645173,-9269.755526
761.714638,-9326.594869,-14582.057057,-4903.011187
761.714962,-962.267725,-11769.274478,-5362.668486
761.715286,-4441.235652,-11325.150913,1149.143247
761.715610,-4959.379811,-7624.121203,3294.210641
761.715935,-518.144159,-6735.874072,0.000000
761.716259,1332.370696,-10658.965565,-842.705048
761.716583,3701.029710,-11325.150913,2987.772442
761.716907,10288.862594,-14878.139434,7354.516781
761.717231,15840.407159,-16284.530724,8427.050478
761.717555,12435.459826,-11103.089130,8044.002729
761.717879,3775.050304,-5995.668130,4903.011187
761.718204,-3627.009116,-4367.215058,0.000000
761.718528,-6439.791695,-6069.688724,-5132.839837
761.718852,-9326.594869,-2220.617826,-13866.328514
761.719176,-10140.821405,-5403.503377,-6281.983084
761.719500,-6883.915261,-14952.160028,-1532.190996
761.719824,-148.041188,-16580.613101,-5669.106685
761.720148,-3849.070898,-10214.842000,536.266849
761.720473,-5255.462188,-5107.421000,3064.381992
761.720797,518.144159,-8438.347739,-689.485948
761.721121,2960.823768,-13989.892304,383.047749
761.721445,10066.800811,-9030.512492,4443.353888
761.721769,16506.592507,-8808.450710,9806.022374
761.722093,15470.304188,-15988.448347,8044.002729
761.722418,6143.709319,-13249.686362,4673.182538
761.722742,-1850.514855,-4737.318029,2374.896044
761.723066,-5699.585753,-1554.432478,-1532.190996
761.723390,-9178.553681,-4219.173869,-13483.280765
761.723714,-14137.933492,-11769.274478,-9959.241474
761.724038,-9178.553681,-12139.377449,-3753.867940
761.724363,518.144159,-12953.603985,-5056.230287
761.724687,-3478.967927,-13323.706956,-689.485948
761.725011,-6883.915261,-7105.977043,3370.820191
761.725335,-1924.535449,-6661.853478,-612.876398
761.725659,592.164754,-10881.027347,-1378.971896
761.725983,2738.761985,-11103.089130,2221.676944
761.726308,10436.903782,-13397.727550,6511.811733
761.726632,15396.283594,-16802.674883,8273.831378
761.726956,10955.047942,-13545.768739,6358.592633
761.727280,2220.617826,-6143.709319,3447.429741
761.727604,-3404.947333,-3108.864956,1072.533697
761.727928,-5255.462188,-7254.018232,-4673.182538
761.728253,-7402.059420,-5995.668130,-8810.098227
761.728577,-6957.935855,370.102971,-11414.822920
761.728901,-7254.018232,-9030.512492,-1915.238745
761.729225,-4959.379811,-19319.375086,-2068.457845
761.729549,-2960.823768,-15544.324782,-4903.011187
761.729873,-7031.956449,-7254.018232,2834.553343
761.730198,-3404.947333,-6735.874072,2298.286494
761.730522,3256.906145,-13693.809927,-306.438199
761.730846,8068.244768,-13545.768739,2604.724693
761.731170,13619.789333,-6883.915261,6665.030833
761.731494,14582.057057,-10584.944971,8733.488677
761.731818,8734.430116,-14952.160028,4213.525239
761.732143,666.185348,-8142.265362,2374.896044
761.732467,-4737.318029,74.020594,-3294.210641
761.732791,-8586.388927,-2738.761985,-9346.365076
761.733115,-12509.480420,-14211.954086,-8503.660028
761.733439,-7994.224174,-14582.057057,-6511.811733
761.733763,-740.205942,-9696.697840,-4290.134789
761.734088,-2590.720797,-10140.821405,1915.238745
761.734412,-3330.926739,-9030.512492,2298.286494
761.734736,-1776.494261,-7550.100608,383.047749
761.735060,148.041188,-8660.409521,76.609550
761.735384,2590.720797,-10732.986159,3677.258390
761.735708,8512.368333,-15988.448347,6358.592633
761.736033,13027.624579,-16062.468941,8580.269578
761.736357,11251.130318,-9696.697840,8427.050478
761.736681,4367.215058,-6217.729913,4213.525239
761.737005,-3404.947333,-6143.709319,306.438199
761.737329,-6291.750507,-6439.791695,-4519.963438
761.737653,-7476.080014,-1702.473667,-9882.631924
761.737978,-7105.977043,-2368.659014,-9116.536426
761.738302,-7846.182985,-13915.871710,-1608.800546
761.738626,-2664.741391,-18505.148550,-2987.772442
761.738950,-2516.700203,-13175.665768,-3524.039291
761.739274,-7179.997637,-7179.997637,4366.744339
761.739598,-1998.556043,-8364.327145,1225.752797
761.739923,3478.967927,-14211.954086,-383.047749
761.740247,8734.430116,-11547.212695,4366.744339
761.740571,14285.974681,-7105.977043,7124.688131
761.740895,15100.201217,-12509.480420,8427.050478
761.741219,8216.285956,-15322.262999,5132.839837
761.741543,518.144159,-6957.935855,2757.943793
761.741868,-4441.235652,-1998.556043,229.828649
761.742192,-8364.327145,-814.226536,-10112.460574
761.742516,-11917.315666,-8882.471304,-12027.699319
761.742840,-10732.986159,-13989.892304,-3983.696590
761.743164,0.000000,-12435.459826,-4903.011187
761.743488,-592.164754,-13175.665768,-2145.067394
761.743813,-6439.791695,-9400.615463,4519.963438
761.744137,-2812.782580,-7031.956449,919.314598
761.744461,888.247130,-10658.965565,-1072.533697
761.744785,2220.617826,-10807.006753,689.485948
761.745109,7402.059420,-12065.356855,5592.497135
761.745433,14656.077652,-15840.407159,8503.660028
761.745758,13101.645173,-14359.995275,7584.345430
761.746082,5107.421000,-8290.306550,4443.353888
761.746406,-2442.679609,-3330.926739,1762.019645
761.746730,-5403.503377,-4737.318029,-4136.915689
761.747054,-9104.533087,-4293.194464,-13100.233016
761.747378,-10288.862594,-5255.462188,-9193.145976
761.747703,-7624.121203,-12287.418637,-1378.971896
761.748027,814.226536,-16506.592507,-4519.963438
761.748351,-1332.370696,-13249.686362,-1149.143247
761.748675,-5921.647536,-6587.832884,3524.039291
761.748999,-1332.370696,-6957.935855,-383.047749
761.749323,1702.473667,-13989.892304,-842.705048
761.749648,6735.874072,-11177.109724,1838.629195
761.749972,13767.830521,-8438.347739,7814.174080
761.750296,15470.304188,-13619.789333,8120.612279
761.750620,8512.368333,-14211.954086,5056.230287
761.750944,148.041188,-7105.977043,2834.553343
761.751268,-5033.400406,-1554.432478,-1991.848295
761.751593,-9178.553681,-3627.009116,-12640.575717
761.751917,-14730.098246,-12879.583391,-9652.803275
761.752241,-9104.533087,-13767.830521,-4903.011187
761.752565,1184.329507,-10807.006753,-3907.087040
761.752889,-1850.514855,-12435.459826,1455.581446
761.753213,-5551.544565,-9030.512492,2987.772442
761.753538,-2220.617826,-7179.997637,-766.095498
761.753862,-222.061783,-9326.594869,-1225.752797
761.754186,1998.556043,-10066.800811,1991.848295
761.754510,9030.512492,-13619.789333,6358.592633
761.754834,14434.015869,-16654.633695,8503.660028
761.755158,11473.192101,-12583.501014,7584.345430
761.755483,4367.215058,-7105.977043,4903.011187
761.755807,-2590.720797,-3997.112087,1532.190996
761.756131,-5329.482782,-5699.585753,-4519.963438
761.756455,-8142.265362,-2886.803174,-9652.803275
761.756779,-7846.182985,-962.267725,-10572.117872
761.757103,-7920.203579,-11769.274478,-1455.581446
761.757428,-2886.803174,-18579.169144,-2145.067394
761.757752,-2590.720797,-14211.954086,-3600.648841
761.758076,-7105.977043,-7031.956449,3983.696590
761.758400,-2738.761985,-6661.853478,1762.019645
761.758724,2664.741391,-13841.851115,0.000000
761.759048,8142.265362,-12657.521608,3370.820191
761.759373,14285.974681,-7550.100608,8273.831378
761.759697,16432.571912,-12287.418637,9499.584175
761.760021,9918.759623,-15100.201217,5822.325785
761.760345,1480.411884,-7624.121203,3370.820191
761.760669,-4441.235652,-1924.535449,612.876398
761.760993,-8956.491898,-444.123565,-11108.384721
761.761318,-14137.933492,-9474.636058,-12487.356617
761.761642,-12805.562797,-13471.748144,-4673.182538
761.761966,-370.102971,-12213.398043,-5745.716235
761.762290,0.000000,-12435.459826,-1608.800546
761.762614,-5033.400406,-8734.430116,4443.353888
761.762938,-2368.659014,-6217.729913,1072.533697
761.763263,148.041188,-10140.821405,-1149.143247
761.763587,1702.473667,-10881.027347,1149.143247
761.763911,7698.141797,-12509.480420,7048.078582
761.764235,15174.221811,-16506.592507,8963.317327
761.764559,14285.974681,-14730.098246,8886.707777
761.764883,5699.585753,-8216.285956,5822.325785
761.765208,-2812.782580,-3775.050304,2145.067394
761.765532,-6143.709319,-5329.482782,-3677.258390
761.765856,-8586.388927,-6587.832884,-7890.783629
761.766180,-8438.347739,-296.082377,-13483.280765
761.766504,-8882.471304,-6439.791695,-3140.991542
761.766828,-5329.482782,-18061.024985,-1608.800546
761.767153,-2294.638420,-16506.592507,-4903.011187
761.767477,-6069.688724,-8438.347739,2145.067394
761.767801,-4515.256246,-5921.647536,2451.505594
761.768125,1924.535449,-11917.315666,-766.095498
761.768449,6587.832884,-14434.015869,1762.019645
761.768773,13545.768739,-7920.203579,5669.106685
761.769098,16580.613101,-10510.924376,9499.584175
761.769422,11547.212695,-16358.551318,6741.640382
761.769746,2516.700203,-10584.944971,2681.334243
761.770070,-2516.700203,-2886.803174,766.095498
761.770394,-7402.059420,74.020594,-8044.002729
761.770718,-12213.398043,-8734.430116,-12563.966167
761.771043,-13471.748144,-15322.262999,-6128.763984
761.771367,-3552.988522,-12139.377449,-5669.106685
761.771691,-888.247130,-11843.295072,-2068.457845
761.772015,-5995.668130,-9844.739029,3677.258390
761.772339,-3997.112087,-5847.626942,1915.238745
761.772663,-148.041188,-9474.636058,-1149.143247
761.772988,1554.432478,-10955.047942,76.609550
761.773312,6883.915261,-11843.295072,5056.230287
761.773636,14063.912898,-15396.283594,7890.783629
761.773960,14508.036463,-14582.057057,8503.660028
761.774284,8438.347739,-8142.265362,5745.716235
761.774608,0.000000,-4515.256246,2604.724693
761.774933,-4293.194464,-4071.132681,-2911.162892
761.775257,-7328.038826,-4219.173869,-10725.336972
761.775581,-8956.491898,-2516.700203,-12334.137518
761.775905,-9326.594869,-10732.986159,-1991.848295
761.776229,-2294.638420,-18357.107362,-2834.553343
761.776553,-1924.535449,-14508.036463,-4060.306139
761.776878,-8068.244768,-7624.121203,4519.963438
761.777202,-3182.885551,-6217.729913,1302.362347
761.777526,2590.720797,-12953.603985,-919.314598
761.777850,6365.771101,-12657.521608,2068.457845
761.778174,13619.789333,-7476.080014,7354.516781
761.778498,17542.880825,-11769.274478,9499.584175
761.778823,11695.253884,-15322.262999,6358.592633
761.779147,2368.659014,-8364.327145,4136.915689
761.779471,-3775.050304,-2516.700203,1149.143247
761.779795,-8512.368333,-814.226536,-10265.679673
761.780119,-13471.748144,-8512.368333,-13176.842566
761.780443,-13397.727550,-14508.036463,-5439.278036
761.780768,-1480.411884,-13175.665768,-5056.230287
761.781092,296.082377,-13915.871710,-2528.115143
761.781416,-6587.832884,-9548.656652,4596.572988
761.781740,-3701.029710,-5107.421000,1838.629195
761.782064,370.102971,-9918.759623,-1838.629195
761.782388,1184.329507,-11325.150913,689.485948
761.782712,7179.997637,-12287.418637,6128.763984
761.783037,15174.221811,-15914.427753,8656.879127
761.783361,14952.160028,-15248.242405,8580.269578
761.783685,6587.832884,-8142.265362,5669.106685
761.784009,-2664.741391,-3256.906145,2757.943793
761.784333,-6143.709319,-4515.256246,-3217.601092
761.784657,-7994.224174,-8438.347739,-6741.640382
761.784982,-9622.677246,-814.226536,-11568.042020
761.785306,-8068.244768,-2442.679609,-6894.859482
761.785630,-7402.059420,-16136.489536,0.000000
761.785954,-2294.638420,-19097.313304,-4213.525239
761.786278,-3701.029710,-10881.027347,-1378.971896
761.786602,-6439.791695,-5329.482782,4596.572988
761.786927,444.123565,-10066.800811,1149.143247
761.787251,6883.915261,-15692.365970,1532.190996
761.787575,13323.706956,-10214.842000,5592.497135
761.787899,16728.654289,-8364.327145,9499.584175
761.788223,13175.665768,-14211.954086,6818.249932
761.788547,4441.235652,-11843.295072,3064.381992
761.788872,-2072.576638,-4219.173869,2068.457845
761.789196,-7179.997637,666.185348,-7048.078582
761.789520,-11769.274478,-6069.688724,-11261.603821
761.789844,-14285.974681,-15248.242405,-7277.907231
761.790168,-5477.523971,-12805.562797,-6128.763984
761.790492,-740.205942,-10732.986159,-2604.724693
761.790817,-4441.235652,-9548.656652,2681.334243
761.791141,-3330.926739,-6661.853478,2374.896044
761.791465,-444.123565,-8512.368333,-995.924147
761.791789,1850.514855,-10807.006753,0.000000
761.792113,5773.606348,-12065.356855,4596.572988
761.792437,12435.459826,-16284.530724,6971.469032
761.792762,14582.057057,-14952.160028,8886.707777
761.793086,9622.677246,-8142.265362,5898.935335
761.793410,740.205942,-4663.297435,2374.896044
761.793734,-5033.400406,-4811.338623,-2604.724693
761.794058,-7846.182985,-5033.400406,-9269.755526
761.794382,-8660.409521,-2294.638420,-13330.061665
761.794707,-9992.780217,-9844.739029,-3983.696590
761.795031,-4589.276840,-17764.942608,-3677.258390
761.795355,-1480.411884,-15692.365970,-5286.058936
761.795679,-6883.915261,-8956.491898,3294.210641
761.796003,-3552.988522,-6365.771101,1225.752797
761.796327,2516.700203,-11991.336260,-1378.971896
761.796652,5625.565159,-13101.645173,1225.752797
761.796976,13101.645173,-7698.141797,6052.154434
761.797300,17320.819043,-10881.027347,9039.926876
761.797624,12657.521608,-15988.448347,6052.154434
761.797948,2960.823768,-10214.842000,3907.087040
761.798272,-3182.885551,-3701.029710,1072.533697
761.798597,-7254.018232,-666.185348,-7737.564530
761.798921,-11399.171507,-7105.977043,-14325.985813
761.799245,-13471.748144,-14211.954086,-6894.859482
761.799569,-2368.659014,-13323.706956,-4979.620737
761.799893,1258.350101,-13767.830521,-3294.210641
761.800217,-6217.729913,-11177.109724,3600.648841
761.800542,-4885.359217,-5995.668130,2374.896044
761.800866,-296.082377,-9178.553681,-2145.067394
761.801190,888.247130,-10955.047942,-306.438199
761.801514,6217.729913,-11547.212695,4903.011187
761.801838,15026.180623,-15988.448347,8810.098227
761.802162,15618.345376,-15692.365970,9422.974625
761.802487,8512.368333,-8956.491898,6511.811733
761.802811,-1184.329507,-3256.906145,3600.648841
761.803135,-5625.565159,-3997.112087,-1838.629195
761.803459,-7698.141797,-8290.306550,-6665.030833
761.803783,-9770.718434,-592.164754,-11644.651570
761.804107,-7994.224174,-1850.514855,-6818.249932
761.804432,-7624.121203,-15322.262999,536.266849
761.804756,-1998.556043,-18949.272115,-4903.011187
761.805080,-4145.153275,-10807.006753,-1378.971896
761.805404,-7105.977043,-4737.318029,4826.401637
761.805728,-888.247130,-8660.409521,689.485948
761.806052,5181.441594,-15914.427753,1455.581446
761.806377,11917.315666,-10658.965565,4903.011187
761.806701,16432.571912,-7550.100608,9346.365076
761.807025,13249.686362,-14359.995275,6818.249932
761.807349,4441.235652,-11843.295072,3370.820191
761.807673,-2664.741391,-4515.256246,2298.286494
761.807997,-6365.771101,-2294.638420,-1991.848295
761.808322,-9770.718434,-4145.153275,-12563.966167
761.808646,-14285.974681,-11843.295072,-8963.317327
761.808970,-9622.677246,-12805.562797,-3907.087040
761.809294,-814.226536,-12657.521608,-4596.572988
761.809618,-3478.967927,-12953.603985,919.314598
761.809942,-5477.523971,-7550.100608,4136.915689
761.810267,-814.226536,-6957.935855,-153.219100
761.810591,1406.391290,-12361.439231,76.609550
761.810915,3997.112087,-12731.542202,2911.162892
761.811239,11769.274478,-13989.892304,6971.469032
761.811563,16136.489536,-15470.304188,8733.488677
761.811887,11177.109724,-11621.233289,6741.640382
761.812212,2516.700203,-6291.750507,3370.820191
761.812536,-3478.967927,-4515.256246,766.095498
761.812860,-5477.523971,-7105.977043,-4519.963438
761.813184,-8438.347739,-4885.359217,-10342.289223
761.813508,-8956.491898,-2738.761985,-8580.269578
761.813832,-8956.491898,-12509.480420,-1915.238745
761.814157,-3552.988522,-17912.983796,-4060.306139
761.814481,-3404.947333,-12805.562797,-2145.067394
761.814805,-6365.771101,-6513.812290,4596.572988
761.815129,518.144159,-8068.244768,1532.190996
761.815453,5477.523971,-13841.851115,612.876398
761.815777,10214.842000,-10436.903782,3370.820191
761.816102,15618.345376,-5773.606348,8273.831378
761.816426,15100.201217,-11843.295072,8044.002729
761.816750,6735.874072,-13915.871710,4213.525239
761.817074,0.000000,-6587.832884,2451.505594
761.817398,-4589.276840,-222.061783,-5592.497135
761.817722,-9104.533087,-6217.729913,-9499.584175
761.818047,-12361.439231,-16210.510130,-8197.221829
761.818371,-6587.832884,-13767.830521,-7660.954980
761.818695,-1998.556043,-8956.491898,-2911.162892
761.819019,-4737.318029,-9474.636058,1072.533697
761.819343,-3775.050304,-7772.162391,1838.629195
761.819667,-814.226536,-7772.162391,-229.828649
761.819992,1480.411884,-8808.450710,0.000000
761.820316,5181.441594,-11547.212695,4136.915689
761.820640,11177.109724,-15692.365970,5822.325785
761.820964,12953.603985,-13693.809927,8044.002729
761.821288,8660.409521,-7624.121203,6435.202183
761.821612,592.164754,-5847.626942,3064.381992
761.821937,-5625.565159,-7846.182985,-1072.533697
761.822261,-6365.771101,-8290.306550,-5209.449386
761.822585,-6587.832884,-2886.803174,-7967.393179
761.822909,-6587.832884,-1406.391290,-9959.241474
761.823233,-9252.574275,-12287.418637,-2834.553343
761.823557,-6069.688724,-18431.127956,-2911.162892
761.823882,-3849.070898,-13619.789333,-5209.449386
761.824206,-6365.771101,-7624.121203,2987.772442
761.824530,-1036.288319,-8512.368333,2374.896044
761.824854,6883.915261,-14582.057057,766.095498
761.825178,11843.295072,-12657.521608,3677.258390
761.825502,14359.995275,-7550.100608,6894.859482
761.825826,11843.295072,-11547.212695,6741.640382
761.826150,5699.585753,-14359.995275,3294.210641
761.826474,-1332.370696,-7476.080014,1532.190996
761.826798,-5551.544565,-1110.308913,-2298.286494
761.827122,-8808.450710,-1184.329507,-11414.822920
761.827446,-13545.768739,-13397.727550,-9116.536426
761.827770,-9770.718434,-16062.468941,-5592.497135
761.828094,-1406.391290,-10214.842000,-6281.983084
761.828418,-3478.967927,-9474.636058,1532.190996
761.828743,-3997.112087,-7254.018232,3983.696590
761.829067,222.061783,-8068.244768,0.000000
761.829391,1998.556043,-11547.212695,1149.143247
761.829715,4737.318029,-12435.459826,4213.525239
761.830039,11103.089130,-15914.427753,7124.688131
761.830363,15026.180623,-16136.489536,8656.879127
761.830687,11251.130318,-9252.574275,7354.516781
761.831011,2590.720797,-4885.359217,4443.353888
761.831335,-4219.173869,-4959.379811,229.828649
761.831659,-6957.935855,-5551.544565,-6281.983084
761.831983,-9622.677246,-814.226536,-14249.376263
761.832307,-11843.295072,-6661.853478,-5515.887586
761.832631,-7476.080014,-15248.242405,-2145.067394
761.832955,222.061783,-15396.283594,-5669.106685
761.833279,-3182.885551,-9400.615463,2757.943793
761.833604,-3034.844362,-5329.482782,3753.867940
761.833928,2368.659014,-9104.533087,-536.266849
761.834252,4515.256246,-13397.727550,2528.115143
761.834576,11621.233289,-9326.594869,5745.716235
761.834900,17616.901420,-11029.068536,10495.508323
761.835224,15026.180623,-15544.324782,7431.126331
761.835548,4811.338623,-10584.944971,5209.449386
761.835872,-2664.741391,-3701.029710,3064.381992
761.836196,-6809.894666,-2368.659014,-3753.867940
761.836520,-11177.109724,-3478.967927,-15704.957709
761.836844,-16580.613101,-10510.924376,-8810.098227
761.837168,-9400.615463,-12879.583391,-4290.134789
761.837492,444.123565,-13841.851115,-6205.373534
761.837816,-4145.153275,-12213.398043,995.924147
761.838140,-5477.523971,-5033.400406,3830.477490
761.838465,296.082377,-7105.977043,-1378.971896
761.838789,1850.514855,-13249.686362,153.219100
761.839113,4885.359217,-12509.480420,3983.696590
761.839437,13323.706956,-15322.262999,9882.631924
761.839761,17468.860231,-17912.983796,9806.022374
761.840085,11177.109724,-9844.739029,4903.011187
761.840409,-370.102971,-3552.988522,3140.991542
761.840733,-6217.729913,-4663.297435,-153.219100
761.841057,-6439.791695,-9622.677246,-6894.859482
761.841381,-10140.821405,-3182.885551,-13636.499864
761.841705,-11547.212695,-518.144159,-8656.879127
761.842029,-9252.574275,-13175.665768,-1838.629195
761.842353,-2442.679609,-19541.436869,-7354.516781
761.842677,-5033.400406,-12139.377449,-3600.648841
761.843001,-6513.812290,-4737.318029,4903.011187
761.843326,962.267725,-8438.347739,-383.047749
761.843650,5625.565159,-16358.551318,612.876398
761.843974,11621.233289,-11917.315666,4903.011187
761.844298,18209.066173,-8364.327145,9652.803275
761.844622,16580.613101,-15840.407159,7354.516781
761.844946,5773.606348,-14878.139434,3830.477490
761.845270,-1554.432478,-5477.523971,2451.505594
761.845594,-4367.215058,-1924.535449,-1072.533697
761.845918,-9178.553681,-1776.494261,-14479.204912
761.846242,-16210.510130,-10807.006753,-10801.946522
761.846566,-12583.501014,-13249.686362,-4519.963438
761.846890,-962.267725,-12583.501014,-6818.249932
761.847214,-4293.194464,-12583.501014,-919.314598
761.847538,-7105.977043,-5033.400406,4596.572988
761.847863,-962.267725,-4515.256246,229.828649
761.848187,2590.720797,-11843.295072,-383.047749
761.848511,5181.441594,-13027.624579,3217.601092
761.848835,13767.830521,-13767.830521,9039.926876
761.849159,18949.272115,-15914.427753,9806.022374
761.849483,13767.830521,-11843.295072,7814.174080
761.849807,3627.009116,-6143.709319,4903.011187
761.850131,-4145.153275,-3034.844362,1685.410096
761.850455,-6661.853478,-5773.606348,-6588.421283
761.850779,-10658.965565,-4219.173869,-14938.862211
761.851103,-13101.645173,-6661.853478,-5822.325785
761.851427,-7179.997637,-14137.933492,-2374.896044
761.851751,-1554.432478,-16062.468941,-7201.297681
761.852075,-7031.956449,-9770.718434,1685.410096
761.852399,-5995.668130,-4071.132681,3294.210641
761.852724,888.247130,-8660.409521,-842.705048
761.853048,3552.988522,-14508.036463,1838.629195
761.853372,10584.944971,-10140.821405,6205.373534
761.853696,19763.498651,-10955.047942,11108.384721
761.854020,18801.230927,-17098.757260,8273.831378
761.854344,6513.812290,-12583.501014,5822.325785
761.854668,-2368.659014,-4663.297435,3447.429741
761.854992,-5551.544565,-3775.050304,-1455.581446
761.855316,-9696.697840,-3775.050304,-14555.814462
761.855640,-14804.118840,-7846.182985,-11338.213370
761.855964,-11473.192101,-11695.253884,-3217.601092
761.856288,-222.061783,-15248.242405,-6128.763984
761.856612,-3701.029710,-14582.057057,-3294.210641
761.856936,-9474.636058,-5477.523971,4443.353888
761.857260,-1628.453072,-5107.421000,-536.266849
761.857585,1406.391290,-12879.583391,-1149.143247
761.857909,4737.318029,-13175.665768,2911.162892
761.858233,12953.603985,-12065.356855,9882.631924
761.858557,19023.292709,-17246.798449,11414.822920
761.858881,13545.768739,-13693.809927,6281.983084
761.859205,1776.494261,-4959.379811,3447.429741
761.859529,-5773.606348,-2960.823768,2145.067394
761.859853,-6439.791695,-8364.327145,-5056.230287
761.860177,-10807.006753,-5699.585753,-13330.061665
761.860501,-11473.192101,-518.144159,-10189.070123
761.860825,-8734.430116,-9992.780217,-689.485948
761.861149,-2664.741391,-19171.333898,-6894.859482
761.861473,-5847.626942,-13545.768739,-4826.401637
761.861797,-9030.512492,-4071.132681,5362.668486
761.862121,-444.123565,-6439.791695,153.219100
761.862446,4811.338623,-16506.592507,153.219100
761.862770,8882.471304,-13545.768739,4749.792088
761.863094,17394.839637,-7920.203579,9959.241474
761.863418,18505.148550,-14211.954086,9269.755526
761.863742,7994.224174,-16580.613101,4596.572988
761.864066,-888.247130,-6587.832884,3677.258390
761.864390,-4293.194464,-1036.288319,229.828649
761.864714,-8142.265362,-1702.473667,-10112.460574
761.865038,-13323.706956,-8068.244768,-13023.623466
761.865362,-13027.624579,-11843.295072,-4213.525239
761.865686,-1998.556043,-12805.562797,-4060.306139
761.866010,-2294.638420,-14508.036463,-4979.620737
761.866334,-9770.718434,-7550.100608,3524.039291
761.866658,-4071.132681,-3701.029710,1685.410096
761.866982,1850.514855,-11769.274478,-1685.410096
761.867307,3997.112087,-14582.057057,2681.334243
761.867631,11399.171507,-12879.583391,7660.954980
761.867955,18653.189738,-15100.201217,10725.336972
761.868279,14878.139434,-13619.789333,7890.783629
761.868603,4811.338623,-7179.997637,5132.839837
761.868927,-3330.926739,-3701.029710,2834.553343
761.869251,-4589.276840,-4589.276840,-4213.525239
761.869575,-9548.656652,-3923.091493,-15858.176809
761.869899,-12879.583391,-6439.791695,-7048.078582
761.870223,-7254.018232,-13323.706956,-1532.190996
761.870547,0.000000,-17320.819043,-6818.249932
761.870871,-6661.853478,-11917.315666,-229.828649
761.871195,-8290.306550,-3404.947333,4443.353888
761.871519,370.102971,-7031.956449,-459.657299
761.871843,3108.864956,-14804.118840,0.000000
761.872168,7920.203579,-11251.130318,3830.477490
761.872492,17616.901420,-9918.759623,11108.384721
761.872816,20207.622217,-15840.407159,8963.317327
761.873140,9400.615463,-14211.954086,5515.887586
761.873464,-1036.288319,-4441.235652,4136.915689
761.873788,-4293.194464,-1036.288319,0.000000
761.874112,-8956.491898,-1776.494261,-13636.499864
761.874436,-13767.830521,-7698.141797,-13100.233016
761.874760,-11399.171507,-11473.192101,-4213.525239
761.875084,814.226536,-14582.057057,-5822.325785
761.875408,-1702.473667,-15470.304188,-4673.182538
761.875732,-10066.800811,-7254.018232,4213.525239
