#time,accel_x,accel_y,accel_z
478.475084,4589.276840,-8882.471304,229.828649
478.475408,2220.617826,-9770.718434,76.609550
478.475732,0.000000,-10436.903782,229.828649
478.476056,-1776.494261,-11399.171507,766.095498
478.476380,-2590.720797,-11843.295072,0.000000
478.476704,-2812.782580,-11399.171507,0.000000
478.477028,-2960.823768,-9696.697840,0.000000
478.477352,-2294.638420,-7772.162391,229.828649
478.477676,-1406.391290,-6587.832884,612.876398
478.478000,-222.061783,-7624.121203,1608.800546
478.478325,888.247130,-8808.450710,1915.238745
478.478649,2590.720797,-8734.430116,1378.971896
478.478973,4145.153275,-8438.347739,1532.190996
478.479297,5847.626942,-10584.944971,995.924147
478.479621,7031.956449,-11917.315666,1149.143247
478.479945,6439.791695,-13175.665768,1455.581446
478.480269,4293.194464,-13323.706956,766.095498
478.480593,1998.556043,-12583.501014,229.828649
478.480917,296.082377,-12065.356855,0.000000
478.481241,74.020594,-11547.212695,153.219100
478.481565,518.144159,-10658.965565,0.000000
478.481889,518.144159,-9474.636058,1991.848295
478.482213,222.061783,-8882.471304,2451.505594
478.482537,296.082377,-8438.347739,1915.238745
478.482861,222.061783,-8734.430116,2068.457845
478.483185,888.247130,-8882.471304,1532.190996
478.483509,1702.473667,-8956.491898,1149.143247
478.483834,2220.617826,-9622.677246,1149.143247
478.484158,2220.617826,-9770.718434,919.314598
478.484482,2664.741391,-10214.842000,995.924147
478.484806,2590.720797,-9844.739029,1149.143247
478.485130,2886.803174,-9844.739029,1455.581446
478.485454,4293.194464,-9770.718434,1608.800546
478.485778,5181.441594,-9178.553681,2528.115143
478.486102,5699.585753,-9178.553681,3447.429741
478.486426,5847.626942,-9474.636058,4060.306139
478.486750,5033.400406,-9696.697840,3600.648841
478.487074,3923.091493,-9770.718434,4903.011187
478.487398,3552.988522,-10140.821405,4290.134789
478.487722,3330.926739,-10362.883188,3677.258390
478.488046,2664.741391,-10436.903782,3830.477490
478.488370,1480.411884,-10881.027347,3524.039291
478.488694,0.000000,-10584.944971,2834.553343
478.489018,-1406.391290,-9252.574275,2604.724693
478.489343,-1776.494261,-7920.203579,3140.991542
478.489667,-296.082377,-6809.894666,2298.286494
478.489991,1850.514855,-5847.626942,2681.334243
478.490315,3775.050304,-5477.523971,3064.381992
478.490639,4811.338623,-5033.400406,3983.696590
478.490963,5107.421000,-5847.626942,4290.134789
478.491287,4589.276840,-7105.977043,3907.087040
478.491611,3478.967927,-8734.430116,3677.258390
478.491935,2590.720797,-9770.718434,3983.696590
478.492259,1184.329507,-11251.130318,3600.648841
478.492583,-666.185348,-12065.356855,3140.991542
478.492907,-2220.617826,-12213.398043,2681.334243
478.493231,-2294.638420,-11769.274478,2757.943793
478.493555,-296.082377,-11251.130318,2681.334243
478.493879,2220.617826,-10362.883188,2451.505594
478.494203,4737.318029,-9992.780217,2681.334243
478.494527,5477.523971,-9474.636058,2604.724693
478.494852,4811.338623,-9326.594869,1838.629195
478.495176,3330.926739,-9030.512492,1532.190996
478.495500,1924.535449,-9104.533087,1225.752797
478.495824,1110.308913,-9622.677246,1072.533697
478.496148,1258.350101,-9992.780217,995.924147
478.496472,1776.494261,-9844.739029,1915.238745
478.496796,2368.659014,-10214.842000,2451.505594
478.497120,2516.700203,-11621.233289,1838.629195
478.497444,1554.432478,-11399.171507,1762.019645
478.497768,-370.102971,-10584.944971,1225.752797
478.498092,-1924.535449,-9622.677246,1149.143247
478.498416,-1406.391290,-9400.615463,1532.190996
478.498740,814.226536,-9918.759623,1302.362347
478.499064,3478.967927,-10140.821405,1455.581446
478.499388,4589.276840,-10658.965565,1149.143247
478.499712,3849.070898,-10881.027347,995.924147
478.500036,2516.700203,-10214.842000,0.000000
478.500360,1406.391290,-8586.388927,-383.047749
478.500685,2294.638420,-8734.430116,459.657299
478.501009,3701.029710,-9178.553681,1225.752797
478.501333,4663.297435,-9474.636058,1149.143247
478.501657,3552.988522,-9104.533087,1302.362347
478.501981,1110.308913,-8438.347739,536.266849
478.502305,-1036.288319,-8438.347739,0.000000
478.502629,-1480.411884,-8216.285956,0.000000
478.502953,-740.205942,-7846.182985,459.657299
478.503277,666.185348,-8734.430116,1378.971896
478.503601,1998.556043,-9918.759623,1915.238745
478.503925,1628.453072,-10214.842000,1455.581446
478.504249,888.247130,-9104.533087,459.657299
478.504573,592.164754,-8142.265362,-612.876398
478.504897,740.205942,-8512.368333,-1378.971896
478.505221,666.185348,-9474.636058,-1149.143247
478.505545,592.164754,-10214.842000,-1455.581446
478.505869,0.000000,-9770.718434,-1608.800546
478.506193,148.041188,-9104.533087,-1225.752797
478.506517,1480.411884,-9178.553681,-1072.533697
478.506841,3478.967927,-9918.759623,-229.828649
478.507165,4515.256246,-10881.027347,919.314598
478.507489,3108.864956,-11547.212695,1378.971896
478.507813,444.123565,-11621.233289,995.924147
478.508137,-962.267725,-11399.171507,536.266849
478.508461,0.000000,-11251.130318,459.657299
478.508785,74.020594,-11473.192101,0.000000
478.509109,-1184.329507,-11621.233289,-459.657299
478.509433,-3108.864956,-10732.986159,-1455.581446
478.509757,-4071.132681,-9104.533087,-2681.334243
478.510081,-3775.050304,-7476.080014,-2987.772442
478.510405,-2368.659014,-6883.915261,-2834.553343
478.510729,-962.267725,-8660.409521,-2451.505594
478.511053,148.041188,-9474.636058,-995.924147
478.511377,444.123565,-9622.677246,306.438199
478.511701,1554.432478,-9696.697840,1149.143247
478.512025,2886.803174,-9918.759623,1762.019645
478.512349,3478.967927,-10732.986159,2451.505594
478.512673,2220.617826,-11029.068536,1685.410096
478.512997,-370.102971,-11399.171507,1378.971896
478.513321,-2590.720797,-11843.295072,459.657299
478.513645,-2960.823768,-11029.068536,0.000000
478.513969,-3034.844362,-9622.677246,-766.095498
478.514293,-2960.823768,-9918.759623,-995.924147
478.514617,-3330.926739,-10066.800811,-1302.362347
478.514941,-2738.761985,-9474.636058,-1608.800546
478.515265,-1332.370696,-8882.471304,-612.876398
478.515589,1776.494261,-8956.491898,842.705048
478.515913,3478.967927,-10066.800811,2374.896044
478.516237,2960.823768,-10066.800811,2604.724693
478.516561,1998.556043,-8660.409521,1685.410096
478.516885,1554.432478,-8660.409521,1532.190996
478.517209,2146.597232,-9770.718434,1149.143247
478.517533,2368.659014,-10140.821405,1455.581446
478.517857,148.041188,-9030.512492,1149.143247
478.518181,-2516.700203,-8068.244768,0.000000
478.518505,-4219.173869,-8734.430116,153.219100
478.518829,-3182.885551,-9326.594869,-229.828649
478.519153,-1036.288319,-9622.677246,995.924147
478.519477,888.247130,-9474.636058,1608.800546
478.519801,1702.473667,-8512.368333,1685.410096
478.520125,2368.659014,-8364.327145,1915.238745
478.520449,3330.926739,-9326.594869,1685.410096
478.520773,3404.947333,-9696.697840,1762.019645
478.521097,2590.720797,-10955.047942,1838.629195
478.521421,666.185348,-10362.883188,842.705048
478.521745,-1036.288319,-8956.491898,612.876398
478.522069,-1480.411884,-8586.388927,536.266849
478.522393,0.000000,-9474.636058,842.705048
478.522717,814.226536,-9622.677246,766.095498
478.523041,-296.082377,-9252.574275,1225.752797
478.523365,-1036.288319,-7846.182985,1072.533697
478.523689,-222.061783,-7550.100608,1149.143247
478.524013,962.267725,-7624.121203,1302.362347
478.524337,1258.350101,-8956.491898,1685.410096
478.524661,296.082377,-9992.780217,229.828649
478.524985,-962.267725,-9252.574275,0.000000
478.525309,-1184.329507,-9326.594869,-689.485948
478.525633,-296.082377,-9548.656652,-995.924147
478.525957,296.082377,-10140.821405,-1302.362347
478.526281,-444.123565,-10955.047942,-766.095498
478.526605,-1480.411884,-10436.903782,-1532.190996
478.526929,-962.267725,-9918.759623,-1532.190996
478.527253,592.164754,-10288.862594,-995.924147
478.527577,1998.556043,-11325.150913,-306.438199
478.527901,1850.514855,-11843.295072,0.000000
478.528225,296.082377,-11621.233289,0.000000
478.528549,-962.267725,-10510.924376,-229.828649
478.528873,-1406.391290,-10288.862594,-842.705048
478.529197,-814.226536,-10436.903782,-1225.752797
478.529521,-740.205942,-11029.068536,-1225.752797
478.529845,-1998.556043,-9992.780217,-2145.067394
478.530169,-2664.741391,-8808.450710,-2911.162892
478.530493,-1998.556043,-8364.327145,-2757.943793
478.530817,-592.164754,-8808.450710,-3140.991542
478.531141,-74.020594,-9030.512492,-1838.629195
478.531465,-1554.432478,-8512.368333,-1838.629195
478.531789,-2146.597232,-8586.388927,-2374.896044
478.532113,-1554.432478,-8660.409521,-2068.457845
478.532437,-148.041188,-9400.615463,-1302.362347
478.532761,814.226536,-10214.842000,-1072.533697
478.533085,592.164754,-10288.862594,-842.705048
478.533409,-296.082377,-9770.718434,-766.095498
478.533733,0.000000,-9918.759623,-1225.752797
478.534057,888.247130,-9918.759623,-1072.533697
478.534381,1036.288319,-11103.089130,-1685.410096
478.534705,148.041188,-11251.130318,-1608.800546
478.535029,-592.164754,-10881.027347,-1608.800546
478.535353,-740.205942,-9992.780217,-1378.971896
478.535677,444.123565,-9992.780217,-1149.143247
478.536001,1554.432478,-10807.006753,-459.657299
478.536325,1702.473667,-10584.944971,-306.438199
478.536649,666.185348,-9696.697840,-229.828649
478.536973,74.020594,-8956.491898,0.000000
478.537297,370.102971,-8512.368333,76.609550
478.537621,962.267725,-8808.450710,459.657299
478.537945,592.164754,-9474.636058,306.438199
478.538269,-1036.288319,-9178.553681,459.657299
478.538593,-1924.535449,-8438.347739,229.828649
478.538917,-888.247130,-8364.327145,1072.533697
478.539241,0.000000,-8586.388927,1072.533697
478.539565,1036.288319,-9178.553681,1225.752797
478.539889,740.205942,-9770.718434,1378.971896
478.540213,666.185348,-9548.656652,1149.143247
478.540537,1628.453072,-10140.821405,1149.143247
478.540861,2368.659014,-9696.697840,1991.848295
478.541185,2368.659014,-10807.006753,2145.067394
478.541509,1036.288319,-10510.924376,1608.800546
478.541833,-1036.288319,-10436.903782,1149.143247
478.542157,-1776.494261,-9696.697840,689.485948
478.542481,-1184.329507,-9474.636058,1072.533697
478.542805,222.061783,-9474.636058,1225.752797
478.543129,74.020594,-9548.656652,1455.581446
478.543453,-370.102971,-8734.430116,1915.238745
478.543777,-1258.350101,-7698.141797,1532.190996
478.544101,-1110.308913,-7550.100608,1072.533697
478.544425,-518.144159,-8438.347739,766.095498
478.544749,-1036.288319,-9252.574275,1149.143247
478.545073,-1628.453072,-9548.656652,766.095498
478.545397,-1850.514855,-9400.615463,536.266849
478.545721,-1628.453072,-9400.615463,612.876398
478.546045,-666.185348,-9474.636058,1072.533697
478.546369,0.000000,-10214.842000,459.657299
478.546693,-518.144159,-10510.924376,229.828649
478.547017,-518.144159,-9770.718434,383.047749
478.547341,666.185348,-9474.636058,153.219100
478.547665,2146.597232,-9696.697840,842.705048
478.547989,2590.720797,-10658.965565,1378.971896
478.548313,1184.329507,-10881.027347,842.705048
478.548637,-962.267725,-9548.656652,-383.047749
478.548961,-1776.494261,-9474.636058,-536.266849
478.549285,-740.205942,-9622.677246,-383.047749
478.549609,148.041188,-10584.944971,0.000000
478.549933,0.000000,-10881.027347,76.609550
478.550257,-592.164754,-9474.636058,-766.095498
478.550581,-1258.350101,-8216.285956,-536.266849
478.550905,74.020594,-8808.450710,-766.095498
478.551229,1184.329507,-9474.636058,-229.828649
478.551553,444.123565,-9548.656652,-459.657299
478.551877,0.000000,-9178.553681,-766.095498
478.552201,-592.164754,-9030.512492,-612.876398
478.552525,296.082377,-9696.697840,-383.047749
478.552849,1406.391290,-9992.780217,459.657299
478.553173,1258.350101,-10362.883188,-536.266849
478.553497,592.164754,-9400.615463,-612.876398
478.553821,296.082377,-9030.512492,-919.314598
478.554145,1110.308913,-9326.594869,-689.485948
478.554469,1924.535449,-9992.780217,-766.095498
478.554793,1036.288319,-10510.924376,-842.705048
478.555117,-370.102971,-9474.636058,-1302.362347
478.555441,-1702.473667,-8956.491898,-1455.581446
478.555765,-1554.432478,-9400.615463,-1072.533697
478.556089,0.000000,-9844.739029,-1072.533697
478.556413,518.144159,-9992.780217,-459.657299
478.556737,-148.041188,-9770.718434,-766.095498
478.557061,-592.164754,-9400.615463,-1225.752797
478.557385,0.000000,-9178.553681,-612.876398
478.557709,1110.308913,-9326.594869,-229.828649
478.558033,1258.350101,-9918.759623,0.000000
478.558357,222.061783,-9918.759623,-689.485948
478.558681,-1332.370696,-9844.739029,-1225.752797
478.559005,-1628.453072,-9474.636058,-1455.581446
478.559329,-962.267725,-9252.574275,-995.924147
478.559653,74.020594,-9918.759623,0.000000
478.559977,666.185348,-10732.986159,0.000000
478.560301,592.164754,-10807.006753,0.000000
478.560625,370.102971,-9548.656652,0.000000
478.560949,814.226536,-9326.594869,-536.266849
478.561273,814.226536,-9992.780217,-153.219100
478.561597,0.000000,-10881.027347,-229.828649
478.561921,-1702.473667,-10807.006753,-689.485948
478.562245,-2516.700203,-10436.903782,-1225.752797
478.562569,-1924.535449,-10288.862594,-689.485948
478.562893,-444.123565,-10214.842000,-306.438199
478.563217,0.000000,-10881.027347,76.609550
478.563541,-592.164754,-10362.883188,153.219100
478.563865,-666.185348,-9622.677246,-766.095498
478.564189,0.000000,-8956.491898,-383.047749
478.564513,666.185348,-9474.636058,229.828649
478.564837,444.123565,-10362.883188,689.485948
478.565161,-888.247130,-10436.903782,153.219100
478.565485,-2072.576638,-9622.677246,-229.828649
478.565809,-2368.659014,-8660.409521,-306.438199
478.566133,-666.185348,-9252.574275,-229.828649
478.566457,222.061783,-9252.574275,459.657299
478.566781,592.164754,-9770.718434,383.047749
478.567105,0.000000,-8882.471304,383.047749
478.567429,0.000000,-8290.306550,0.000000
478.567753,814.226536,-8216.285956,383.047749
478.568077,1628.453072,-9104.533087,689.485948
478.568401,740.205942,-9622.677246,689.485948
478.568725,-296.082377,-9400.615463,229.828649
478.569049,-1036.288319,-9104.533087,383.047749
478.569373,-148.041188,-9474.636058,459.657299
478.569697,1184.329507,-9992.780217,919.314598
478.570021,1924.535449,-10436.903782,1302.362347
478.570345,1776.494261,-9992.780217,1225.752797
478.570669,1258.350101,-9474.636058,689.485948
478.570993,1332.370696,-9178.553681,919.314598
478.571317,1554.432478,-9400.615463,612.876398
478.571641,1110.308913,-10288.862594,1149.143247
478.571965,74.020594,-10510.924376,1149.143247
478.572289,-592.164754,-9548.656652,536.266849
478.572613,-222.061783,-9326.594869,1225.752797
478.572937,666.185348,-9252.574275,306.438199
478.573261,1036.288319,-9104.533087,919.314598
478.573585,370.102971,-9474.636058,842.705048
478.573909,148.041188,-9030.512492,612.876398
478.574233,222.061783,-8438.347739,1072.533697
478.574557,1110.308913,-8734.430116,1378.971896
478.574881,1702.473667,-9474.636058,1608.800546
478.575205,740.205942,-9548.656652,1608.800546
478.575529,-592.164754,-9326.594869,612.876398
478.575853,-1258.350101,-8808.450710,229.828649
478.576177,0.000000,-8808.450710,536.266849
478.576501,888.247130,-9992.780217,689.485948
478.576825,1036.288319,-10658.965565,612.876398
478.577149,-296.082377,-10436.903782,306.438199
478.577472,-888.247130,-9622.677246,-383.047749
478.577796,-296.082377,-9474.636058,-383.047749
478.578120,-370.102971,-9622.677246,-459.657299
478.578444,-666.185348,-10436.903782,76.609550
478.578768,-1776.494261,-10584.944971,-536.266849
478.579092,-2294.638420,-10140.821405,-612.876398
478.579416,-1924.535449,-9548.656652,-766.095498
478.579740,-1258.350101,-9844.739029,-459.657299
478.580064,-814.226536,-10436.903782,-229.828649
478.580388,-1628.453072,-9992.780217,-1149.143247
478.580712,-1702.473667,-9030.512492,-842.705048
478.581036,-370.102971,-8808.450710,-995.924147
478.581360,222.061783,-9548.656652,-995.924147
478.581684,148.041188,-10362.883188,-1225.752797
478.582008,-1406.391290,-10066.800811,-1455.581446
478.582332,-2220.617826,-9770.718434,-1838.629195
478.582656,-2294.638420,-8882.471304,-2068.457845
478.582980,-370.102971,-10288.862594,-995.924147
478.583304,740.205942,-10807.006753,-1302.362347
478.583628,740.205942,-10658.965565,-1378.971896
478.583952,296.082377,-10436.903782,-1762.019645
478.584276,296.082377,-9696.697840,-1991.848295
478.584600,888.247130,-9918.759623,-1532.190996
478.584924,962.267725,-11103.089130,-842.705048
478.585248,0.000000,-11769.274478,-919.314598
478.585572,-1110.308913,-10584.944971,-1072.533697
478.585896,-1258.350101,-10214.842000,-1532.190996
478.586220,-148.041188,-10436.903782,-1302.362347
478.586544,1036.288319,-9992.780217,-1225.752797
478.586868,740.205942,-9622.677246,-766.095498
478.587192,0.000000,-9548.656652,-766.095498
478.587516,0.000000,-8808.450710,-612.876398
478.587840,1110.308913,-8586.388927,-536.266849
478.588164,1776.494261,-8808.450710,0.000000
478.588488,1110.308913,-9474.636058,-306.438199
478.588812,0.000000,-8734.430116,-995.924147
478.589136,-444.123565,-8438.347739,-766.095498
478.589460,666.185348,-9030.512492,153.219100
478.589784,2294.638420,-9326.594869,1378.971896
478.590108,2738.761985,-9474.636058,1838.629195
478.590432,1480.411884,-9030.512492,919.314598
478.590756,148.041188,-8882.471304,536.266849
478.591080,148.041188,-9178.553681,459.657299
478.591404,1036.288319,-9622.677246,842.705048
478.591728,1258.350101,-9992.780217,1302.362347
478.592052,148.041188,-9918.759623,1532.190996
478.592376,-1480.411884,-9622.677246,689.485948
478.592700,-1850.514855,-9252.574275,536.266849
478.593024,-814.226536,-9548.656652,612.876398
478.593348,518.144159,-10436.903782,1225.752797
478.593672,148.041188,-10066.800811,1072.533697
478.593996,-666.185348,-9696.697840,1149.143247
478.594320,-740.205942,-9400.615463,1149.143247
478.594644,518.144159,-9474.636058,1149.143247
478.594968,814.226536,-9918.759623,1608.800546
478.595292,0.000000,-9474.636058,1762.019645
478.595616,-2368.659014,-9474.636058,229.828649
478.595940,-2590.720797,-9252.574275,459.657299
478.596264,-1850.514855,-9400.615463,229.828649
478.596588,-592.164754,-9548.656652,536.266849
478.596912,-444.123565,-10140.821405,919.314598
478.597236,-666.185348,-9770.718434,842.705048
478.597560,-1036.288319,-9104.533087,0.000000
478.597884,-222.061783,-8956.491898,306.438199
478.598208,888.247130,-10214.842000,459.657299
478.598532,962.267725,-11399.171507,689.485948
478.598856,-148.041188,-11399.171507,229.828649
478.599180,-1554.432478,-10584.944971,0.000000
478.599504,-1406.391290,-10066.800811,306.438199
478.599828,-592.164754,-10140.821405,459.657299
478.600152,518.144159,-10955.047942,612.876398
478.600476,148.041188,-10214.842000,0.000000
478.600800,-740.205942,-9400.615463,0.000000
478.601124,-444.123565,-8956.491898,-919.314598
478.601448,814.226536,-8956.491898,-153.219100
478.601772,740.205942,-9252.574275,459.657299
478.602096,-222.061783,-9178.553681,-536.266849
478.602420,-1554.432478,-8364.327145,-1072.533697
478.602744,-1036.288319,-7846.182985,-1072.533697
478.603068,444.123565,-8438.347739,-766.095498
478.603392,2072.576638,-9622.677246,0.000000
478.603716,2442.679609,-9770.718434,76.609550
478.604040,1850.514855,-9178.553681,-153.219100
478.604364,1258.350101,-7698.141797,-306.438199
478.604688,2072.576638,-9030.512492,0.000000
478.605012,2072.576638,-10510.924376,0.000000
478.605336,2146.597232,-11547.212695,229.828649
478.605660,814.226536,-10955.047942,0.000000
478.605984,-222.061783,-10066.800811,-536.266849
478.606308,74.020594,-10140.821405,-536.266849
478.606632,296.082377,-10510.924376,-306.438199
478.606956,518.144159,-10807.006753,-383.047749
478.607280,-444.123565,-10288.862594,-842.705048
478.607604,-962.267725,-9104.533087,-842.705048
478.607928,-296.082377,-8586.388927,-612.876398
478.608252,1036.288319,-9178.553681,-306.438199
478.608576,1110.308913,-9844.739029,306.438199
478.608900,-666.185348,-9474.636058,76.609550
478.609224,-2294.638420,-8734.430116,-459.657299
478.609548,-2146.597232,-8512.368333,-383.047749
478.609872,-592.164754,-8956.491898,153.219100
478.610196,1036.288319,-9474.636058,919.314598
478.610520,740.205942,-9474.636058,919.314598
478.610844,-296.082377,-9326.594869,153.219100
478.611168,-888.247130,-8364.327145,-459.657299
478.611492,-666.185348,-8438.347739,-153.219100
478.611816,-296.082377,-9622.677246,383.047749
478.612140,-592.164754,-10510.924376,-153.219100
478.612463,-1998.556043,-10510.924376,-689.485948
478.612787,-2442.679609,-10214.842000,-536.266849
478.613111,-1554.432478,-10584.944971,-229.828649
478.613435,-222.061783,-10510.924376,-383.047749
478.613759,0.000000,-11029.068536,306.438199
478.614083,-1332.370696,-10732.986159,-306.438199
478.614407,-2220.617826,-10140.821405,-459.657299
478.614731,-1110.308913,-9696.697840,-536.266849
478.615055,-296.082377,-10214.842000,0.000000
478.615379,-666.185348,-10881.027347,-306.438199
478.615703,-2368.659014,-10362.883188,-842.705048
478.616027,-2664.741391,-9918.759623,-919.314598
478.616351,-1924.535449,-9178.553681,-919.314598
478.616675,74.020594,-9918.759623,-306.438199
478.616999,592.164754,-10288.862594,0.000000
478.617323,444.123565,-10214.842000,-229.828649
478.617647,74.020594,-9326.594869,-689.485948
478.617971,888.247130,-9104.533087,-612.876398
478.618295,2294.638420,-9400.615463,-306.438199
478.618619,2960.823768,-10214.842000,229.828649
478.618943,1480.411884,-10288.862594,0.000000
478.619267,0.000000,-9918.759623,-383.047749
478.619591,0.000000,-9918.759623,-153.219100
478.619915,1110.308913,-10214.842000,0.000000
478.620239,1702.473667,-10362.883188,306.438199
478.620563,1036.288319,-9770.718434,0.000000
478.620887,148.041188,-9178.553681,153.219100
478.621211,0.000000,-8438.347739,-229.828649
478.621535,888.247130,-9178.553681,-306.438199
478.621859,1184.329507,-9030.512492,0.000000
478.622183,296.082377,-9178.553681,0.000000
478.622507,-1036.288319,-8734.430116,-229.828649
478.622831,-1332.370696,-8364.327145,0.000000
478.623155,0.000000,-8364.327145,0.000000
478.623478,1110.308913,-8734.430116,766.095498
478.623802,1924.535449,-9252.574275,766.095498
478.624126,1406.391290,-8882.471304,459.657299
478.624450,1110.308913,-8734.430116,689.485948
478.624774,1850.514855,-8956.491898,766.095498
478.625098,2664.741391,-9326.594869,995.924147
478.625422,1998.556043,-9918.759623,842.705048
478.625746,296.082377,-10066.800811,919.314598
478.626070,-740.205942,-9992.780217,153.219100
478.626394,-1480.411884,-10288.862594,0.000000
478.626718,-592.164754,-10658.965565,612.876398
478.627042,-148.041188,-10881.027347,536.266849
478.627366,-1036.288319,-10584.944971,153.219100
478.627690,-2146.597232,-9548.656652,-689.485948
478.628014,-1776.494261,-8956.491898,-306.438199
478.628338,-592.164754,-9622.677246,-153.219100
478.628662,-370.102971,-9548.656652,153.219100
478.628986,-666.185348,-9548.656652,459.657299
478.629310,-1850.514855,-9474.636058,229.828649
478.629634,-2072.576638,-9326.594869,0.000000
478.629958,-1554.432478,-9030.512492,0.000000
478.630282,-296.082377,-9178.553681,612.876398
478.630606,-222.061783,-9992.780217,766.095498
478.630930,-592.164754,-10214.842000,306.438199
478.631254,-1184.329507,-9252.574275,0.000000
478.631578,-148.041188,-9030.512492,-229.828649
478.631902,592.164754,-9622.677246,-536.266849
478.632226,444.123565,-10881.027347,-766.095498
478.632550,-1036.288319,-11029.068536,-1149.143247
478.632874,-1850.514855,-10807.006753,-1302.362347
478.633198,-1480.411884,-10881.027347,-1072.533697
478.633522,592.164754,-11251.130318,-459.657299
478.633846,1258.350101,-11473.192101,-306.438199
478.634169,888.247130,-11473.192101,-229.828649
478.634493,0.000000,-10436.903782,-612.876398
478.634817,444.123565,-9622.677246,-612.876398
478.635141,1184.329507,-10214.842000,0.000000
478.635465,1258.350101,-10732.986159,842.705048
478.635789,-148.041188,-10066.800811,383.047749
478.636113,-1332.370696,-8882.471304,-612.876398
478.636437,-2072.576638,-8068.244768,-1072.533697
478.636761,-888.247130,-8068.244768,-1072.533697
478.637085,518.144159,-8660.409521,-306.438199
478.637409,1036.288319,-8660.409521,0.000000
478.637733,1110.308913,-8068.244768,-612.876398
478.638057,1184.329507,-7698.141797,306.438199
478.638381,2368.659014,-7846.182985,153.219100
478.638705,3256.906145,-8882.471304,459.657299
478.639029,2516.700203,-9770.718434,612.876398
478.639353,1628.453072,-9844.739029,76.609550
478.639677,1110.308913,-10066.800811,306.438199
478.640001,1776.494261,-10288.862594,383.047749
478.640325,2072.576638,-10214.842000,1225.752797
478.640649,1480.411884,-10807.006753,383.047749
478.640973,-518.144159,-9918.759623,76.609550
478.641297,-1776.494261,-9696.697840,-383.047749
478.641621,-1184.329507,-9548.656652,-612.876398
478.641945,0.000000,-9548.656652,0.000000
478.642269,-666.185348,-9844.739029,0.000000
478.642593,-2368.659014,-9696.697840,-306.438199
478.642917,-3404.947333,-8290.306550,-842.705048
478.643241,-2960.823768,-8290.306550,-612.876398
478.643565,-962.267725,-9030.512492,0.000000
478.643889,296.082377,-9696.697840,383.047749
478.644213,370.102971,-9770.718434,612.876398
478.644537,0.000000,-9104.533087,306.438199
478.644860,0.000000,-8882.471304,612.876398
478.645184,1036.288319,-8956.491898,689.485948
478.645508,1332.370696,-10362.883188,612.876398
478.645832,888.247130,-10955.047942,0.000000
478.646156,-370.102971,-10807.006753,229.828649
478.646480,-740.205942,-11177.109724,-153.219100
478.646804,-518.144159,-11325.150913,76.609550
478.647128,148.041188,-11473.192101,0.000000
478.647452,0.000000,-11325.150913,76.609550
478.647776,-1332.370696,-10658.965565,-842.705048
478.648100,-1776.494261,-10140.821405,-689.485948
478.648424,-1110.308913,-9918.759623,-842.705048
478.648748,-888.247130,-10658.965565,-229.828649
478.649072,-1406.391290,-10584.944971,-612.876398
478.649396,-2590.720797,-9918.759623,-995.924147
478.649720,-2960.823768,-9030.512492,-995.924147
478.650044,-1628.453072,-8808.450710,-153.219100
478.650368,222.061783,-8586.388927,76.609550
478.650692,1184.329507,-9252.574275,306.438199
478.651016,296.082377,-8586.388927,-153.219100
478.651340,0.000000,-7550.100608,-383.047749
478.651664,444.123565,-7476.080014,-536.266849
478.651988,1628.453072,-8438.347739,0.000000
478.652312,1776.494261,-9992.780217,-229.828649
478.652636,222.061783,-9474.636058,-383.047749
478.652960,-888.247130,-9474.636058,-689.485948
478.653284,-1184.329507,-9548.656652,-1072.533697
478.653608,222.061783,-10436.903782,-919.314598
478.653932,1036.288319,-10955.047942,-689.485948
478.654256,518.144159,-10732.986159,0.000000
478.654580,444.123565,-10140.821405,-459.657299
478.654904,1036.288319,-9770.718434,0.000000
478.655228,2516.700203,-9918.759623,459.657299
478.655552,3256.906145,-10881.027347,995.924147
478.655875,1776.494261,-10658.965565,536.266849
478.656199,-222.061783,-10214.842000,0.000000
478.656523,-1036.288319,-9474.636058,0.000000
478.656847,0.000000,-9474.636058,0.000000
478.657171,1184.329507,-9770.718434,612.876398
478.657495,962.267725,-9770.718434,919.314598
478.657819,-666.185348,-8808.450710,306.438199
478.658143,-444.123565,-7550.100608,-459.657299
478.658467,814.226536,-7624.121203,-306.438199
478.658791,2072.576638,-8808.450710,766.095498
478.659115,1998.556043,-8956.491898,689.485948
478.659439,0.000000,-8882.471304,383.047749
478.659763,-1036.288319,-9178.553681,0.000000
478.660087,-666.185348,-9622.677246,0.000000
478.660411,962.267725,-10066.800811,1302.362347
478.660735,962.267725,-10658.965565,536.266849
478.661059,296.082377,-10584.944971,536.266849
478.661383,0.000000,-10362.883188,612.876398
478.661707,370.102971,-10510.924376,689.485948
478.662031,888.247130,-10658.965565,612.876398
478.662355,296.082377,-10955.047942,842.705048
478.662679,-1258.350101,-10955.047942,0.000000
478.663003,-2516.700203,-10510.924376,-383.047749
478.663327,-3404.947333,-9474.636058,-383.047749
478.663651,-2516.700203,-8956.491898,0.000000
478.663975,-1258.350101,-9992.780217,0.000000
478.664299,-1332.370696,-9992.780217,0.000000
478.664623,-1776.494261,-8882.471304,153.219100
478.664947,-1332.370696,-8142.265362,-383.047749
478.665271,-444.123565,-7624.121203,-766.095498
478.665595,444.123565,-8660.409521,153.219100
478.665919,0.000000,-8882.471304,383.047749
478.666243,-1480.411884,-9030.512492,-383.047749
478.666566,-1924.535449,-8956.491898,-612.876398
478.666890,-962.267725,-9326.594869,-229.828649
478.667214,518.144159,-9770.718434,0.000000
478.667538,1184.329507,-10732.986159,76.609550
478.667862,518.144159,-10584.944971,0.000000
478.668186,-74.020594,-10140.821405,-306.438199
478.668510,518.144159,-10066.800811,-1149.143247
478.668834,1554.432478,-10732.986159,-536.266849
478.669158,1554.432478,-11547.212695,-459.657299
478.669482,148.041188,-11325.150913,-766.095498
478.669806,-962.267725,-10510.924376,-1225.752797
478.670130,-1332.370696,-10362.883188,-766.095498
478.670454,74.020594,-10066.800811,-1072.533697
478.670778,518.144159,-10214.842000,-1149.143247
478.671102,0.000000,-9474.636058,-76.609550
478.671426,-592.164754,-9030.512492,-612.876398
478.671750,-370.102971,-8142.265362,-689.485948
478.672074,444.123565,-8438.347739,-536.266849
478.672398,1110.308913,-9104.533087,76.609550
478.672722,666.185348,-9474.636058,76.609550
478.673046,0.000000,-9252.574275,-153.219100
478.673370,0.000000,-8882.471304,76.609550
478.673694,444.123565,-9252.574275,153.219100
478.674018,1480.411884,-10140.821405,612.876398
478.674342,2220.617826,-10288.862594,612.876398
478.674666,1924.535449,-9696.697840,536.266849
478.674990,2220.617826,-9104.533087,383.047749
478.675314,3330.926739,-9548.656652,612.876398
478.675638,3701.029710,-10140.821405,842.705048
478.675962,2220.617826,-10436.903782,689.485948
478.676286,-296.082377,-10362.883188,306.438199
478.676610,-2220.617826,-9770.718434,306.438199
478.676934,-2146.597232,-9474.636058,229.828649
478.677257,-1036.288319,-9178.553681,306.438199
478.677581,-518.144159,-9400.615463,76.609550
478.677905,-1850.514855,-8660.409521,459.657299
478.678229,-2294.638420,-8512.368333,536.266849
478.678553,-2368.659014,-8068.244768,306.438199
478.678877,-1554.432478,-8068.244768,229.828649
478.679201,-962.267725,-8512.368333,383.047749
478.679525,-1554.432478,-9030.512492,229.828649
478.679849,-2294.638420,-9252.574275,-383.047749
478.680173,-2294.638420,-8808.450710,0.000000
478.680497,-444.123565,-9178.553681,0.000000
478.680821,1184.329507,-10066.800811,153.219100
478.681145,1110.308913,-11029.068536,536.266849
478.681469,370.102971,-10510.924376,0.000000
478.681793,0.000000,-9622.677246,-536.266849
478.682117,666.185348,-9844.739029,0.000000
478.682441,1258.350101,-11473.192101,0.000000
478.682765,148.041188,-11769.274478,0.000000
478.683089,-1702.473667,-10732.986159,-689.485948
478.683413,-3182.885551,-10140.821405,-995.924147
478.683737,-2590.720797,-10436.903782,-919.314598
478.684061,-1702.473667,-10732.986159,-383.047749
478.684385,-1554.432478,-10658.965565,-306.438199
478.684709,-1628.453072,-9696.697840,-383.047749
478.685033,-1924.535449,-8142.265362,-1302.362347
478.685357,-592.164754,-7698.141797,-1378.971896
478.685681,1110.308913,-8586.388927,-995.924147
478.686005,1332.370696,-9474.636058,-689.485948
478.686329,222.061783,-9474.636058,-842.705048
478.686653,-666.185348,-9030.512492,-1302.362347
478.686977,-370.102971,-9030.512492,-612.876398
478.687301,1332.370696,-9992.780217,-153.219100
478.687625,2220.617826,-10658.965565,383.047749
478.687949,2146.597232,-10881.027347,459.657299
478.688272,1924.535449,-10214.842000,153.219100
478.688596,2590.720797,-9918.759623,0.000000
478.688920,3849.070898,-10140.821405,612.876398
478.689244,3552.988522,-11029.068536,229.828649
478.689568,1554.432478,-11177.109724,229.828649
478.689892,-592.164754,-10584.944971,-919.314598
478.690216,-1184.329507,-9844.739029,-995.924147
478.690540,0.000000,-9474.636058,-842.705048
478.690864,888.247130,-10214.842000,0.000000
478.691188,592.164754,-10288.862594,0.000000
478.691512,-592.164754,-8956.491898,-153.219100
478.691836,-666.185348,-8364.327145,-229.828649
478.692160,-222.061783,-7772.162391,229.828649
478.692484,1110.308913,-8808.450710,995.924147
478.692808,740.205942,-9030.512492,995.924147
478.693132,-888.247130,-8364.327145,0.000000
478.693456,-2146.597232,-7994.224174,383.047749
478.693780,-1628.453072,-8882.471304,459.657299
478.694104,0.000000,-9178.553681,842.705048
478.694428,1036.288319,-9030.512492,766.095498
478.694752,814.226536,-8956.491898,153.219100
478.695076,444.123565,-9104.533087,229.828649
478.695400,1480.411884,-9474.636058,689.485948
478.695724,2368.659014,-9844.739029,459.657299
478.696048,1850.514855,-10362.883188,1455.581446
478.696372,-370.102971,-10584.944971,383.047749
478.696696,-1850.514855,-10436.903782,0.000000
478.697020,-2294.638420,-9844.739029,153.219100
478.697344,-1332.370696,-9992.780217,383.047749
478.697668,-962.267725,-10140.821405,0.000000
478.697992,-2220.617826,-9696.697840,0.000000
478.698316,-2886.803174,-8734.430116,-229.828649
478.698640,-2738.761985,-8290.306550,-689.485948
478.698963,-1480.411884,-8586.388927,-612.876398
478.699287,-444.123565,-9474.636058,229.828649
478.699611,-1036.288319,-10066.800811,-229.828649
478.699935,-2220.617826,-9918.759623,-689.485948
478.700259,-2738.761985,-8882.471304,-1608.800546
478.700583,-1850.514855,-8660.409521,-1532.190996
478.700907,296.082377,-10436.903782,-612.876398
478.701231,1332.370696,-11843.295072,0.000000
478.701555,1406.391290,-11473.192101,0.000000
478.701879,1776.494261,-10436.903782,-306.438199
478.702203,2368.659014,-10066.800811,-766.095498
478.702527,3404.947333,-11251.130318,0.000000
478.702851,2368.659014,-11917.315666,536.266849
478.703175,0.000000,-11251.130318,-1225.752797
478.703499,-1480.411884,-10288.862594,-1225.752797
478.703823,-1110.308913,-10066.800811,-1378.971896
478.704147,518.144159,-10436.903782,-842.705048
478.704472,1110.308913,-10584.944971,-383.047749
478.704796,296.082377,-9770.718434,-536.266849
478.705120,-296.082377,-9030.512492,-766.095498
478.705444,0.000000,-8438.347739,-766.095498
478.705768,1406.391290,-8808.450710,-229.828649
478.706092,1480.411884,-9252.574275,0.000000
478.706416,518.144159,-9326.594869,0.000000
478.706741,-592.164754,-8438.347739,-536.266849
478.707065,-740.205942,-8660.409521,-383.047749
478.707389,-222.061783,-8882.471304,536.266849
478.707713,1776.494261,-8882.471304,1072.533697
478.708037,1702.473667,-9030.512492,1072.533697
478.708361,1406.391290,-8660.409521,536.266849
478.708685,740.205942,-8290.306550,459.657299
478.709010,1480.411884,-8586.388927,612.876398
478.709334,2294.638420,-9326.594869,1072.533697
478.709658,1554.432478,-9696.697840,1455.581446
478.709982,-148.041188,-9104.533087,995.924147
478.710306,-1998.556043,-8290.306550,-153.219100
478.710630,-1702.473667,-8586.388927,0.000000
478.710955,-1110.308913,-9326.594869,306.438199
478.711279,-666.185348,-10214.842000,766.095498
478.711603,-1036.288319,-9770.718434,383.047749
478.711927,-962.267725,-9178.553681,229.828649
478.712251,-814.226536,-8660.409521,76.609550
478.712575,74.020594,-9104.533087,229.828649
478.712899,148.041188,-9696.697840,1072.533697
478.713224,-592.164754,-10510.924376,766.095498
478.713548,-1628.453072,-10140.821405,229.828649
478.713872,-2072.576638,-9622.677246,0.000000
478.714196,-1554.432478,-9918.759623,0.000000
478.714520,-814.226536,-11029.068536,-229.828649
478.714844,-518.144159,-11177.109724,0.000000
478.715168,-1332.370696,-10066.800811,-995.924147
478.715493,-888.247130,-9030.512492,-766.095498
478.715817,740.205942,-9770.718434,76.609550
478.716141,1628.453072,-10807.006753,229.828649
478.716465,1036.288319,-11177.109724,0.000000
478.716789,-1036.288319,-10362.883188,-919.314598
478.717113,-1998.556043,-9548.656652,-919.314598
478.717438,-1110.308913,-10362.883188,-689.485948
478.717762,740.205942,-10807.006753,459.657299
478.718086,666.185348,-11029.068536,-459.657299
478.718410,-444.123565,-10658.965565,-1378.971896
478.718734,-1036.288319,-9844.739029,-1685.410096
478.719058,-148.041188,-9474.636058,-1532.190996
478.719382,1332.370696,-9918.759623,-842.705048
478.719707,1110.308913,-10584.944971,0.000000
478.720031,-148.041188,-9548.656652,-766.095498
478.720355,-1036.288319,-8882.471304,-1838.629195
478.720679,-1036.288319,-9104.533087,-1225.752797
478.721003,592.164754,-9770.718434,-459.657299
478.721327,1480.411884,-10066.800811,0.000000
478.721651,1258.350101,-9474.636058,0.000000
478.721976,1110.308913,-7550.100608,0.000000
478.722300,1406.391290,-7994.224174,-536.266849
478.722624,2368.659014,-9104.533087,0.000000
478.722948,2294.638420,-9622.677246,0.000000
478.723272,296.082377,-9770.718434,0.000000
478.723596,-1110.308913,-9178.553681,0.000000
478.723921,-1110.308913,-9178.553681,-229.828649
478.724245,74.020594,-9252.574275,689.485948
478.724569,740.205942,-9474.636058,306.438199
478.724893,0.000000,-9548.656652,-459.657299
478.725217,-1036.288319,-8586.388927,-383.047749
478.725541,-666.185348,-8364.327145,-153.219100
478.725865,814.226536,-9030.512492,306.438199
478.726190,2146.597232,-9474.636058,842.705048
478.726514,1628.453072,-10066.800811,919.314598
478.726838,148.041188,-10140.821405,766.095498
478.727162,-1406.391290,-9326.594869,-153.219100
478.727486,-444.123565,-9548.656652,459.657299
478.727810,592.164754,-9474.636058,1072.533697
478.728135,592.164754,-10066.800811,1149.143247
478.728459,-370.102971,-9696.697840,612.876398
478.728783,-1036.288319,-9326.594869,306.438199
478.729107,-740.205942,-9252.574275,459.657299
478.729431,0.000000,-9400.615463,612.876398
478.729755,-814.226536,-9918.759623,919.314598
478.730079,-2220.617826,-10362.883188,153.219100
478.730404,-3330.926739,-9548.656652,-766.095498
478.730728,-2738.761985,-9622.677246,-689.485948
478.731052,-1110.308913,-10510.924376,0.000000
478.731376,370.102971,-11251.130318,766.095498
478.731700,370.102971,-11325.150913,153.219100
478.732024,-222.061783,-10732.986159,229.828649
478.732348,-518.144159,-9622.677246,-306.438199
478.732673,666.185348,-10214.842000,229.828649
478.732997,1702.473667,-11473.192101,1378.971896
478.733321,666.185348,-11621.233289,0.000000
478.733645,-740.205942,-10362.883188,-153.219100
478.733969,-1406.391290,-9474.636058,-689.485948
478.734293,-518.144159,-9696.697840,-459.657299
478.734618,518.144159,-10140.821405,-153.219100
478.734942,518.144159,-9474.636058,0.000000
478.735266,-222.061783,-8660.409521,-842.705048
478.735590,-592.164754,-7402.059420,-1225.752797
478.735914,814.226536,-8068.244768,-689.485948
478.736238,1628.453072,-9030.512492,-306.438199
478.736562,1036.288319,-9696.697840,-306.438199
478.736887,-814.226536,-9400.615463,-995.924147
478.737211,-2072.576638,-8660.409521,-1532.190996
478.737535,-1406.391290,-9030.512492,-1608.800546
478.737859,0.000000,-9548.656652,-842.705048
478.738183,888.247130,-10584.944971,153.219100
478.738507,148.041188,-10288.862594,-689.485948
478.738831,-296.082377,-9400.615463,-919.314598
478.739156,592.164754,-9252.574275,-1072.533697
478.739480,1850.514855,-10140.821405,-459.657299
478.739804,1776.494261,-10658.965565,0.000000
478.740128,962.267725,-10510.924376,383.047749
478.740452,-296.082377,-9918.759623,-153.219100
478.740776,-1110.308913,-9696.697840,-689.485948
478.741101,-148.041188,-9992.780217,0.000000
478.741425,814.226536,-10436.903782,229.828649
478.741749,592.164754,-9992.780217,536.266849
478.742073,370.102971,-9252.574275,229.828649
478.742397,740.205942,-8216.285956,306.438199
478.742721,1332.370696,-8068.244768,229.828649
478.743045,1702.473667,-9178.553681,689.485948
478.743370,222.061783,-9474.636058,612.876398
478.743694,-1628.453072,-8956.491898,153.219100
478.744018,-2442.679609,-8068.244768,-306.438199
478.744342,-1480.411884,-8438.347739,76.609550
478.744666,444.123565,-9474.636058,689.485948
478.744990,1184.329507,-10955.047942,919.314598
478.745314,592.164754,-9770.718434,689.485948
478.745639,-148.041188,-9474.636058,459.657299
478.745963,-296.082377,-9474.636058,536.266849
478.746287,222.061783,-10362.883188,689.485948
478.746611,0.000000,-11103.089130,842.705048
478.746935,-1110.308913,-10807.006753,766.095498
478.747259,-2442.679609,-10214.842000,0.000000
478.747584,-1998.556043,-10140.821405,-229.828649
478.747908,-1702.473667,-10066.800811,0.000000
478.748232,-296.082377,-10732.986159,689.485948
478.748556,-888.247130,-10362.883188,383.047749
478.748880,-1406.391290,-9474.636058,0.000000
478.749204,-1036.288319,-8882.471304,76.609550
478.749528,666.185348,-9178.553681,229.828649
478.749853,1258.350101,-9844.739029,995.924147
478.750177,-222.061783,-10066.800811,459.657299
478.750501,-1776.494261,-9252.574275,-306.438199
478.750825,-2072.576638,-8734.430116,-689.485948
478.751149,-222.061783,-9178.553681,-153.219100
478.751473,1480.411884,-10214.842000,459.657299
478.751797,1776.494261,-10510.924376,0.000000
478.752122,444.123565,-9770.718434,-383.047749
478.752446,0.000000,-8734.430116,-995.924147
478.752770,1110.308913,-8734.430116,-229.828649
478.753094,1998.556043,-9992.780217,76.609550
478.753418,1480.411884,-10955.047942,0.000000
478.753742,0.000000,-10436.903782,-459.657299
478.754067,-666.185348,-9252.574275,-306.438199
478.754391,0.000000,-9548.656652,-383.047749
478.754715,814.226536,-10066.800811,0.000000
478.755039,1184.329507,-10510.924376,229.828649
478.755363,0.000000,-9252.574275,-383.047749
478.755687,518.144159,-8956.491898,-612.876398
478.756011,1480.411884,-9030.512492,-306.438199
478.756336,2220.617826,-9548.656652,76.609550
478.756660,1702.473667,-10288.862594,536.266849
478.756984,-148.041188,-9992.780217,-459.657299
478.757308,-1702.473667,-9326.594869,-842.705048
478.757632,-1776.494261,-9252.574275,-1072.533697
478.757956,0.000000,-9474.636058,-459.657299
478.758280,1110.308913,-9992.780217,153.219100
478.758605,666.185348,-9770.718434,0.000000
478.758929,0.000000,-9474.636058,0.000000
478.759253,888.247130,-8956.491898,306.438199
478.759577,1924.535449,-8734.430116,383.047749
478.759901,2368.659014,-9918.759623,842.705048
478.760225,2072.576638,-10658.965565,919.314598
478.760550,-148.041188,-10288.862594,0.000000
478.760874,-1258.350101,-9918.759623,-383.047749
478.761198,-1554.432478,-9770.718434,-153.219100
478.761522,-666.185348,-10362.883188,-306.438199
478.761846,-1110.308913,-10066.800811,153.219100
478.762170,-1702.473667,-9104.533087,-306.438199
478.762494,-1850.514855,-8438.347739,-612.876398
478.762819,-962.267725,-8660.409521,-383.047749
478.763143,-296.082377,-9474.636058,76.609550
478.763467,-1184.329507,-9622.677246,0.000000
478.763791,-2442.679609,-9178.553681,-383.047749
478.764115,-3256.906145,-8734.430116,-306.438199
478.764439,-2442.679609,-8660.409521,-536.266849
478.764763,-666.185348,-8956.491898,383.047749
478.765088,0.000000,-9548.656652,0.000000
478.765412,-444.123565,-10214.842000,0.000000
478.765736,-888.247130,-9844.739029,-383.047749
478.766060,0.000000,-9548.656652,-306.438199
478.766384,666.185348,-9252.574275,0.000000
478.766708,1258.350101,-10807.006753,383.047749
478.767033,370.102971,-11547.212695,0.000000
478.767357,-518.144159,-11029.068536,-459.657299
478.767681,-518.144159,-10362.883188,-383.047749
478.768005,296.082377,-10140.821405,-306.438199
478.768329,1184.329507,-10510.924376,0.000000
478.768653,888.247130,-10658.965565,-766.095498
478.768977,592.164754,-9474.636058,-1225.752797
478.769302,592.164754,-9178.553681,-995.924147
478.769626,1406.391290,-9030.512492,-995.924147
478.769950,1998.556043,-9844.739029,-766.095498
478.770274,1184.329507,-10288.862594,-383.047749
478.770598,-370.102971,-9474.636058,-1072.533697
478.770922,-1332.370696,-8882.471304,-1455.581446
478.771247,-888.247130,-9178.553681,-995.924147
478.771571,370.102971,-10066.800811,153.219100
478.771895,1184.329507,-10140.821405,-306.438199
478.772219,-148.041188,-9400.615463,-995.924147
478.772543,-444.123565,-9178.553681,-995.924147
478.772867,444.123565,-9326.594869,-995.924147
478.773191,1702.473667,-9992.780217,-383.047749
478.773516,1702.473667,-10732.986159,-306.438199
478.773840,444.123565,-10881.027347,-766.095498
478.774164,-740.205942,-10288.862594,-766.095498
478.774488,-296.082377,-10658.965565,-536.266849
478.774812,1258.350101,-10807.006753,536.266849
478.775136,2072.576638,-10955.047942,919.314598
478.775460,1480.411884,-10510.924376,536.266849
478.775785,518.144159,-9252.574275,842.705048
478.776109,370.102971,-8438.347739,536.266849
478.776433,1110.308913,-8808.450710,919.314598
478.776757,1332.370696,-9030.512492,1378.971896
478.777081,74.020594,-8808.450710,766.095498
478.777405,-1480.411884,-8216.285956,536.266849
478.777730,-2220.617826,-7772.162391,459.657299
478.778054,-1406.391290,-7846.182985,919.314598
478.778378,-148.041188,-8808.450710,1302.362347
478.778702,0.000000,-8808.450710,689.485948
478.779026,-962.267725,-8512.368333,919.314598
478.779350,-1480.411884,-7920.203579,383.047749
478.779674,-740.205942,-8586.388927,612.876398
478.779999,-148.041188,-9252.574275,1149.143247
478.780323,-444.123565,-10584.944971,1302.362347
478.780647,-1184.329507,-10807.006753,919.314598
478.780971,-1332.370696,-10288.862594,1072.533697
478.781295,0.000000,-10436.903782,1072.533697
478.781619,962.267725,-10658.965565,1608.800546
478.781943,1332.370696,-11029.068536,1225.752797
478.782268,74.020594,-10807.006753,1072.533697
478.782592,-814.226536,-9992.780217,612.876398
478.782916,-518.144159,-9474.636058,0.000000
478.783240,74.020594,-9474.636058,0.000000
478.783564,0.000000,-10214.842000,76.609550
478.783888,-1776.494261,-10066.800811,-229.828649
478.784213,-2516.700203,-9178.553681,-536.266849
478.784537,-2738.761985,-8734.430116,-612.876398
478.784861,-1406.391290,-9252.574275,-459.657299
478.785185,-222.061783,-9844.739029,-306.438199
478.785509,-370.102971,-10140.821405,-306.438199
478.785833,-666.185348,-9252.574275,-383.047749
478.786157,-148.041188,-9178.553681,-1072.533697
478.786482,962.267725,-9178.553681,-919.314598
478.786806,1332.370696,-10214.842000,-689.485948
478.787130,962.267725,-11325.150913,-995.924147
478.787454,-296.082377,-10955.047942,-1685.410096
478.787778,-814.226536,-10584.944971,-1225.752797
478.788102,74.020594,-10881.027347,-1072.533697
478.788426,1776.494261,-11399.171507,-306.438199
478.788751,2516.700203,-11473.192101,-383.047749
478.789075,2294.638420,-10955.047942,-306.438199
478.789399,2664.741391,-9844.739029,-459.657299
478.789723,2960.823768,-9696.697840,-306.438199
478.790047,2812.782580,-9992.780217,76.609550
478.790371,1554.432478,-9844.739029,-306.438199
478.790696,-370.102971,-8882.471304,-1149.143247
478.791020,-1480.411884,-8216.285956,-1302.362347
478.791344,-962.267725,-7698.141797,-919.314598
478.791668,740.205942,-7994.224174,-689.485948
478.791992,1406.391290,-8438.347739,0.000000
478.792316,222.061783,-7920.203579,-229.828649
478.792640,-740.205942,-7402.059420,-536.266849
478.792965,-444.123565,-8068.244768,-1072.533697
478.793289,444.123565,-8364.327145,-459.657299
478.793613,740.205942,-8882.471304,383.047749
478.793937,74.020594,-9548.656652,383.047749
478.794261,-370.102971,-9844.739029,306.438199
478.794585,-1036.288319,-9992.780217,0.000000
478.794909,-148.041188,-10214.842000,153.219100
478.795234,518.144159,-10732.986159,766.095498
478.795558,1184.329507,-11399.171507,1072.533697
478.795882,518.144159,-10658.965565,536.266849
478.796206,-296.082377,-9992.780217,229.828649
478.796530,666.185348,-10140.821405,842.705048
478.796854,0.000000,-10288.862594,459.657299
478.797179,-1332.370696,-10436.903782,383.047749
478.797503,-3034.844362,-9622.677246,-459.657299
478.797827,-3701.029710,-8956.491898,-383.047749
478.798151,-2738.761985,-8586.388927,-229.828649
478.798475,-1110.308913,-8586.388927,76.609550
478.798799,-1406.391290,-9104.533087,0.000000
478.799123,-1628.453072,-9474.636058,-459.657299
478.799448,-1776.494261,-9178.553681,-536.266849
478.799772,-1110.308913,-8586.388927,-306.438199
478.800096,222.061783,-9178.553681,153.219100
478.800420,740.205942,-10510.924376,229.828649
478.800744,0.000000,-11251.130318,0.000000
478.801068,-370.102971,-11251.130318,-459.657299
478.801392,-148.041188,-11103.089130,0.000000
478.801717,888.247130,-11103.089130,229.828649
478.802041,1776.494261,-11621.233289,383.047749
478.802365,1110.308913,-11695.253884,0.000000
478.802689,74.020594,-10807.006753,-689.485948
478.803013,222.061783,-10140.821405,-689.485948
478.803337,1036.288319,-10362.883188,229.828649
478.803662,1036.288319,-10510.924376,-229.828649
478.803986,0.000000,-10066.800811,-383.047749
478.804310,-2368.659014,-9326.594869,-1072.533697
478.804634,-2738.761985,-8882.471304,-1302.362347
478.804958,-1628.453072,-9178.553681,-383.047749
478.805283,74.020594,-9474.636058,383.047749
478.805607,592.164754,-8956.491898,0.000000
478.805931,148.041188,-7846.182985,0.000000
478.806255,444.123565,-7550.100608,0.000000
478.806579,1628.453072,-8290.306550,0.000000
478.806904,2812.782580,-9104.533087,306.438199
478.807228,2960.823768,-9696.697840,536.266849
478.807552,2072.576638,-9770.718434,383.047749
478.807876,1184.329507,-9474.636058,459.657299
478.808200,1258.350101,-10214.842000,0.000000
478.808525,1850.514855,-10807.006753,536.266849
478.808849,1924.535449,-10807.006753,1149.143247
478.809173,1406.391290,-10510.924376,842.705048
478.809497,740.205942,-9474.636058,459.657299
478.809821,962.267725,-9104.533087,766.095498
478.810146,1332.370696,-8882.471304,842.705048
478.810470,962.267725,-9474.636058,1378.971896
478.810794,-1332.370696,-8956.491898,842.705048
478.811118,-3034.844362,-7846.182985,229.828649
478.811442,-3478.967927,-7624.121203,0.000000
478.811767,-2368.659014,-7698.141797,383.047749
478.812091,-1406.391290,-8364.327145,766.095498
478.812415,-1406.391290,-8586.388927,995.924147
478.812739,-1998.556043,-7698.141797,306.438199
478.813063,-1924.535449,-7402.059420,306.438199
478.813388,-222.061783,-7698.141797,842.705048
478.813712,0.000000,-9474.636058,1072.533697
478.814036,-444.123565,-9844.739029,536.266849
478.814360,-1480.411884,-9918.759623,0.000000
478.814684,-2072.576638,-10214.842000,-306.438199
478.815009,-1258.350101,-10807.006753,0.000000
478.815333,592.164754,-11473.192101,306.438199
478.815657,814.226536,-11769.274478,766.095498
478.815981,962.267725,-11917.315666,76.609550
478.816305,666.185348,-10881.027347,-459.657299
478.816630,1258.350101,-10807.006753,-536.266849
478.816954,2516.700203,-11177.109724,76.609550
478.817278,1850.514855,-11843.295072,459.657299
478.817602,0.000000,-11325.150913,-689.485948
478.817926,-2664.741391,-9474.636058,-1685.410096
478.818251,-3627.009116,-9326.594869,-1915.238745
478.818575,-2368.659014,-10066.800811,-1072.533697
478.818899,-740.205942,-11177.109724,-383.047749
478.819223,-740.205942,-10362.883188,-612.876398
478.819547,-1702.473667,-8734.430116,-1072.533697
478.819872,-1258.350101,-8438.347739,-1532.190996
478.820196,296.082377,-9326.594869,-1302.362347
478.820520,1184.329507,-10288.862594,-689.485948
478.820844,740.205942,-10362.883188,-306.438199
478.821169,444.123565,-10214.842000,-612.876398
478.821493,-148.041188,-9992.780217,-766.095498
478.821817,1184.329507,-10732.986159,-383.047749
478.822141,2590.720797,-11695.253884,0.000000
478.822465,2812.782580,-12065.356855,-306.438199
478.822790,1998.556043,-11103.089130,-459.657299
478.823114,1998.556043,-9844.739029,-689.485948
478.823438,2886.803174,-9844.739029,-153.219100
478.823762,2960.823768,-10214.842000,306.438199
478.824086,1480.411884,-10066.800811,0.000000
478.824411,-222.061783,-8808.450710,0.000000
478.824735,-2146.597232,-7402.059420,-612.876398
478.825059,-1258.350101,-7105.977043,-229.828649
478.825383,222.061783,-7550.100608,919.314598
478.825707,148.041188,-8142.265362,1302.362347
478.826032,-1258.350101,-7328.038826,153.219100
478.826356,-2368.659014,-5847.626942,-306.438199
478.826680,-2368.659014,-5773.606348,-842.705048
478.827004,-814.226536,-7105.977043,229.828649
478.827328,0.000000,-8660.409521,689.485948
478.827653,-370.102971,-8808.450710,612.876398
478.827977,-1110.308913,-8882.471304,383.047749
478.828301,-1184.329507,-9252.574275,229.828649
478.828625,-370.102971,-9992.780217,229.828649
478.828949,1036.288319,-10732.986159,919.314598
478.829274,1554.432478,-10955.047942,459.657299
478.829598,1332.370696,-10881.027347,842.705048
478.829922,1628.453072,-10436.903782,919.314598
478.830246,2294.638420,-10584.944971,919.314598
478.830570,2146.597232,-10955.047942,842.705048
478.830895,814.226536,-11547.212695,229.828649
478.831219,-2368.659014,-10214.842000,0.000000
478.831543,-3849.070898,-9770.718434,-612.876398
478.831867,-2886.803174,-9770.718434,-153.219100
478.832191,-1480.411884,-10288.862594,0.000000
478.832516,-1110.308913,-10510.924376,0.000000
478.832840,-1702.473667,-10066.800811,-383.047749
478.833164,-2072.576638,-9178.553681,-1072.533697
478.833488,-962.267725,-8734.430116,-842.705048
478.833812,740.205942,-9844.739029,0.000000
478.834137,1036.288319,-11029.068536,383.047749
478.834461,0.000000,-11103.089130,536.266849
478.834785,-1258.350101,-10584.944971,-612.876398
478.835109,-1036.288319,-10881.027347,-689.485948
478.835433,1110.308913,-11695.253884,-153.219100
478.835758,2368.659014,-11917.315666,383.047749
478.836082,1480.411884,-11325.150913,0.000000
478.836406,0.000000,-9992.780217,-536.266849
478.836730,222.061783,-9696.697840,-536.266849
478.837054,962.267725,-10510.924376,-383.047749
478.837379,1184.329507,-10807.006753,306.438199
478.837703,0.000000,-10066.800811,0.000000
478.838027,-1480.411884,-8660.409521,-612.876398
478.838351,-1998.556043,-7994.224174,-536.266849
478.838676,-370.102971,-7846.182985,-612.876398
478.839000,666.185348,-8660.409521,536.266849
478.839324,666.185348,-8438.347739,689.485948
478.839648,296.082377,-7550.100608,229.828649
478.839972,222.061783,-6809.894666,306.438199
478.840297,740.205942,-7328.038826,306.438199
478.840621,1258.350101,-8438.347739,459.657299
478.840945,740.205942,-9030.512492,0.000000
478.841269,-814.226536,-8290.306550,0.000000
478.841593,-888.247130,-8660.409521,-153.219100
478.841918,-740.205942,-8882.471304,229.828649
478.842242,888.247130,-9400.615463,766.095498
478.842566,1554.432478,-9918.759623,766.095498
478.842890,814.226536,-9474.636058,306.438199
478.843214,592.164754,-8808.450710,0.000000
478.843539,1406.391290,-9326.594869,689.485948
478.843863,2812.782580,-9696.697840,1072.533697
478.844187,2812.782580,-10658.965565,1302.362347
478.844511,1036.288319,-10732.986159,536.266849
478.844835,-888.247130,-9918.759623,-459.657299
478.845160,-1850.514855,-10066.800811,-842.705048
478.845484,-1036.288319,-10214.842000,-306.438199
478.845808,222.061783,-10732.986159,0.000000
478.846132,0.000000,-10510.924376,0.000000
478.846456,-1110.308913,-9474.636058,-459.657299
478.846781,-2072.576638,-8956.491898,-1149.143247
478.847105,-1184.329507,-9400.615463,-689.485948
478.847429,-592.164754,-10362.883188,0.000000
478.847753,-962.267725,-10732.986159,0.000000
478.848077,-1702.473667,-10214.842000,-459.657299
478.848402,-2146.597232,-9622.677246,-842.705048
478.848726,-1332.370696,-9770.718434,-459.657299
478.849050,296.082377,-11029.068536,76.609550
478.849374,592.164754,-11769.274478,459.657299
478.849698,-222.061783,-11103.089130,0.000000
478.850023,-518.144159,-10066.800811,-459.657299
478.850347,592.164754,-9992.780217,-229.828649
478.850671,2072.576638,-10955.047942,-153.219100
478.850995,1554.432478,-11399.171507,306.438199
478.851319,0.000000,-11103.089130,229.828649
478.851644,-2220.617826,-9844.739029,-842.705048
478.851968,-2072.576638,-9104.533087,-306.438199
478.852292,-666.185348,-9474.636058,76.609550
478.852616,0.000000,-9844.739029,229.828649
478.852940,-296.082377,-9400.615463,229.828649
478.853265,-1628.453072,-7105.977043,-612.876398
478.853589,-1036.288319,-6883.915261,-229.828649
478.853913,444.123565,-7476.080014,-306.438199
478.854237,814.226536,-8882.471304,612.876398
478.854562,-296.082377,-9030.512492,0.000000
478.854886,-1776.494261,-8290.306550,-842.705048
478.855210,-1480.411884,-8734.430116,-1072.533697
478.855534,-370.102971,-9030.512492,-536.266849
478.855858,962.267725,-9548.656652,383.047749
478.856183,1036.288319,-9696.697840,536.266849
478.856507,296.082377,-9252.574275,0.000000
478.856831,518.144159,-9178.553681,0.000000
478.857155,1628.453072,-9844.739029,153.219100
478.857479,2368.659014,-10066.800811,383.047749
478.857804,1702.473667,-10584.944971,76.609550
478.858128,148.041188,-9918.759623,0.000000
478.858452,-444.123565,-9400.615463,-1225.752797
478.858776,518.144159,-9844.739029,-153.219100
478.859100,1184.329507,-10288.862594,459.657299
478.859425,1480.411884,-10140.821405,0.000000
478.859749,444.123565,-9474.636058,0.000000
478.860073,-296.082377,-8364.327145,-459.657299
478.860397,-148.041188,-8364.327145,-306.438199
478.860721,296.082377,-8882.471304,0.000000
478.861046,814.226536,-10066.800811,536.266849
478.861370,222.061783,-10288.862594,459.657299
478.861694,-1406.391290,-9326.594869,-766.095498
478.862018,-2146.597232,-9400.615463,-766.095498
478.862342,-962.267725,-10066.800811,0.000000
478.862667,444.123565,-10732.986159,536.266849
478.862991,592.164754,-11103.089130,612.876398
478.863315,740.205942,-10362.883188,612.876398
478.863639,1110.308913,-9696.697840,306.438199
478.863963,1850.514855,-10140.821405,612.876398
478.864288,2442.679609,-11103.089130,842.705048
478.864612,1554.432478,-11325.150913,919.314598
478.864936,-592.164754,-10140.821405,459.657299
478.865260,-1628.453072,-9104.533087,229.828649
478.865584,-888.247130,-9178.553681,0.000000
478.865909,0.000000,-9622.677246,229.828649
478.866233,-74.020594,-9992.780217,0.000000
478.866557,-1258.350101,-9252.574275,-306.438199
478.866881,-2072.576638,-8068.244768,-383.047749
478.867205,-1554.432478,-7920.203579,-153.219100
478.867530,-518.144159,-8364.327145,-229.828649
478.867854,-1258.350101,-8956.491898,-306.438199
478.868178,-2146.597232,-9104.533087,-995.924147
478.868502,-2590.720797,-9030.512492,-1225.752797
478.868826,-2442.679609,-8956.491898,-919.314598
478.869151,-814.226536,-9992.780217,-153.219100
478.869475,148.041188,-10436.903782,153.219100
478.869799,222.061783,-9992.780217,-383.047749
478.870123,-444.123565,-9992.780217,-459.657299
478.870448,0.000000,-9844.739029,-612.876398
478.870772,1554.432478,-10510.924376,153.219100
478.871096,2516.700203,-11547.212695,229.828649
478.871420,1702.473667,-11325.150913,76.609550
478.871744,0.000000,-10288.862594,-842.705048
478.872069,-296.082377,-9844.739029,-1149.143247
478.872393,666.185348,-10214.842000,-459.657299
478.872717,1184.329507,-10436.903782,-689.485948
478.873041,740.205942,-10436.903782,-536.266849
478.873365,0.000000,-9178.553681,-1072.533697
478.873690,0.000000,-8216.285956,-766.095498
478.874014,1184.329507,-8660.409521,-612.876398
478.874338,1850.514855,-9548.656652,-229.828649
478.874662,1184.329507,-9992.780217,-229.828649
478.874986,-296.082377,-9326.594869,0.000000
478.875311,-740.205942,-9030.512492,0.000000
478.875635,-518.144159,-9770.718434,383.047749
478.875959,592.164754,-10436.903782,689.485948
478.876283,592.164754,-10510.924376,689.485948
478.876607,296.082377,-10362.883188,306.438199
478.876932,222.061783,-9770.718434,0.000000
478.877256,1184.329507,-9622.677246,842.705048
478.877580,1924.535449,-9622.677246,766.095498
478.877904,1850.514855,-10658.965565,995.924147
478.878228,74.020594,-10066.800811,536.266849
478.878553,-1036.288319,-9622.677246,0.000000
478.878877,-1110.308913,-8808.450710,0.000000
478.879201,0.000000,-9030.512492,612.876398
478.879525,592.164754,-9252.574275,1225.752797
478.879849,370.102971,-9400.615463,766.095498
478.880174,-148.041188,-8216.285956,689.485948
478.880498,-666.185348,-7550.100608,919.314598
478.880822,-222.061783,-7698.141797,689.485948
478.881146,0.000000,-8438.347739,766.095498
478.881470,-962.267725,-9030.512492,1302.362347
478.881795,-1998.556043,-8882.471304,0.000000
478.882119,-2738.761985,-8068.244768,0.000000
478.882443,-2368.659014,-8068.244768,-306.438199
478.882767,-1184.329507,-9770.718434,229.828649
478.883091,-1110.308913,-10732.986159,0.000000
478.883416,-1480.411884,-10214.842000,-459.657299
478.883740,-1184.329507,-9326.594869,-766.095498
478.884064,-296.082377,-9844.739029,-459.657299
478.884388,740.205942,-11251.130318,153.219100
478.884712,444.123565,-11473.192101,229.828649
478.885037,-518.144159,-11029.068536,306.438199
478.885361,-1480.411884,-9918.759623,-766.095498
478.885685,-1258.350101,-10214.842000,-536.266849
478.886009,518.144159,-10584.944971,76.609550
478.886333,1258.350101,-11103.089130,0.000000
478.886658,814.226536,-10436.903782,-536.266849
478.886982,-444.123565,-9770.718434,-612.876398
478.887306,-74.020594,-9178.553681,-612.876398
478.887630,444.123565,-9400.615463,0.000000
478.887955,-148.041188,-10214.842000,-1225.752797
478.888279,-1628.453072,-10362.883188,-1608.800546
478.888603,-2368.659014,-9770.718434,-1685.410096
478.888927,-1850.514855,-9622.677246,-1225.752797
478.889251,0.000000,-10066.800811,-919.314598
478.889576,1702.473667,-9474.636058,76.609550
478.889900,2072.576638,-9178.553681,-766.095498
478.890224,1924.535449,-9252.574275,-919.314598
478.890548,1850.514855,-9474.636058,-536.266849
478.890872,2294.638420,-10140.821405,459.657299
478.891197,2812.782580,-10807.006753,459.657299
478.891521,1998.556043,-11029.068536,76.609550
478.891845,148.041188,-9992.780217,-536.266849
478.892169,-1036.288319,-9474.636058,-306.438199
478.892493,-592.164754,-9992.780217,-383.047749
478.892818,888.247130,-10362.883188,383.047749
478.893142,814.226536,-10066.800811,842.705048
478.893466,0.000000,-8956.491898,229.828649
478.893790,-740.205942,-8068.244768,-153.219100
478.894114,-296.082377,-7698.141797,-383.047749
478.894439,888.247130,-7772.162391,229.828649
478.894763,1110.308913,-8216.285956,919.314598
478.895087,0.000000,-8808.450710,383.047749
478.895411,-962.267725,-8438.347739,306.438199
478.895735,-814.226536,-8438.347739,612.876398
478.896060,74.020594,-8808.450710,995.924147
478.896384,518.144159,-8808.450710,919.314598
478.896708,0.000000,-9400.615463,995.924147
478.897032,-814.226536,-8512.368333,842.705048
478.897356,-592.164754,-8142.265362,612.876398
478.897681,222.061783,-8956.491898,689.485948
478.898005,148.041188,-9696.697840,766.095498
478.898329,-962.267725,-10066.800811,0.000000
478.898653,-2294.638420,-9770.718434,-383.047749
478.898977,-2516.700203,-9548.656652,-612.876398
478.899302,-1480.411884,-9696.697840,-229.828649
478.899626,296.082377,-10807.006753,689.485948
478.899950,296.082377,-11325.150913,0.000000
478.900274,-370.102971,-10807.006753,-459.657299
478.900598,-666.185348,-9474.636058,-919.314598
478.900923,0.000000,-9696.697840,-612.876398
478.901247,592.164754,-10658.965565,-383.047749
478.901571,0.000000,-11325.150913,-306.438199
478.901895,-1702.473667,-10288.862594,-919.314598
478.902219,-2368.659014,-9918.759623,-1532.190996
478.902544,-2220.617826,-9844.739029,-1225.752797
478.902868,0.000000,-10288.862594,-689.485948
478.903192,666.185348,-10881.027347,-76.609550
478.903516,666.185348,-10214.842000,-689.485948
478.903841,296.082377,-8808.450710,-1149.143247
478.904165,1184.329507,-9178.553681,-536.266849
478.904489,2146.597232,-9992.780217,0.000000
478.904813,2146.597232,-10955.047942,0.000000
478.905137,1628.453072,-10732.986159,-383.047749
478.905461,370.102971,-10214.842000,-689.485948
478.905785,296.082377,-10436.903782,-306.438199
478.906110,1554.432478,-10807.006753,153.219100
478.906434,2072.576638,-10955.047942,383.047749
478.906758,1332.370696,-10732.986159,536.266849
478.907082,74.020594,-9400.615463,383.047749
478.907406,-518.144159,-8586.388927,0.000000
478.907730,666.185348,-8956.491898,76.609550
478.908054,1036.288319,-9030.512492,689.485948
478.908378,222.061783,-9252.574275,536.266849
478.908703,-1036.288319,-8586.388927,612.876398
478.909027,-1480.411884,-8586.388927,459.657299
478.909351,-962.267725,-8512.368333,842.705048
478.909675,888.247130,-8956.491898,1685.410096
478.909999,1258.350101,-9326.594869,1608.800546
478.910323,370.102971,-7994.224174,1072.533697
478.910647,444.123565,-7179.997637,306.438199
478.910971,1184.329507,-7550.100608,766.095498
478.911295,2220.617826,-8142.265362,919.314598
478.911620,1184.329507,-9326.594869,919.314598
478.911944,-592.164754,-8290.306550,459.657299
478.912268,-2220.617826,-7476.080014,0.000000
478.912592,-2442.679609,-8364.327145,0.000000
478.912916,-1110.308913,-9178.553681,383.047749
478.913240,0.000000,-10214.842000,995.924147
478.913564,0.000000,-10214.842000,459.657299
478.913888,0.000000,-9474.636058,689.485948
478.914213,0.000000,-9178.553681,536.266849
478.914537,148.041188,-9992.780217,383.047749
478.914861,-222.061783,-11103.089130,229.828649
478.915185,-1406.391290,-11769.274478,-229.828649
478.915509,-2442.679609,-11473.192101,-689.485948
478.915833,-2664.741391,-11325.150913,-919.314598
478.916157,-1702.473667,-11177.109724,-919.314598
478.916481,-296.082377,-11251.130318,-612.876398
478.916806,-740.205942,-11843.295072,-689.485948
478.917130,-1702.473667,-10732.986159,-1149.143247
478.917454,-1258.350101,-10066.800811,-995.924147
478.917778,0.000000,-9770.718434,-689.485948
478.918102,1332.370696,-10066.800811,0.000000
478.918426,666.185348,-10140.821405,-842.705048
478.918750,-518.144159,-9770.718434,-919.314598
478.919074,-1554.432478,-9104.533087,-995.924147
478.919399,-370.102971,-9548.656652,-995.924147
478.919723,1110.308913,-10214.842000,0.000000
478.920047,1924.535449,-10436.903782,76.609550
478.920371,1036.288319,-9992.780217,-459.657299
478.920695,296.082377,-9548.656652,-842.705048
478.921019,962.267725,-9992.780217,-842.705048
478.921343,1406.391290,-10362.883188,-612.876398
478.921667,1332.370696,-10584.944971,0.000000
478.921992,-592.164754,-9844.739029,-153.219100
478.922316,-1332.370696,-9770.718434,-766.095498
478.922640,-1480.411884,-9770.718434,-1072.533697
478.922964,-592.164754,-9622.677246,-383.047749
478.923288,0.000000,-9474.636058,0.000000
478.923612,592.164754,-9696.697840,0.000000
478.923936,0.000000,-8364.327145,0.000000
478.924260,148.041188,-7846.182985,-229.828649
478.924584,518.144159,-8512.368333,0.000000
478.924909,814.226536,-9178.553681,229.828649
478.925233,0.000000,-8956.491898,-153.219100
478.925557,-1480.411884,-7994.224174,-995.924147
478.925881,-1850.514855,-7550.100608,-766.095498
478.926205,-296.082377,-7994.224174,-153.219100
478.926529,1184.329507,-8808.450710,306.438199
478.926853,888.247130,-8956.491898,383.047749
478.927177,888.247130,-8290.306550,0.000000
478.927502,888.247130,-7994.224174,229.828649
478.927826,2146.597232,-8586.388927,383.047749
478.928150,3404.947333,-9252.574275,1149.143247
478.928474,2442.679609,-9992.780217,1455.581446
478.928798,222.061783,-10066.800811,306.438199
478.929122,-1258.350101,-10140.821405,-306.438199
478.929446,-1110.308913,-10584.944971,-153.219100
478.929770,0.000000,-11103.089130,229.828649
478.930095,-222.061783,-11251.130318,0.000000
478.930419,-1184.329507,-10658.965565,-306.438199
478.930743,-1110.308913,-10362.883188,-383.047749
478.931067,-1036.288319,-9770.718434,0.000000
478.931391,0.000000,-9770.718434,383.047749
478.931715,296.082377,-10584.944971,383.047749
478.932039,-888.247130,-10362.883188,-229.828649
478.932363,-2220.617826,-9918.759623,-383.047749
478.932688,-2368.659014,-9474.636058,-229.828649
478.933012,-962.267725,-9918.759623,0.000000
478.933336,592.164754,-10288.862594,459.657299
478.933660,740.205942,-10584.944971,306.438199
478.933984,518.144159,-10288.862594,-459.657299
478.934308,0.000000,-9474.636058,-306.438199
478.934632,444.123565,-9844.739029,-229.828649
478.934956,666.185348,-10658.965565,0.000000
478.935281,0.000000,-10955.047942,-459.657299
478.935605,-1406.391290,-10510.924376,-383.047749
478.935929,-1850.514855,-10140.821405,-842.705048
478.936253,-592.164754,-10362.883188,0.000000
478.936577,148.041188,-10510.924376,229.828649
478.936901,740.205942,-10510.924376,306.438199
478.937225,-518.144159,-9326.594869,-612.876398
478.937549,-1258.350101,-8438.347739,-536.266849
478.937874,-222.061783,-8586.388927,0.000000
478.938198,814.226536,-9622.677246,459.657299
478.938522,740.205942,-9770.718434,383.047749
478.938846,-370.102971,-8734.430116,-153.219100
478.939170,-1776.494261,-8068.244768,-689.485948
478.939494,-2072.576638,-8216.285956,-842.705048
478.939818,-296.082377,-9030.512492,-459.657299
478.940142,814.226536,-9844.739029,229.828649
478.940466,1184.329507,-9326.594869,383.047749
478.940791,814.226536,-8512.368333,0.000000
478.941115,962.267725,-8068.244768,-229.828649
478.941439,2442.679609,-8438.347739,-153.219100
478.941763,2886.803174,-9992.780217,459.657299
478.942087,2220.617826,-10288.862594,536.266849
478.942411,962.267725,-9252.574275,0.000000
478.942735,222.061783,-8734.430116,229.828649
478.943059,1110.308913,-9918.759623,306.438199
478.943384,2368.659014,-10807.006753,76.609550
478.943708,1406.391290,-10214.842000,76.609550
478.944032,0.000000,-9252.574275,0.000000
478.944356,-518.144159,-8438.347739,0.000000
478.944680,370.102971,-9030.512492,0.000000
478.945004,888.247130,-9992.780217,459.657299
478.945328,0.000000,-10066.800811,612.876398
478.945652,-1850.514855,-9548.656652,-306.438199
478.945977,-2812.782580,-8290.306550,-689.485948
478.946301,-3108.864956,-8438.347739,-536.266849
478.946625,-888.247130,-9548.656652,0.000000
478.946949,74.020594,-10288.862594,459.657299
478.947273,-296.082377,-10214.842000,229.828649
478.947597,-518.144159,-9622.677246,-153.219100
478.947921,0.000000,-9622.677246,-229.828649
478.948245,1036.288319,-10362.883188,612.876398
478.948570,1776.494261,-11177.109724,766.095498
478.948894,592.164754,-11251.130318,842.705048
478.949218,-1258.350101,-10288.862594,-229.828649
478.949542,-1628.453072,-10214.842000,0.000000
478.949866,-666.185348,-10732.986159,459.657299
478.950190,592.164754,-11325.150913,995.924147
478.950514,0.000000,-10955.047942,536.266849
478.950838,-1258.350101,-9474.636058,-536.266849
478.951163,-2072.576638,-8142.265362,-689.485948
478.951487,-592.164754,-9178.553681,0.000000
478.951811,0.000000,-10436.903782,153.219100
478.952135,-962.267725,-10140.821405,0.000000
478.952459,-2886.803174,-8512.368333,-766.095498
478.952783,-3330.926739,-7994.224174,-1378.971896
478.953107,-2294.638420,-8586.388927,-919.314598
478.953431,-518.144159,-9844.739029,-383.047749
478.953755,148.041188,-9622.677246,0.000000
478.954080,-296.082377,-8956.491898,0.000000
478.954404,-518.144159,-7772.162391,-842.705048
478.954728,296.082377,-7846.182985,0.000000
478.955052,1702.473667,-9030.512492,-229.828649
478.955376,2146.597232,-10510.924376,76.609550
478.955700,1110.308913,-10362.883188,-306.438199
478.956024,0.000000,-10066.800811,-842.705048
478.956348,0.000000,-9844.739029,-919.314598
478.956673,888.247130,-10510.924376,-536.266849
478.956997,2368.659014,-11029.068536,-153.219100
478.957321,1258.350101,-10807.006753,-459.657299
478.957645,0.000000,-9474.636058,-1455.581446
478.957969,0.000000,-8808.450710,-995.924147
478.958293,1332.370696,-9622.677246,-536.266849
478.958617,1850.514855,-10955.047942,-229.828649
478.958941,0.000000,-10140.821405,-536.266849
478.959266,-1628.453072,-8364.327145,-1532.190996
478.959590,-1258.350101,-8512.368333,-1685.410096
478.959914,-222.061783,-9178.553681,-1455.581446
478.960238,1110.308913,-10436.903782,229.828649
478.960562,1480.411884,-10288.862594,536.266849
478.960886,1184.329507,-9548.656652,306.438199
478.961210,962.267725,-9326.594869,612.876398
478.961534,1406.391290,-9104.533087,0.000000
478.961859,2442.679609,-9622.677246,-612.876398
478.962183,1850.514855,-10584.944971,229.828649
478.962507,1406.391290,-10732.986159,306.438199
478.962831,0.000000,-10288.862594,-306.438199
478.963155,-518.144159,-10066.800811,76.609550
478.963479,74.020594,-10362.883188,383.047749
478.963803,592.164754,-10510.924376,459.657299
478.964127,-666.185348,-9992.780217,0.000000
478.964452,-962.267725,-9474.636058,383.047749
478.964776,-666.185348,-9030.512492,76.609550
478.965100,0.000000,-9326.594869,689.485948
478.965424,-370.102971,-9474.636058,689.485948
478.965748,-2294.638420,-9474.636058,229.828649
478.966072,-3256.906145,-8808.450710,0.000000
478.966396,-3256.906145,-8586.388927,0.000000
478.966720,-1332.370696,-9474.636058,383.047749
478.967045,-444.123565,-9622.677246,689.485948
478.967369,-370.102971,-9474.636058,229.828649
478.967693,-888.247130,-8512.368333,-383.047749
478.968017,-962.267725,-8216.285956,-153.219100
478.968341,0.000000,-8808.450710,229.828649
478.968665,1258.350101,-10140.821405,919.314598
478.968989,1036.288319,-10288.862594,1149.143247
478.969313,296.082377,-9622.677246,306.438199
478.969637,-888.247130,-9696.697840,-306.438199
478.969962,-370.102971,-10214.842000,0.000000
478.970286,740.205942,-10881.027347,153.219100
478.970610,962.267725,-11399.171507,383.047749
478.970934,0.000000,-10436.903782,-306.438199
478.971258,0.000000,-9474.636058,-383.047749
478.971582,296.082377,-9252.574275,-689.485948
478.971906,1184.329507,-10510.924376,0.000000
478.972230,814.226536,-11695.253884,-229.828649
478.972555,-962.267725,-10436.903782,-995.924147
478.972879,-2072.576638,-9178.553681,-1225.752797
478.973203,-1776.494261,-9030.512492,-995.924147
478.973527,-148.041188,-9474.636058,-536.266849
478.973851,814.226536,-9992.780217,0.000000
478.974175,592.164754,-9770.718434,-153.219100
478.974499,370.102971,-8734.430116,0.000000
478.974823,814.226536,-8438.347739,-459.657299
478.975148,2220.617826,-8882.471304,229.828649
478.975472,2886.803174,-10140.821405,612.876398
478.975796,2072.576638,-10584.944971,536.266849
478.976120,1036.288319,-9992.780217,-459.657299
478.976444,666.185348,-9918.759623,-306.438199
478.976768,1480.411884,-9918.759623,-536.266849
478.977092,2516.700203,-10584.944971,383.047749
478.977416,2368.659014,-10584.944971,229.828649
478.977741,1036.288319,-9696.697840,-229.828649
478.978065,222.061783,-9178.553681,-76.609550
478.978389,592.164754,-9326.594869,229.828649
478.978713,444.123565,-9548.656652,306.438199
478.979037,-518.144159,-10214.842000,612.876398
478.979361,-2368.659014,-9252.574275,0.000000
478.979685,-3404.947333,-8142.265362,-229.828649
478.980009,-2738.761985,-8068.244768,229.828649
478.980334,-1110.308913,-8364.327145,689.485948
478.980658,222.061783,-8586.388927,766.095498
478.980982,-444.123565,-7698.141797,766.095498
478.981306,-962.267725,-7105.977043,0.000000
478.981630,-592.164754,-7550.100608,-306.438199
478.981954,518.144159,-8882.471304,536.266849
478.982278,1258.350101,-10288.862594,842.705048
478.982602,148.041188,-10066.800811,536.266849
478.982927,-1406.391290,-9548.656652,0.000000
478.983251,-1628.453072,-9770.718434,-766.095498
478.983575,-888.247130,-10140.821405,-153.219100
478.983899,740.205942,-10807.006753,0.000000
478.984223,148.041188,-10881.027347,-306.438199
478.984547,-1036.288319,-9474.636058,-842.705048
478.984871,-1332.370696,-9252.574275,-1149.143247
478.985195,-370.102971,-10140.821405,-689.485948
478.985519,-296.082377,-11325.150913,-612.876398
478.985844,-2220.617826,-11547.212695,-1225.752797
478.986168,-3997.112087,-10362.883188,-1532.190996
478.986492,-3552.988522,-9844.739029,-1838.629195
478.986816,-2368.659014,-10436.903782,-1302.362347
478.987140,-518.144159,-11695.253884,-459.657299
478.987464,0.000000,-11843.295072,-536.266849
478.987788,-518.144159,-10807.006753,-919.314598
478.988112,-740.205942,-9104.533087,-536.266849
478.988437,-148.041188,-8956.491898,-995.924147
478.988761,1480.411884,-10658.965565,-1225.752797
478.989085,2146.597232,-11769.274478,-612.876398
478.989409,1554.432478,-11177.109724,-995.924147
478.989733,666.185348,-9844.739029,-995.924147
478.990057,888.247130,-9918.759623,-766.095498
478.990381,1998.556043,-10584.944971,-229.828649
478.990705,2072.576638,-10510.924376,153.219100
478.991030,1776.494261,-9992.780217,-459.657299
478.991354,666.185348,-9326.594869,-306.438199
478.991678,1406.391290,-9326.594869,-229.828649
478.992002,2294.638420,-9400.615463,459.657299
478.992326,1480.411884,-9844.739029,229.828649
478.992650,-740.205942,-9326.594869,612.876398
478.992974,-2368.659014,-8290.306550,-612.876398
478.993298,-2368.659014,-8068.244768,-229.828649
478.993623,0.000000,-8438.347739,0.000000
478.993947,1406.391290,-9178.553681,766.095498
478.994271,962.267725,-8808.450710,689.485948
478.994595,0.000000,-7920.203579,153.219100
478.994919,-518.144159,-7624.121203,459.657299
478.995243,370.102971,-7772.162391,536.266849
478.995567,1184.329507,-8364.327145,689.485948
478.995891,1184.329507,-8882.471304,1302.362347
478.996216,0.000000,-8142.265362,766.095498
478.996540,-444.123565,-8290.306550,383.047749
478.996864,-444.123565,-9104.533087,689.485948
478.997188,592.164754,-9622.677246,919.314598
478.997512,814.226536,-9474.636058,842.705048
478.997836,148.041188,-8882.471304,459.657299
478.998160,-148.041188,-8808.450710,612.876398
478.998484,888.247130,-9326.594869,1072.533697
478.998808,1332.370696,-10362.883188,689.485948
478.999133,444.123565,-10732.986159,689.485948
478.999457,-1184.329507,-10584.944971,76.609550
478.999781,-2590.720797,-9992.780217,-229.828649
479.000105,-2664.741391,-9770.718434,-306.438199
479.000429,-1776.494261,-10584.944971,76.609550
479.000753,-740.205942,-11029.068536,536.266849
479.001077,-666.185348,-11029.068536,383.047749
479.001401,-1480.411884,-9844.739029,-306.438199
479.001726,-1258.350101,-9622.677246,-306.438199
479.002050,-370.102971,-9770.718434,-459.657299
479.002374,370.102971,-11029.068536,76.609550
479.002698,0.000000,-11399.171507,-229.828649
479.003022,-1184.329507,-10436.903782,-766.095498
479.003346,-1332.370696,-9992.780217,-919.314598
479.003670,-296.082377,-10214.842000,-306.438199
479.003994,1406.391290,-11473.192101,306.438199
479.004319,2146.597232,-11621.233289,153.219100
479.004643,1036.288319,-10584.944971,-153.219100
479.004967,518.144159,-9252.574275,-689.485948
479.005291,1110.308913,-9474.636058,-919.314598
479.005615,1776.494261,-10436.903782,306.438199
479.005939,888.247130,-10881.027347,612.876398
479.006264,-740.205942,-9918.759623,-689.485948
479.006588,-1998.556043,-8512.368333,-919.314598
479.006912,-1332.370696,-8290.306550,-536.266849
479.007236,0.000000,-9252.574275,-229.828649
479.007560,740.205942,-9104.533087,0.000000
479.007885,814.226536,-7994.224174,0.000000
479.008209,-148.041188,-7105.977043,-229.828649
479.008533,-148.041188,-7476.080014,-536.266849
479.008857,1480.411884,-8882.471304,0.000000
479.009182,962.267725,-9548.656652,306.438199
479.009506,0.000000,-9474.636058,-153.219100
479.009830,-740.205942,-9030.512492,-612.876398
479.010154,-444.123565,-8438.347739,-306.438199
479.010478,444.123565,-9252.574275,536.266849
479.010803,1924.535449,-10214.842000,766.095498
479.011127,1258.350101,-9622.677246,383.047749
479.011451,592.164754,-8956.491898,229.828649
479.011775,740.205942,-8734.430116,-459.657299
479.012099,1776.494261,-8808.450710,-153.219100
479.012424,2146.597232,-10066.800811,383.047749
479.012748,666.185348,-10732.986159,76.609550
479.013072,-1332.370696,-9992.780217,-459.657299
479.013396,-2368.659014,-8882.471304,-766.095498
479.013720,-2516.700203,-9474.636058,-842.705048
479.014045,-1184.329507,-10510.924376,-229.828649
479.014369,-444.123565,-10584.944971,153.219100
479.014693,-592.164754,-9992.780217,306.438199
479.015017,-962.267725,-9104.533087,0.000000
479.015341,-370.102971,-8734.430116,76.609550
479.015666,444.123565,-9400.615463,0.000000
479.015990,666.185348,-10510.924376,536.266849
479.016314,0.000000,-10955.047942,0.000000
479.016638,-888.247130,-10214.842000,-459.657299
479.016962,-1184.329507,-9992.780217,-383.047749
479.017287,-222.061783,-10510.924376,76.609550
479.017611,518.144159,-11251.130318,612.876398
479.017935,0.000000,-10881.027347,153.219100
479.018259,-962.267725,-9696.697840,-153.219100
479.018584,-740.205942,-9474.636058,0.000000
479.018908,592.164754,-10066.800811,153.219100
479.019232,592.164754,-10658.965565,229.828649
479.019556,-1110.308913,-10584.944971,-306.438199
479.019880,-3330.926739,-10140.821405,-766.095498
479.020205,-3552.988522,-9548.656652,-766.095498
479.020529,-1998.556043,-9400.615463,-306.438199
479.020853,0.000000,-9622.677246,383.047749
479.021177,0.000000,-10066.800811,0.000000
479.021501,-1258.350101,-9400.615463,-536.266849
479.021826,-1628.453072,-8068.244768,-1225.752797
479.022150,-222.061783,-8142.265362,-536.266849
479.022474,1036.288319,-9548.656652,153.219100
479.022798,1850.514855,-10807.006753,459.657299
479.023122,444.123565,-9474.636058,-153.219100
479.023447,-592.164754,-8438.347739,-459.657299
479.023771,-296.082377,-9474.636058,-536.266849
479.024095,888.247130,-10658.965565,76.609550
479.024419,1776.494261,-10658.965565,229.828649
479.024743,1332.370696,-9104.533087,153.219100
479.025068,740.205942,-8142.265362,-612.876398
479.025392,1480.411884,-8734.430116,-459.657299
479.025716,2738.761985,-9918.759623,-153.219100
479.026040,2146.597232,-10807.006753,153.219100
479.026364,814.226536,-9844.739029,-383.047749
479.026689,-814.226536,-8734.430116,-995.924147
479.027013,-962.267725,-8660.409521,-383.047749
479.027337,518.144159,-9400.615463,0.000000
479.027661,1628.453072,-10955.047942,0.000000
479.027985,962.267725,-9844.739029,459.657299
479.028310,0.000000,-8512.368333,153.219100
479.028634,370.102971,-8142.265362,-229.828649
479.028958,1702.473667,-8586.388927,-229.828649
479.029282,1702.473667,-9400.615463,76.609550
479.029607,666.185348,-10140.821405,536.266849
479.029931,-592.164754,-10510.924376,0.000000
479.030255,-1998.556043,-8882.471304,76.609550
479.030579,-1110.308913,-9622.677246,459.657299
479.030903,592.164754,-10658.965565,689.485948
479.031228,1258.350101,-10955.047942,1149.143247
479.031552,370.102971,-10066.800811,689.485948
479.031876,222.061783,-9548.656652,689.485948
479.032200,888.247130,-9918.759623,612.876398
479.032524,1110.308913,-10362.883188,919.314598
479.032849,296.082377,-10807.006753,1302.362347
479.033173,-1406.391290,-9918.759623,0.000000
479.033497,-2368.659014,-9770.718434,0.000000
479.033821,-2220.617826,-9178.553681,459.657299
479.034145,-962.267725,-9400.615463,612.876398
479.034470,0.000000,-9622.677246,842.705048
479.034794,-518.144159,-9326.594869,306.438199
479.035118,-1628.453072,-8216.285956,-459.657299
479.035442,-1702.473667,-7698.141797,0.000000
479.035766,-518.144159,-8216.285956,229.828649
479.036091,0.000000,-9844.739029,459.657299
479.036415,-814.226536,-9918.759623,459.657299
479.036739,-2146.597232,-8882.471304,-459.657299
479.037063,-2516.700203,-9178.553681,-536.266849
479.037387,-1184.329507,-10288.862594,-383.047749
479.037712,518.144159,-10658.965565,-153.219100
479.038036,296.082377,-10584.944971,306.438199
479.038360,222.061783,-9474.636058,-383.047749
479.038684,370.102971,-9326.594869,-383.047749
479.039009,1554.432478,-9844.739029,-1072.533697
479.039333,2220.617826,-11177.109724,-76.609550
479.039657,1332.370696,-11621.233289,-766.095498
479.039981,-370.102971,-10510.924376,-1149.143247
479.040305,-1258.350101,-9474.636058,-1455.581446
479.040630,-666.185348,-9548.656652,-1915.238745
479.040954,444.123565,-11103.089130,-1225.752797
479.041278,1110.308913,-11325.150913,-306.438199
479.041602,370.102971,-10584.944971,-766.095498
479.041926,0.000000,-9400.615463,-536.266849
479.042251,518.144159,-8808.450710,-536.266849
479.042575,1480.411884,-9178.553681,-153.219100
479.042899,1332.370696,-10288.862594,-229.828649
479.043223,74.020594,-10140.821405,-766.095498
479.043547,-370.102971,-9474.636058,-1072.533697
479.043872,-222.061783,-8882.471304,-766.095498
479.044196,592.164754,-9474.636058,0.000000
479.044520,1258.350101,-10066.800811,-153.219100
479.044844,1258.350101,-10066.800811,-229.828649
479.045168,888.247130,-9326.594869,0.000000
479.045493,1480.411884,-8956.491898,459.657299
479.045817,2072.576638,-8734.430116,919.314598
479.046141,2738.761985,-9770.718434,1225.752797
479.046465,1184.329507,-10362.883188,1378.971896
479.046789,-962.267725,-9474.636058,383.047749
479.047114,-2072.576638,-9030.512492,153.219100
479.047438,-1332.370696,-9474.636058,689.485948
479.047762,148.041188,-9474.636058,1685.410096
479.048086,-592.164754,-9400.615463,1378.971896
479.048411,-1110.308913,-8808.450710,1149.143247
479.048735,-1628.453072,-7846.182985,0.000000
479.049059,-962.267725,-7994.224174,229.828649
479.049383,74.020594,-8438.347739,689.485948
479.049707,-370.102971,-9104.533087,459.657299
479.050032,-1702.473667,-8734.430116,153.219100
479.050356,-2442.679609,-8216.285956,-612.876398
479.050680,-2368.659014,-9104.533087,0.000000
479.051004,-1554.432478,-9770.718434,919.314598
479.051328,-592.164754,-10584.944971,689.485948
479.051653,-962.267725,-10140.821405,459.657299
479.051977,-1184.329507,-8882.471304,306.438199
479.052301,-296.082377,-9178.553681,612.876398
479.052625,444.123565,-10658.965565,383.047749
479.052949,296.082377,-11769.274478,1149.143247
479.053274,-962.267725,-11695.253884,383.047749
479.053598,-2368.659014,-10436.903782,-689.485948
479.053922,-2516.700203,-9992.780217,-1378.971896
479.054246,-1036.288319,-10658.965565,-766.095498
479.054570,444.123565,-11547.212695,-612.876398
479.054895,666.185348,-12139.377449,-689.485948
479.055219,74.020594,-10807.006753,-1072.533697
479.055543,518.144159,-9696.697840,-689.485948
479.055867,1406.391290,-10066.800811,-1302.362347
479.056191,1702.473667,-11177.109724,-1072.533697
479.056516,592.164754,-11399.171507,-612.876398
479.056840,-740.205942,-10436.903782,-1149.143247
479.057164,-1184.329507,-9622.677246,-995.924147
479.057488,-148.041188,-9844.739029,-995.924147
479.057813,1184.329507,-9548.656652,-229.828649
479.058137,1332.370696,-9548.656652,-689.485948
479.058461,518.144159,-8882.471304,-766.095498
479.058785,740.205942,-8734.430116,-1072.533697
479.059109,2072.576638,-8808.450710,-689.485948
479.059434,2886.803174,-8956.491898,-153.219100
479.059758,2368.659014,-9326.594869,-383.047749
479.060082,814.226536,-9474.636058,-689.485948
479.060406,-666.185348,-9104.533087,-842.705048
479.060730,0.000000,-9770.718434,-919.314598
479.061055,1258.350101,-9992.780217,0.000000
479.061379,1702.473667,-10214.842000,306.438199
479.061703,1036.288319,-9844.739029,229.828649
479.062027,0.000000,-9252.574275,229.828649
479.062351,0.000000,-8586.388927,459.657299
479.062676,148.041188,-8808.450710,76.609550
479.063000,888.247130,-9178.553681,1149.143247
479.063324,0.000000,-8882.471304,612.876398
479.063648,-1406.391290,-8364.327145,153.219100
479.063972,-2072.576638,-8364.327145,153.219100
479.064297,-1332.370696,-9178.553681,153.219100
479.064621,-444.123565,-9474.636058,536.266849
479.064945,0.000000,-8882.471304,306.438199
479.065269,-518.144159,-8068.244768,0.000000
479.065593,-370.102971,-8290.306550,0.000000
479.065918,0.000000,-9326.594869,459.657299
479.066242,222.061783,-9992.780217,995.924147
479.066566,0.000000,-10362.883188,919.314598
479.066890,-1554.432478,-9770.718434,536.266849
479.067215,-2072.576638,-9104.533087,306.438199
479.067539,-1332.370696,-10066.800811,995.924147
479.067863,148.041188,-10584.944971,1608.800546
479.068187,666.185348,-11251.130318,919.314598
479.068511,-148.041188,-10807.006753,0.000000
479.068836,-1184.329507,-9992.780217,-536.266849
479.069160,-1036.288319,-9844.739029,-689.485948
479.069484,-222.061783,-10140.821405,153.219100
479.069808,-222.061783,-11399.171507,76.609550
479.070132,-1628.453072,-11251.130318,-536.266849
479.070457,-2590.720797,-10362.883188,-995.924147
479.070781,-2960.823768,-9844.739029,-919.314598
479.071105,-1332.370696,-10362.883188,0.000000
479.071429,222.061783,-11029.068536,153.219100
479.071753,370.102971,-10140.821405,0.000000
479.072078,-592.164754,-9252.574275,0.000000
479.072402,-222.061783,-8956.491898,0.000000
479.072726,962.267725,-9030.512492,-383.047749
479.073050,1776.494261,-10362.883188,0.000000
479.073374,1406.391290,-10288.862594,-153.219100
479.073699,74.020594,-9992.780217,-306.438199
479.074023,-592.164754,-9474.636058,-612.876398
479.074347,0.000000,-9252.574275,-612.876398
479.074671,888.247130,-10362.883188,-306.438199
479.074995,1184.329507,-10362.883188,-536.266849
479.075320,740.205942,-9400.615463,-766.095498
479.075644,592.164754,-7846.182985,-306.438199
479.075968,1628.453072,-8068.244768,0.000000
479.076292,2516.700203,-9474.636058,0.000000
479.076617,1776.494261,-9992.780217,0.000000
479.076941,-148.041188,-8882.471304,-306.438199
479.077265,-1702.473667,-7624.121203,-842.705048
479.077589,-1554.432478,-8142.265362,-766.095498
479.077913,-296.082377,-9252.574275,0.000000
479.078238,1036.288319,-9474.636058,383.047749
479.078562,888.247130,-9400.615463,0.000000
479.078886,518.144159,-8586.388927,0.000000
479.079210,814.226536,-8660.409521,0.000000
479.079534,1332.370696,-9770.718434,536.266849
479.079859,1332.370696,-10362.883188,536.266849
479.080183,0.000000,-10140.821405,0.000000
479.080507,-962.267725,-9474.636058,-306.438199
479.080831,-962.267725,-9104.533087,0.000000
479.081155,370.102971,-9474.636058,0.000000
479.081480,1258.350101,-9770.718434,229.828649
479.081804,1480.411884,-10066.800811,383.047749
479.082128,370.102971,-9474.636058,-229.828649
479.082452,-444.123565,-8586.388927,-229.828649
479.082776,-148.041188,-8660.409521,-306.438199
479.083101,592.164754,-9992.780217,153.219100
479.083425,148.041188,-11251.130318,153.219100
479.083749,-962.267725,-10658.965565,0.000000
479.084073,-2368.659014,-9770.718434,-459.657299
479.084397,-2368.659014,-10288.862594,-383.047749
479.084722,-1110.308913,-11029.068536,-229.828649
479.085046,-888.247130,-11177.109724,153.219100
479.085370,-1406.391290,-10436.903782,-306.438199
479.085694,-1110.308913,-9770.718434,-995.924147
479.086019,-518.144159,-9844.739029,-689.485948
479.086343,370.102971,-10214.842000,-306.438199
479.086667,444.123565,-11029.068536,-153.219100
479.086991,-1480.411884,-11029.068536,-612.876398
479.087315,-2812.782580,-10214.842000,-995.924147
479.087640,-2960.823768,-9696.697840,-995.924147
479.087964,-814.226536,-10288.862594,383.047749
479.088288,666.185348,-10881.027347,229.828649
479.088612,296.082377,-10436.903782,459.657299
479.088936,-148.041188,-9474.636058,0.000000
479.089261,-296.082377,-8586.388927,153.219100
479.089585,962.267725,-8956.491898,1532.190996
479.089909,1850.514855,-9696.697840,1149.143247
479.090233,962.267725,-9992.780217,766.095498
479.090557,-592.164754,-8808.450710,383.047749
479.090882,-1554.432478,-8734.430116,-459.657299
479.091206,-518.144159,-9326.594869,-536.266849
479.091530,444.123565,-9992.780217,459.657299
479.091854,814.226536,-9770.718434,306.438199
479.092178,888.247130,-8808.450710,459.657299
479.092503,814.226536,-8142.265362,306.438199
479.092827,1480.411884,-8216.285956,842.705048
479.093151,2146.597232,-9030.512492,1225.752797
479.093475,1332.370696,-9622.677246,1532.190996
479.093799,0.000000,-8734.430116,1302.362347
479.094124,-814.226536,-7476.080014,689.485948
479.094448,-740.205942,-7402.059420,0.000000
479.094772,740.205942,-8512.368333,919.314598
479.095096,1702.473667,-9696.697840,1225.752797
479.095421,1480.411884,-9548.656652,1072.533697
479.095745,370.102971,-8216.285956,229.828649
479.096069,740.205942,-7772.162391,0.000000
479.096393,1850.514855,-9030.512492,153.219100
479.096717,2294.638420,-10362.883188,229.828649
479.097042,1850.514855,-10436.903782,229.828649
479.097366,370.102971,-10066.800811,229.828649
479.097690,-518.144159,-9992.780217,153.219100
479.098014,296.082377,-11029.068536,536.266849
479.098338,814.226536,-11177.109724,229.828649
479.098663,0.000000,-10881.027347,76.609550
479.098987,-1110.308913,-10436.903782,-612.876398
479.099311,-814.226536,-10140.821405,-459.657299
479.099635,444.123565,-10140.821405,0.000000
479.099959,296.082377,-10066.800811,0.000000
479.100284,-592.164754,-10066.800811,-842.705048
479.100608,-2368.659014,-10066.800811,-1991.848295
479.100932,-3108.864956,-9622.677246,-1991.848295
479.101256,-1776.494261,-9844.739029,-1608.800546
479.101580,-148.041188,-10510.924376,-919.314598
479.101905,962.267725,-10955.047942,-1072.533697
479.102229,444.123565,-10881.027347,-919.314598
479.102553,-222.061783,-9622.677246,-842.705048
479.102877,0.000000,-9548.656652,-1225.752797
479.103201,222.061783,-10436.903782,-766.095498
479.103526,0.000000,-11325.150913,-536.266849
479.103850,-740.205942,-11473.192101,-689.485948
479.104174,-1554.432478,-10140.821405,-689.485948
479.104498,-1998.556043,-9992.780217,-229.828649
479.104823,-962.267725,-10214.842000,-612.876398
479.105147,-296.082377,-9844.739029,-536.266849
479.105471,-814.226536,-9622.677246,-842.705048
479.105795,-1332.370696,-9030.512492,-1225.752797
479.106119,-1110.308913,-8660.409521,-1532.190996
479.106443,-148.041188,-9030.512492,-1072.533697
479.106767,888.247130,-9474.636058,-459.657299
479.107091,0.000000,-9400.615463,-689.485948
479.107415,-962.267725,-8216.285956,-1225.752797
479.107740,-1406.391290,-8068.244768,-766.095498
479.108064,-296.082377,-9030.512492,0.000000
479.108388,1110.308913,-9770.718434,536.266849
479.108712,1776.494261,-9770.718434,919.314598
479.109036,1406.391290,-8882.471304,383.047749
479.109360,1258.350101,-8142.265362,-229.828649
479.109684,2072.576638,-9178.553681,459.657299
479.110008,2072.576638,-9992.780217,995.924147
479.110332,1258.350101,-10066.800811,919.314598
479.110656,148.041188,-9622.677246,0.000000
479.110980,-1258.350101,-9252.574275,0.000000
479.111305,-1258.350101,-9918.759623,0.000000
479.111629,0.000000,-10510.924376,153.219100
479.111953,296.082377,-10807.006753,229.828649
479.112277,0.000000,-9918.759623,689.485948
479.112601,222.061783,-8882.471304,459.657299
479.112925,592.164754,-8956.491898,689.485948
479.113249,1776.494261,-9918.759623,1608.800546
479.113573,1184.329507,-9992.780217,2068.457845
479.113897,0.000000,-9918.759623,1532.190996
479.114221,-1702.473667,-9104.533087,919.314598
479.114545,-2072.576638,-8586.388927,842.705048
479.114870,-814.226536,-8808.450710,1225.752797
479.115194,370.102971,-9696.697840,1302.362347
479.115518,370.102971,-9696.697840,2068.457845
479.115842,-444.123565,-8808.450710,995.924147
479.116166,-370.102971,-8216.285956,536.266849
479.116490,296.082377,-8734.430116,459.657299
479.116814,1258.350101,-10066.800811,612.876398
479.117138,592.164754,-10807.006753,919.314598
479.117462,-296.082377,-10436.903782,153.219100
479.117786,-1036.288319,-9696.697840,689.485948
479.118110,-518.144159,-10066.800811,153.219100
479.118435,740.205942,-10881.027347,842.705048
479.118759,888.247130,-11177.109724,842.705048
479.119083,74.020594,-10881.027347,766.095498
479.119407,-962.267725,-9548.656652,153.219100
479.119731,-444.123565,-9030.512492,153.219100
479.120055,0.000000,-9844.739029,689.485948
479.120379,148.041188,-11177.109724,0.000000
479.120703,-814.226536,-10584.944971,-536.266849
479.121027,-2516.700203,-9178.553681,-766.095498
479.121351,-2442.679609,-8660.409521,-766.095498
479.121675,-740.205942,-9918.759623,-536.266849
479.122000,666.185348,-10881.027347,-153.219100
479.122324,666.185348,-10214.842000,0.000000
479.122648,-148.041188,-9326.594869,-1072.533697
479.122972,518.144159,-8586.388927,-1072.533697
479.123296,1406.391290,-8882.471304,-153.219100
479.123620,2220.617826,-10436.903782,383.047749
479.123944,1480.411884,-10658.965565,-383.047749
479.124268,-518.144159,-9474.636058,-1302.362347
479.124592,-1406.391290,-9104.533087,-1225.752797
479.124916,-148.041188,-9770.718434,-459.657299
479.125240,444.123565,-10436.903782,-612.876398
479.125565,296.082377,-10658.965565,0.000000
479.125889,-592.164754,-9622.677246,-995.924147
479.126213,-666.185348,-9030.512492,-995.924147
479.126537,370.102971,-9548.656652,-842.705048
479.126861,1332.370696,-10362.883188,-383.047749
479.127185,296.082377,-10288.862594,-536.266849
479.127509,-1110.308913,-9400.615463,-1915.238745
479.127833,-1406.391290,-9104.533087,-1149.143247
479.128157,-666.185348,-9030.512492,-919.314598
479.128481,666.185348,-9770.718434,-612.876398
479.128805,888.247130,-10066.800811,-842.705048
479.129130,444.123565,-9474.636058,-919.314598
479.129454,444.123565,-8586.388927,-612.876398
479.129778,1110.308913,-8808.450710,-1072.533697
479.130102,1850.514855,-9326.594869,459.657299
479.130426,2442.679609,-10881.027347,229.828649
479.130750,1036.288319,-10732.986159,0.000000
479.131074,0.000000,-10214.842000,-689.485948
479.131398,-592.164754,-10066.800811,-689.485948
479.131722,0.000000,-10362.883188,-383.047749
479.132046,518.144159,-10955.047942,153.219100
479.132370,0.000000,-10584.944971,-229.828649
479.132694,370.102971,-9918.759623,0.000000
479.133019,0.000000,-9622.677246,-153.219100
479.133343,444.123565,-9770.718434,0.000000
479.133667,592.164754,-10362.883188,383.047749
479.133991,-444.123565,-10510.924376,0.000000
479.134315,-1924.535449,-10436.903782,153.219100
479.134639,-2664.741391,-9326.594869,0.000000
479.134963,-1776.494261,-8734.430116,76.609550
479.135287,0.000000,-9474.636058,612.876398
479.135611,-222.061783,-9474.636058,612.876398
479.135935,-666.185348,-8882.471304,229.828649
479.136259,-888.247130,-8290.306550,229.828649
479.136584,-370.102971,-8216.285956,459.657299
479.136908,370.102971,-8882.471304,919.314598
479.137232,518.144159,-9474.636058,842.705048
479.137556,-444.123565,-9400.615463,766.095498
479.137880,-1628.453072,-9178.553681,-229.828649
479.138204,-1332.370696,-9178.553681,76.609550
479.138528,-222.061783,-9844.739029,612.876398
479.138852,740.205942,-10362.883188,459.657299
479.139176,222.061783,-10140.821405,153.219100
479.139500,-518.144159,-9178.553681,-383.047749
479.139824,-740.205942,-8882.471304,0.000000
479.140149,-222.061783,-9992.780217,153.219100
479.140473,-222.061783,-11251.130318,153.219100
479.140797,-1332.370696,-10288.862594,0.000000
479.141121,-2590.720797,-9474.636058,-536.266849
479.141445,-2738.761985,-9770.718434,-459.657299
479.141769,-1554.432478,-10140.821405,0.000000
479.142093,-666.185348,-10436.903782,919.314598
479.142417,0.000000,-10288.862594,842.705048
479.142741,-296.082377,-9474.636058,612.876398
479.143065,444.123565,-9030.512492,0.000000
479.143389,1702.473667,-9030.512492,76.609550
479.143714,2368.659014,-9844.739029,459.657299
479.144038,2516.700203,-10436.903782,153.219100
479.144362,1628.453072,-9992.780217,153.219100
479.144686,1258.350101,-9918.759623,229.828649
479.145010,1702.473667,-9992.780217,-536.266849
479.145334,2368.659014,-10732.986159,459.657299
479.145658,2516.700203,-10955.047942,842.705048
479.145982,1998.556043,-10362.883188,766.095498
479.146306,1480.411884,-9474.636058,919.314598
479.146630,1406.391290,-9548.656652,689.485948
479.146954,1776.494261,-9770.718434,1455.581446
479.147279,518.144159,-10140.821405,842.705048
479.147603,-666.185348,-9104.533087,153.219100
479.147927,-2146.597232,-8216.285956,153.219100
479.148251,-2146.597232,-8734.430116,-229.828649
479.148575,-1480.411884,-8734.430116,-229.828649
479.148899,-1332.370696,-8734.430116,229.828649
479.149223,-1628.453072,-8364.327145,229.828649
479.149547,-1554.432478,-8142.265362,0.000000
479.149871,-1628.453072,-7698.141797,229.828649
479.150195,-740.205942,-7994.224174,306.438199
479.150519,444.123565,-9178.553681,689.485948
479.150844,666.185348,-9770.718434,536.266849
479.151168,0.000000,-9548.656652,153.219100
479.151492,-740.205942,-9696.697840,76.609550
479.151816,-148.041188,-10140.821405,306.438199
479.152140,592.164754,-10436.903782,383.047749
479.152464,888.247130,-11251.130318,459.657299
479.152788,-370.102971,-10362.883188,-306.438199
479.153112,-518.144159,-9622.677246,-919.314598
479.153436,370.102971,-9992.780217,-689.485948
479.153760,962.267725,-10214.842000,-153.219100
479.154084,0.000000,-11029.068536,-306.438199
479.154409,-2442.679609,-10288.862594,-1532.190996
479.154733,-4145.153275,-9474.636058,-1532.190996
479.155057,-3330.926739,-9474.636058,-1225.752797
479.155381,-1480.411884,-10362.883188,-995.924147
479.155705,-888.247130,-10510.924376,-919.314598
479.156029,-1258.350101,-10214.842000,-919.314598
479.156353,-1258.350101,-9548.656652,-1149.143247
479.156677,0.000000,-9474.636058,-919.314598
479.157001,962.267725,-10584.944971,-229.828649
479.157325,1628.453072,-11177.109724,0.000000
479.157649,1110.308913,-11029.068536,-383.047749
479.157974,1036.288319,-10732.986159,-919.314598
479.158298,592.164754,-11029.068536,-842.705048
479.158622,1554.432478,-11399.171507,-689.485948
479.158946,2146.597232,-11251.130318,-459.657299
479.159270,1406.391290,-10510.924376,-306.438199
479.159594,814.226536,-9252.574275,-459.657299
479.159918,962.267725,-8882.471304,-1455.581446
479.160242,1406.391290,-9548.656652,0.000000
479.160566,1184.329507,-9918.759623,0.000000
479.160890,-148.041188,-9030.512492,-536.266849
479.161214,-1850.514855,-7920.203579,-612.876398
479.161539,-2664.741391,-7476.080014,-536.266849
479.161863,-2072.576638,-7846.182985,-153.219100
479.162187,-518.144159,-8586.388927,76.609550
479.162511,-666.185348,-8882.471304,76.609550
479.162835,-740.205942,-7994.224174,0.000000
479.163159,-222.061783,-7772.162391,0.000000
479.163483,962.267725,-8290.306550,383.047749
479.163807,2072.576638,-9474.636058,995.924147
479.164131,1406.391290,-10214.842000,919.314598
479.164455,148.041188,-9696.697840,766.095498
479.164779,-370.102971,-9548.656652,229.828649
479.165104,0.000000,-10214.842000,306.438199
479.165428,1184.329507,-10732.986159,995.924147
479.165752,2072.576638,-10362.883188,1225.752797
479.166076,1850.514855,-9770.718434,689.485948
479.166400,814.226536,-9400.615463,0.000000
479.166724,222.061783,-9104.533087,612.876398
479.167048,296.082377,-9474.636058,459.657299
479.167372,444.123565,-9918.759623,383.047749
479.167696,-1480.411884,-9992.780217,-306.438199
479.168020,-3034.844362,-9474.636058,-306.438199
479.168344,-3404.947333,-9474.636058,-459.657299
479.168668,-2368.659014,-9548.656652,0.000000
479.168993,-1258.350101,-9918.759623,689.485948
479.169317,-1480.411884,-9918.759623,689.485948
479.169641,-1480.411884,-9252.574275,153.219100
479.169965,-1332.370696,-8512.368333,0.000000
479.170289,-296.082377,-8808.450710,0.000000
479.170613,1110.308913,-9770.718434,229.828649
479.170937,814.226536,-10807.006753,153.219100
479.171261,-148.041188,-10658.965565,-306.438199
479.171585,-518.144159,-10584.944971,-229.828649
479.171909,222.061783,-10658.965565,229.828649
479.172233,1258.350101,-10881.027347,76.609550
479.172558,1998.556043,-11399.171507,-383.047749
479.172882,888.247130,-10807.006753,-459.657299
479.173206,592.164754,-10214.842000,-229.828649
479.173530,1184.329507,-10140.821405,-153.219100
479.173854,1184.329507,-10214.842000,-153.219100
479.174178,888.247130,-10658.965565,-306.438199
479.174502,-888.247130,-10288.862594,-766.095498
479.174826,-1776.494261,-10066.800811,-919.314598
479.175150,-2072.576638,-9104.533087,-689.485948
479.175474,-962.267725,-9622.677246,-153.219100
479.175798,-222.061783,-9992.780217,-383.047749
479.176123,-148.041188,-9326.594869,-383.047749
479.176447,-296.082377,-8512.368333,-383.047749
479.176771,592.164754,-8586.388927,-459.657299
479.177095,1258.350101,-8808.450710,-383.047749
479.177419,1776.494261,-10066.800811,766.095498
479.177743,1628.453072,-10732.986159,689.485948
479.178067,888.247130,-10288.862594,766.095498
479.178391,222.061783,-9622.677246,306.438199
479.178715,518.144159,-9770.718434,919.314598
479.179039,1480.411884,-9844.739029,689.485948
479.179363,1332.370696,-9474.636058,1072.533697
479.179688,962.267725,-9326.594869,536.266849
479.180012,444.123565,-8438.347739,76.609550
479.180336,814.226536,-8142.265362,0.000000
479.180660,962.267725,-8438.347739,229.828649
479.180984,222.061783,-9030.512492,0.000000
479.181308,-1184.329507,-8808.450710,-536.266849
479.181632,-2072.576638,-8290.306550,-612.876398
479.181956,-1628.453072,-8882.471304,459.657299
479.182280,-888.247130,-9030.512492,1149.143247
479.182604,-222.061783,-9622.677246,919.314598
479.182928,-740.205942,-9474.636058,842.705048
479.183253,-962.267725,-9252.574275,383.047749
479.183577,-888.247130,-8882.471304,612.876398
479.183901,148.041188,-9400.615463,1072.533697
479.184225,444.123565,-10140.821405,1455.581446
479.184549,-740.205942,-10214.842000,229.828649
479.184873,-1776.494261,-10066.800811,-306.438199
479.185197,-2442.679609,-9400.615463,-842.705048
479.185521,-1554.432478,-10288.862594,-306.438199
479.185845,-444.123565,-10807.006753,-153.219100
479.186169,222.061783,-10584.944971,-306.438199
479.186493,74.020594,-9844.739029,-153.219100
479.186818,296.082377,-9770.718434,-76.609550
479.187142,814.226536,-10288.862594,0.000000
479.187466,962.267725,-10955.047942,229.828649
479.187790,0.000000,-11325.150913,0.000000
479.188114,-1776.494261,-10510.924376,-612.876398
479.188438,-2516.700203,-9770.718434,-689.485948
479.188762,-1850.514855,-9474.636058,-689.485948
479.189086,-370.102971,-10214.842000,-306.438199
479.189410,0.000000,-10510.924376,-229.828649
479.189734,-740.205942,-9622.677246,-459.657299
479.190058,-962.267725,-8882.471304,-1302.362347
479.190383,-444.123565,-8660.409521,-1149.143247
479.190707,666.185348,-9992.780217,-766.095498
479.191031,888.247130,-10658.965565,-612.876398
479.191355,444.123565,-10436.903782,-612.876398
479.191679,-1110.308913,-9622.677246,76.609550
479.192003,148.041188,-9992.780217,0.000000
479.192327,1184.329507,-10362.883188,0.000000
479.192651,1480.411884,-10732.986159,-229.828649
479.192975,1480.411884,-10140.821405,0.000000
479.193299,1332.370696,-9474.636058,-306.438199
479.193623,1924.535449,-8882.471304,0.000000
479.193948,2738.761985,-9326.594869,766.095498
479.194272,2368.659014,-9918.759623,612.876398
479.194596,740.205942,-9770.718434,229.828649
479.194920,-962.267725,-9178.553681,-612.876398
479.195244,-1480.411884,-8438.347739,-612.876398
479.195568,-222.061783,-8808.450710,-383.047749
479.195892,444.123565,-9474.636058,383.047749
479.196216,592.164754,-9030.512492,689.485948
479.196540,-222.061783,-7698.141797,229.828649
479.196864,-370.102971,-7254.018232,-306.438199
479.197188,0.000000,-7772.162391,536.266849
479.197513,1110.308913,-8734.430116,842.705048
479.197837,592.164754,-9104.533087,612.876398
479.198161,-1110.308913,-8808.450710,306.438199
479.198485,-2220.617826,-8956.491898,0.000000
479.198809,-1702.473667,-9474.636058,229.828649
479.199133,-666.185348,-9992.780217,536.266849
479.199457,296.082377,-10140.821405,229.828649
479.199781,-296.082377,-9918.759623,153.219100
479.200105,-518.144159,-9474.636058,-153.219100
479.200429,148.041188,-10066.800811,0.000000
479.200753,1036.288319,-10362.883188,306.438199
479.201078,444.123565,-10732.986159,383.047749
479.201402,-666.185348,-10362.883188,76.609550
479.201726,-1776.494261,-10214.842000,-612.876398
479.202050,-1628.453072,-10066.800811,-842.705048
479.202374,-592.164754,-10288.862594,0.000000
479.202698,148.041188,-10955.047942,0.000000
479.203022,0.000000,-10732.986159,-536.266849
479.203346,-666.185348,-9622.677246,-536.266849
479.203670,-1332.370696,-9326.594869,-766.095498
479.203994,-222.061783,-9622.677246,-842.705048
479.204318,0.000000,-10584.944971,-306.438199
479.204642,-518.144159,-10881.027347,-612.876398
479.204967,-1258.350101,-9992.780217,-995.924147
479.205291,-1406.391290,-9474.636058,-1225.752797
479.205615,-222.061783,-9770.718434,-1225.752797
479.205939,740.205942,-11029.068536,-689.485948
479.206263,1258.350101,-10807.006753,-306.438199
479.206587,962.267725,-10140.821405,-612.876398
479.206911,962.267725,-9696.697840,-842.705048
479.207236,1850.514855,-9696.697840,-306.438199
479.207560,2886.803174,-10584.944971,0.000000
479.207884,2368.659014,-10881.027347,-306.438199
479.208208,592.164754,-10288.862594,-153.219100
479.208532,-592.164754,-9548.656652,-919.314598
479.208857,-1036.288319,-9474.636058,-995.924147
479.209181,0.000000,-9474.636058,0.000000
479.209505,518.144159,-10140.821405,76.609550
479.209829,-444.123565,-9326.594869,-153.219100
479.210153,-1184.329507,-8364.327145,-689.485948
479.210478,-814.226536,-8142.265362,-612.876398
479.210802,222.061783,-8142.265362,306.438199
479.211126,592.164754,-9400.615463,0.000000
479.211450,-370.102971,-9104.533087,76.609550
479.211774,-1332.370696,-8956.491898,-153.219100
479.212099,-1406.391290,-8956.491898,-306.438199
479.212423,-666.185348,-9474.636058,459.657299
479.212747,814.226536,-9918.759623,766.095498
479.213071,1628.453072,-9770.718434,689.485948
479.213395,1776.494261,-9030.512492,766.095498
479.213720,1480.411884,-8438.347739,1072.533697
479.214044,1702.473667,-9104.533087,919.314598
479.214368,1406.391290,-9770.718434,1455.581446
479.214692,666.185348,-9622.677246,995.924147
479.215016,-222.061783,-9622.677246,995.924147
479.215341,-1480.411884,-8956.491898,536.266849
479.215665,-1554.432478,-8660.409521,536.266849
479.215989,-740.205942,-9178.553681,612.876398
479.216313,-370.102971,-9770.718434,459.657299
479.216637,-370.102971,-9622.677246,689.485948
479.216962,-814.226536,-8512.368333,306.438199
479.217286,-666.185348,-8364.327145,229.828649
479.217610,0.000000,-9326.594869,612.876398
479.217934,222.061783,-10584.944971,689.485948
479.218258,-370.102971,-10658.965565,536.266849
479.218583,-1332.370696,-10140.821405,229.828649
479.218907,-740.205942,-10658.965565,459.657299
479.219231,0.000000,-10732.986159,842.705048
479.219555,888.247130,-11473.192101,536.266849
479.219879,518.144159,-10955.047942,612.876398
479.220204,-592.164754,-10214.842000,-383.047749
479.220528,-592.164754,-9548.656652,-842.705048
479.220852,0.000000,-10140.821405,0.000000
479.221176,296.082377,-10807.006753,0.000000
479.221500,-740.205942,-10362.883188,0.000000
479.221825,-1776.494261,-9622.677246,-995.924147
479.222149,-2368.659014,-8882.471304,-995.924147
479.222473,-1332.370696,-9474.636058,-766.095498
479.222797,0.000000,-9918.759623,0.000000
479.223121,1036.288319,-10658.965565,383.047749
479.223446,666.185348,-9844.739029,-153.219100
479.223770,518.144159,-8586.388927,-919.314598
479.224094,518.144159,-8956.491898,-612.876398
479.224418,888.247130,-10140.821405,-229.828649
479.224742,666.185348,-10807.006753,229.828649
479.225066,-296.082377,-10140.821405,-536.266849
479.225391,-1110.308913,-9326.594869,-1149.143247
479.225715,-962.267725,-9104.533087,-1149.143247
479.226039,370.102971,-9548.656652,-1072.533697
479.226363,1184.329507,-9992.780217,-612.876398
479.226687,1036.288319,-8956.491898,-306.438199
479.227012,666.185348,-8364.327145,-1072.533697
479.227336,1406.391290,-8808.450710,-689.485948
479.227660,1998.556043,-9548.656652,-383.047749
479.227984,2368.659014,-10510.924376,76.609550
479.228308,962.267725,-10584.944971,0.000000
479.228633,-518.144159,-9844.739029,-842.705048
479.228957,0.000000,-9400.615463,0.000000
479.229281,814.226536,-9696.697840,76.609550
479.229605,1924.535449,-10214.842000,-229.828649
479.229929,1184.329507,-9918.759623,-383.047749
479.230254,74.020594,-9326.594869,-842.705048
479.230578,-148.041188,-8586.388927,-1072.533697
479.230902,740.205942,-8882.471304,-612.876398
479.231226,1258.350101,-9844.739029,306.438199
479.231550,888.247130,-9844.739029,306.438199
479.231875,-888.247130,-8956.491898,0.000000
479.232199,-1628.453072,-8438.347739,-689.485948
479.232523,-1628.453072,-9252.574275,-383.047749
479.232847,-740.205942,-10140.821405,459.657299
479.233171,-296.082377,-10436.903782,689.485948
479.233496,-740.205942,-9474.636058,612.876398
479.233820,-814.226536,-8068.244768,-153.219100
479.234144,-296.082377,-9030.512492,0.000000
479.234468,74.020594,-9622.677246,153.219100
479.234792,-444.123565,-10584.944971,153.219100
479.235117,-1702.473667,-10066.800811,-306.438199
479.235441,-2664.741391,-9474.636058,-459.657299
479.235765,-2368.659014,-9252.574275,-383.047749
479.236089,-518.144159,-9844.739029,-536.266849
479.236413,148.041188,-10436.903782,306.438199
479.236738,0.000000,-10807.006753,689.485948
479.237062,-888.247130,-10288.862594,-153.219100
479.237386,-592.164754,-9474.636058,0.000000
479.237710,74.020594,-9622.677246,0.000000
479.238034,148.041188,-10436.903782,0.000000
479.238359,-814.226536,-10066.800811,-612.876398
479.238683,-1850.514855,-9992.780217,-612.876398
479.239007,-1554.432478,-9474.636058,-383.047749
479.239331,-962.267725,-9622.677246,0.000000
479.239655,666.185348,-10140.821405,153.219100
479.239980,962.267725,-10584.944971,153.219100
479.240304,666.185348,-10288.862594,-459.657299
479.240628,518.144159,-9696.697840,0.000000
479.240952,1332.370696,-9844.739029,306.438199
479.241276,1998.556043,-10510.924376,612.876398
479.241601,1924.535449,-10955.047942,919.314598
479.241925,222.061783,-10362.883188,-306.438199
479.242249,-888.247130,-9326.594869,-995.924147
479.242573,-1110.308913,-8882.471304,-919.314598
479.242897,296.082377,-9400.615463,-383.047749
479.243222,814.226536,-9326.594869,0.000000
479.243546,740.205942,-9104.533087,0.000000
479.243870,962.267725,-7698.141797,0.000000
479.244194,2146.597232,-7846.182985,76.609550
479.244518,2442.679609,-8290.306550,0.000000
479.244843,1998.556043,-9696.697840,689.485948
479.245167,814.226536,-10066.800811,995.924147
479.245491,0.000000,-9770.718434,689.485948
479.245815,-296.082377,-9326.594869,306.438199
479.246139,0.000000,-9178.553681,536.266849
479.246464,370.102971,-9992.780217,842.705048
479.246788,444.123565,-10510.924376,229.828649
479.247112,0.000000,-9252.574275,229.828649
479.247436,148.041188,-8512.368333,229.828649
479.247760,518.144159,-9104.533087,383.047749
479.248084,518.144159,-10066.800811,689.485948
479.248409,-296.082377,-10510.924376,689.485948
479.248733,-1332.370696,-9474.636058,459.657299
479.249057,-2368.659014,-9178.553681,153.219100
479.249381,-2072.576638,-9474.636058,536.266849
479.249705,-370.102971,-9918.759623,1455.581446
479.250030,444.123565,-10584.944971,1685.410096
479.250354,74.020594,-9844.739029,1072.533697
479.250678,-518.144159,-8808.450710,919.314598
479.251002,-222.061783,-8216.285956,612.876398
479.251326,444.123565,-9030.512492,1225.752797
479.251651,444.123565,-10584.944971,1302.362347
479.251975,-296.082377,-10881.027347,766.095498
479.252299,-1184.329507,-9844.739029,0.000000
479.252623,-1850.514855,-9252.574275,0.000000
479.252947,-1184.329507,-9696.697840,76.609550
479.253272,-592.164754,-10436.903782,-612.876398
479.253596,-1184.329507,-10658.965565,-1072.533697
479.253920,-1628.453072,-9622.677246,-612.876398
479.254244,-1036.288319,-9474.636058,-536.266849
479.254568,0.000000,-9622.677246,-229.828649
479.254893,148.041188,-10288.862594,229.828649
479.255217,-1110.308913,-10362.883188,229.828649
479.255541,-2146.597232,-9548.656652,-919.314598
479.255865,-2516.700203,-9104.533087,-1532.190996
479.256189,-1554.432478,-9400.615463,-1072.533697
479.256514,666.185348,-10584.944971,-536.266849
479.256838,962.267725,-10732.986159,-689.485948
479.257162,222.061783,-9844.739029,-1149.143247
479.257486,0.000000,-9030.512492,-1455.581446
479.257810,888.247130,-9030.512492,-1532.190996
479.258135,2072.576638,-10214.842000,-1149.143247
479.258459,1850.514855,-11177.109724,-766.095498
479.258783,962.267725,-10066.800811,-1072.533697
479.259107,222.061783,-9918.759623,-1378.971896
479.259431,888.247130,-9696.697840,-1225.752797
479.259756,1850.514855,-9770.718434,-1072.533697
479.260080,1924.535449,-10214.842000,-1455.581446
479.260404,1110.308913,-9622.677246,-1149.143247
479.260728,592.164754,-8956.491898,-1532.190996
479.261052,1036.288319,-9252.574275,-1685.410096
479.261377,1480.411884,-9474.636058,-766.095498
479.261701,666.185348,-10436.903782,-1225.752797
479.262025,-592.164754,-10066.800811,-1302.362347
479.262349,-1332.370696,-9548.656652,-1685.410096
479.262673,-1036.288319,-9770.718434,-1378.971896
479.262998,518.144159,-9844.739029,-383.047749
479.263322,1184.329507,-10214.842000,0.000000
479.263646,1332.370696,-10214.842000,-76.609550
479.263970,1110.308913,-9474.636058,-306.438199
479.264294,1406.391290,-9178.553681,-383.047749
479.264619,2294.638420,-9178.553681,0.000000
479.264943,2368.659014,-9770.718434,1608.800546
479.265267,2072.576638,-10510.924376,919.314598
479.265591,148.041188,-9992.780217,153.219100
479.265915,-1110.308913,-9918.759623,-229.828649
479.266240,-2072.576638,-9844.739029,-229.828649
479.266564,-1406.391290,-9918.759623,536.266849
479.266888,-962.267725,-9992.780217,536.266849
479.267212,-1554.432478,-8956.491898,76.609550
479.267536,-1998.556043,-7624.121203,0.000000
479.267861,-962.267725,-8734.430116,536.266849
479.268185,-444.123565,-8660.409521,689.485948
479.268509,-444.123565,-10066.800811,1455.581446
479.268833,-1628.453072,-9474.636058,1149.143247
479.269157,-2590.720797,-8808.450710,612.876398
479.269482,-2590.720797,-8808.450710,536.266849
479.269806,-1480.411884,-8660.409521,1149.143247
479.270130,-148.041188,-9918.759623,995.924147
479.270454,-518.144159,-10214.842000,612.876398
479.270778,-666.185348,-9400.615463,229.828649
479.271102,-962.267725,-9030.512492,229.828649
479.271427,-370.102971,-9548.656652,612.876398
479.271751,0.000000,-10732.986159,612.876398
479.272075,-740.205942,-11399.171507,306.438199
479.272399,-1628.453072,-10140.821405,0.000000
479.272723,-1480.411884,-9474.636058,383.047749
479.273048,0.000000,-9844.739029,459.657299
479.273372,1110.308913,-10362.883188,229.828649
479.273696,1332.370696,-9992.780217,612.876398
479.274020,962.267725,-9548.656652,0.000000
479.274344,740.205942,-9030.512492,-612.876398
479.274669,962.267725,-9030.512492,-383.047749
479.274993,1850.514855,-9696.697840,-612.876398
479.275317,1184.329507,-10584.944971,-842.705048
479.275641,0.000000,-9696.697840,-1225.752797
479.275965,-962.267725,-9400.615463,-1225.752797
479.276290,-666.185348,-9844.739029,-1072.533697
479.276614,518.144159,-10732.986159,-536.266849
479.276938,1702.473667,-11621.233289,76.609550
479.277262,1480.411884,-10140.821405,76.609550
479.277586,1924.535449,-9548.656652,-229.828649
479.277911,2442.679609,-9622.677246,-459.657299
479.278235,2886.803174,-9844.739029,0.000000
479.278559,3330.926739,-10955.047942,612.876398
479.278883,2664.741391,-11473.192101,229.828649
479.279207,1628.453072,-10955.047942,-383.047749
479.279532,518.144159,-9548.656652,-459.657299
479.279856,1036.288319,-10214.842000,306.438199
479.280180,1110.308913,-10362.883188,-229.828649
479.280504,592.164754,-9992.780217,0.000000
479.280828,0.000000,-8882.471304,76.609550
479.281153,-444.123565,-8216.285956,0.000000
479.281477,-222.061783,-8068.244768,-153.219100
479.281801,-518.144159,-7994.224174,306.438199
479.282125,-1110.308913,-8734.430116,383.047749
479.282449,-2146.597232,-8068.244768,229.828649
479.282774,-3034.844362,-7476.080014,-612.876398
479.283098,-2294.638420,-7402.059420,0.000000
479.283422,-1110.308913,-8290.306550,306.438199
479.283746,-222.061783,-9696.697840,766.095498
479.284070,-444.123565,-9548.656652,842.705048
479.284395,-518.144159,-9030.512492,459.657299
479.284719,-222.061783,-8956.491898,153.219100
479.285043,-222.061783,-9400.615463,383.047749
479.285367,-592.164754,-10288.862594,0.000000
479.285691,-1702.473667,-10436.903782,0.000000
479.286016,-2368.659014,-10066.800811,-536.266849
479.286340,-1998.556043,-10140.821405,-459.657299
479.286664,-1036.288319,-10658.965565,229.828649
479.286988,-814.226536,-10214.842000,153.219100
479.287312,-1184.329507,-10214.842000,-153.219100
479.287637,-1184.329507,-9400.615463,-536.266849
479.287961,-1036.288319,-9474.636058,-689.485948
479.288285,0.000000,-10214.842000,-153.219100
479.288609,222.061783,-11251.130318,-153.219100
479.288933,-444.123565,-11029.068536,-919.314598
479.289258,-1850.514855,-10066.800811,-612.876398
479.289582,-2368.659014,-9474.636058,-1685.410096
479.289906,-1184.329507,-10584.944971,-995.924147
479.290230,740.205942,-11399.171507,-919.314598
479.290554,814.226536,-10658.965565,-612.876398
479.290879,444.123565,-9696.697840,-919.314598
479.291203,148.041188,-9030.512492,-1532.190996
479.291527,1036.288319,-9548.656652,-1302.362347
479.291851,2146.597232,-10436.903782,-383.047749
479.292175,2072.576638,-10881.027347,0.000000
479.292500,1110.308913,-10362.883188,-1302.362347
479.292824,74.020594,-10066.800811,-919.314598
479.293148,0.000000,-9992.780217,-1225.752797
479.293472,1332.370696,-10584.944971,-766.095498
479.293796,1998.556043,-10955.047942,-383.047749
479.294120,1628.453072,-10362.883188,0.000000
479.294445,1628.453072,-9326.594869,0.000000
479.294769,2220.617826,-9104.533087,306.438199
