#time,accel_x,accel_y,accel_z
505.985187,148.041188,-9622.677246,0.000000
505.985511,222.061783,-9622.677246,-229.828649
505.985836,222.061783,-9770.718434,-153.219100
505.986160,296.082377,-9548.656652,0.000000
505.986484,148.041188,-9474.636058,0.000000
505.986808,74.020594,-9770.718434,0.000000
505.987133,0.000000,-9474.636058,0.000000
505.987457,0.000000,-9622.677246,-153.219100
505.987781,0.000000,-9770.718434,0.000000
505.988106,0.000000,-9844.739029,0.000000
505.988430,444.123565,-9474.636058,76.609550
505.988754,0.000000,-9400.615463,229.828649
505.989078,444.123565,-9622.677246,0.000000
505.989403,0.000000,-9548.656652,0.000000
505.989727,0.000000,-9770.718434,-153.219100
505.990051,-222.061783,-9770.718434,0.000000
505.990376,-148.041188,-9770.718434,0.000000
505.990700,0.000000,-9770.718434,0.000000
505.991024,370.102971,-9622.677246,0.000000
505.991348,0.000000,-9696.697840,153.219100
505.991673,148.041188,-9474.636058,0.000000
505.991997,666.185348,-9696.697840,0.000000
505.992321,666.185348,-10066.800811,229.828649
505.992646,296.082377,-10140.821405,229.828649
505.992970,-222.061783,-10214.842000,153.219100
505.993294,-962.267725,-9548.656652,0.000000
505.993618,-1332.370696,-9326.594869,76.609550
505.993943,-592.164754,-9696.697840,766.095498
505.994267,0.000000,-9992.780217,536.266849
505.994591,962.267725,-9622.677246,995.924147
505.994916,1406.391290,-9326.594869,689.485948
505.995240,1184.329507,-9252.574275,536.266849
505.995564,814.226536,-9696.697840,76.609550
505.995888,296.082377,-9474.636058,0.000000
505.996213,-370.102971,-9918.759623,-383.047749
505.996537,-740.205942,-10214.842000,-306.438199
505.996861,-962.267725,-10066.800811,76.609550
505.997186,-444.123565,-10066.800811,459.657299
505.997510,444.123565,-9844.739029,0.000000
505.997834,1332.370696,-9474.636058,1225.752797
505.998158,2294.638420,-9696.697840,1455.581446
505.998483,2812.782580,-9770.718434,1455.581446
505.998807,2960.823768,-9918.759623,1915.238745
505.999131,2368.659014,-9252.574275,1378.971896
505.999456,1628.453072,-9326.594869,536.266849
505.999780,888.247130,-9400.615463,306.438199
506.000104,0.000000,-9992.780217,-306.438199
506.000429,-296.082377,-10066.800811,-229.828649
506.000753,-222.061783,-9474.636058,0.000000
506.001077,518.144159,-9548.656652,612.876398
506.001401,2220.617826,-9400.615463,1378.971896
506.001726,3552.988522,-9178.553681,1915.238745
506.002050,4737.318029,-9326.594869,2987.772442
506.002374,4811.338623,-9474.636058,2987.772442
506.002699,4441.235652,-10214.842000,2834.553343
506.003023,4071.132681,-10288.862594,2221.676944
506.003347,3404.947333,-10214.842000,1762.019645
506.003671,2368.659014,-10066.800811,1532.190996
506.003996,1480.411884,-10436.903782,919.314598
506.004320,1480.411884,-10362.883188,1378.971896
506.004644,1554.432478,-9770.718434,2221.676944
506.004969,2738.761985,-9696.697840,2757.943793
506.005293,4145.153275,-9548.656652,3140.991542
506.005617,4737.318029,-9400.615463,4060.306139
506.005941,4885.359217,-9548.656652,4596.572988
506.006266,4589.276840,-10140.821405,4673.182538
506.006590,3256.906145,-10066.800811,4519.963438
506.006914,1406.391290,-9622.677246,4136.915689
506.007239,74.020594,-9252.574275,3370.820191
506.007563,-1406.391290,-8882.471304,2451.505594
506.007887,-1850.514855,-8586.388927,2298.286494
506.008211,-1258.350101,-7846.182985,1838.629195
506.008536,-592.164754,-6883.915261,2451.505594
506.008860,518.144159,-6291.750507,2451.505594
506.009184,1924.535449,-6587.832884,3217.601092
506.009509,3034.844362,-6809.894666,3830.477490
506.009833,3849.070898,-7846.182985,4290.134789
506.010157,4071.132681,-9178.553681,4290.134789
506.010481,4293.194464,-10066.800811,4213.525239
506.010806,3330.926739,-11103.089130,4366.744339
506.011130,1628.453072,-12509.480420,3830.477490
506.011454,-740.205942,-12361.439231,2221.676944
506.011779,-2220.617826,-12657.521608,1991.848295
506.012103,-3404.947333,-10955.047942,1838.629195
506.012427,-2146.597232,-9696.697840,1302.362347
506.012751,444.123565,-8586.388927,1455.581446
506.013076,3256.906145,-7846.182985,1685.410096
506.013400,4737.318029,-7031.956449,2221.676944
506.013724,5773.606348,-7105.977043,1762.019645
506.014049,5625.565159,-7920.203579,1685.410096
506.014373,4367.215058,-9844.739029,2068.457845
506.014697,2442.679609,-11843.295072,2451.505594
506.015021,0.000000,-12509.480420,1991.848295
506.015346,-1480.411884,-12065.356855,1072.533697
506.015670,-2072.576638,-11547.212695,995.924147
506.015994,-1258.350101,-11177.109724,919.314598
506.016319,0.000000,-10658.965565,689.485948
506.016643,1406.391290,-9326.594869,919.314598
506.016967,2664.741391,-9030.512492,766.095498
506.017291,3256.906145,-8882.471304,536.266849
506.017616,3404.947333,-8660.409521,0.000000
506.017940,3478.967927,-8364.327145,-229.828649
506.018264,3997.112087,-8364.327145,-153.219100
506.018589,5403.503377,-9696.697840,0.000000
506.018913,7179.997637,-11177.109724,1455.581446
506.019237,7994.224174,-12287.418637,2068.457845
506.019562,5995.668130,-13101.645173,2298.286494
506.019886,3034.844362,-13027.624579,1455.581446
506.020210,-888.247130,-11621.233289,536.266849
506.020534,-3552.988522,-10510.924376,229.828649
506.020859,-3256.906145,-9474.636058,76.609550
506.021183,-1184.329507,-8364.327145,766.095498
506.021507,1110.308913,-7328.038826,1685.410096
506.021832,2664.741391,-6957.935855,1532.190996
506.022156,3034.844362,-6661.853478,766.095498
506.022480,3256.906145,-5847.626942,459.657299
506.022804,4071.132681,-6217.729913,689.485948
506.023129,4959.379811,-7402.059420,995.924147
506.023453,5551.544565,-9844.739029,2451.505594
506.023777,4663.297435,-11325.150913,2298.286494
506.024102,2516.700203,-11399.171507,1762.019645
506.024426,222.061783,-10362.883188,1762.019645
506.024750,-740.205942,-9844.739029,1455.581446
506.025074,-888.247130,-10510.924376,1762.019645
506.025399,-1258.350101,-10807.006753,2068.457845
506.025723,-1480.411884,-10732.986159,2298.286494
506.026047,-2294.638420,-9178.553681,2068.457845
506.026372,-592.164754,-8142.265362,1762.019645
506.026696,2072.576638,-7254.018232,1838.629195
506.027020,4219.173869,-7402.059420,1455.581446
506.027344,4737.318029,-8956.491898,1532.190996
506.027669,2886.803174,-9696.697840,1072.533697
506.027993,888.247130,-9918.759623,1225.752797
506.028317,-296.082377,-10288.862594,1608.800546
506.028642,1332.370696,-11251.130318,2298.286494
506.028966,2590.720797,-11695.253884,1685.410096
506.029290,2220.617826,-10732.986159,2068.457845
506.029614,592.164754,-9844.739029,1532.190996
506.029939,-370.102971,-9770.718434,1838.629195
506.030263,0.000000,-10436.903782,2451.505594
506.030587,-296.082377,-10288.862594,2681.334243
506.030912,-1406.391290,-9474.636058,2068.457845
506.031236,-1554.432478,-8586.388927,1762.019645
506.031560,962.267725,-8956.491898,1532.190996
506.031884,4293.194464,-9622.677246,2145.067394
506.032209,6291.750507,-10362.883188,1532.190996
506.032533,4515.256246,-9474.636058,1378.971896
506.032857,2590.720797,-9178.553681,536.266849
506.033182,1850.514855,-9474.636058,383.047749
506.033506,1998.556043,-10955.047942,1685.410096
506.033830,1258.350101,-11473.192101,1378.971896
506.034154,-148.041188,-10584.944971,1991.848295
506.034479,-592.164754,-9474.636058,1991.848295
506.034803,-222.061783,-9474.636058,2374.896044
506.035127,814.226536,-10362.883188,2681.334243
506.035452,1036.288319,-10214.842000,2681.334243
506.035776,592.164754,-8734.430116,2451.505594
506.036100,888.247130,-7550.100608,1838.629195
506.036424,1776.494261,-7920.203579,76.609550
506.036749,888.247130,-8956.491898,-306.438199
506.037073,0.000000,-8956.491898,-995.924147
506.037397,-222.061783,-8290.306550,-1608.800546
506.037722,-518.144159,-8216.285956,-995.924147
506.038046,0.000000,-9622.677246,229.828649
506.038370,74.020594,-9844.739029,612.876398
506.038695,222.061783,-8808.450710,229.828649
506.039019,370.102971,-8068.244768,1225.752797
506.039343,1850.514855,-10362.883188,1532.190996
506.039667,2368.659014,-11325.150913,2221.676944
506.039992,814.226536,-10584.944971,2757.943793
506.040316,-814.226536,-9030.512492,1608.800546
506.040640,-2368.659014,-8216.285956,153.219100
506.040965,-3330.926739,-9178.553681,-689.485948
506.041289,-3256.906145,-9326.594869,-1685.410096
506.041613,-2960.823768,-7476.080014,-2757.943793
506.041937,-1850.514855,-6809.894666,-3447.429741
506.042262,-1554.432478,-9178.553681,-1532.190996
506.042586,-962.267725,-11103.089130,-995.924147
506.042910,0.000000,-10658.965565,-229.828649
506.043235,1036.288319,-9326.594869,76.609550
506.043559,1702.473667,-9252.574275,0.000000
506.043883,1924.535449,-11029.068536,0.000000
506.044207,1924.535449,-11399.171507,1378.971896
506.044532,2664.741391,-11177.109724,1915.238745
506.044856,2072.576638,-10288.862594,612.876398
506.045180,-370.102971,-10362.883188,-1915.238745
506.045504,-4145.153275,-11029.068536,-2681.334243
506.045828,-5033.400406,-11547.212695,-3907.087040
506.046152,-3627.009116,-11029.068536,-4443.353888
506.046476,-2590.720797,-10955.047942,-3447.429741
506.046800,-1258.350101,-11547.212695,-1762.019645
506.047124,666.185348,-12287.418637,-842.705048
506.047448,2368.659014,-11621.233289,-536.266849
506.047772,2960.823768,-10732.986159,-919.314598
506.048096,2072.576638,-11029.068536,-383.047749
506.048421,888.247130,-11325.150913,-612.876398
506.048745,1554.432478,-10807.006753,76.609550
506.049069,1702.473667,-8142.265362,842.705048
506.049393,370.102971,-8808.450710,-383.047749
506.049717,-740.205942,-9696.697840,-612.876398
506.050041,74.020594,-7179.997637,-1302.362347
506.050365,1628.453072,-5181.441594,-1915.238745
506.050689,592.164754,-7105.977043,-1915.238745
506.051013,-2072.576638,-9326.594869,-1302.362347
506.051337,-2516.700203,-9474.636058,-229.828649
506.051661,-1332.370696,-7624.121203,536.266849
506.051985,-740.205942,-8364.327145,76.609550
506.052309,-962.267725,-9918.759623,0.000000
506.052633,296.082377,-10214.842000,229.828649
506.052957,1480.411884,-9030.512492,842.705048
506.053281,296.082377,-9104.533087,0.000000
506.053605,-2664.741391,-9918.759623,-229.828649
506.053929,-4071.132681,-10214.842000,-229.828649
506.054253,-1924.535449,-8734.430116,0.000000
506.054577,1332.370696,-7920.203579,306.438199
506.054901,2146.597232,-9326.594869,153.219100
506.055226,2220.617826,-10584.944971,612.876398
506.055550,3701.029710,-9252.574275,2145.067394
506.055874,4737.318029,-8068.244768,1991.848295
506.056198,2368.659014,-9770.718434,1685.410096
506.056522,-1184.329507,-12213.398043,842.705048
506.056846,-2368.659014,-11325.150913,0.000000
506.057170,-1850.514855,-8734.430116,153.219100
506.057494,-2220.617826,-8512.368333,0.000000
506.057818,-3034.844362,-10732.986159,0.000000
506.058142,-3108.864956,-10955.047942,536.266849
506.058466,-222.061783,-8956.491898,536.266849
506.058790,222.061783,-7846.182985,306.438199
506.059114,-1184.329507,-9622.677246,-919.314598
506.059438,-2072.576638,-11325.150913,-383.047749
506.059762,0.000000,-10066.800811,76.609550
506.060086,2516.700203,-9030.512492,995.924147
506.060410,2368.659014,-10510.924376,1532.190996
506.060734,1554.432478,-12213.398043,919.314598
506.061058,2146.597232,-10955.047942,766.095498
506.061382,2812.782580,-8364.327145,919.314598
506.061707,1258.350101,-9992.780217,919.314598
506.062031,-2072.576638,-12657.521608,536.266849
506.062355,-3034.844362,-12361.439231,383.047749
506.062679,-1406.391290,-9548.656652,1302.362347
506.063003,-222.061783,-8216.285956,919.314598
506.063327,-592.164754,-9992.780217,842.705048
506.063651,-444.123565,-10732.986159,995.924147
506.063975,814.226536,-9252.574275,1149.143247
506.064299,1184.329507,-7994.224174,689.485948
506.064623,-740.205942,-9622.677246,76.609550
506.064947,-1998.556043,-10658.965565,306.438199
506.065271,222.061783,-8956.491898,1072.533697
506.065595,2590.720797,-6439.791695,1685.410096
506.065919,2664.741391,-7179.997637,1072.533697
506.066243,1036.288319,-9252.574275,1302.362347
506.066567,1702.473667,-8586.388927,1608.800546
506.066891,3404.947333,-6217.729913,2068.457845
506.067215,2886.803174,-6809.894666,1762.019645
506.067539,-740.205942,-9030.512492,1072.533697
506.067863,-2960.823768,-9992.780217,612.876398
506.068187,-1924.535449,-8882.471304,689.485948
506.068512,-1332.370696,-8290.306550,-536.266849
506.068836,-2516.700203,-9696.697840,-1072.533697
506.069160,-3108.864956,-11177.109724,-1455.581446
506.069484,-2220.617826,-11029.068536,-1225.752797
506.069808,-1184.329507,-9696.697840,-1608.800546
506.070132,-1776.494261,-10214.842000,-1838.629195
506.070456,-2812.782580,-12361.439231,-1225.752797
506.070780,-888.247130,-11473.192101,-1685.410096
506.071104,2516.700203,-8808.450710,-1149.143247
506.071428,3923.091493,-9252.574275,-306.438199
506.071752,2886.803174,-11399.171507,0.000000
506.072076,2812.782580,-10436.903782,0.000000
506.072400,4589.276840,-7698.141797,1302.362347
506.072724,3701.029710,-8290.306550,842.705048
506.073048,518.144159,-11621.233289,-612.876398
506.073372,-2738.761985,-11843.295072,-1838.629195
506.073696,-3034.844362,-11547.212695,-2068.457845
506.074020,-2960.823768,-9918.759623,-2987.772442
506.074344,-3404.947333,-10214.842000,-2987.772442
506.074668,-4145.153275,-11399.171507,-2451.505594
506.074992,-2442.679609,-11103.089130,-2451.505594
506.075317,-296.082377,-9326.594869,-2604.724693
506.075641,148.041188,-10362.883188,-2528.115143
506.075965,-666.185348,-11177.109724,-2451.505594
506.076289,1258.350101,-10807.006753,-1608.800546
506.076613,4293.194464,-8734.430116,0.000000
506.076937,4811.338623,-8882.471304,919.314598
506.077261,2812.782580,-11547.212695,919.314598
506.077585,1628.453072,-11029.068536,919.314598
506.077909,2590.720797,-8438.347739,1302.362347
506.078233,2146.597232,-8142.265362,1302.362347
506.078557,-1332.370696,-10066.800811,1072.533697
506.078881,-4145.153275,-11695.253884,306.438199
506.079205,-4293.194464,-9622.677246,383.047749
506.079529,-2960.823768,-7328.038826,-459.657299
506.079853,-3627.009116,-7624.121203,-612.876398
506.080177,-4219.173869,-9030.512492,-919.314598
506.080501,-2442.679609,-8438.347739,-919.314598
506.080825,370.102971,-6883.915261,0.000000
506.081149,888.247130,-7624.121203,0.000000
506.081473,-444.123565,-10066.800811,0.000000
506.081797,0.000000,-9770.718434,383.047749
506.082122,2812.782580,-7994.224174,1608.800546
506.082446,4219.173869,-8216.285956,2145.067394
506.082770,2960.823768,-10658.965565,2298.286494
506.083094,1258.350101,-11103.089130,2298.286494
506.083418,1998.556043,-8512.368333,2681.334243
506.083742,1850.514855,-7328.038826,1532.190996
506.084066,-1110.308913,-9252.574275,536.266849
506.084390,-4441.235652,-10807.006753,76.609550
506.084714,-4071.132681,-9474.636058,0.000000
506.085038,-1998.556043,-8142.265362,-459.657299
506.085362,-1850.514855,-8660.409521,-383.047749
506.085686,-2368.659014,-10732.986159,-153.219100
506.086010,-740.205942,-11251.130318,-612.876398
506.086334,1184.329507,-10140.821405,-919.314598
506.086658,888.247130,-10288.862594,-153.219100
506.086982,-592.164754,-12139.377449,-459.657299
506.087306,74.020594,-13249.686362,0.000000
506.087630,2664.741391,-11103.089130,1072.533697
506.087954,4293.194464,-9918.759623,612.876398
506.088278,3182.885551,-11547.212695,689.485948
506.088603,1702.473667,-11917.315666,689.485948
506.088927,2368.659014,-9474.636058,1302.362347
506.089251,2812.782580,-8290.306550,1072.533697
506.089575,0.000000,-10140.821405,536.266849
506.089899,-2812.782580,-10510.924376,0.000000
506.090223,-3330.926739,-8808.450710,0.000000
506.090547,-1036.288319,-7550.100608,-766.095498
506.090871,-888.247130,-8216.285956,-919.314598
506.091195,-1332.370696,-10214.842000,-383.047749
506.091519,-1036.288319,-9770.718434,153.219100
506.091843,222.061783,-8364.327145,0.000000
506.092167,222.061783,-8808.450710,0.000000
506.092491,-666.185348,-11103.089130,689.485948
506.092815,-518.144159,-11399.171507,76.609550
506.093139,2146.597232,-8956.491898,1455.581446
506.093463,3552.988522,-8216.285956,1608.800546
506.093787,2738.761985,-9696.697840,1532.190996
506.094111,1332.370696,-10658.965565,1302.362347
506.094435,1480.411884,-8512.368333,1685.410096
506.094759,1480.411884,-6883.915261,536.266849
506.095083,-814.226536,-8660.409521,459.657299
506.095408,-4515.256246,-9474.636058,-459.657299
506.095732,-3775.050304,-8586.388927,153.219100
506.096056,-1628.453072,-6957.935855,995.924147
506.096380,-370.102971,-7402.059420,459.657299
506.096704,-1036.288319,-8956.491898,0.000000
506.097028,-1184.329507,-9696.697840,-229.828649
506.097352,296.082377,-8660.409521,0.000000
506.097676,962.267725,-9030.512492,689.485948
506.098000,-1036.288319,-11029.068536,459.657299
506.098324,-1850.514855,-11325.150913,0.000000
506.098648,740.205942,-9474.636058,153.219100
506.098972,3108.864956,-8808.450710,842.705048
506.099296,2072.576638,-10881.027347,689.485948
506.099620,-296.082377,-11991.336260,153.219100
506.099944,148.041188,-10066.800811,459.657299
506.100268,1036.288319,-8882.471304,0.000000
506.100592,-1110.308913,-10658.965565,-1455.581446
506.100916,-4071.132681,-12213.398043,-2145.067394
506.101240,-4071.132681,-11325.150913,-2145.067394
506.101564,-1702.473667,-9548.656652,-1915.238745
506.101888,-148.041188,-9474.636058,-1915.238745
506.102213,-148.041188,-11621.233289,-1608.800546
506.102537,0.000000,-11621.233289,-919.314598
506.102861,1110.308913,-10807.006753,-689.485948
506.103185,1776.494261,-10140.821405,-1072.533697
506.103509,0.000000,-11547.212695,-1532.190996
506.103833,-814.226536,-13323.706956,-1225.752797
506.104157,1258.350101,-11917.315666,-1072.533697
506.104481,2886.803174,-9918.759623,-612.876398
506.104805,1702.473667,-10510.924376,-842.705048
506.105129,0.000000,-11695.253884,-1149.143247
506.105453,0.000000,-10066.800811,-919.314598
506.105777,1628.453072,-7772.162391,-229.828649
506.106101,518.144159,-7994.224174,-766.095498
506.106425,-2072.576638,-9474.636058,-1225.752797
506.106749,-2368.659014,-8660.409521,-1149.143247
506.107073,370.102971,-6735.874072,612.876398
506.107397,1480.411884,-6661.853478,459.657299
506.107721,74.020594,-9104.533087,306.438199
506.108045,-888.247130,-9474.636058,536.266849
506.108369,444.123565,-7624.121203,459.657299
506.108694,962.267725,-7254.018232,0.000000
506.109018,-666.185348,-9400.615463,0.000000
506.109342,-1850.514855,-10584.944971,-229.828649
506.109666,74.020594,-9548.656652,459.657299
506.109990,2072.576638,-7920.203579,1455.581446
506.110314,666.185348,-8290.306550,842.705048
506.110638,-1332.370696,-9844.739029,0.000000
506.110962,-1258.350101,-8956.491898,76.609550
506.111286,592.164754,-7402.059420,842.705048
506.111610,666.185348,-8438.347739,842.705048
506.111934,-1110.308913,-10288.862594,383.047749
506.112258,-1924.535449,-10362.883188,919.314598
506.112582,-296.082377,-8438.347739,1072.533697
506.112906,222.061783,-8438.347739,612.876398
506.113230,-1554.432478,-10658.965565,536.266849
506.113554,-2516.700203,-11843.295072,0.000000
506.113878,-1480.411884,-10066.800811,76.609550
506.114202,0.000000,-9400.615463,0.000000
506.114526,-518.144159,-11769.274478,612.876398
506.114850,-1850.514855,-12731.542202,-306.438199
506.115174,-222.061783,-11769.274478,0.000000
506.115499,1850.514855,-9622.677246,0.000000
506.115823,1776.494261,-10436.903782,0.000000
506.116147,518.144159,-12065.356855,-383.047749
506.116471,1036.288319,-11251.130318,536.266849
506.116795,2960.823768,-9400.615463,1378.971896
506.117119,3478.967927,-10214.842000,919.314598
506.117443,1036.288319,-11473.192101,459.657299
506.117767,-888.247130,-10881.027347,229.828649
506.118091,518.144159,-8660.409521,306.438199
506.118415,1480.411884,-8512.368333,229.828649
506.118739,74.020594,-9844.739029,229.828649
506.119063,-1776.494261,-9918.759623,76.609550
506.119387,-222.061783,-8512.368333,612.876398
506.119711,444.123565,-7624.121203,459.657299
506.120035,-1036.288319,-9548.656652,-153.219100
506.120359,-2886.803174,-10658.965565,-842.705048
506.120683,-2442.679609,-9474.636058,-689.485948
506.121007,370.102971,-8290.306550,229.828649
506.121331,1258.350101,-9400.615463,383.047749
506.121655,74.020594,-10140.821405,766.095498
506.121979,592.164754,-9474.636058,1149.143247
506.122304,2220.617826,-7402.059420,1378.971896
506.122628,2516.700203,-8142.265362,1072.533697
506.122952,0.000000,-10214.842000,766.095498
506.123276,-1554.432478,-9844.739029,383.047749
506.123600,-222.061783,-7254.018232,1378.971896
506.123924,370.102971,-6957.935855,1149.143247
506.124248,-1258.350101,-8512.368333,612.876398
506.124572,-2516.700203,-9474.636058,-153.219100
506.124896,-1036.288319,-8142.265362,-306.438199
506.125220,592.164754,-7550.100608,-459.657299
506.125544,-222.061783,-9474.636058,-612.876398
506.125868,-2146.597232,-11103.089130,-842.705048
506.126192,-1258.350101,-9696.697840,-612.876398
506.126516,888.247130,-8512.368333,0.000000
506.126840,1480.411884,-9770.718434,-229.828649
506.127164,-296.082377,-11769.274478,-842.705048
506.127488,-518.144159,-10955.047942,-995.924147
506.127812,1110.308913,-9252.574275,-1149.143247
506.128136,1702.473667,-9918.759623,-459.657299
506.128460,-592.164754,-12065.356855,-1072.533697
506.128785,-2590.720797,-12435.459826,-1378.971896
506.129109,-1554.432478,-10807.006753,-1149.143247
506.129433,-148.041188,-10288.862594,-1149.143247
506.129757,-888.247130,-11399.171507,-1685.410096
506.130081,-2294.638420,-12139.377449,-1915.238745
506.130405,-444.123565,-10732.986159,-1225.752797
506.130729,1702.473667,-9548.656652,-842.705048
506.131053,1406.391290,-11103.089130,-1225.752797
506.131377,-1036.288319,-12583.501014,-1378.971896
506.131701,-740.205942,-11251.130318,-1378.971896
506.132025,2220.617826,-9400.615463,-459.657299
506.132349,2886.803174,-9474.636058,-459.657299
506.132673,1110.308913,-11473.192101,-766.095498
506.132997,296.082377,-11103.089130,-612.876398
506.133321,1776.494261,-8808.450710,0.000000
506.133645,2368.659014,-8660.409521,153.219100
506.133969,-296.082377,-10288.862594,0.000000
506.134293,-2294.638420,-10066.800811,-306.438199
506.134617,-1924.535449,-7550.100608,0.000000
506.134941,-370.102971,-7476.080014,229.828649
506.135265,-888.247130,-8956.491898,-153.219100
506.135590,-2516.700203,-9252.574275,0.000000
506.135914,-1184.329507,-7698.141797,536.266849
506.136238,962.267725,-6735.874072,766.095498
506.136562,666.185348,-7846.182985,229.828649
506.136886,-1776.494261,-9252.574275,-383.047749
506.137210,-2368.659014,-8290.306550,-612.876398
506.137534,370.102971,-7476.080014,1072.533697
506.137858,1628.453072,-8216.285956,766.095498
506.138182,370.102971,-9918.759623,612.876398
506.138506,-592.164754,-9992.780217,76.609550
506.138830,962.267725,-8068.244768,459.657299
506.139154,1776.494261,-8068.244768,1302.362347
506.139478,0.000000,-10140.821405,919.314598
506.139802,-2368.659014,-11177.109724,0.000000
506.140126,-888.247130,-9474.636058,842.705048
506.140450,1110.308913,-8290.306550,995.924147
506.140774,296.082377,-9548.656652,0.000000
506.141098,-1850.514855,-11103.089130,-766.095498
506.141422,-1258.350101,-9178.553681,-306.438199
506.141746,814.226536,-8142.265362,612.876398
506.142070,888.247130,-10140.821405,306.438199
506.142395,-1036.288319,-12139.377449,-689.485948
506.142719,-1702.473667,-11769.274478,-536.266849
506.143043,148.041188,-10288.862594,153.219100
506.143367,1850.514855,-10658.965565,306.438199
506.143691,1406.391290,-12361.439231,536.266849
506.144015,962.267725,-12805.562797,766.095498
506.144339,2442.679609,-10140.821405,1455.581446
506.144663,3552.988522,-9622.677246,1455.581446
506.144987,1406.391290,-11843.295072,153.219100
506.145311,-1332.370696,-12731.542202,-459.657299
506.145635,-888.247130,-10362.883188,-536.266849
506.145959,1258.350101,-7920.203579,229.828649
506.146283,1406.391290,-8882.471304,0.000000
506.146607,444.123565,-10584.944971,0.000000
506.146931,444.123565,-9030.512492,306.438199
506.147256,1480.411884,-6957.935855,1378.971896
506.147580,814.226536,-8216.285956,995.924147
506.147904,-1998.556043,-10214.842000,766.095498
506.148228,-2960.823768,-9474.636058,536.266849
506.148552,-1480.411884,-6883.915261,995.924147
506.148876,444.123565,-6439.791695,842.705048
506.149200,-666.185348,-8586.388927,229.828649
506.149524,-1776.494261,-8882.471304,0.000000
506.149848,74.020594,-7402.059420,995.924147
506.150172,1924.535449,-7031.956449,1302.362347
506.150497,592.164754,-8808.450710,306.438199
506.150821,-2220.617826,-10140.821405,0.000000
506.151145,-2072.576638,-9252.574275,229.828649
506.151469,740.205942,-8956.491898,383.047749
506.151793,888.247130,-9400.615463,306.438199
506.152117,-1184.329507,-10584.944971,0.000000
506.152441,-1628.453072,-9770.718434,-306.438199
506.152765,0.000000,-8142.265362,-229.828649
506.153089,0.000000,-9104.533087,-842.705048
506.153413,-2664.741391,-10584.944971,-1762.019645
506.153738,-3997.112087,-10510.924376,-1608.800546
506.154062,-1776.494261,-8290.306550,-1455.581446
506.154386,1258.350101,-8364.327145,-1225.752797
506.154710,814.226536,-10288.862594,-1762.019645
506.155034,-370.102971,-11473.192101,-2145.067394
506.155358,296.082377,-10436.903782,-1838.629195
506.155682,1850.514855,-9844.739029,-1072.533697
506.156006,1332.370696,-12139.377449,-1378.971896
506.156330,-666.185348,-13989.892304,-1149.143247
506.156654,-1110.308913,-13027.624579,-1149.143247
506.156979,1036.288319,-11843.295072,-1225.752797
506.157303,1332.370696,-11991.336260,-1532.190996
506.157627,0.000000,-13101.645173,-1608.800546
506.157951,148.041188,-12287.418637,-1455.581446
506.158275,2368.659014,-10140.821405,-306.438199
506.158599,2442.679609,-10066.800811,-536.266849
506.158923,-518.144159,-11399.171507,-1302.362347
506.159247,-2072.576638,-11621.233289,-995.924147
506.159571,-444.123565,-9326.594869,-766.095498
506.159895,1702.473667,-8290.306550,-766.095498
506.160220,1036.288319,-9400.615463,-383.047749
506.160544,-444.123565,-9918.759623,-995.924147
506.160868,814.226536,-8290.306550,612.876398
506.161192,1110.308913,-6587.832884,306.438199
506.161516,888.247130,-7994.224174,229.828649
506.161840,-1998.556043,-9030.512492,-306.438199
506.162164,-2220.617826,-8142.265362,0.000000
506.162488,-444.123565,-6809.894666,229.828649
506.162812,222.061783,-6957.935855,229.828649
506.163136,-1110.308913,-8438.347739,306.438199
506.163461,-1184.329507,-8512.368333,612.876398
506.163785,888.247130,-7698.141797,1149.143247
506.164109,1702.473667,-7994.224174,766.095498
506.164433,-814.226536,-9622.677246,0.000000
506.164757,-2590.720797,-10066.800811,-383.047749
506.165081,-740.205942,-8956.491898,689.485948
506.165405,1776.494261,-8734.430116,1608.800546
506.165729,1258.350101,-10288.862594,1991.848295
506.166053,0.000000,-10658.965565,612.876398
506.166377,-592.164754,-9252.574275,766.095498
506.166702,1406.391290,-8364.327145,1149.143247
506.167026,1480.411884,-10510.924376,919.314598
506.167350,-1184.329507,-11991.336260,459.657299
506.167674,-2294.638420,-10807.006753,536.266849
506.167998,-740.205942,-8660.409521,536.266849
506.168322,-148.041188,-9474.636058,153.219100
506.168646,-1110.308913,-10955.047942,-229.828649
506.168970,-1332.370696,-10881.027347,-153.219100
506.169294,296.082377,-9474.636058,459.657299
506.169618,1110.308913,-9178.553681,383.047749
506.169943,-518.144159,-10066.800811,-383.047749
506.170267,-1998.556043,-10510.924376,-306.438199
506.170591,0.000000,-9400.615463,-153.219100
506.170915,2738.761985,-8956.491898,459.657299
506.171239,2590.720797,-10066.800811,536.266849
506.171563,592.164754,-11547.212695,0.000000
506.171887,518.144159,-10807.006753,76.609550
506.172211,1850.514855,-10362.883188,153.219100
506.172535,1258.350101,-11769.274478,306.438199
506.172859,-1406.391290,-13175.665768,-306.438199
506.173183,-2220.617826,-12287.418637,153.219100
506.173508,0.000000,-10362.883188,1072.533697
506.173832,1110.308913,-9918.759623,842.705048
506.174156,518.144159,-11325.150913,306.438199
506.174480,-592.164754,-10881.027347,153.219100
506.174804,814.226536,-8586.388927,76.609550
506.175128,2220.617826,-7846.182985,612.876398
506.175452,0.000000,-9178.553681,766.095498
506.175776,-2220.617826,-9400.615463,-459.657299
506.176100,-1036.288319,-6957.935855,76.609550
506.176424,1184.329507,-5699.585753,76.609550
506.176749,1406.391290,-6809.894666,0.000000
506.177073,0.000000,-8216.285956,0.000000
506.177397,74.020594,-7624.121203,689.485948
506.177721,1998.556043,-6365.771101,1455.581446
506.178045,1776.494261,-7772.162391,1532.190996
506.178369,-740.205942,-10362.883188,1149.143247
506.178693,-2072.576638,-10658.965565,536.266849
506.179017,-888.247130,-9178.553681,766.095498
506.179341,-370.102971,-8956.491898,229.828649
506.179665,-2072.576638,-10362.883188,-919.314598
506.179990,-3330.926739,-10807.006753,-995.924147
506.180314,-1332.370696,-9548.656652,-1225.752797
506.180638,296.082377,-8734.430116,-1762.019645
506.180962,-1110.308913,-9770.718434,-2451.505594
506.181286,-3849.070898,-10807.006753,-2528.115143
506.181610,-2664.741391,-9696.697840,-1685.410096
506.181934,592.164754,-8512.368333,-612.876398
506.182258,1480.411884,-9104.533087,153.219100
506.182582,222.061783,-10436.903782,-536.266849
506.182906,370.102971,-10955.047942,306.438199
506.183231,2146.597232,-9104.533087,1072.533697
506.183555,3256.906145,-9696.697840,0.000000
506.183879,-222.061783,-11769.274478,-995.924147
506.184203,-2516.700203,-12731.542202,-1532.190996
506.184527,-1184.329507,-11177.109724,-2221.676944
506.184851,518.144159,-9622.677246,-2145.067394
506.185175,0.000000,-10955.047942,-1915.238745
506.185499,-962.267725,-12361.439231,-2834.553343
506.185823,740.205942,-11473.192101,-1685.410096
506.186147,2590.720797,-9696.697840,-1455.581446
506.186472,1776.494261,-10807.006753,-1838.629195
506.186796,-740.205942,-11991.336260,-1838.629195
506.187120,-740.205942,-10881.027347,-1149.143247
506.187444,1924.535449,-8808.450710,229.828649
506.187768,1998.556043,-9178.553681,-229.828649
506.188092,-518.144159,-10436.903782,689.485948
506.188416,-962.267725,-10140.821405,76.609550
506.188740,888.247130,-7994.224174,766.095498
506.189064,1776.494261,-7846.182985,153.219100
506.189388,-1110.308913,-9918.759623,-306.438199
506.189713,-2664.741391,-10881.027347,-612.876398
506.190037,-962.267725,-9104.533087,383.047749
506.190361,1702.473667,-8142.265362,459.657299
506.190685,1628.453072,-9104.533087,153.219100
506.191009,222.061783,-9918.759623,-306.438199
506.191333,1406.391290,-8882.471304,76.609550
506.191657,2738.761985,-8216.285956,1072.533697
506.191981,1628.453072,-8956.491898,842.705048
506.192305,-1332.370696,-9400.615463,76.609550
506.192629,-1184.329507,-8586.388927,306.438199
506.192954,666.185348,-6883.915261,842.705048
506.193278,1184.329507,-7550.100608,919.314598
506.193602,-1776.494261,-9104.533087,229.828649
506.193926,-2738.761985,-8808.450710,383.047749
506.194250,-444.123565,-6883.915261,919.314598
506.194574,518.144159,-7179.997637,689.485948
506.194898,-1628.453072,-9474.636058,229.828649
506.195222,-4219.173869,-10807.006753,-229.828649
506.195546,-3404.947333,-10066.800811,0.000000
506.195870,-1554.432478,-9770.718434,0.000000
506.196195,-888.247130,-10214.842000,-459.657299
506.196519,-1554.432478,-11621.233289,-612.876398
506.196843,-222.061783,-11769.274478,383.047749
506.197167,2886.803174,-11029.068536,919.314598
506.197491,2812.782580,-11399.171507,229.828649
506.197815,666.185348,-11991.336260,229.828649
506.198139,444.123565,-11325.150913,0.000000
506.198463,2812.782580,-9474.636058,842.705048
506.198787,4293.194464,-10066.800811,919.314598
506.199111,1776.494261,-11473.192101,842.705048
506.199436,-296.082377,-11029.068536,229.828649
506.199760,1036.288319,-9178.553681,995.924147
506.200084,2442.679609,-8438.347739,842.705048
506.200408,592.164754,-10658.965565,0.000000
506.200732,-2072.576638,-10732.986159,-459.657299
506.201056,-2146.597232,-9548.656652,0.000000
506.201380,-1184.329507,-9178.553681,229.828649
506.201704,-1406.391290,-9252.574275,0.000000
506.202028,-2220.617826,-9844.739029,0.000000
506.202352,-1406.391290,-9622.677246,76.609550
506.202677,0.000000,-9178.553681,76.609550
506.203001,592.164754,-9104.533087,383.047749
506.203325,-666.185348,-10066.800811,229.828649
506.203649,-666.185348,-9770.718434,383.047749
506.203973,2072.576638,-7550.100608,306.438199
506.204297,3775.050304,-6883.915261,536.266849
506.204621,2072.576638,-8438.347739,842.705048
506.204945,222.061783,-9252.574275,153.219100
506.205269,1332.370696,-7328.038826,1455.581446
506.205593,2220.617826,-6661.853478,1378.971896
506.205918,518.144159,-8586.388927,76.609550
506.206242,-2294.638420,-9474.636058,-612.876398
506.206566,-2812.782580,-8734.430116,842.705048
506.206890,-1406.391290,-8734.430116,-76.609550
506.207214,-1184.329507,-9474.636058,-689.485948
506.207538,-2516.700203,-9696.697840,-995.924147
506.207862,-2516.700203,-10066.800811,-842.705048
506.208186,-1110.308913,-9844.739029,-1149.143247
506.208510,-1036.288319,-10436.903782,-1762.019645
506.208834,-2590.720797,-11547.212695,-1838.629195
506.209159,-2368.659014,-11399.171507,-1991.848295
506.209483,444.123565,-10732.986159,-842.705048
506.209807,2960.823768,-9104.533087,-153.219100
506.210131,2886.803174,-10362.883188,-1225.752797
506.210455,1776.494261,-11251.130318,-1455.581446
506.210779,2442.679609,-10140.821405,-536.266849
506.211103,3923.091493,-9770.718434,0.000000
506.211427,1998.556043,-11547.212695,-306.438199
506.211751,-1850.514855,-12583.501014,-1532.190996
506.212075,-3404.947333,-12139.377449,-1685.410096
506.212400,-3108.864956,-11695.253884,-2145.067394
506.212724,-2220.617826,-11399.171507,-2451.505594
506.213048,-2664.741391,-11473.192101,-2604.724693
506.213372,-1776.494261,-10955.047942,-1915.238745
506.213696,296.082377,-10140.821405,-1378.971896
506.214020,1332.370696,-9844.739029,-1302.362347
506.214344,-222.061783,-10584.944971,-2298.286494
506.214668,-1036.288319,-10436.903782,-1915.238745
506.214992,1554.432478,-9548.656652,-459.657299
506.215316,3701.029710,-9252.574275,383.047749
506.215640,2960.823768,-10436.903782,459.657299
506.215965,740.205942,-10584.944971,306.438199
506.216289,1406.391290,-9400.615463,919.314598
506.216613,2738.761985,-8512.368333,1762.019645
506.216937,1406.391290,-9696.697840,1455.581446
506.217261,-2072.576638,-9622.677246,536.266849
506.217585,-3997.112087,-7698.141797,459.657299
506.217909,-2664.741391,-6143.709319,459.657299
506.218233,-1110.308913,-6587.832884,0.000000
506.218557,-1628.453072,-7550.100608,-306.438199
506.218881,-962.267725,-7624.121203,536.266849
506.219206,1110.308913,-6661.853478,1149.143247
506.219530,1998.556043,-6883.915261,1149.143247
506.219854,-296.082377,-8216.285956,-229.828649
506.220178,-2146.597232,-9622.677246,-612.876398
506.220502,-592.164754,-9326.594869,76.609550
506.220826,2146.597232,-8660.409521,1302.362347
506.221150,2072.576638,-9178.553681,1532.190996
506.221474,1110.308913,-10140.821405,995.924147
506.221798,1776.494261,-9030.512492,2145.067394
506.222122,3034.844362,-8068.244768,2604.724693
506.222447,1258.350101,-9474.636058,689.485948
506.222771,-2812.782580,-10658.965565,76.609550
506.223095,-3775.050304,-10584.944971,689.485948
506.223419,-1480.411884,-9104.533087,1072.533697
506.223743,296.082377,-8956.491898,612.876398
506.224067,-1332.370696,-10436.903782,0.000000
506.224391,-1480.411884,-11991.336260,-536.266849
506.224715,222.061783,-11695.253884,0.000000
506.225039,1184.329507,-11399.171507,-306.438199
506.225363,-444.123565,-11769.274478,-229.828649
506.225688,-1924.535449,-12139.377449,-1302.362347
506.226012,0.000000,-11769.274478,-306.438199
506.226336,2664.741391,-11029.068536,383.047749
506.226660,3108.864956,-11103.089130,0.000000
506.226984,1332.370696,-11621.233289,459.657299
506.227308,1480.411884,-10658.965565,689.485948
506.227632,3923.091493,-8956.491898,1225.752797
506.227956,3108.864956,-9844.739029,1149.143247
506.228280,-814.226536,-11251.130318,-153.219100
506.228604,-2886.803174,-10214.842000,-689.485948
506.228929,-1332.370696,-9030.512492,689.485948
506.229253,0.000000,-8512.368333,383.047749
506.229577,-1184.329507,-9548.656652,-612.876398
506.229901,-2146.597232,-9622.677246,-919.314598
506.230225,-814.226536,-8882.471304,0.000000
506.230549,740.205942,-9400.615463,-153.219100
506.230873,-592.164754,-9474.636058,-1072.533697
506.231197,-3108.864956,-9474.636058,-1225.752797
506.231521,-1702.473667,-8808.450710,0.000000
506.231845,1998.556043,-8660.409521,919.314598
506.232170,2886.803174,-9104.533087,536.266849
506.232494,1110.308913,-9548.656652,153.219100
506.232818,962.267725,-8734.430116,842.705048
506.233142,3256.906145,-7772.162391,1838.629195
506.233466,2886.803174,-8438.347739,1302.362347
506.233790,0.000000,-9622.677246,536.266849
506.234114,-2146.597232,-9030.512492,153.219100
506.234438,-740.205942,-7402.059420,919.314598
506.234762,740.205942,-7328.038826,0.000000
506.235086,-888.247130,-7846.182985,-1378.971896
506.235411,-3108.864956,-7550.100608,-1378.971896
506.235735,-2146.597232,-7994.224174,-1302.362347
506.236059,-592.164754,-8364.327145,-1302.362347
506.236383,-1850.514855,-9844.739029,-1762.019645
506.236707,-4737.318029,-10436.903782,-2681.334243
506.237031,-3627.009116,-10066.800811,-2068.457845
506.237355,-148.041188,-9474.636058,-995.924147
506.237679,1332.370696,-10584.944971,-383.047749
506.238003,370.102971,-12065.356855,-689.485948
506.238327,518.144159,-11769.274478,0.000000
506.238652,3404.947333,-9844.739029,0.000000
506.238976,4293.194464,-9622.677246,0.000000
506.239300,1628.453072,-12213.398043,-766.095498
506.239624,-1184.329507,-12731.542202,-1302.362347
506.239948,-666.185348,-11695.253884,-1302.362347
506.240272,296.082377,-10807.006753,-1378.971896
506.240596,-1554.432478,-11399.171507,-2145.067394
506.240920,-2812.782580,-11399.171507,-1991.848295
506.241244,-1554.432478,-10214.842000,-1378.971896
506.241568,74.020594,-9844.739029,-306.438199
506.241893,-1184.329507,-10066.800811,-1991.848295
506.242217,-2812.782580,-10881.027347,-1915.238745
506.242541,-2072.576638,-10881.027347,-459.657299
506.242865,1776.494261,-9474.636058,153.219100
506.243189,2664.741391,-8512.368333,383.047749
506.243513,370.102971,-9548.656652,-153.219100
506.243837,-592.164754,-9696.697840,-76.609550
506.244161,1924.535449,-8586.388927,229.828649
506.244485,3108.864956,-8290.306550,612.876398
506.244809,1036.288319,-9696.697840,459.657299
506.245134,-1406.391290,-9622.677246,0.000000
506.245458,-370.102971,-8512.368333,612.876398
506.245782,1628.453072,-7550.100608,689.485948
506.246106,1110.308913,-8438.347739,612.876398
506.246430,-1036.288319,-8882.471304,0.000000
506.246754,-148.041188,-8734.430116,76.609550
506.247079,1184.329507,-7698.141797,766.095498
506.247403,444.123565,-8438.347739,229.828649
506.247727,-2072.576638,-9992.780217,-229.828649
506.248051,-2664.741391,-10288.862594,153.219100
506.248375,-370.102971,-9030.512492,536.266849
506.248700,962.267725,-8364.327145,459.657299
506.249024,0.000000,-9844.739029,-306.438199
506.249348,-444.123565,-10214.842000,0.000000
506.249672,1702.473667,-8808.450710,76.609550
506.249996,2368.659014,-8068.244768,766.095498
506.250321,444.123565,-9770.718434,229.828649
506.250645,-2146.597232,-10807.006753,-153.219100
506.250969,-1332.370696,-9474.636058,383.047749
506.251293,444.123565,-8882.471304,842.705048
506.251617,296.082377,-10362.883188,689.485948
506.251942,-1036.288319,-11251.130318,306.438199
506.252266,-444.123565,-10955.047942,612.876398
506.252590,1628.453072,-10140.821405,1455.581446
506.252914,1554.432478,-10436.903782,229.828649
506.253238,-1480.411884,-11251.130318,-995.924147
506.253563,-3256.906145,-11843.295072,-919.314598
506.253887,-962.267725,-10658.965565,-459.657299
506.254211,1480.411884,-9622.677246,-229.828649
506.254535,1628.453072,-11547.212695,306.438199
506.254859,888.247130,-11029.068536,0.000000
506.255184,2220.617826,-9178.553681,-153.219100
506.255508,2146.597232,-8808.450710,459.657299
506.255832,-148.041188,-10214.842000,-383.047749
506.256156,-2664.741391,-11251.130318,0.000000
506.256480,-1406.391290,-10881.027347,1225.752797
506.256805,1332.370696,-8586.388927,1838.629195
506.257129,1702.473667,-8734.430116,919.314598
506.257453,-148.041188,-9474.636058,459.657299
506.257777,-1258.350101,-9252.574275,689.485948
506.258101,296.082377,-8882.471304,1149.143247
506.258426,444.123565,-8586.388927,1149.143247
506.258750,-1258.350101,-9918.759623,689.485948
506.259074,-2368.659014,-9918.759623,536.266849
506.259398,0.000000,-8586.388927,383.047749
506.259723,2220.617826,-8216.285956,1072.533697
506.260047,1850.514855,-9844.739029,766.095498
506.260371,814.226536,-10066.800811,536.266849
506.260695,1628.453072,-7550.100608,919.314598
506.261019,2590.720797,-5921.647536,1072.533697
506.261344,740.205942,-8364.327145,-153.219100
506.261668,-2072.576638,-10288.862594,-229.828649
506.261992,-1776.494261,-9030.512492,766.095498
506.262316,296.082377,-7402.059420,1455.581446
506.262640,740.205942,-8142.265362,612.876398
506.262965,-1258.350101,-9474.636058,0.000000
506.263289,-1776.494261,-9400.615463,0.000000
506.263613,0.000000,-8290.306550,76.609550
506.263937,-444.123565,-9474.636058,-459.657299
506.264261,-2738.761985,-10732.986159,-1072.533697
506.264586,-4219.173869,-10658.965565,-1915.238745
506.264910,-1110.308913,-9696.697840,-1838.629195
506.265234,1924.535449,-9992.780217,-1225.752797
506.265558,1776.494261,-11769.274478,-1532.190996
506.265882,74.020594,-12435.459826,-1685.410096
506.266207,888.247130,-10732.986159,-1072.533697
506.266531,2738.761985,-9992.780217,-1149.143247
506.266855,1628.453072,-11769.274478,-612.876398
506.267179,-1554.432478,-13545.768739,-1608.800546
506.267503,-1998.556043,-12287.418637,-1225.752797
506.267828,-148.041188,-9844.739029,-612.876398
506.268152,888.247130,-9918.759623,-1302.362347
506.268476,-740.205942,-11547.212695,-1455.581446
506.268800,-1628.453072,-10584.944971,-1915.238745
506.269124,296.082377,-8956.491898,-1455.581446
506.269449,888.247130,-9030.512492,-1532.190996
506.269773,-1480.411884,-11325.150913,-2145.067394
506.270097,-2442.679609,-11029.068536,-2451.505594
506.270421,-296.082377,-9918.759623,-995.924147
506.270745,2368.659014,-9548.656652,229.828649
506.271070,2072.576638,-10214.842000,-76.609550
506.271394,740.205942,-11473.192101,-536.266849
506.271718,814.226536,-9622.677246,383.047749
506.272042,2664.741391,-9030.512492,919.314598
506.272366,1850.514855,-9548.656652,229.828649
506.272691,-1406.391290,-10140.821405,-153.219100
506.273015,-2072.576638,-9326.594869,153.219100
506.273339,0.000000,-7698.141797,689.485948
506.273663,888.247130,-7105.977043,842.705048
506.273988,-1628.453072,-8068.244768,-229.828649
506.274312,-2368.659014,-7846.182985,-153.219100
506.274636,-148.041188,-6883.915261,229.828649
506.274960,814.226536,-7179.997637,612.876398
506.275284,-1480.411884,-8882.471304,0.000000
506.275609,-3182.885551,-9474.636058,-76.609550
506.275933,-1036.288319,-8512.368333,842.705048
506.276257,2442.679609,-8438.347739,1532.190996
506.276581,1776.494261,-9474.636058,0.000000
506.276905,-370.102971,-9992.780217,0.000000
506.277230,0.000000,-9474.636058,612.876398
506.277554,2368.659014,-9030.512492,1225.752797
506.277878,1850.514855,-9770.718434,842.705048
506.278202,-888.247130,-10881.027347,383.047749
506.278526,-2812.782580,-10066.800811,306.438199
506.278851,-1110.308913,-8882.471304,229.828649
506.279175,-888.247130,-8586.388927,0.000000
506.279499,-2516.700203,-9992.780217,-612.876398
506.279823,-3256.906145,-10362.883188,-842.705048
506.280147,-666.185348,-9252.574275,766.095498
506.280472,2072.576638,-9030.512492,766.095498
506.280796,1554.432478,-11029.068536,0.000000
506.281120,-592.164754,-11547.212695,306.438199
506.281444,74.020594,-10881.027347,766.095498
506.281768,2664.741391,-10362.883188,1149.143247
506.282093,2516.700203,-10807.006753,919.314598
506.282417,370.102971,-11695.253884,306.438199
506.282741,962.267725,-10732.986159,383.047749
506.283065,3330.926739,-9400.615463,995.924147
506.283389,2812.782580,-9622.677246,689.485948
506.283714,-592.164754,-11843.295072,-383.047749
506.284038,-2960.823768,-10955.047942,-612.876398
506.284362,-1628.453072,-9474.636058,76.609550
506.284686,148.041188,-9104.533087,-153.219100
506.285010,-740.205942,-9918.759623,-612.876398
506.285335,-1184.329507,-9992.780217,-306.438199
506.285659,148.041188,-8586.388927,383.047749
506.285983,1480.411884,-8734.430116,919.314598
506.286307,-444.123565,-9252.574275,-76.609550
506.286632,-3108.864956,-10214.842000,-459.657299
506.286956,-2664.741391,-9992.780217,0.000000
506.287280,592.164754,-8882.471304,612.876398
506.287604,1332.370696,-8956.491898,1225.752797
506.287928,-518.144159,-9918.759623,0.000000
506.288253,-518.144159,-9474.636058,919.314598
506.288577,2738.761985,-8882.471304,1225.752797
506.288901,3552.988522,-9178.553681,229.828649
506.289225,666.185348,-9844.739029,0.000000
506.289549,-962.267725,-10140.821405,-459.657299
506.289874,370.102971,-9400.615463,306.438199
506.290198,2220.617826,-8586.388927,842.705048
506.290522,518.144159,-8734.430116,-689.485948
506.290846,-1332.370696,-8956.491898,-766.095498
506.291170,0.000000,-8734.430116,0.000000
506.291495,1850.514855,-8142.265362,383.047749
506.291819,0.000000,-8586.388927,-383.047749
506.292143,-3330.926739,-9770.718434,-1225.752797
506.292467,-4145.153275,-9622.677246,-306.438199
506.292791,-740.205942,-8808.450710,-306.438199
506.293116,740.205942,-9030.512492,-766.095498
506.293440,-814.226536,-9622.677246,-919.314598
506.293764,-1332.370696,-10214.842000,-995.924147
506.294088,962.267725,-9622.677246,-383.047749
506.294412,2072.576638,-10214.842000,-383.047749
506.294737,-444.123565,-11547.212695,-1149.143247
506.295061,-2738.761985,-11843.295072,-1455.581446
506.295385,-1258.350101,-11473.192101,-459.657299
506.295709,518.144159,-10807.006753,-383.047749
506.296033,444.123565,-10807.006753,-1225.752797
506.296358,-888.247130,-10955.047942,-1149.143247
506.296682,444.123565,-10658.965565,-383.047749
506.297006,2368.659014,-10288.862594,383.047749
506.297330,1776.494261,-10584.944971,229.828649
506.297654,-1184.329507,-10732.986159,0.000000
506.297979,-1110.308913,-10140.821405,-689.485948
506.298303,1554.432478,-8512.368333,76.609550
506.298627,2664.741391,-8882.471304,76.609550
506.298951,518.144159,-9844.739029,0.000000
506.299275,-592.164754,-10362.883188,0.000000
506.299600,1258.350101,-9104.533087,306.438199
506.299924,2368.659014,-8586.388927,536.266849
506.300248,0.000000,-9770.718434,76.609550
506.300572,-2886.803174,-10436.903782,229.828649
506.300897,-2664.741391,-9622.677246,459.657299
506.301221,-444.123565,-8882.471304,459.657299
506.301545,-962.267725,-9400.615463,0.000000
506.301869,-2072.576638,-9400.615463,-229.828649
506.302193,-1110.308913,-8808.450710,536.266849
506.302518,1184.329507,-7920.203579,995.924147
506.302842,444.123565,-8512.368333,0.000000
506.303166,-2664.741391,-9400.615463,-229.828649
506.303490,-3182.885551,-9400.615463,-306.438199
506.303814,222.061783,-8290.306550,766.095498
506.304139,2368.659014,-8512.368333,766.095498
506.304463,1110.308913,-9252.574275,153.219100
506.304787,-518.144159,-9178.553681,76.609550
506.305111,666.185348,-7994.224174,919.314598
506.305435,2886.803174,-8808.450710,536.266849
506.305760,740.205942,-10066.800811,-229.828649
506.306084,-2072.576638,-11029.068536,-766.095498
506.306408,-1628.453072,-10584.944971,-153.219100
506.306732,296.082377,-9918.759623,0.000000
506.307056,518.144159,-10214.842000,-229.828649
506.307381,-1184.329507,-10288.862594,-536.266849
506.307705,-74.020594,-10732.986159,76.609550
506.308029,2146.597232,-10066.800811,612.876398
506.308353,1332.370696,-9844.739029,-229.828649
506.308677,-1850.514855,-10510.924376,-995.924147
506.309002,-2960.823768,-10436.903782,-1149.143247
506.309326,296.082377,-9474.636058,0.000000
506.309650,2590.720797,-9030.512492,76.609550
506.309974,1332.370696,-9770.718434,-766.095498
506.310298,-148.041188,-10732.986159,-306.438199
506.310623,888.247130,-9400.615463,153.219100
506.310947,2294.638420,-9548.656652,153.219100
506.311271,370.102971,-10140.821405,-459.657299
506.311595,-2886.803174,-10955.047942,-612.876398
506.311919,-2072.576638,-11103.089130,-153.219100
506.312244,148.041188,-10288.862594,306.438199
506.312568,1036.288319,-10214.842000,0.000000
506.312892,-148.041188,-10214.842000,0.000000
506.313216,0.000000,-9548.656652,0.000000
506.313540,2220.617826,-8808.450710,766.095498
506.313865,2738.761985,-9030.512492,536.266849
506.314189,-222.061783,-10066.800811,153.219100
506.314513,-1776.494261,-9622.677246,-612.876398
506.314837,74.020594,-7550.100608,229.828649
506.315162,1924.535449,-7105.977043,689.485948
506.315486,1628.453072,-9252.574275,842.705048
506.315810,-666.185348,-9918.759623,229.828649
506.316134,-296.082377,-8734.430116,766.095498
506.316458,888.247130,-7994.224174,1225.752797
506.316783,-370.102971,-9252.574275,536.266849
506.317107,-3182.885551,-10436.903782,229.828649
506.317431,-3404.947333,-10140.821405,459.657299
506.317755,-1184.329507,-9252.574275,1072.533697
506.318079,74.020594,-9548.656652,383.047749
506.318404,-1110.308913,-9622.677246,0.000000
506.318728,-740.205942,-9400.615463,153.219100
506.319052,1776.494261,-8956.491898,459.657299
506.319376,2368.659014,-9326.594869,76.609550
506.319700,0.000000,-9474.636058,-153.219100
506.320025,-2368.659014,-9474.636058,-995.924147
506.320349,-296.082377,-8808.450710,-306.438199
506.320673,1998.556043,-8290.306550,306.438199
506.320997,1332.370696,-9400.615463,-153.219100
506.321321,-814.226536,-10140.821405,-612.876398
506.321646,-518.144159,-9548.656652,0.000000
506.321970,1110.308913,-9326.594869,1225.752797
506.322294,1110.308913,-10510.924376,459.657299
506.322618,-1850.514855,-11325.150913,-383.047749
506.322942,-3034.844362,-11399.171507,-306.438199
506.323267,-1776.494261,-10807.006753,-306.438199
506.323591,-518.144159,-10658.965565,-995.924147
506.323915,-1480.411884,-11251.130318,-1302.362347
506.324239,-1184.329507,-11399.171507,-1378.971896
506.324563,1850.514855,-10732.986159,-536.266849
506.324888,4071.132681,-10214.842000,-459.657299
506.325212,1702.473667,-10881.027347,-1225.752797
506.325536,-592.164754,-11473.192101,-1685.410096
506.325860,74.020594,-10066.800811,-766.095498
506.326184,2664.741391,-9548.656652,229.828649
506.326509,2368.659014,-9992.780217,-229.828649
506.326833,222.061783,-9696.697840,0.000000
506.327157,-370.102971,-8068.244768,536.266849
506.327481,1924.535449,-8068.244768,1225.752797
506.327805,1406.391290,-9474.636058,0.000000
506.328130,-1702.473667,-9622.677246,-536.266849
506.328454,-3330.926739,-9326.594869,-766.095498
506.328778,-2294.638420,-8882.471304,0.000000
506.329102,-740.205942,-8808.450710,-612.876398
506.329427,-1332.370696,-9326.594869,-1149.143247
506.329751,-1554.432478,-9918.759623,-689.485948
506.330075,592.164754,-9252.574275,0.000000
506.330399,2442.679609,-9474.636058,229.828649
506.330723,1184.329507,-9696.697840,76.609550
506.331048,-740.205942,-10658.965565,-536.266849
506.331372,-222.061783,-9474.636058,-229.828649
506.331696,2072.576638,-8142.265362,612.876398
506.332020,1480.411884,-8438.347739,1302.362347
506.332344,-592.164754,-10066.800811,919.314598
506.332669,-666.185348,-8956.491898,766.095498
506.332993,1036.288319,-7105.977043,1149.143247
506.333317,814.226536,-7772.162391,459.657299
506.333641,-1776.494261,-9622.677246,-536.266849
506.333965,-3256.906145,-9474.636058,-612.876398
506.334290,-2294.638420,-8438.347739,0.000000
506.334614,-1184.329507,-8438.347739,-383.047749
506.334938,-1850.514855,-9030.512492,-1455.581446
506.335262,-2072.576638,-10436.903782,-919.314598
506.335586,0.000000,-10732.986159,-536.266849
506.335911,2368.659014,-10436.903782,0.000000
506.336235,1184.329507,-10214.842000,-536.266849
506.336559,-592.164754,-11177.109724,-306.438199
506.336883,370.102971,-11029.068536,689.485948
506.337207,2664.741391,-9992.780217,1302.362347
506.337532,1702.473667,-10288.862594,383.047749
506.337856,-1110.308913,-10584.944971,-383.047749
506.338180,-1480.411884,-9844.739029,-536.266849
506.338504,888.247130,-9030.512492,842.705048
506.338828,1850.514855,-9992.780217,536.266849
506.339153,-666.185348,-11621.233289,0.000000
506.339477,-3256.906145,-9992.780217,-612.876398
506.339801,-2368.659014,-9548.656652,0.000000
506.340125,-296.082377,-9622.677246,-229.828649
506.340449,-296.082377,-9992.780217,-766.095498
506.340774,-1406.391290,-10288.862594,-766.095498
506.341098,-666.185348,-9770.718434,-153.219100
506.341422,2072.576638,-10658.965565,229.828649
506.341746,1702.473667,-10881.027347,0.000000
506.342070,0.000000,-11103.089130,0.000000
506.342395,666.185348,-9918.759623,766.095498
506.342719,3404.947333,-8808.450710,919.314598
506.343043,3701.029710,-8660.409521,1072.533697
506.343367,1184.329507,-9252.574275,842.705048
506.343692,444.123565,-8512.368333,919.314598
506.344016,2368.659014,-7476.080014,1762.019645
506.344340,2812.782580,-7328.038826,1149.143247
506.344664,-962.267725,-7846.182985,0.000000
506.344988,-4293.194464,-8734.430116,0.000000
506.345313,-3997.112087,-8956.491898,153.219100
506.345637,-2368.659014,-9030.512492,306.438199
506.345961,-2664.741391,-8734.430116,0.000000
506.346285,-3330.926739,-8586.388927,-612.876398
506.346608,-2072.576638,-9104.533087,-229.828649
506.346933,222.061783,-9770.718434,612.876398
506.347257,-296.082377,-10362.883188,0.000000
506.347581,-2664.741391,-10436.903782,-459.657299
506.347905,-2146.597232,-10288.862594,153.219100
506.348230,1554.432478,-9622.677246,842.705048
506.348554,4219.173869,-9622.677246,919.314598
506.348878,2960.823768,-9918.759623,536.266849
506.349202,1776.494261,-9548.656652,1072.533697
506.349527,2960.823768,-9696.697840,1685.410096
506.349851,4145.153275,-9326.594869,1149.143247
506.350175,1702.473667,-10288.862594,306.438199
506.350499,-1406.391290,-11177.109724,0.000000
506.350824,-1554.432478,-10510.924376,153.219100
506.351148,-962.267725,-10066.800811,0.000000
506.351472,-1850.514855,-9770.718434,-612.876398
506.351796,-3034.844362,-10066.800811,-995.924147
506.352121,-2368.659014,-10658.965565,-383.047749
506.352445,-740.205942,-10362.883188,-842.705048
506.352769,-592.164754,-9770.718434,-1455.581446
506.353093,-2664.741391,-10066.800811,-2068.457845
506.353418,-2220.617826,-10658.965565,-1149.143247
506.353742,1406.391290,-9770.718434,459.657299
506.354066,4293.194464,-9622.677246,689.485948
506.354390,2738.761985,-9992.780217,919.314598
506.354714,1406.391290,-10510.924376,995.924147
506.355039,2664.741391,-9474.636058,1149.143247
506.355363,3330.926739,-8586.388927,383.047749
506.355687,740.205942,-8734.430116,306.438199
506.356011,-2368.659014,-9326.594869,-306.438199
506.356336,-2146.597232,-9178.553681,-153.219100
506.356660,-814.226536,-8956.491898,0.000000
506.356984,-1258.350101,-8290.306550,-229.828649
506.357308,-2368.659014,-8808.450710,-1149.143247
506.357633,-1924.535449,-9030.512492,-1072.533697
506.357957,0.000000,-8512.368333,-459.657299
506.358281,444.123565,-8512.368333,-536.266849
506.358605,-740.205942,-10066.800811,-1149.143247
506.358930,-888.247130,-11029.068536,0.000000
506.359254,1628.453072,-9844.739029,536.266849
506.359578,3627.009116,-8734.430116,536.266849
506.359902,2072.576638,-10140.821405,0.000000
506.360227,-148.041188,-11177.109724,-306.438199
506.360551,592.164754,-10140.821405,459.657299
506.360875,1850.514855,-9400.615463,536.266849
506.361199,-518.144159,-10140.821405,153.219100
506.361523,-3627.009116,-11029.068536,-229.828649
506.361848,-3849.070898,-10362.883188,-459.657299
506.362172,-2294.638420,-9696.697840,-306.438199
506.362496,-1332.370696,-9474.636058,-689.485948
506.362820,-1554.432478,-9696.697840,-766.095498
506.363145,-666.185348,-10214.842000,0.000000
506.363469,1036.288319,-9622.677246,306.438199
506.363793,1332.370696,-9326.594869,-306.438199
506.364117,-444.123565,-9326.594869,-1072.533697
506.364442,-666.185348,-10658.965565,-1072.533697
506.364766,1850.514855,-9622.677246,-536.266849
506.365090,4071.132681,-8660.409521,0.000000
506.365414,2516.700203,-8808.450710,766.095498
506.365739,1036.288319,-9992.780217,229.828649
506.366063,814.226536,-9622.677246,612.876398
506.366387,1702.473667,-8808.450710,1149.143247
506.366711,-296.082377,-9474.636058,0.000000
506.367036,-3997.112087,-10214.842000,-766.095498
506.367360,-4219.173869,-10362.883188,0.000000
506.367684,-1998.556043,-10362.883188,1225.752797
506.368008,-888.247130,-10140.821405,383.047749
506.368333,-1628.453072,-9770.718434,459.657299
506.368657,-1850.514855,-9548.656652,536.266849
506.368981,222.061783,-9400.615463,153.219100
506.369305,1924.535449,-9622.677246,0.000000
506.369629,1036.288319,-10066.800811,-459.657299
506.369954,-296.082377,-10140.821405,-306.438199
506.370278,1628.453072,-9030.512492,229.828649
506.370602,3627.009116,-8438.347739,612.876398
506.370926,2590.720797,-8882.471304,536.266849
506.371251,0.000000,-8734.430116,0.000000
506.371575,-148.041188,-8586.388927,919.314598
506.371899,1554.432478,-7624.121203,1072.533697
506.372223,666.185348,-7772.162391,1072.533697
506.372548,-1776.494261,-8956.491898,1072.533697
506.372872,-2072.576638,-9030.512492,1302.362347
506.373196,0.000000,-8290.306550,1149.143247
506.373520,148.041188,-8364.327145,153.219100
506.373845,-1332.370696,-9030.512492,-842.705048
506.374169,-1628.453072,-10140.821405,-919.314598
506.374493,370.102971,-11029.068536,153.219100
506.374817,1702.473667,-11251.130318,383.047749
506.375142,518.144159,-11769.274478,0.000000
506.375466,-962.267725,-11473.192101,-842.705048
506.375790,444.123565,-11769.274478,-383.047749
506.376114,2442.679609,-11029.068536,76.609550
506.376439,1332.370696,-11029.068536,-153.219100
506.376763,-1776.494261,-11621.233289,-229.828649
506.377087,-1702.473667,-10807.006753,612.876398
506.377411,370.102971,-9252.574275,1072.533697
506.377735,592.164754,-8956.491898,-76.609550
506.378060,-2516.700203,-9178.553681,-689.485948
506.378384,-3627.009116,-9622.677246,-459.657299
506.378708,-1628.453072,-8882.471304,-612.876398
506.379032,0.000000,-8734.430116,-229.828649
506.379357,-1110.308913,-9104.533087,-153.219100
506.379681,-1258.350101,-9474.636058,-536.266849
506.380005,0.000000,-9844.739029,0.000000
506.380329,1332.370696,-9992.780217,-306.438199
506.380654,370.102971,-9844.739029,-612.876398
506.380978,-1184.329507,-10807.006753,-229.828649
506.381302,0.000000,-10955.047942,76.609550
506.381626,3108.864956,-9622.677246,766.095498
506.381951,3108.864956,-9030.512492,383.047749
506.382275,444.123565,-9696.697840,0.000000
506.382599,-444.123565,-9326.594869,229.828649
506.382923,1406.391290,-7624.121203,689.485948
506.383248,666.185348,-7402.059420,229.828649
506.383572,-1332.370696,-8956.491898,-306.438199
506.383896,-3108.864956,-8512.368333,-842.705048
506.384220,-1258.350101,-8142.265362,-383.047749
506.384545,222.061783,-7994.224174,0.000000
506.384869,-814.226536,-8586.388927,-919.314598
506.385193,-1776.494261,-9252.574275,-306.438199
506.385517,-518.144159,-8956.491898,229.828649
506.385841,1332.370696,-9474.636058,0.000000
506.386166,370.102971,-10066.800811,-766.095498
506.386490,-1184.329507,-10584.944971,-766.095498
506.386814,-444.123565,-11251.130318,0.000000
506.387138,2072.576638,-11251.130318,229.828649
506.387463,2886.803174,-10807.006753,0.000000
506.387787,666.185348,-10288.862594,-383.047749
506.388111,0.000000,-10510.924376,-536.266849
506.388435,1554.432478,-10066.800811,-229.828649
506.388760,1702.473667,-10066.800811,-306.438199
506.389084,-962.267725,-10584.944971,-995.924147
506.389408,-3108.864956,-10732.986159,-1378.971896
506.389732,-1332.370696,-9474.636058,-306.438199
506.390057,518.144159,-8808.450710,-459.657299
506.390381,222.061783,-10214.842000,-766.095498
506.390705,-1628.453072,-10066.800811,-766.095498
506.391029,-814.226536,-9548.656652,0.000000
506.391354,444.123565,-9696.697840,0.000000
506.391678,-222.061783,-10214.842000,-919.314598
506.392002,-2220.617826,-10881.027347,-1149.143247
506.392326,-1776.494261,-10807.006753,-536.266849
506.392651,1628.453072,-10066.800811,383.047749
506.392975,2812.782580,-9918.759623,-306.438199
506.393299,1258.350101,-10214.842000,0.000000
506.393623,518.144159,-10510.924376,0.000000
506.393947,2146.597232,-9178.553681,536.266849
506.394272,2664.741391,-9252.574275,842.705048
506.394596,148.041188,-10214.842000,0.000000
506.394920,-2368.659014,-9696.697840,459.657299
506.395244,-1998.556043,-8512.368333,919.314598
506.395569,-296.082377,-8586.388927,689.485948
506.395893,-740.205942,-9326.594869,229.828649
506.396217,-2294.638420,-9104.533087,383.047749
506.396541,-1554.432478,-8512.368333,919.314598
506.396866,370.102971,-8216.285956,1072.533697
506.397190,370.102971,-9030.512492,1072.533697
506.397514,-1480.411884,-9548.656652,306.438199
506.397838,-2072.576638,-8586.388927,153.219100
506.398163,1036.288319,-8364.327145,766.095498
506.398487,2442.679609,-8882.471304,995.924147
506.398811,1628.453072,-9918.759623,1225.752797
506.399135,592.164754,-9548.656652,995.924147
506.399460,2072.576638,-8142.265362,1838.629195
506.399784,2664.741391,-7994.224174,1455.581446
506.400108,666.185348,-9622.677246,689.485948
506.400432,-2590.720797,-9770.718434,612.876398
506.400757,-2368.659014,-8956.491898,842.705048
506.401081,-296.082377,-8364.327145,536.266849
506.401405,-814.226536,-9030.512492,-229.828649
506.401729,-2294.638420,-9474.636058,-306.438199
506.402053,-1258.350101,-9104.533087,0.000000
506.402378,888.247130,-9178.553681,842.705048
506.402702,518.144159,-9992.780217,-153.219100
506.403026,-1850.514855,-10658.965565,-689.485948
506.403350,-2516.700203,-10436.903782,-1225.752797
506.403675,0.000000,-9844.739029,-612.876398
506.403999,2368.659014,-10658.965565,-306.438199
506.404323,1554.432478,-11769.274478,-229.828649
506.404647,444.123565,-11695.253884,0.000000
506.404972,1110.308913,-10510.924376,766.095498
506.405296,2220.617826,-9992.780217,-153.219100
506.405620,0.000000,-11695.253884,-919.314598
506.405944,-2960.823768,-12287.418637,-1378.971896
506.406269,-2516.700203,-11103.089130,-612.876398
506.406593,-148.041188,-9844.739029,-459.657299
506.406917,-222.061783,-9992.780217,-306.438199
506.407241,-1998.556043,-10807.006753,-1608.800546
506.407566,-1480.411884,-9178.553681,-1072.533697
506.407890,1702.473667,-8882.471304,-383.047749
506.408214,2072.576638,-9992.780217,-612.876398
506.408538,-592.164754,-10362.883188,-1302.362347
506.408863,-1554.432478,-9622.677246,-1072.533697
506.409187,666.185348,-8364.327145,-612.876398
506.409511,2960.823768,-9252.574275,536.266849
506.409835,1036.288319,-10140.821405,-536.266849
506.410159,148.041188,-10214.842000,-536.266849
506.410484,814.226536,-8290.306550,612.876398
506.410808,2590.720797,-8734.430116,536.266849
506.411132,740.205942,-9770.718434,-383.047749
506.411456,-2664.741391,-10436.903782,-306.438199
506.411781,-2220.617826,-9252.574275,76.609550
506.412105,370.102971,-8142.265362,-459.657299
506.412429,592.164754,-7994.224174,-842.705048
506.412753,-1332.370696,-8216.285956,-1302.362347
506.413078,-1184.329507,-8290.306550,-612.876398
506.413402,1480.411884,-8364.327145,383.047749
506.413726,2368.659014,-8808.450710,306.438199
506.414050,-222.061783,-9622.677246,0.000000
506.414375,-1480.411884,-9622.677246,153.219100
506.414699,518.144159,-9326.594869,383.047749
506.415023,2368.659014,-9548.656652,689.485948
506.415347,962.267725,-10658.965565,0.000000
506.415672,-1036.288319,-10881.027347,76.609550
506.415996,-148.041188,-9992.780217,689.485948
506.416320,1406.391290,-9252.574275,0.000000
506.416644,0.000000,-9696.697840,-536.266849
506.416969,-3478.967927,-10881.027347,-919.314598
506.417293,-3775.050304,-10140.821405,-1072.533697
506.417617,-1036.288319,-8808.450710,-383.047749
506.417941,-370.102971,-8512.368333,-766.095498
506.418265,-1850.514855,-9844.739029,-1149.143247
506.418590,-1702.473667,-10658.965565,-612.876398
506.418914,888.247130,-9474.636058,0.000000
506.419238,1850.514855,-9252.574275,459.657299
506.419562,-1332.370696,-10658.965565,-306.438199
506.419887,-2146.597232,-11547.212695,-459.657299
506.420211,0.000000,-10214.842000,842.705048
506.420535,2368.659014,-9696.697840,1072.533697
506.420859,1850.514855,-10584.944971,766.095498
506.421184,296.082377,-10881.027347,612.876398
506.421508,1480.411884,-9696.697840,766.095498
506.421832,3330.926739,-9326.594869,1685.410096
506.422156,2220.617826,-9918.759623,0.000000
506.422481,-1184.329507,-11325.150913,-612.876398
506.422805,-2294.638420,-10436.903782,-306.438199
506.423129,296.082377,-9400.615463,459.657299
506.423453,1628.453072,-8956.491898,76.609550
506.423778,-222.061783,-9030.512492,76.609550
506.424102,-1036.288319,-8660.409521,306.438199
506.424426,666.185348,-8586.388927,689.485948
506.424750,1776.494261,-8216.285956,1072.533697
506.425075,-222.061783,-9770.718434,766.095498
506.425399,-2368.659014,-10510.924376,689.485948
506.425723,-1184.329507,-9252.574275,1302.362347
506.426047,1110.308913,-8512.368333,1532.190996
506.426371,666.185348,-8956.491898,612.876398
506.426696,-962.267725,-9252.574275,229.828649
506.427020,0.000000,-8956.491898,766.095498
506.427344,1998.556043,-8438.347739,1378.971896
506.427668,2294.638420,-9178.553681,459.657299
506.427993,-666.185348,-9770.718434,0.000000
506.428317,-2294.638420,-10214.842000,153.219100
506.428641,-888.247130,-9400.615463,536.266849
506.428965,0.000000,-8734.430116,229.828649
506.429290,-1554.432478,-9178.553681,-536.266849
506.429614,-2368.659014,-9104.533087,-153.219100
506.429938,-444.123565,-8882.471304,536.266849
506.430262,814.226536,-9104.533087,536.266849
506.430587,-1036.288319,-10066.800811,-153.219100
506.430911,-3478.967927,-10362.883188,-842.705048
506.431235,-2072.576638,-9474.636058,0.000000
506.431559,740.205942,-8734.430116,229.828649
506.431884,1406.391290,-9252.574275,-1072.533697
506.432208,0.000000,-10362.883188,-995.924147
506.432532,148.041188,-10732.986159,-383.047749
506.432856,2072.576638,-10140.821405,0.000000
506.433181,2146.597232,-10510.924376,-766.095498
506.433505,-888.247130,-11547.212695,-1608.800546
506.433829,-2442.679609,-11843.295072,-1225.752797
506.434153,-370.102971,-11621.233289,-306.438199
506.434477,2072.576638,-10955.047942,0.000000
506.434802,814.226536,-10955.047942,-459.657299
506.435126,-296.082377,-10140.821405,-842.705048
506.435450,1036.288319,-9474.636058,-229.828649
506.435774,2294.638420,-9252.574275,-459.657299
506.436099,148.041188,-10436.903782,-1455.581446
506.436423,-2960.823768,-10436.903782,-2298.286494
506.436747,-2146.597232,-9178.553681,-689.485948
506.437071,740.205942,-8586.388927,0.000000
506.437396,1850.514855,-9622.677246,0.000000
506.437720,370.102971,-10066.800811,-612.876398
506.438044,0.000000,-9474.636058,-383.047749
506.438368,1628.453072,-8142.265362,536.266849
506.438693,1924.535449,-9474.636058,229.828649
506.439017,-518.144159,-10066.800811,76.609550
506.439341,-1850.514855,-10436.903782,0.000000
506.439665,-518.144159,-9326.594869,612.876398
506.439990,1036.288319,-8808.450710,76.609550
506.440314,222.061783,-9104.533087,-383.047749
506.440638,-962.267725,-9178.553681,-229.828649
506.440962,666.185348,-8660.409521,536.266849
506.441287,1850.514855,-7994.224174,0.000000
506.441611,0.000000,-8956.491898,-612.876398
506.441935,-3478.967927,-9326.594869,-1378.971896
506.442259,-2738.761985,-8586.388927,-1225.752797
506.442583,444.123565,-7846.182985,-229.828649
506.442908,1554.432478,-8660.409521,0.000000
506.443232,-148.041188,-9844.739029,689.485948
506.443556,-740.205942,-9104.533087,0.000000
506.443880,740.205942,-8660.409521,612.876398
506.444205,888.247130,-9252.574275,612.876398
506.444529,-1036.288319,-11251.130318,-383.047749
506.444853,-2368.659014,-11843.295072,-612.876398
506.445177,-962.267725,-10807.006753,76.609550
506.445502,1184.329507,-10288.862594,612.876398
506.445826,1332.370696,-11251.130318,76.609550
506.446150,0.000000,-11399.171507,-153.219100
506.446474,1184.329507,-10510.924376,459.657299
506.446799,2220.617826,-9918.759623,229.828649
506.447123,592.164754,-10732.986159,-995.924147
506.447447,-2516.700203,-11029.068536,-1762.019645
506.447771,-1998.556043,-10436.903782,-1072.533697
506.448095,1480.411884,-9622.677246,383.047749
506.448419,2516.700203,-9474.636058,459.657299
506.448743,592.164754,-9770.718434,306.438199
506.449067,-148.041188,-9400.615463,0.000000
506.449391,962.267725,-9178.553681,842.705048
506.449716,1554.432478,-10140.821405,383.047749
506.450040,-592.164754,-11029.068536,-229.828649
506.450364,-2886.803174,-11029.068536,0.000000
506.450688,-1628.453072,-10584.944971,229.828649
506.451012,518.144159,-10140.821405,995.924147
506.451336,1258.350101,-10732.986159,383.047749
506.451660,-666.185348,-10436.903782,229.828649
506.451984,-296.082377,-9770.718434,842.705048
506.452308,1998.556043,-9326.594869,919.314598
506.452633,1110.308913,-9474.636058,689.485948
506.452957,-1480.411884,-9696.697840,-229.828649
506.453281,-2072.576638,-8216.285956,76.609550
506.453605,222.061783,-6809.894666,842.705048
506.453929,1850.514855,-7105.977043,1455.581446
506.454253,592.164754,-8364.327145,1302.362347
506.454577,-1184.329507,-8142.265362,919.314598
506.454901,-148.041188,-7031.956449,1378.971896
506.455225,370.102971,-7179.997637,995.924147
506.455550,-1036.288319,-8882.471304,0.000000
506.455874,-2664.741391,-9770.718434,306.438199
506.456198,-1702.473667,-8956.491898,842.705048
506.456522,296.082377,-8882.471304,1455.581446
506.456846,0.000000,-9844.739029,229.828649
506.457170,-1258.350101,-10658.965565,-383.047749
506.457494,-444.123565,-9844.739029,-153.219100
506.457818,2072.576638,-9474.636058,306.438199
506.458142,2072.576638,-10214.842000,0.000000
506.458467,-370.102971,-11103.089130,-306.438199
506.458791,-1480.411884,-10288.862594,-536.266849
506.459115,888.247130,-9474.636058,0.000000
506.459439,2368.659014,-9474.636058,76.609550
506.459763,444.123565,-10658.965565,-153.219100
506.460087,-1554.432478,-10288.862594,-459.657299
506.460411,-740.205942,-8956.491898,306.438199
506.460735,814.226536,-8956.491898,0.000000
506.461059,-740.205942,-10288.862594,-995.924147
506.461384,-2294.638420,-11103.089130,-1915.238745
506.461708,-1776.494261,-10807.006753,-612.876398
506.462032,222.061783,-9918.759623,-842.705048
506.462356,370.102971,-10214.842000,-1455.581446
506.462680,-518.144159,-11695.253884,-1915.238745
506.463004,0.000000,-11399.171507,-1455.581446
506.463328,2220.617826,-10436.903782,-1072.533697
506.463652,2590.720797,-10214.842000,-1302.362347
506.463976,-518.144159,-10955.047942,-2145.067394
506.464301,-1554.432478,-11177.109724,-1991.848295
506.464625,740.205942,-9622.677246,-1072.533697
506.464949,2220.617826,-9030.512492,-306.438199
506.465273,370.102971,-9548.656652,-1149.143247
506.465597,-1776.494261,-9696.697840,-1455.581446
506.465921,-222.061783,-8438.347739,-229.828649
506.466245,1110.308913,-8364.327145,-229.828649
506.466569,-148.041188,-9696.697840,-766.095498
506.466893,-2590.720797,-10510.924376,-842.705048
506.467218,-2146.597232,-10436.903782,229.828649
506.467542,444.123565,-9918.759623,919.314598
506.467866,814.226536,-9548.656652,-689.485948
506.468190,-518.144159,-9474.636058,-842.705048
506.468514,0.000000,-9622.677246,-306.438199
506.468838,3034.844362,-9918.759623,306.438199
506.469162,3552.988522,-9622.677246,689.485948
506.469486,666.185348,-9474.636058,-229.828649
506.469810,-1406.391290,-8734.430116,-766.095498
506.470135,-222.061783,-7550.100608,-306.438199
506.470459,1332.370696,-6809.894666,-459.657299
506.470783,0.000000,-7624.121203,-383.047749
506.471107,-2220.617826,-8586.388927,0.000000
506.471431,-1480.411884,-7328.038826,766.095498
506.471755,370.102971,-6661.853478,842.705048
506.472079,-814.226536,-7846.182985,0.000000
506.472403,-3627.009116,-9622.677246,-306.438199
506.472727,-3108.864956,-10436.903782,612.876398
506.473052,-444.123565,-9992.780217,1685.410096
506.473376,888.247130,-9992.780217,612.876398
506.473700,148.041188,-10807.006753,0.000000
506.474024,518.144159,-11473.192101,-153.219100
506.474348,3034.844362,-11251.130318,153.219100
506.474672,3923.091493,-11399.171507,-459.657299
506.474996,1110.308913,-12287.418637,-766.095498
506.475320,-1480.411884,-11695.253884,-1149.143247
506.475644,-740.205942,-10288.862594,-842.705048
506.475969,740.205942,-9474.636058,-459.657299
506.476293,-370.102971,-10066.800811,-766.095498
506.476617,-2516.700203,-10362.883188,-612.876398
506.476941,-1702.473667,-9030.512492,383.047749
506.477265,1628.453072,-8068.244768,1532.190996
506.477589,1998.556043,-9474.636058,1378.971896
506.477913,-222.061783,-10807.006753,1455.581446
506.478237,-1332.370696,-9918.759623,1072.533697
506.478561,222.061783,-9770.718434,842.705048
506.478885,1332.370696,-10066.800811,766.095498
506.479210,740.205942,-11251.130318,536.266849
506.479534,1332.370696,-11251.130318,459.657299
506.479858,2590.720797,-10066.800811,919.314598
506.480182,3552.988522,-10288.862594,689.485948
506.480506,296.082377,-10881.027347,0.000000
506.480830,-2590.720797,-10214.842000,-459.657299
506.481154,-2368.659014,-8438.347739,-306.438199
506.481478,-370.102971,-7254.018232,995.924147
506.481802,-962.267725,-7994.224174,689.485948
506.482127,-2960.823768,-8364.327145,383.047749
506.482451,-2368.659014,-7105.977043,1225.752797
506.482775,370.102971,-6513.812290,2068.457845
506.483099,666.185348,-7254.018232,995.924147
506.483423,-1702.473667,-8808.450710,383.047749
506.483747,-2812.782580,-8808.450710,612.876398
506.484071,-962.267725,-8808.450710,766.095498
506.484395,1406.391290,-9548.656652,612.876398
506.484719,888.247130,-10362.883188,-306.438199
506.485044,444.123565,-10658.965565,0.000000
506.485368,1258.350101,-10066.800811,0.000000
506.485692,2368.659014,-10436.903782,0.000000
506.486016,370.102971,-11177.109724,-612.876398
506.486340,-1850.514855,-11103.089130,-1608.800546
506.486664,-2072.576638,-9400.615463,-1378.971896
506.486988,-592.164754,-7550.100608,-689.485948
506.487312,0.000000,-8068.244768,-766.095498
506.487636,-1184.329507,-9400.615463,-1149.143247
506.487961,-1702.473667,-8586.388927,-995.924147
506.488285,-148.041188,-7105.977043,-612.876398
506.488609,74.020594,-8216.285956,-995.924147
506.488933,-2294.638420,-10510.924376,-1455.581446
506.489257,-2812.782580,-11843.295072,-842.705048
506.489581,-592.164754,-10881.027347,-229.828649
506.489905,1998.556043,-11399.171507,0.000000
506.490229,1702.473667,-11695.253884,-612.876398
506.490553,1406.391290,-12657.521608,-459.657299
506.490878,2960.823768,-12287.418637,-459.657299
506.491202,3849.070898,-11621.233289,-153.219100
506.491526,1924.535449,-11843.295072,-1302.362347
506.491850,-592.164754,-11621.233289,-2298.286494
506.492174,-814.226536,-9918.759623,-1991.848295
506.492498,1554.432478,-9252.574275,-1072.533697
506.492822,1702.473667,-9252.574275,-1225.752797
506.493146,-740.205942,-10214.842000,-1762.019645
506.493470,-2072.576638,-8734.430116,-1072.533697
506.493795,-888.247130,-7402.059420,0.000000
506.494119,74.020594,-8438.347739,-459.657299
506.494443,-1924.535449,-10436.903782,-459.657299
506.494767,-3256.906145,-10881.027347,0.000000
506.495091,-962.267725,-9178.553681,459.657299
506.495415,1036.288319,-9178.553681,842.705048
506.495739,1924.535449,-10140.821405,306.438199
506.496063,1258.350101,-10436.903782,0.000000
506.496387,1628.453072,-9622.677246,306.438199
506.496712,2368.659014,-8882.471304,153.219100
506.497036,1036.288319,-9622.677246,0.000000
506.497360,-1554.432478,-10436.903782,-1915.238745
506.497684,-1480.411884,-8438.347739,-919.314598
506.498008,74.020594,-7402.059420,-459.657299
506.498332,370.102971,-7476.080014,-383.047749
506.498656,-1406.391290,-8364.327145,0.000000
506.498980,-2442.679609,-8290.306550,229.828649
506.499304,-1184.329507,-6957.935855,689.485948
506.499629,370.102971,-7624.121203,1149.143247
506.499953,-2072.576638,-9252.574275,612.876398
506.500277,-3923.091493,-9696.697840,76.609550
506.500601,-2146.597232,-9474.636058,76.609550
506.500925,888.247130,-9178.553681,689.485948
506.501249,1702.473667,-10510.924376,229.828649
506.501573,1850.514855,-11843.295072,76.609550
506.501897,3034.844362,-11325.150913,459.657299
506.502221,4145.153275,-11103.089130,612.876398
506.502546,2368.659014,-11473.192101,-459.657299
506.502870,-518.144159,-12879.583391,-1072.533697
506.503194,-1258.350101,-11843.295072,-766.095498
506.503518,518.144159,-10288.862594,153.219100
506.503842,1036.288319,-9770.718434,76.609550
506.504166,-518.144159,-10807.006753,-383.047749
506.504490,-1702.473667,-10584.944971,0.000000
506.504814,74.020594,-8808.450710,536.266849
506.505138,888.247130,-7772.162391,153.219100
506.505463,-740.205942,-9474.636058,-229.828649
506.505787,-2442.679609,-9844.739029,-612.876398
506.506111,-1184.329507,-9252.574275,459.657299
506.506435,1258.350101,-9104.533087,1149.143247
506.506759,2146.597232,-9918.759623,459.657299
506.507083,1850.514855,-10658.965565,76.609550
506.507407,2294.638420,-10436.903782,1225.752797
506.507731,4441.235652,-10584.944971,1685.410096
506.508055,3108.864956,-11103.089130,919.314598
506.508380,-666.185348,-11251.130318,-153.219100
506.508704,-2368.659014,-10288.862594,-383.047749
506.509028,-1184.329507,-9474.636058,689.485948
506.509352,0.000000,-9252.574275,842.705048
506.509676,-1480.411884,-8956.491898,229.828649
506.510000,-3701.029710,-8068.244768,76.609550
506.510324,-2886.803174,-7328.038826,842.705048
506.510648,-814.226536,-7254.018232,766.095498
506.510972,-2368.659014,-8068.244768,536.266849
506.511297,-4293.194464,-8290.306550,229.828649
506.511621,-2812.782580,-7550.100608,842.705048
506.511945,444.123565,-7772.162391,1685.410096
506.512269,1258.350101,-8290.306550,1149.143247
506.512593,444.123565,-8808.450710,76.609550
506.512917,296.082377,-8660.409521,383.047749
506.513241,2516.700203,-8660.409521,919.314598
506.513565,2812.782580,-9622.677246,536.266849
506.513889,740.205942,-10658.965565,0.000000
506.514213,-1036.288319,-10140.821405,-229.828649
506.514538,0.000000,-8660.409521,0.000000
506.514862,962.267725,-9252.574275,-153.219100
506.515186,-296.082377,-9622.677246,-919.314598
506.515510,-2368.659014,-9474.636058,-1455.581446
506.515834,-1702.473667,-8808.450710,-689.485948
506.516158,222.061783,-8438.347739,-536.266849
506.516482,-592.164754,-10066.800811,-1378.971896
506.516806,-2886.803174,-11621.233289,-1685.410096
506.517130,-2220.617826,-11029.068536,-1378.971896
506.517455,666.185348,-11029.068536,-995.924147
506.517779,1554.432478,-12139.377449,-1225.752797
506.518103,518.144159,-12583.501014,-1455.581446
506.518427,962.267725,-11991.336260,-995.924147
506.518751,3701.029710,-11769.274478,0.000000
506.519075,4367.215058,-12435.459826,-536.266849
506.519399,2368.659014,-13175.665768,-612.876398
506.519723,-296.082377,-12139.377449,-1072.533697
506.520047,518.144159,-10658.965565,-842.705048
506.520372,1998.556043,-9844.739029,-995.924147
506.520696,592.164754,-10362.883188,-1378.971896
506.521020,-1702.473667,-10214.842000,-1685.410096
506.521344,-1554.432478,-8290.306550,-1072.533697
506.521668,666.185348,-7328.038826,-383.047749
506.521992,888.247130,-8956.491898,-1072.533697
506.522316,-1850.514855,-9696.697840,-1072.533697
506.522640,-2664.741391,-8586.388927,-612.876398
506.522964,-444.123565,-7105.977043,-383.047749
506.523289,888.247130,-7846.182985,-689.485948
506.523613,148.041188,-9252.574275,0.000000
506.523937,74.020594,-9548.656652,1378.971896
506.524261,1110.308913,-8882.471304,1685.410096
506.524585,1258.350101,-8734.430116,1302.362347
506.524909,-740.205942,-10436.903782,459.657299
506.525233,-2886.803174,-10510.924376,0.000000
506.525557,-1776.494261,-9104.533087,229.828649
506.525881,666.185348,-8660.409521,842.705048
506.526206,74.020594,-9252.574275,0.000000
506.526530,-1406.391290,-8956.491898,-459.657299
506.526854,-1406.391290,-7402.059420,0.000000
506.527178,0.000000,-7105.977043,76.609550
506.527502,0.000000,-8068.244768,-306.438199
506.527826,-1998.556043,-9252.574275,-1149.143247
506.528150,-2886.803174,-8216.285956,-689.485948
506.528474,-888.247130,-6883.915261,76.609550
506.528798,1332.370696,-8290.306550,153.219100
506.529123,666.185348,-10214.842000,0.000000
506.529447,0.000000,-10362.883188,383.047749
506.529771,1406.391290,-9400.615463,612.876398
506.530095,2738.761985,-9992.780217,536.266849
506.530419,1184.329507,-11843.295072,0.000000
506.530743,-592.164754,-12287.418637,76.609550
506.531067,-222.061783,-11399.171507,536.266849
506.531391,1924.535449,-10584.944971,-306.438199
506.531715,1776.494261,-11103.089130,-919.314598
506.532040,0.000000,-11843.295072,-1532.190996
506.532364,0.000000,-11399.171507,-612.876398
506.532688,1184.329507,-10584.944971,0.000000
506.533012,1332.370696,-10881.027347,-153.219100
506.533336,-1184.329507,-11325.150913,-536.266849
506.533660,-2072.576638,-11399.171507,-459.657299
506.533984,-1184.329507,-9622.677246,153.219100
506.534308,0.000000,-9918.759623,612.876398
506.534632,148.041188,-11547.212695,919.314598
506.534957,148.041188,-11103.089130,1302.362347
506.535281,1924.535449,-8956.491898,2068.457845
506.535605,3108.864956,-7994.224174,1915.238745
506.535929,1776.494261,-9252.574275,612.876398
506.536253,-666.185348,-9844.739029,-306.438199
506.536577,-888.247130,-8882.471304,536.266849
506.536901,1036.288319,-7550.100608,689.485948
506.537225,1184.329507,-7920.203579,306.438199
506.537549,0.000000,-8956.491898,76.609550
506.537874,-814.226536,-8364.327145,0.000000
506.538198,444.123565,-7624.121203,306.438199
506.538522,222.061783,-8364.327145,919.314598
506.538846,-1628.453072,-10140.821405,766.095498
506.539170,-2886.803174,-9400.615463,842.705048
506.539494,-2368.659014,-7846.182985,1225.752797
506.539818,-1110.308913,-7698.141797,919.314598
506.540142,-1628.453072,-9474.636058,536.266849
506.540466,-2442.679609,-10140.821405,383.047749
506.540791,-888.247130,-8364.327145,1915.238745
506.541115,962.267725,-7920.203579,1608.800546
506.541439,-222.061783,-9252.574275,0.000000
506.541763,-2368.659014,-10658.965565,-1225.752797
506.542087,-2664.741391,-9844.739029,-919.314598
506.542411,-740.205942,-9178.553681,-536.266849
506.542735,814.226536,-9622.677246,-229.828649
506.543059,888.247130,-9992.780217,-612.876398
506.543383,814.226536,-9548.656652,-306.438199
506.543708,2294.638420,-8660.409521,-229.828649
506.544032,2590.720797,-9400.615463,-689.485948
506.544356,370.102971,-10955.047942,-1149.143247
506.544680,-1480.411884,-11103.089130,-919.314598
506.545004,-592.164754,-9326.594869,76.609550
506.545328,1036.288319,-8512.368333,0.000000
506.545652,1332.370696,-9992.780217,-459.657299
506.545976,222.061783,-11473.192101,-306.438199
506.546300,1036.288319,-10732.986159,-1378.971896
506.546625,1776.494261,-9918.759623,-1378.971896
506.546949,1332.370696,-11103.089130,-1302.362347
506.547273,-666.185348,-12287.418637,-1838.629195
506.547597,-1480.411884,-11843.295072,-1455.581446
506.547921,444.123565,-11029.068536,-842.705048
506.548245,1628.453072,-11177.109724,-1455.581446
506.548569,666.185348,-12213.398043,-1838.629195
506.548893,740.205942,-10881.027347,-1072.533697
506.549217,1850.514855,-9400.615463,0.000000
506.549541,2220.617826,-9770.718434,153.219100
506.549865,-148.041188,-10881.027347,-536.266849
506.550189,-2812.782580,-10436.903782,-842.705048
506.550513,-2590.720797,-8142.265362,-536.266849
506.550837,-740.205942,-7328.038826,-459.657299
506.551161,0.000000,-8068.244768,-689.485948
506.551486,-962.267725,-9178.553681,-153.219100
506.551810,-148.041188,-8142.265362,0.000000
506.552134,1184.329507,-6587.832884,0.000000
506.552458,296.082377,-7772.162391,-306.438199
506.552782,-1998.556043,-9844.739029,-766.095498
506.553106,-2590.720797,-9548.656652,-612.876398
506.553430,-296.082377,-8142.265362,306.438199
506.553754,1110.308913,-8438.347739,459.657299
506.554078,444.123565,-10066.800811,995.924147
506.554402,-444.123565,-9992.780217,-306.438199
506.554726,666.185348,-8586.388927,1149.143247
506.555050,1776.494261,-9030.512492,1455.581446
506.555374,0.000000,-10362.883188,153.219100
506.555698,-2664.741391,-10510.924376,0.000000
506.556022,-3256.906145,-8660.409521,459.657299
506.556346,-1406.391290,-7476.080014,0.000000
506.556671,-444.123565,-8882.471304,-919.314598
506.556995,-1480.411884,-9696.697840,-1072.533697
506.557319,-962.267725,-8882.471304,-459.657299
506.557643,1554.432478,-8068.244768,306.438199
506.557967,2294.638420,-9252.574275,0.000000
506.558291,222.061783,-11177.109724,-306.438199
506.558615,-740.205942,-11547.212695,-536.266849
506.558939,740.205942,-10436.903782,0.000000
506.559263,2294.638420,-10807.006753,229.828649
506.559587,2368.659014,-11991.336260,229.828649
506.559911,1776.494261,-12435.459826,153.219100
506.560235,1924.535449,-11177.109724,995.924147
506.560559,2368.659014,-10881.027347,536.266849
506.560883,814.226536,-11621.233289,-383.047749
506.561207,-1480.411884,-12287.418637,-689.485948
506.561531,-2220.617826,-10214.842000,-153.219100
506.561856,-148.041188,-9770.718434,459.657299
506.562180,518.144159,-10140.821405,-153.219100
506.562504,-1332.370696,-11029.068536,-383.047749
506.562828,-1702.473667,-9844.739029,0.000000
506.563152,0.000000,-8734.430116,689.485948
506.563476,962.267725,-9474.636058,1072.533697
506.563800,-148.041188,-10955.047942,919.314598
506.564124,-1480.411884,-9844.739029,1072.533697
506.564448,-370.102971,-7698.141797,1225.752797
506.564772,1776.494261,-7994.224174,1532.190996
506.565096,1776.494261,-9474.636058,1149.143247
506.565420,666.185348,-9400.615463,1149.143247
506.565744,518.144159,-7402.059420,2451.505594
506.566068,2294.638420,-6883.915261,2068.457845
506.566392,1110.308913,-8586.388927,995.924147
506.566716,-1628.453072,-9696.697840,-612.876398
506.567041,-2664.741391,-8734.430116,153.219100
506.567365,-1702.473667,-7772.162391,536.266849
506.567689,-1036.288319,-7994.224174,459.657299
506.568013,-1628.453072,-8586.388927,0.000000
506.568337,-1776.494261,-8438.347739,995.924147
506.568661,-888.247130,-7624.121203,306.438199
506.568985,148.041188,-8586.388927,612.876398
506.569309,-1184.329507,-9918.759623,0.000000
506.569633,-2516.700203,-9548.656652,76.609550
506.569957,-518.144159,-8438.347739,919.314598
506.570281,2072.576638,-8364.327145,842.705048
506.570605,1850.514855,-9770.718434,153.219100
506.570929,0.000000,-11177.109724,-459.657299
506.571253,296.082377,-11103.089130,0.000000
506.571577,1850.514855,-9844.739029,-536.266849
506.571901,2072.576638,-10732.986159,-689.485948
506.572226,-148.041188,-11991.336260,-1225.752797
506.572550,-1036.288319,-12213.398043,-1302.362347
506.572874,-148.041188,-11103.089130,-766.095498
506.573198,814.226536,-10584.944971,-1455.581446
506.573522,0.000000,-11621.233289,-1532.190996
506.573846,0.000000,-11547.212695,-1455.581446
506.574170,1332.370696,-9992.780217,-306.438199
506.574494,2072.576638,-9992.780217,-612.876398
506.574818,74.020594,-11325.150913,-1378.971896
506.575142,-1776.494261,-11769.274478,-1149.143247
506.575466,-518.144159,-10510.924376,-536.266849
506.575790,2146.597232,-9474.636058,0.000000
506.576114,1702.473667,-9474.636058,-995.924147
506.576438,0.000000,-10436.903782,-1149.143247
506.576762,148.041188,-10288.862594,-536.266849
506.577086,1702.473667,-9918.759623,0.000000
506.577410,1628.453072,-9844.739029,0.000000
506.577735,-814.226536,-10436.903782,0.000000
506.578059,-1258.350101,-10066.800811,-153.219100
506.578383,-666.185348,-8660.409521,0.000000
506.578707,148.041188,-8290.306550,-459.657299
506.579031,-1110.308913,-9104.533087,-459.657299
506.579355,-1702.473667,-9474.636058,-536.266849
506.579679,-370.102971,-8364.327145,842.705048
506.580003,666.185348,-7920.203579,612.876398
506.580327,-962.267725,-8734.430116,-995.924147
506.580651,-3552.988522,-9030.512492,-842.705048
506.580975,-2960.823768,-7994.224174,-689.485948
506.581299,-370.102971,-7476.080014,-153.219100
506.581623,888.247130,-8364.327145,306.438199
506.581947,-370.102971,-9474.636058,536.266849
506.582271,0.000000,-9030.512492,536.266849
506.582595,1406.391290,-7920.203579,0.000000
506.582920,1406.391290,-8438.347739,153.219100
506.583244,-1406.391290,-10066.800811,-153.219100
506.583568,-2590.720797,-11029.068536,153.219100
506.583892,-1036.288319,-10140.821405,459.657299
506.584216,666.185348,-9474.636058,306.438199
506.584540,592.164754,-10140.821405,-383.047749
506.584864,-370.102971,-10732.986159,-919.314598
506.585188,370.102971,-9696.697840,-459.657299
506.585512,1480.411884,-9400.615463,-612.876398
506.585836,666.185348,-10214.842000,-1685.410096
506.586160,-1480.411884,-10807.006753,-1149.143247
506.586484,-814.226536,-10214.842000,-766.095498
506.586808,1998.556043,-9622.677246,-459.657299
506.587132,2516.700203,-10288.862594,-383.047749
506.587456,1110.308913,-11473.192101,-383.047749
506.587780,1036.288319,-11325.150913,229.828649
506.588105,2442.679609,-10362.883188,842.705048
506.588429,2368.659014,-10658.965565,919.314598
506.588753,0.000000,-11843.295072,-229.828649
506.589077,-1258.350101,-12583.501014,306.438199
506.589401,-148.041188,-11621.233289,689.485948
506.589725,814.226536,-10436.903782,842.705048
506.590049,740.205942,-10732.986159,153.219100
506.590373,-444.123565,-10955.047942,0.000000
506.590697,0.000000,-9548.656652,536.266849
506.591021,1332.370696,-8216.285956,536.266849
506.591345,222.061783,-8290.306550,0.000000
506.591669,-2294.638420,-8956.491898,0.000000
506.591993,-2146.597232,-8512.368333,153.219100
506.592317,-148.041188,-6439.791695,1225.752797
506.592641,962.267725,-6587.832884,842.705048
506.592965,74.020594,-8068.244768,1072.533697
506.593290,-592.164754,-8142.265362,1302.362347
506.593614,296.082377,-6883.915261,2221.676944
506.593938,666.185348,-6957.935855,1915.238745
506.594262,0.000000,-10140.821405,1455.581446
506.594586,-1628.453072,-10955.047942,1455.581446
506.594910,-1184.329507,-9104.533087,1685.410096
506.595234,-148.041188,-8290.306550,1302.362347
506.595558,-222.061783,-9400.615463,536.266849
506.595882,-592.164754,-10658.965565,306.438199
506.596206,0.000000,-9844.739029,689.485948
506.596530,444.123565,-8290.306550,766.095498
506.596854,-592.164754,-9326.594869,-536.266849
506.597178,-2738.761985,-10584.944971,-1532.190996
506.597502,-2960.823768,-9992.780217,-1302.362347
506.597826,-1406.391290,-8438.347739,-612.876398
506.598150,-370.102971,-8216.285956,153.219100
506.598475,-296.082377,-10362.883188,0.000000
506.598799,-888.247130,-10732.986159,-229.828649
506.599123,888.247130,-9178.553681,919.314598
506.599447,1702.473667,-9326.594869,766.095498
506.599771,740.205942,-11695.253884,306.438199
506.600095,-888.247130,-12657.521608,0.000000
506.600419,-370.102971,-11251.130318,306.438199
506.600743,1184.329507,-9622.677246,0.000000
506.601067,1406.391290,-10510.924376,-689.485948
506.601391,1258.350101,-12065.356855,-1838.629195
506.601715,1332.370696,-11103.089130,-995.924147
506.602039,2590.720797,-9918.759623,-766.095498
506.602363,2146.597232,-10362.883188,-1532.190996
506.602687,-518.144159,-11621.233289,-2451.505594
506.603011,-1554.432478,-10955.047942,-1762.019645
506.603335,222.061783,-9474.636058,-612.876398
506.603660,1480.411884,-9622.677246,-536.266849
506.603984,74.020594,-10732.986159,-766.095498
506.604308,-1184.329507,-10214.842000,-229.828649
506.604632,222.061783,-8882.471304,612.876398
506.604956,1702.473667,-8882.471304,536.266849
506.605280,0.000000,-9992.780217,0.000000
506.605604,-1924.535449,-9770.718434,-306.438199
506.605928,-962.267725,-9030.512492,0.000000
506.606252,666.185348,-8142.265362,0.000000
506.606576,1332.370696,-8734.430116,-153.219100
506.606900,518.144159,-9844.739029,-919.314598
506.607224,370.102971,-9474.636058,-536.266849
506.607548,1628.453072,-8290.306550,-306.438199
506.607872,1110.308913,-8438.347739,-383.047749
506.608196,-1110.308913,-9474.636058,-1455.581446
506.608520,-2220.617826,-9474.636058,-842.705048
506.608845,-1258.350101,-7476.080014,76.609550
506.609169,444.123565,-7772.162391,0.000000
506.609493,-740.205942,-8660.409521,-459.657299
506.609817,-1998.556043,-8808.450710,0.000000
506.610141,-888.247130,-7476.080014,1378.971896
506.610465,888.247130,-7328.038826,459.657299
506.610789,-888.247130,-9252.574275,0.000000
506.611113,-3256.906145,-10658.965565,-383.047749
506.611437,-2516.700203,-10066.800811,-383.047749
506.611761,-518.144159,-9696.697840,-306.438199
506.612085,0.000000,-10436.903782,-612.876398
506.612409,-444.123565,-11769.274478,-842.705048
506.612733,518.144159,-11843.295072,-229.828649
506.613057,1924.535449,-10881.027347,383.047749
506.613381,1924.535449,-10881.027347,-383.047749
506.613705,444.123565,-11843.295072,-612.876398
506.614030,-740.205942,-11843.295072,-459.657299
506.614354,148.041188,-10140.821405,0.000000
506.614678,1702.473667,-9326.594869,0.000000
506.615002,444.123565,-10214.842000,76.609550
506.615326,-370.102971,-11103.089130,0.000000
506.615650,-148.041188,-9696.697840,0.000000
506.615974,666.185348,-7846.182985,0.000000
506.616298,-518.144159,-9770.718434,-383.047749
506.616622,-2368.659014,-11917.315666,-536.266849
506.616946,-2294.638420,-11843.295072,-306.438199
506.617270,-444.123565,-10510.924376,536.266849
506.617594,666.185348,-10066.800811,1378.971896
506.617918,1036.288319,-11325.150913,1455.581446
506.618242,1258.350101,-11177.109724,1455.581446
506.618566,1258.350101,-9474.636058,1532.190996
506.618890,1776.494261,-9474.636058,919.314598
506.619214,0.000000,-10288.862594,459.657299
506.619539,-1110.308913,-9696.697840,612.876398
506.619863,0.000000,-7105.977043,1762.019645
506.620187,1036.288319,-6365.771101,1149.143247
506.620511,74.020594,-7105.977043,459.657299
506.620835,-1258.350101,-7920.203579,919.314598
506.621159,-1628.453072,-6809.894666,1302.362347
506.621483,-148.041188,-5773.606348,1455.581446
506.621807,-814.226536,-6883.915261,1225.752797
506.622131,-2442.679609,-8734.430116,689.485948
506.622455,-2442.679609,-8734.430116,919.314598
506.622779,-444.123565,-8290.306550,1149.143247
506.623103,1184.329507,-8586.388927,1378.971896
506.623427,1480.411884,-9770.718434,1378.971896
506.623751,1850.514855,-10362.883188,1532.190996
506.624075,2442.679609,-9992.780217,1455.581446
506.624399,2442.679609,-9844.739029,459.657299
506.624724,0.000000,-10807.006753,-153.219100
506.625048,-1110.308913,-10807.006753,-306.438199
506.625372,0.000000,-9844.739029,-153.219100
506.625696,666.185348,-8586.388927,-229.828649
506.626020,222.061783,-9178.553681,-1072.533697
506.626344,-1406.391290,-10214.842000,-1762.019645
506.626668,-1628.453072,-9918.759623,-1149.143247
506.626992,-296.082377,-8808.450710,-1072.533697
506.627316,-148.041188,-9474.636058,-1225.752797
506.627640,-2146.597232,-11473.192101,-1225.752797
506.627964,-2220.617826,-11917.315666,-919.314598
506.628288,-1184.329507,-11325.150913,-383.047749
506.628612,0.000000,-11621.233289,-229.828649
506.628936,888.247130,-12657.521608,-153.219100
506.629260,2072.576638,-13471.748144,0.000000
506.629584,2960.823768,-11843.295072,766.095498
506.629909,3552.988522,-11177.109724,-153.219100
506.630233,1480.411884,-11843.295072,-766.095498
506.630557,0.000000,-11843.295072,-1762.019645
506.630881,148.041188,-9844.739029,-1762.019645
506.631205,888.247130,-8438.347739,-1225.752797
506.631529,888.247130,-8512.368333,-1762.019645
506.631853,-814.226536,-9178.553681,-1762.019645
506.632177,-1924.535449,-7624.121203,-1072.533697
506.632501,-296.082377,-7105.977043,-536.266849
506.632825,-962.267725,-7328.038826,-612.876398
506.633149,-2590.720797,-9178.553681,0.000000
506.633473,-2886.803174,-8956.491898,0.000000
506.633797,-1702.473667,-8660.409521,995.924147
506.634121,0.000000,-9030.512492,1072.533697
506.634445,666.185348,-9770.718434,612.876398
506.634769,1036.288319,-9770.718434,612.876398
506.635094,2220.617826,-9030.512492,612.876398
506.635418,2516.700203,-8808.450710,536.266849
506.635742,1480.411884,-10288.862594,-536.266849
506.636066,-518.144159,-10214.842000,-766.095498
506.636390,-222.061783,-9178.553681,-995.924147
506.636714,0.000000,-7920.203579,-612.876398
506.637038,-740.205942,-7920.203579,-1378.971896
506.637362,-2294.638420,-9030.512492,-1685.410096
506.637686,-3034.844362,-8512.368333,-1225.752797
506.638010,-1998.556043,-7105.977043,0.000000
506.638334,-1998.556043,-7698.141797,229.828649
506.638658,-2516.700203,-9622.677246,766.095498
506.638982,-3034.844362,-10214.842000,536.266849
506.639306,-1480.411884,-8808.450710,612.876398
506.639630,148.041188,-8142.265362,229.828649
506.639954,962.267725,-9696.697840,-306.438199
506.640279,1998.556043,-11251.130318,229.828649
506.640603,3775.050304,-10732.986159,153.219100
506.640927,4737.318029,-10214.842000,689.485948
506.641251,3997.112087,-11843.295072,-766.095498
506.641575,2146.597232,-12805.562797,-1532.190996
506.641899,1184.329507,-12139.377449,-1455.581446
506.642223,962.267725,-10658.965565,-1225.752797
506.642547,296.082377,-10066.800811,-1378.971896
506.642871,-1036.288319,-11103.089130,-1532.190996
506.643195,-1554.432478,-10955.047942,-459.657299
506.643519,-666.185348,-8586.388927,0.000000
506.643843,-296.082377,-8438.347739,-459.657299
506.644167,-2368.659014,-10140.821405,-689.485948
506.644491,-3404.947333,-10732.986159,0.000000
506.644815,-1998.556043,-10140.821405,842.705048
506.645139,0.000000,-9622.677246,995.924147
506.645464,0.000000,-10584.944971,1225.752797
506.645788,370.102971,-11251.130318,459.657299
506.646112,1998.556043,-10362.883188,766.095498
506.646436,3478.967927,-9918.759623,919.314598
506.646760,2368.659014,-10140.821405,612.876398
506.647084,296.082377,-11399.171507,383.047749
506.647408,444.123565,-10881.027347,229.828649
506.647732,1406.391290,-8216.285956,1225.752797
506.648056,1776.494261,-7328.038826,1072.533697
506.648380,-666.185348,-7920.203579,842.705048
506.648704,-1406.391290,-8068.244768,1072.533697
506.649028,-592.164754,-7031.956449,2145.067394
506.649353,0.000000,-5847.626942,2374.896044
506.649677,-1850.514855,-7179.997637,1838.629195
506.650001,-3552.988522,-8290.306550,1532.190996
506.650325,-2516.700203,-7476.080014,1608.800546
506.650649,-1332.370696,-6365.771101,1072.533697
506.650973,-2146.597232,-7031.956449,383.047749
506.651297,-2146.597232,-9474.636058,612.876398
506.651621,-222.061783,-10214.842000,1149.143247
506.651946,2294.638420,-9474.636058,1378.971896
506.652270,2590.720797,-9992.780217,1608.800546
506.652594,814.226536,-11917.315666,842.705048
506.652918,296.082377,-12287.418637,919.314598
506.653242,962.267725,-10807.006753,842.705048
506.653566,1332.370696,-9770.718434,229.828649
506.653890,-148.041188,-10510.924376,-766.095498
506.654214,-1776.494261,-10732.986159,-842.705048
506.654539,-888.247130,-9326.594869,229.828649
506.654863,148.041188,-8512.368333,229.828649
506.655187,-1776.494261,-8956.491898,-536.266849
506.655511,-3997.112087,-9844.739029,-1378.971896
506.655835,-2886.803174,-9474.636058,-306.438199
506.656159,0.000000,-9104.533087,-919.314598
506.656483,888.247130,-9844.739029,-995.924147
506.656807,814.226536,-10732.986159,-612.876398
506.657131,2072.576638,-11029.068536,-459.657299
506.657456,3775.050304,-10732.986159,-229.828649
506.657780,3108.864956,-11029.068536,-689.485948
506.658104,1406.391290,-12213.398043,-1072.533697
506.658428,666.185348,-12953.603985,-1072.533697
506.658752,1628.453072,-11991.336260,-536.266849
506.659076,1702.473667,-10955.047942,-689.485948
506.659400,592.164754,-10955.047942,-1072.533697
506.659724,-518.144159,-11325.150913,-1149.143247
506.660049,0.000000,-10362.883188,153.219100
506.660373,74.020594,-8512.368333,-1149.143247
506.660697,-1776.494261,-8956.491898,-1302.362347
506.661021,-4145.153275,-10066.800811,-1685.410096
506.661345,-3552.988522,-8956.491898,-1149.143247
506.661669,-1036.288319,-7624.121203,-459.657299
506.661993,-296.082377,-7846.182985,-229.828649
506.662317,74.020594,-9622.677246,-536.266849
506.662642,1258.350101,-9252.574275,306.438199
506.662966,2812.782580,-8290.306550,1302.362347
506.663290,2294.638420,-8808.450710,383.047749
506.663614,222.061783,-10362.883188,0.000000
506.663938,-740.205942,-10732.986159,0.000000
506.664262,296.082377,-9400.615463,383.047749
506.664586,1406.391290,-7920.203579,229.828649
506.664910,-296.082377,-8438.347739,0.000000
506.665235,-1554.432478,-8734.430116,-919.314598
506.665559,-1480.411884,-7994.224174,-919.314598
506.665883,-740.205942,-6513.812290,-1225.752797
506.666207,-1702.473667,-7328.038826,-1302.362347
506.666531,-3849.070898,-8882.471304,-1608.800546
506.666855,-3330.926739,-8660.409521,-1532.190996
506.667179,-2220.617826,-7402.059420,-383.047749
506.667503,-1036.288319,-8660.409521,0.000000
506.667828,-518.144159,-10955.047942,-306.438199
506.668152,0.000000,-11621.233289,76.609550
506.668476,1406.391290,-11177.109724,1378.971896
506.668800,1924.535449,-11325.150913,1149.143247
506.669124,518.144159,-12731.542202,-306.438199
506.669448,-296.082377,-12657.521608,0.000000
506.669772,814.226536,-11251.130318,0.000000
506.670096,2442.679609,-10288.862594,-383.047749
506.670420,2368.659014,-10955.047942,-689.485948
506.670745,1776.494261,-11103.089130,-459.657299
506.671069,1776.494261,-9770.718434,-919.314598
506.671393,2072.576638,-9252.574275,-536.266849
506.671717,0.000000,-9770.718434,-1072.533697
506.672041,-2368.659014,-11251.130318,-1608.800546
506.672365,-2442.679609,-11103.089130,-766.095498
506.672689,0.000000,-9770.718434,536.266849
506.673013,518.144159,-9400.615463,766.095498
506.673338,0.000000,-9844.739029,1072.533697
506.673662,-148.041188,-10510.924376,1455.581446
506.673986,1332.370696,-9548.656652,1762.019645
506.674310,2072.576638,-9104.533087,1378.971896
506.674634,666.185348,-10214.842000,1225.752797
506.674958,-666.185348,-9992.780217,689.485948
506.675282,518.144159,-9178.553681,995.924147
506.675606,1924.535449,-8068.244768,612.876398
506.675931,1480.411884,-8956.491898,383.047749
506.676255,222.061783,-9992.780217,0.000000
506.676579,518.144159,-9474.636058,766.095498
506.676903,1258.350101,-7698.141797,1455.581446
506.677227,-518.144159,-7994.224174,842.705048
506.677551,-2886.803174,-9252.574275,76.609550
506.677875,-4071.132681,-8734.430116,383.047749
506.678199,-2442.679609,-7031.956449,1378.971896
506.678524,-1110.308913,-7179.997637,1685.410096
506.678848,-1628.453072,-7772.162391,842.705048
506.679172,-1480.411884,-8068.244768,1608.800546
506.679496,0.000000,-7328.038826,1762.019645
506.679820,814.226536,-7698.141797,1072.533697
506.680144,-518.144159,-9474.636058,229.828649
506.680468,-2072.576638,-10436.903782,0.000000
506.680792,-666.185348,-9622.677246,306.438199
506.681117,1184.329507,-8882.471304,383.047749
506.681441,1924.535449,-9696.697840,0.000000
506.681765,740.205942,-11251.130318,-919.314598
506.682089,444.123565,-11029.068536,-383.047749
506.682413,1184.329507,-10066.800811,383.047749
506.682737,666.185348,-10732.986159,-306.438199
506.683061,-962.267725,-11251.130318,-1149.143247
506.683385,-2072.576638,-10214.842000,-459.657299
506.683709,-740.205942,-10066.800811,76.609550
506.684034,74.020594,-10066.800811,-153.219100
506.684358,0.000000,-11177.109724,-536.266849
506.684682,-296.082377,-11103.089130,-459.657299
506.685006,1406.391290,-10140.821405,0.000000
506.685330,2664.741391,-10288.862594,-383.047749
506.685654,1184.329507,-11621.233289,-919.314598
506.685978,74.020594,-12953.603985,-842.705048
506.686302,888.247130,-11917.315666,-459.657299
506.686627,2220.617826,-10140.821405,-842.705048
506.686951,2368.659014,-9844.739029,-766.095498
506.687275,1628.453072,-10584.944971,-1455.581446
506.687599,1110.308913,-9696.697840,-919.314598
506.687923,1776.494261,-8734.430116,0.000000
506.688247,1628.453072,-9474.636058,-229.828649
506.688571,-1702.473667,-9474.636058,-919.314598
506.688895,-3256.906145,-8438.347739,-536.266849
506.689220,-2590.720797,-7179.997637,-153.219100
506.689544,-1332.370696,-7179.997637,-536.266849
506.689868,-1702.473667,-8734.430116,-766.095498
506.690192,-1924.535449,-8956.491898,-383.047749
506.690516,0.000000,-7328.038826,76.609550
506.690840,1480.411884,-7031.956449,0.000000
506.691164,222.061783,-8956.491898,-612.876398
506.691488,-1480.411884,-10510.924376,-1225.752797
506.691813,-1258.350101,-9770.718434,-766.095498
506.692137,740.205942,-9252.574275,229.828649
506.692461,1776.494261,-9992.780217,0.000000
506.692785,74.020594,-10436.903782,-229.828649
506.693109,444.123565,-9918.759623,-229.828649
506.693433,1036.288319,-9104.533087,76.609550
506.693757,370.102971,-9622.677246,-919.314598
506.694081,-1850.514855,-11399.171507,-995.924147
506.694406,-3552.988522,-10881.027347,-612.876398
506.694730,-2590.720797,-8882.471304,-229.828649
506.695054,-1406.391290,-7698.141797,-689.485948
506.695378,-1554.432478,-9104.533087,-1302.362347
506.695702,-1480.411884,-10140.821405,-1455.581446
506.696026,0.000000,-9548.656652,-229.828649
506.696350,1850.514855,-8734.430116,-842.705048
506.696674,1406.391290,-9474.636058,-689.485948
506.696998,-592.164754,-11473.192101,-612.876398
506.697323,-814.226536,-11695.253884,-1072.533697
506.697647,296.082377,-10288.862594,-842.705048
506.697971,1332.370696,-10214.842000,-383.047749
506.698295,1480.411884,-11621.233289,0.000000
506.698619,1924.535449,-11991.336260,229.828649
506.698943,2886.803174,-10584.944971,919.314598
506.699267,1776.494261,-9474.636058,459.657299
506.699591,-740.205942,-10955.047942,-689.485948
506.699916,-2294.638420,-11769.274478,-919.314598
506.700240,-666.185348,-9696.697840,229.828649
506.700564,888.247130,-8438.347739,612.876398
506.700888,518.144159,-9326.594869,-153.219100
506.701212,-666.185348,-9992.780217,-383.047749
506.701536,-518.144159,-9474.636058,383.047749
506.701860,814.226536,-8586.388927,306.438199
506.702184,-296.082377,-9252.574275,383.047749
506.702509,-2368.659014,-9992.780217,536.266849
506.702833,-2442.679609,-9030.512492,1455.581446
506.703157,-444.123565,-7994.224174,1378.971896
506.703481,814.226536,-8142.265362,1762.019645
506.703805,518.144159,-9178.553681,1455.581446
506.704129,666.185348,-8586.388927,1608.800546
506.704453,1554.432478,-6809.894666,2145.067394
506.704777,1776.494261,-7105.977043,1991.848295
506.705102,-222.061783,-8882.471304,766.095498
506.705426,-2072.576638,-10140.821405,383.047749
506.705750,-1406.391290,-9104.533087,689.485948
506.706074,148.041188,-7846.182985,842.705048
506.706398,296.082377,-9030.512492,919.314598
506.706722,-592.164754,-10584.944971,536.266849
506.707046,-444.123565,-9844.739029,1072.533697
506.707370,222.061783,-8956.491898,1378.971896
506.707694,-518.144159,-9548.656652,689.485948
506.708019,-2146.597232,-11399.171507,229.828649
506.708343,-2368.659014,-11103.089130,1225.752797
506.708667,148.041188,-9474.636058,1532.190996
506.708991,1776.494261,-9252.574275,919.314598
506.709315,518.144159,-10658.965565,306.438199
506.709639,0.000000,-10732.986159,-153.219100
506.709963,1480.411884,-9474.636058,766.095498
506.710287,2146.597232,-8438.347739,-306.438199
506.710612,962.267725,-10140.821405,-919.314598
506.710936,-1850.514855,-11177.109724,-1302.362347
506.711260,-1184.329507,-10881.027347,-919.314598
506.711584,740.205942,-9844.739029,-689.485948
506.711908,1184.329507,-9696.697840,-995.924147
506.712232,444.123565,-10140.821405,-995.924147
506.712556,962.267725,-10436.903782,536.266849
506.712880,2812.782580,-9474.636058,689.485948
506.713205,2368.659014,-9252.574275,-306.438199
506.713529,-296.082377,-10881.027347,-459.657299
506.713853,-1110.308913,-11251.130318,-1149.143247
506.714177,666.185348,-9622.677246,-612.876398
506.714501,2294.638420,-8956.491898,-1072.533697
506.714825,1406.391290,-10066.800811,-1149.143247
506.715149,0.000000,-11177.109724,-1608.800546
506.715473,370.102971,-10510.924376,-1378.971896
506.715798,1480.411884,-9844.739029,-1149.143247
506.716122,-296.082377,-10658.965565,-1378.971896
506.716446,-2886.803174,-11843.295072,-2221.676944
506.716770,-2812.782580,-11325.150913,-1225.752797
506.717094,-1258.350101,-9474.636058,-536.266849
506.717418,-222.061783,-9474.636058,-842.705048
506.717742,-1628.453072,-9696.697840,-995.924147
506.718066,-444.123565,-9696.697840,766.095498
506.718391,1924.535449,-8882.471304,1072.533697
506.718715,1924.535449,-8586.388927,306.438199
506.719039,-962.267725,-8734.430116,-536.266849
506.719363,-2368.659014,-8512.368333,-995.924147
506.719687,-444.123565,-7476.080014,-919.314598
506.720011,1628.453072,-6883.915261,-612.876398
506.720335,666.185348,-8142.265362,-536.266849
506.720659,-814.226536,-9622.677246,-536.266849
506.720983,-296.082377,-9178.553681,-689.485948
506.721308,74.020594,-7994.224174,-612.876398
506.721632,-814.226536,-8734.430116,-689.485948
506.721956,-2738.761985,-10658.965565,-689.485948
506.722280,-2220.617826,-11547.212695,-459.657299
506.722604,-370.102971,-9770.718434,842.705048
506.722928,740.205942,-9696.697840,689.485948
506.723252,222.061783,-10881.027347,0.000000
506.723576,-370.102971,-11325.150913,-153.219100
506.723901,444.123565,-9770.718434,76.609550
506.724225,962.267725,-9918.759623,-766.095498
506.724549,-1258.350101,-11325.150913,-1149.143247
506.724873,-2664.741391,-11547.212695,-919.314598
506.725197,-592.164754,-10214.842000,-766.095498
506.725521,1628.453072,-9030.512492,-536.266849
506.725845,518.144159,-9326.594869,-1302.362347
506.726169,-370.102971,-10807.006753,-842.705048
506.726494,370.102971,-10658.965565,-383.047749
506.726818,2220.617826,-9474.636058,383.047749
506.727142,1110.308913,-9548.656652,766.095498
506.727466,-1184.329507,-10732.986159,76.609550
506.727790,-1258.350101,-11547.212695,1149.143247
506.728114,666.185348,-10140.821405,1378.971896
506.728438,2220.617826,-9622.677246,919.314598
506.728762,1554.432478,-9474.636058,612.876398
506.729087,1258.350101,-9844.739029,995.924147
506.729411,2516.700203,-9178.553681,1532.190996
506.729735,2960.823768,-8882.471304,306.438199
506.730059,222.061783,-9474.636058,0.000000
506.730383,-2294.638420,-9326.594869,-383.047749
506.730707,-740.205942,-8512.368333,842.705048
506.731031,296.082377,-7105.977043,995.924147
506.731355,666.185348,-7772.162391,689.485948
506.731680,-1406.391290,-8808.450710,459.657299
506.732004,-1258.350101,-8882.471304,919.314598
506.732328,222.061783,-7846.182985,1072.533697
506.732652,0.000000,-8068.244768,1302.362347
506.732976,-2294.638420,-9622.677246,1378.971896
506.733300,-2146.597232,-10881.027347,1685.410096
506.733624,0.000000,-9696.697840,1991.848295
506.733948,1184.329507,-8586.388927,1455.581446
506.734272,222.061783,-8956.491898,229.828649
506.734597,-444.123565,-10214.842000,0.000000
506.734921,1110.308913,-9918.759623,766.095498
506.735245,1776.494261,-9104.533087,306.438199
506.735569,-666.185348,-9770.718434,-153.219100
506.735893,-3256.906145,-10807.006753,-1225.752797
506.736217,-2442.679609,-9474.636058,-1072.533697
506.736541,-666.185348,-8586.388927,-536.266849
506.736865,-296.082377,-9400.615463,0.000000
506.737190,-1776.494261,-10881.027347,-383.047749
506.737514,-1628.453072,-9844.739029,0.000000
506.737838,0.000000,-8438.347739,306.438199
506.738162,888.247130,-8956.491898,76.609550
506.738486,-1406.391290,-11399.171507,-842.705048
506.738810,-1554.432478,-11843.295072,-153.219100
506.739134,0.000000,-10807.006753,612.876398
506.739458,2072.576638,-10288.862594,459.657299
506.739783,2220.617826,-10584.944971,-153.219100
506.740107,1850.514855,-11473.192101,-766.095498
506.740431,2516.700203,-10881.027347,-1225.752797
506.740755,2886.803174,-10658.965565,-842.705048
506.741079,1184.329507,-11473.192101,-919.314598
506.741403,-666.185348,-11473.192101,-1685.410096
506.741727,-518.144159,-10066.800811,-1608.800546
506.742051,1036.288319,-8512.368333,-383.047749
506.742376,1036.288319,-8808.450710,-1225.752797
506.742700,-814.226536,-9770.718434,-1378.971896
506.743024,-1184.329507,-9474.636058,-612.876398
506.743348,370.102971,-8068.244768,459.657299
506.743672,1480.411884,-8364.327145,383.047749
506.743996,-444.123565,-9770.718434,-536.266849
506.744320,-2294.638420,-9844.739029,0.000000
506.744644,-1480.411884,-8956.491898,0.000000
506.744969,814.226536,-9474.636058,-306.438199
506.745293,666.185348,-10066.800811,-536.266849
506.745617,444.123565,-9844.739029,-459.657299
506.745941,1480.411884,-9104.533087,153.219100
506.746265,2590.720797,-9252.574275,229.828649
506.746589,518.144159,-9178.553681,-229.828649
506.746913,-1628.453072,-9770.718434,-536.266849
506.747237,-1776.494261,-8660.409521,-1532.190996
506.747561,-148.041188,-7772.162391,-612.876398
506.747886,148.041188,-7624.121203,-766.095498
506.748210,-962.267725,-8956.491898,-919.314598
506.748534,-1998.556043,-9104.533087,-612.876398
506.748858,-740.205942,-7179.997637,229.828649
506.749182,-148.041188,-7698.141797,0.000000
506.749506,-1332.370696,-10436.903782,-766.095498
506.749830,-2960.823768,-11399.171507,-306.438199
506.750154,-1850.514855,-10584.944971,0.000000
506.750478,74.020594,-10362.883188,0.000000
506.750802,370.102971,-11251.130318,-383.047749
506.751126,148.041188,-12139.377449,-766.095498
506.751451,1258.350101,-11695.253884,0.000000
506.751775,1702.473667,-10807.006753,76.609550
506.752099,1258.350101,-11917.315666,-689.485948
506.752423,-962.267725,-11843.295072,-1455.581446
506.752747,-1036.288319,-10362.883188,-995.924147
506.753071,962.267725,-9474.636058,-383.047749
506.753395,1480.411884,-9178.553681,-612.876398
506.753719,-444.123565,-9548.656652,-536.266849
506.754043,-1184.329507,-9178.553681,-306.438199
506.754367,0.000000,-7698.141797,153.219100
506.754691,74.020594,-7846.182985,-306.438199
506.755015,-1850.514855,-9548.656652,-689.485948
506.755339,-3034.844362,-10362.883188,-536.266849
506.755664,-1258.350101,-9622.677246,0.000000
506.755988,1332.370696,-9326.594869,1378.971896
506.756312,1850.514855,-10214.842000,459.657299
506.756636,2146.597232,-10807.006753,459.657299
506.756960,2664.741391,-10807.006753,1149.143247
506.757284,3256.906145,-9992.780217,995.924147
506.757608,2294.638420,-10807.006753,306.438199
506.757932,-518.144159,-11177.109724,0.000000
506.758256,-740.205942,-10658.965565,0.000000
506.758580,222.061783,-8216.285956,766.095498
506.758904,518.144159,-7846.182985,306.438199
506.759228,-1258.350101,-8364.327145,-612.876398
506.759552,-3182.885551,-8660.409521,-229.828649
506.759877,-1628.453072,-7105.977043,229.828649
506.760201,0.000000,-6883.915261,689.485948
506.760525,-1850.514855,-8438.347739,536.266849
506.760849,-3552.988522,-9622.677246,919.314598
506.761173,-2368.659014,-9400.615463,1072.533697
506.761497,-222.061783,-8956.491898,1838.629195
506.761821,740.205942,-8956.491898,1378.971896
506.762145,962.267725,-10658.965565,1378.971896
506.762469,2516.700203,-11325.150913,1302.362347
506.762793,3404.947333,-10510.924376,1838.629195
506.763117,2368.659014,-10214.842000,1378.971896
506.763441,-370.102971,-10881.027347,-306.438199
506.763765,-1628.453072,-10140.821405,-842.705048
506.764090,0.000000,-8586.388927,-76.609550
506.764414,296.082377,-8290.306550,76.609550
506.764738,-962.267725,-8808.450710,-1149.143247
506.765062,-2516.700203,-8956.491898,-919.314598
506.765386,-2664.741391,-7994.224174,-229.828649
506.765710,-814.226536,-7402.059420,-229.828649
506.766034,-1184.329507,-9326.594869,0.000000
506.766358,-3108.864956,-11177.109724,0.000000
506.766682,-1924.535449,-10584.944971,536.266849
506.767006,592.164754,-9770.718434,1685.410096
506.767330,2220.617826,-11325.150913,1225.752797
506.767654,2442.679609,-11991.336260,919.314598
506.767979,3182.885551,-11843.295072,919.314598
506.768303,4515.256246,-10881.027347,383.047749
506.768627,4071.132681,-10436.903782,-383.047749
506.768951,1924.535449,-11473.192101,-1608.800546
506.769275,74.020594,-11177.109724,-1302.362347
506.769599,814.226536,-9400.615463,-1149.143247
506.769923,1184.329507,-8364.327145,-1608.800546
506.770247,-740.205942,-8512.368333,-1608.800546
506.770571,-2516.700203,-9474.636058,-1532.190996
506.770895,-2368.659014,-8438.347739,-766.095498
506.771219,-1480.411884,-7031.956449,-459.657299
506.771543,-2960.823768,-7698.141797,-919.314598
506.771867,-4293.194464,-9844.739029,-306.438199
506.772192,-2442.679609,-10288.862594,153.219100
506.772516,666.185348,-9844.739029,1302.362347
506.772840,2294.638420,-9770.718434,1149.143247
506.773164,2146.597232,-11177.109724,766.095498
506.773488,2590.720797,-11917.315666,0.000000
506.773812,3997.112087,-10510.924376,-536.266849
506.774136,3404.947333,-11251.130318,-766.095498
506.774460,666.185348,-11843.295072,-995.924147
506.774784,-1110.308913,-12065.356855,-1532.190996
506.775108,-444.123565,-10658.965565,-1762.019645
506.775432,-740.205942,-7994.224174,-1532.190996
506.775756,-2442.679609,-8364.327145,-2374.896044
506.776080,-4515.256246,-9178.553681,-1991.848295
506.776405,-3552.988522,-7994.224174,-1302.362347
506.776729,-1554.432478,-5625.565159,-689.485948
506.777053,-1924.535449,-6291.750507,76.609550
506.777377,-3478.967927,-9474.636058,0.000000
506.777701,-2812.782580,-9918.759623,536.266849
506.778025,888.247130,-8512.368333,1455.581446
506.778349,3182.885551,-7920.203579,306.438199
506.778673,3034.844362,-9474.636058,76.609550
506.778997,2368.659014,-11251.130318,536.266849
506.779321,4441.235652,-11473.192101,383.047749
506.779645,5033.400406,-12139.377449,153.219100
506.779969,2294.638420,-12657.521608,-306.438199
506.780293,-666.185348,-12213.398043,-1302.362347
506.780618,-1406.391290,-10658.965565,-1915.238745
506.780942,-962.267725,-9030.512492,-1455.581446
506.781266,-962.267725,-9474.636058,-1225.752797
506.781590,-2516.700203,-9844.739029,-1608.800546
506.781914,-3552.988522,-8808.450710,0.000000
506.782238,-3108.864956,-6809.894666,536.266849
506.782562,-1924.535449,-6883.915261,-153.219100
506.782886,-3330.926739,-9178.553681,0.000000
506.783210,-3404.947333,-10436.903782,689.485948
506.783534,74.020594,-9474.636058,1608.800546
506.783858,3182.885551,-9474.636058,1762.019645
506.784182,3182.885551,-10066.800811,1762.019645
506.784506,3108.864956,-10658.965565,919.314598
506.784831,4515.256246,-11029.068536,459.657299
506.785155,4737.318029,-11029.068536,459.657299
506.785479,2442.679609,-11177.109724,306.438199
506.785803,518.144159,-11325.150913,76.609550
506.786127,-222.061783,-9400.615463,-229.828649
506.786451,148.041188,-8290.306550,153.219100
506.786775,-1406.391290,-8216.285956,-153.219100
506.787099,-2886.803174,-8882.471304,-459.657299
506.787423,-3701.029710,-8290.306550,383.047749
506.787747,-2516.700203,-7031.956449,1149.143247
506.788071,-2294.638420,-7624.121203,612.876398
506.788395,-4441.235652,-9178.553681,383.047749
506.788720,-3701.029710,-10214.842000,766.095498
506.789044,-888.247130,-8808.450710,1685.410096
506.789368,1480.411884,-8586.388927,612.876398
506.789692,1480.411884,-9992.780217,612.876398
506.790016,1702.473667,-11769.274478,689.485948
506.790340,3627.009116,-11325.150913,766.095498
506.790664,4367.215058,-10732.986159,766.095498
506.790988,2368.659014,-11547.212695,536.266849
506.791312,-444.123565,-11621.233289,-153.219100
506.791636,-962.267725,-10362.883188,-612.876398
506.791960,0.000000,-8734.430116,0.000000
506.792284,-222.061783,-9030.512492,-383.047749
506.792608,-2294.638420,-9548.656652,-1072.533697
506.792933,-3108.864956,-8364.327145,-612.876398
506.793257,-1110.308913,-6957.935855,459.657299
506.793581,-370.102971,-6735.874072,-383.047749
506.793905,-2368.659014,-8808.450710,-612.876398
506.794229,-2960.823768,-9548.656652,-612.876398
506.794553,-1184.329507,-8586.388927,-842.705048
506.794877,1110.308913,-8734.430116,-766.095498
506.795201,1480.411884,-10436.903782,-766.095498
506.795525,2220.617826,-11843.295072,-383.047749
506.795849,3923.091493,-11695.253884,229.828649
506.796173,4589.276840,-11399.171507,689.485948
506.796497,2812.782580,-11177.109724,306.438199
506.796821,370.102971,-11917.315666,-995.924147
506.797146,148.041188,-11991.336260,-766.095498
506.797470,1036.288319,-10510.924376,-766.095498
506.797794,740.205942,-9622.677246,-689.485948
506.798118,-740.205942,-9326.594869,-1072.533697
506.798442,-1332.370696,-9326.594869,-919.314598
506.798766,-148.041188,-7772.162391,-153.219100
506.799090,148.041188,-7179.997637,-383.047749
