#time,accel_x,accel_y,accel_z
1030.102196,0.000000,-9622.677246,0.000000
1030.102520,296.082377,-9770.718434,153.219100
1030.102844,-148.041188,-9622.677246,-153.219100
1030.103168,0.000000,-9844.739029,-459.657299
1030.103491,-148.041188,-9696.697840,-383.047749
1030.103815,-148.041188,-9326.594869,-306.438199
1030.104139,296.082377,-9696.697840,-153.219100
1030.104463,666.185348,-9992.780217,612.876398
1030.104787,370.102971,-10066.800811,76.609550
1030.105111,0.000000,-9326.594869,-306.438199
1030.105434,74.020594,-9696.697840,0.000000
1030.105758,74.020594,-9770.718434,-153.219100
1030.106082,0.000000,-9622.677246,-459.657299
1030.106406,0.000000,-9622.677246,-153.219100
1030.106730,148.041188,-9622.677246,0.000000
1030.107053,740.205942,-10214.842000,0.000000
1030.107377,296.082377,-9696.697840,229.828649
1030.107701,0.000000,-9400.615463,0.000000
1030.108025,0.000000,-9696.697840,0.000000
1030.108349,74.020594,-9696.697840,-229.828649
1030.108673,0.000000,-9696.697840,0.000000
1030.108996,-148.041188,-9326.594869,0.000000
1030.109320,0.000000,-9696.697840,0.000000
1030.109644,-296.082377,-9548.656652,-383.047749
1030.109968,0.000000,-9548.656652,0.000000
1030.110292,-222.061783,-9622.677246,0.000000
1030.110616,-148.041188,-9696.697840,-229.828649
1030.110939,148.041188,-9770.718434,-229.828649
1030.111263,0.000000,-9474.636058,0.000000
1030.111587,-296.082377,-9474.636058,-153.219100
1030.111911,-296.082377,-9474.636058,689.485948
1030.112235,0.000000,-9918.759623,153.219100
1030.112558,-148.041188,-9844.739029,-229.828649
1030.112882,-518.144159,-9474.636058,-229.828649
1030.113206,-740.205942,-9400.615463,0.000000
1030.113530,-370.102971,-10066.800811,153.219100
1030.113854,-222.061783,-10214.842000,383.047749
1030.114178,-222.061783,-9252.574275,153.219100
1030.114501,444.123565,-9178.553681,153.219100
1030.114825,370.102971,-9844.739029,229.828649
1030.115149,0.000000,-9844.739029,-766.095498
1030.115473,-296.082377,-9696.697840,76.609550
1030.115797,-296.082377,-10140.821405,536.266849
1030.116120,-370.102971,-10140.821405,0.000000
1030.116444,-814.226536,-9622.677246,-153.219100
1030.116768,-1480.411884,-9178.553681,842.705048
1030.117092,-1036.288319,-9844.739029,153.219100
1030.117416,-1110.308913,-9474.636058,229.828649
1030.117740,-1184.329507,-8438.347739,536.266849
1030.118063,-444.123565,-8808.450710,612.876398
1030.118387,370.102971,-9844.739029,612.876398
1030.118711,666.185348,-10436.903782,842.705048
1030.119035,0.000000,-10436.903782,842.705048
1030.119359,-1332.370696,-10288.862594,383.047749
1030.119683,-2220.617826,-10658.965565,76.609550
1030.120006,-2146.597232,-10658.965565,153.219100
1030.120330,-2442.679609,-10066.800811,1072.533697
1030.120654,-2146.597232,-9844.739029,919.314598
1030.120978,-1554.432478,-9622.677246,459.657299
1030.121302,-1036.288319,-9030.512492,842.705048
1030.121625,0.000000,-8512.368333,1302.362347
1030.121949,0.000000,-8882.471304,1072.533697
1030.122273,0.000000,-9548.656652,1225.752797
1030.122597,-2072.576638,-9326.594869,1225.752797
1030.122921,-2886.803174,-9696.697840,1302.362347
1030.123245,-3182.885551,-10436.903782,1072.533697
1030.123568,-3256.906145,-10732.986159,1302.362347
1030.123892,-3182.885551,-11251.130318,1532.190996
1030.124216,-2812.782580,-11177.109724,1532.190996
1030.124540,-2146.597232,-10436.903782,2298.286494
1030.124864,-1998.556043,-9030.512492,2068.457845
1030.125187,-740.205942,-8660.409521,2451.505594
1030.125511,-444.123565,-9178.553681,2374.896044
1030.125835,0.000000,-9622.677246,2681.334243
1030.126159,0.000000,-9770.718434,2374.896044
1030.126483,-888.247130,-9918.759623,2757.943793
1030.126807,-2664.741391,-10140.821405,2681.334243
1030.127130,-4219.173869,-10510.924376,1991.848295
1030.127454,-4959.379811,-10584.944971,2221.676944
1030.127778,-5847.626942,-10288.862594,3064.381992
1030.128102,-5477.523971,-10362.883188,3140.991542
1030.128426,-5329.482782,-9474.636058,2987.772442
1030.128749,-4737.318029,-8882.471304,3294.210641
1030.129073,-4071.132681,-9252.574275,3600.648841
1030.129397,-2812.782580,-9770.718434,4060.306139
1030.129721,-1036.288319,-9770.718434,4596.572988
1030.130045,592.164754,-8882.471304,5209.449386
1030.130369,1406.391290,-8364.327145,5669.106685
1030.130692,1628.453072,-7920.203579,4979.620737
1030.131016,1110.308913,-8142.265362,3907.087040
1030.131340,-296.082377,-8290.306550,3524.039291
1030.131664,-1554.432478,-8364.327145,2757.943793
1030.131988,-3552.988522,-7698.141797,1838.629195
1030.132312,-5995.668130,-7328.038826,229.828649
1030.132635,-8068.244768,-9474.636058,383.047749
1030.132959,-8068.244768,-11547.212695,995.924147
1030.133283,-6291.750507,-11769.274478,1378.971896
1030.133607,-4737.318029,-9770.718434,3677.258390
1030.133931,-1776.494261,-7846.182985,4519.963438
1030.134254,1406.391290,-8438.347739,4290.134789
1030.134578,3552.988522,-9696.697840,4290.134789
1030.134902,4663.297435,-10066.800811,5209.449386
1030.135226,4219.173869,-10658.965565,5286.058936
1030.135550,2886.803174,-10732.986159,3600.648841
1030.135874,296.082377,-9104.533087,2528.115143
1030.136197,-2886.803174,-7402.059420,-383.047749
1030.136521,-6365.771101,-9622.677246,-2298.286494
1030.136845,-7550.100608,-12583.501014,-2757.943793
1030.137169,-5699.585753,-12213.398043,-2911.162892
1030.137493,-3701.029710,-9474.636058,-842.705048
1030.137816,-2146.597232,-8216.285956,842.705048
1030.138140,-1924.535449,-8142.265362,0.000000
1030.138464,-2886.803174,-9548.656652,536.266849
1030.138788,-3330.926739,-10140.821405,1225.752797
1030.139112,-1702.473667,-10807.006753,2068.457845
1030.139436,1480.411884,-12213.398043,3217.601092
1030.139759,5403.503377,-11843.295072,4596.572988
1030.140083,7624.121203,-11325.150913,4673.182538
1030.140407,5551.544565,-11029.068536,3677.258390
1030.140731,814.226536,-10436.903782,459.657299
1030.141055,-4293.194464,-8734.430116,-2604.724693
1030.141379,-6957.935855,-8586.388927,-3217.601092
1030.141702,-6661.853478,-10658.965565,-1991.848295
1030.142026,-4145.153275,-10881.027347,-2451.505594
1030.142350,-3034.844362,-9696.697840,-1608.800546
1030.142674,-5033.400406,-9400.615463,0.000000
1030.142998,-5329.482782,-8956.491898,-612.876398
1030.143321,-6143.709319,-8586.388927,-766.095498
1030.143645,-5995.668130,-7624.121203,-153.219100
1030.143969,-2886.803174,-8586.388927,2298.286494
1030.144293,740.205942,-11991.336260,2987.772442
1030.144617,2812.782580,-13323.706956,3907.087040
1030.144941,2368.659014,-11695.253884,4979.620737
1030.145264,0.000000,-10140.821405,3217.601092
1030.145588,-1850.514855,-9400.615463,2145.067394
1030.145912,-1998.556043,-9770.718434,1149.143247
1030.146236,-1332.370696,-8882.471304,1762.019645
1030.146560,-962.267725,-8586.388927,1685.410096
1030.146883,-3034.844362,-9104.533087,766.095498
1030.147207,-5551.544565,-8882.471304,1532.190996
1030.147531,-5773.606348,-8216.285956,766.095498
1030.147855,-4515.256246,-7328.038826,1302.362347
1030.148179,-4219.173869,-7105.977043,1685.410096
1030.148503,-5033.400406,-8586.388927,1762.019645
1030.148826,-5625.565159,-9696.697840,1685.410096
1030.149150,-5033.400406,-9992.780217,1991.848295
1030.149474,-2812.782580,-9622.677246,2757.943793
1030.149798,-1184.329507,-8290.306550,3217.601092
1030.150122,-962.267725,-8734.430116,3294.210641
1030.150445,-1258.350101,-10807.006753,3524.039291
1030.150769,-666.185348,-11991.336260,4136.915689
1030.151093,444.123565,-11325.150913,4060.306139
1030.151417,814.226536,-9548.656652,3064.381992
1030.151741,-1110.308913,-9770.718434,3140.991542
1030.152065,-2812.782580,-11325.150913,3753.867940
1030.152388,-2220.617826,-12287.418637,3600.648841
1030.152712,-2146.597232,-10881.027347,2911.162892
1030.153036,-2960.823768,-8216.285956,2987.772442
1030.153360,-3256.906145,-7254.018232,2681.334243
1030.153684,-3034.844362,-8882.471304,2834.553343
1030.154008,-2590.720797,-9770.718434,2757.943793
1030.154331,-2516.700203,-9252.574275,2068.457845
1030.154655,-3552.988522,-8808.450710,1532.190996
1030.154979,-4219.173869,-9474.636058,2145.067394
1030.155303,-2368.659014,-10066.800811,3217.601092
1030.155627,0.000000,-9992.780217,4060.306139
1030.155950,0.000000,-9844.739029,3753.867940
1030.156274,-1036.288319,-10732.986159,4290.134789
1030.156598,0.000000,-11251.130318,3983.696590
1030.156922,1776.494261,-9622.677246,3753.867940
1030.157246,1110.308913,-9400.615463,4673.182538
1030.157570,-1998.556043,-10584.944971,3983.696590
1030.157893,-3478.967927,-10584.944971,2374.896044
1030.158217,-3627.009116,-8808.450710,2374.896044
1030.158541,-3108.864956,-7402.059420,2757.943793
1030.158865,-3034.844362,-7698.141797,1991.848295
1030.159189,-4071.132681,-8660.409521,689.485948
1030.159512,-4367.215058,-7698.141797,306.438199
1030.159836,-3034.844362,-7476.080014,689.485948
1030.160160,-1924.535449,-8734.430116,766.095498
1030.160484,-2442.679609,-9326.594869,766.095498
1030.160808,-2146.597232,-8438.347739,1915.238745
1030.161132,-962.267725,-8956.491898,3217.601092
1030.161455,888.247130,-11103.089130,2911.162892
1030.161779,148.041188,-11991.336260,2451.505594
1030.162103,-518.144159,-10436.903782,2681.334243
1030.162427,-444.123565,-10140.821405,3064.381992
1030.162751,-1036.288319,-11473.192101,2068.457845
1030.163074,-1258.350101,-10436.903782,2145.067394
1030.163398,-2886.803174,-8956.491898,2298.286494
1030.163722,-3997.112087,-10436.903782,1149.143247
1030.164046,-4219.173869,-10584.944971,-689.485948
1030.164370,-4367.215058,-7772.162391,0.000000
1030.164693,-4071.132681,-7994.224174,842.705048
1030.165017,-3627.009116,-9622.677246,153.219100
1030.165341,-2664.741391,-9030.512492,153.219100
1030.165665,-2368.659014,-8068.244768,1685.410096
1030.165988,-962.267725,-10955.047942,1685.410096
1030.166312,-592.164754,-11325.150913,689.485948
1030.166636,-1036.288319,-9548.656652,1149.143247
1030.166960,-1850.514855,-9696.697840,995.924147
1030.167283,-1776.494261,-11103.089130,1072.533697
1030.167607,-1480.411884,-10584.944971,1685.410096
1030.167931,-1776.494261,-10510.924376,536.266849
1030.168255,-2516.700203,-10066.800811,0.000000
1030.168578,-3108.864956,-10362.883188,-153.219100
1030.168902,-2738.761985,-10732.986159,0.000000
1030.169226,-2368.659014,-10288.862594,459.657299
1030.169550,-2146.597232,-10066.800811,919.314598
1030.169873,-1702.473667,-10436.903782,229.828649
1030.170197,-2664.741391,-10140.821405,-459.657299
1030.170521,-2886.803174,-10140.821405,2221.676944
1030.170845,-2960.823768,-10807.006753,612.876398
1030.171169,-3330.926739,-10362.883188,459.657299
1030.171492,-3108.864956,-9918.759623,2451.505594
1030.171816,-1332.370696,-11103.089130,2145.067394
1030.172140,-444.123565,-10362.883188,2298.286494
1030.172464,-1628.453072,-7772.162391,2681.334243
1030.172787,-2738.761985,-8808.450710,2068.457845
1030.173111,-3182.885551,-9622.677246,306.438199
1030.173435,-2738.761985,-9178.553681,689.485948
1030.173759,-3182.885551,-9326.594869,1762.019645
1030.174082,-2146.597232,-9844.739029,1455.581446
1030.174406,-1554.432478,-9178.553681,1915.238745
1030.174730,-1998.556043,-8734.430116,2911.162892
1030.175054,-1998.556043,-9104.533087,2451.505594
1030.175377,-666.185348,-8808.450710,2221.676944
1030.175701,-370.102971,-9178.553681,2604.724693
1030.176025,-962.267725,-9918.759623,3370.820191
1030.176349,-1406.391290,-9474.636058,3140.991542
1030.176672,-1924.535449,-8956.491898,4213.525239
1030.176996,-1554.432478,-9622.677246,4060.306139
1030.177320,-1036.288319,-10436.903782,3677.258390
1030.177644,-962.267725,-10288.862594,4749.792088
1030.177967,-1702.473667,-9400.615463,3677.258390
1030.178291,-2368.659014,-8290.306550,2987.772442
1030.178615,-2664.741391,-7846.182985,3064.381992
1030.178939,-3404.947333,-7179.997637,229.828649
1030.179262,-5699.585753,-9104.533087,612.876398
1030.179586,-6365.771101,-10955.047942,2145.067394
1030.179910,-3182.885551,-10436.903782,2068.457845
1030.180234,-1628.453072,-10732.986159,2451.505594
1030.180557,-2368.659014,-9622.677246,3600.648841
1030.180881,-1702.473667,-8882.471304,2757.943793
1030.181205,-1628.453072,-10658.965565,3217.601092
1030.181529,-1628.453072,-11843.295072,4136.915689
1030.181852,-592.164754,-9844.739029,4826.401637
1030.182176,222.061783,-8734.430116,4443.353888
1030.182500,0.000000,-8660.409521,4366.744339
1030.182824,666.185348,-9030.512492,3677.258390
1030.183147,888.247130,-8660.409521,3753.867940
1030.183471,296.082377,-8956.491898,2834.553343
1030.183795,-444.123565,-7698.141797,1072.533697
1030.184119,-518.144159,-6587.832884,306.438199
1030.184442,-1110.308913,-8142.265362,995.924147
1030.184766,-1924.535449,-9770.718434,-536.266849
1030.185090,-4219.173869,-9770.718434,306.438199
1030.185414,-5033.400406,-10362.883188,612.876398
1030.185737,-5181.441594,-10510.924376,-153.219100
1030.186061,-4441.235652,-10362.883188,689.485948
1030.186385,-2442.679609,-10807.006753,1915.238745
1030.186709,-222.061783,-11695.253884,1685.410096
1030.187032,296.082377,-12213.398043,2145.067394
1030.187356,370.102971,-11917.315666,2911.162892
1030.187680,2072.576638,-10436.903782,2987.772442
1030.188004,3330.926739,-8808.450710,2451.505594
1030.188328,2368.659014,-8512.368333,76.609550
1030.188651,296.082377,-9030.512492,-1072.533697
1030.188975,0.000000,-9696.697840,-1225.752797
1030.189299,370.102971,-10362.883188,-1455.581446
1030.189623,-1258.350101,-9992.780217,-2681.334243
1030.189946,-3552.988522,-8364.327145,-1915.238745
1030.190270,-4737.318029,-8956.491898,-2451.505594
1030.190594,-4219.173869,-9474.636058,-3524.039291
1030.190918,-3997.112087,-8438.347739,-2451.505594
1030.191241,-2886.803174,-7994.224174,-459.657299
1030.191565,222.061783,-8882.471304,153.219100
1030.191889,2442.679609,-9326.594869,306.438199
1030.192213,2960.823768,-8586.388927,1991.848295
1030.192536,3256.906145,-8734.430116,1149.143247
1030.192860,2516.700203,-11473.192101,995.924147
1030.193184,1332.370696,-12879.583391,-612.876398
1030.193508,370.102971,-10881.027347,-2068.457845
1030.193831,-888.247130,-11029.068536,-3064.381992
1030.194155,-666.185348,-12435.459826,-4060.306139
1030.194479,74.020594,-13101.645173,-4596.572988
1030.194803,1036.288319,-11843.295072,-2374.896044
1030.195126,2368.659014,-11177.109724,-1915.238745
1030.195450,1554.432478,-10955.047942,-3217.601092
1030.195774,370.102971,-8956.491898,-3064.381992
1030.196098,0.000000,-8068.244768,-1915.238745
1030.196421,1406.391290,-9548.656652,-766.095498
1030.196745,1110.308913,-9474.636058,383.047749
1030.197069,1184.329507,-8808.450710,3294.210641
1030.197393,2886.803174,-8142.265362,3140.991542
1030.197716,3182.885551,-9918.759623,2834.553343
1030.198040,2072.576638,-11029.068536,995.924147
1030.198364,888.247130,-8216.285956,-995.924147
1030.198688,222.061783,-8586.388927,-919.314598
1030.199011,-296.082377,-9326.594869,-1685.410096
1030.199335,0.000000,-8364.327145,-1915.238745
1030.199659,0.000000,-7550.100608,-1302.362347
1030.199983,222.061783,-7402.059420,-1915.238745
1030.200306,518.144159,-8142.265362,-2451.505594
1030.200630,592.164754,-9104.533087,-1838.629195
1030.200954,666.185348,-9474.636058,-689.485948
1030.201278,518.144159,-9770.718434,383.047749
1030.201601,-592.164754,-10732.986159,1149.143247
1030.201925,-1702.473667,-10807.006753,1838.629195
1030.202249,-1998.556043,-10584.944971,2528.115143
1030.202573,-2368.659014,-9992.780217,2068.457845
1030.202896,-2072.576638,-10214.842000,1149.143247
1030.203220,-2146.597232,-9474.636058,1378.971896
1030.203544,-296.082377,-9400.615463,1915.238745
1030.203868,74.020594,-10066.800811,1762.019645
1030.204192,592.164754,-8438.347739,76.609550
1030.204515,74.020594,-7476.080014,-306.438199
1030.204839,-1702.473667,-9474.636058,-689.485948
1030.205163,-1406.391290,-11029.068536,-2221.676944
1030.205487,-1776.494261,-9992.780217,-1149.143247
1030.205810,-1998.556043,-9548.656652,-612.876398
1030.206134,-2294.638420,-9548.656652,-153.219100
1030.206458,-1850.514855,-10807.006753,-306.438199
1030.206782,-1258.350101,-10362.883188,1378.971896
1030.207105,296.082377,-11029.068536,2145.067394
1030.207429,1036.288319,-10807.006753,1608.800546
1030.207753,1702.473667,-9030.512492,3140.991542
1030.208077,1480.411884,-9400.615463,3140.991542
1030.208400,1332.370696,-10140.821405,1991.848295
1030.208724,518.144159,-9178.553681,1225.752797
1030.209048,148.041188,-9474.636058,1455.581446
1030.209372,592.164754,-9548.656652,612.876398
1030.209695,1850.514855,-9104.533087,0.000000
1030.210019,814.226536,-9770.718434,-306.438199
1030.210343,-740.205942,-9326.594869,-766.095498
1030.210667,-1110.308913,-10732.986159,-383.047749
1030.210990,-2146.597232,-10362.883188,-536.266849
1030.211314,-2146.597232,-8068.244768,0.000000
1030.211638,-2146.597232,-8068.244768,459.657299
1030.211962,-1110.308913,-9844.739029,306.438199
1030.212285,296.082377,-10881.027347,1915.238745
1030.212609,1036.288319,-10510.924376,2987.772442
1030.212933,1924.535449,-9178.553681,2528.115143
1030.213257,1258.350101,-8660.409521,1608.800546
1030.213580,1036.288319,-9104.533087,1072.533697
1030.213904,888.247130,-9844.739029,1225.752797
1030.214228,962.267725,-10658.965565,1072.533697
1030.214552,592.164754,-9474.636058,-229.828649
1030.214875,0.000000,-8068.244768,-842.705048
1030.215199,-1406.391290,-7624.121203,-842.705048
1030.215523,-740.205942,-8882.471304,-612.876398
1030.215847,-148.041188,-9918.759623,-766.095498
1030.216170,-74.020594,-9252.574275,-536.266849
1030.216494,-666.185348,-7105.977043,-689.485948
1030.216818,-1480.411884,-6735.874072,-1302.362347
1030.217142,-1702.473667,-8586.388927,0.000000
1030.217465,-814.226536,-9696.697840,536.266849
1030.217789,-592.164754,-10288.862594,229.828649
1030.218113,-296.082377,-9622.677246,153.219100
1030.218437,888.247130,-9252.574275,0.000000
1030.218760,1480.411884,-9474.636058,306.438199
1030.219084,2442.679609,-10807.006753,153.219100
1030.219408,1480.411884,-11325.150913,-153.219100
1030.219732,1332.370696,-10807.006753,0.000000
1030.220055,888.247130,-10288.862594,0.000000
1030.220379,296.082377,-10584.944971,0.000000
1030.220703,0.000000,-11177.109724,-1685.410096
1030.221027,-814.226536,-10881.027347,-2451.505594
1030.221351,-1036.288319,-11177.109724,-3294.210641
1030.221674,-740.205942,-11547.212695,-2068.457845
1030.221998,1110.308913,-11473.192101,-1532.190996
1030.222322,814.226536,-10214.842000,-2068.457845
1030.222646,-518.144159,-9622.677246,-842.705048
1030.222969,-1110.308913,-9992.780217,-1532.190996
1030.223293,-222.061783,-11029.068536,-1302.362347
1030.223617,296.082377,-11029.068536,-612.876398
1030.223941,1480.411884,-9400.615463,0.000000
1030.224264,2812.782580,-8808.450710,0.000000
1030.224588,3256.906145,-9474.636058,689.485948
1030.224912,3182.885551,-9696.697840,229.828649
1030.225236,1332.370696,-9770.718434,536.266849
1030.225559,-370.102971,-9918.759623,0.000000
1030.225883,-1702.473667,-9622.677246,-1685.410096
1030.226207,-1480.411884,-8808.450710,-1838.629195
1030.226531,-1332.370696,-8142.265362,-1685.410096
1030.226854,-1110.308913,-8660.409521,-2068.457845
1030.227178,-1110.308913,-8808.450710,-1455.581446
1030.227502,-1110.308913,-7846.182985,-689.485948
1030.227826,-2072.576638,-8660.409521,-919.314598
1030.228149,-2886.803174,-9030.512492,-1378.971896
1030.228473,-2442.679609,-7920.203579,-1685.410096
1030.228797,-1628.453072,-7920.203579,153.219100
1030.229121,-296.082377,-9326.594869,153.219100
1030.229444,296.082377,-10140.821405,1072.533697
1030.229768,0.000000,-9252.574275,1685.410096
1030.230092,1480.411884,-8660.409521,1685.410096
1030.230416,3182.885551,-10584.944971,2451.505594
1030.230739,2960.823768,-11177.109724,1302.362347
1030.231063,1110.308913,-10140.821405,1685.410096
1030.231387,-1406.391290,-9992.780217,766.095498
1030.231711,-2590.720797,-10658.965565,-1149.143247
1030.232034,-2664.741391,-10066.800811,-766.095498
1030.232358,-1554.432478,-9696.697840,-536.266849
1030.232682,-740.205942,-10288.862594,-919.314598
1030.233006,-370.102971,-9992.780217,-766.095498
1030.233329,-444.123565,-9696.697840,0.000000
1030.233653,-962.267725,-10732.986159,0.000000
1030.233977,-1406.391290,-11399.171507,842.705048
1030.234301,-444.123565,-11769.274478,1991.848295
1030.234624,666.185348,-10807.006753,2451.505594
1030.234948,1850.514855,-10807.006753,2987.772442
1030.235272,1480.411884,-10732.986159,3064.381992
1030.235596,740.205942,-9770.718434,1685.410096
1030.235919,222.061783,-9178.553681,1455.581446
1030.236243,222.061783,-9918.759623,612.876398
1030.236567,-592.164754,-9548.656652,536.266849
1030.236891,-666.185348,-8142.265362,536.266849
1030.237215,-814.226536,-7550.100608,1072.533697
1030.237538,-666.185348,-8438.347739,-459.657299
1030.237862,-592.164754,-8660.409521,-536.266849
1030.238186,-592.164754,-8734.430116,1149.143247
1030.238510,444.123565,-9030.512492,1378.971896
1030.238833,1332.370696,-9474.636058,1991.848295
1030.239157,74.020594,-9030.512492,2298.286494
1030.239481,0.000000,-9104.533087,2145.067394
1030.239805,74.020594,-9474.636058,2145.067394
1030.240128,1258.350101,-9326.594869,2374.896044
1030.240452,2220.617826,-9104.533087,2145.067394
1030.240776,1850.514855,-8364.327145,2145.067394
1030.241100,1036.288319,-8882.471304,2298.286494
1030.241423,518.144159,-8808.450710,1149.143247
1030.241747,74.020594,-7698.141797,0.000000
1030.242071,-1036.288319,-8290.306550,306.438199
1030.242395,-962.267725,-9548.656652,0.000000
1030.242718,222.061783,-8882.471304,-842.705048
1030.243042,592.164754,-7846.182985,-842.705048
1030.243366,-592.164754,-7846.182985,-1378.971896
1030.243690,-2146.597232,-8808.450710,-1991.848295
1030.244013,-2294.638420,-9548.656652,-1455.581446
1030.244337,-814.226536,-9548.656652,0.000000
1030.244661,962.267725,-9400.615463,0.000000
1030.244985,740.205942,-9992.780217,-766.095498
1030.245308,740.205942,-10362.883188,0.000000
1030.245632,1406.391290,-10732.986159,383.047749
1030.245956,1628.453072,-11251.130318,536.266849
1030.246280,-444.123565,-11769.274478,-689.485948
1030.246603,-1850.514855,-10658.965565,-1685.410096
1030.246927,-1554.432478,-10658.965565,-2681.334243
1030.247251,-444.123565,-11473.192101,-1991.848295
1030.247575,-592.164754,-12583.501014,-2221.676944
1030.247898,-1406.391290,-11843.295072,-2221.676944
1030.248222,-2590.720797,-11769.274478,-2911.162892
1030.248546,-2220.617826,-11103.089130,-2681.334243
1030.248870,-518.144159,-11103.089130,-2528.115143
1030.249193,-370.102971,-10955.047942,-2068.457845
1030.249517,-1332.370696,-10066.800811,-1532.190996
1030.249841,-1554.432478,-9178.553681,-1991.848295
1030.250165,-666.185348,-9178.553681,-1072.533697
1030.250488,-148.041188,-11029.068536,-229.828649
1030.250812,0.000000,-10510.924376,0.000000
1030.251136,0.000000,-9400.615463,76.609550
1030.251460,1628.453072,-8512.368333,766.095498
1030.251783,2516.700203,-9992.780217,153.219100
1030.252107,2368.659014,-9326.594869,153.219100
1030.252431,962.267725,-8882.471304,229.828649
1030.252755,1036.288319,-9474.636058,306.438199
1030.253078,2220.617826,-9770.718434,229.828649
1030.253402,1776.494261,-8438.347739,612.876398
1030.253726,666.185348,-7328.038826,842.705048
1030.254050,0.000000,-7328.038826,-153.219100
1030.254374,296.082377,-7698.141797,-306.438199
1030.254697,-370.102971,-8660.409521,0.000000
1030.255021,0.000000,-8216.285956,919.314598
1030.255345,222.061783,-7402.059420,76.609550
1030.255669,-222.061783,-7550.100608,383.047749
1030.255992,-814.226536,-8808.450710,0.000000
1030.256316,-1332.370696,-9622.677246,536.266849
1030.256640,-592.164754,-10140.821405,306.438199
1030.256964,740.205942,-10140.821405,383.047749
1030.257287,1924.535449,-8956.491898,612.876398
1030.257611,3627.009116,-9844.739029,842.705048
1030.257935,2738.761985,-10807.006753,766.095498
1030.258259,518.144159,-10362.883188,0.000000
1030.258582,-814.226536,-9548.656652,-153.219100
1030.258906,-1110.308913,-10140.821405,-842.705048
1030.259230,-148.041188,-10066.800811,-995.924147
1030.259554,0.000000,-9474.636058,-612.876398
1030.259877,222.061783,-9622.677246,-229.828649
1030.260201,814.226536,-11251.130318,-306.438199
1030.260525,0.000000,-11177.109724,153.219100
1030.260849,-1184.329507,-9770.718434,0.000000
1030.261172,-2442.679609,-9326.594869,0.000000
1030.261496,-3034.844362,-9992.780217,-612.876398
1030.261820,-3034.844362,-9992.780217,-1225.752797
1030.262144,-2220.617826,-10288.862594,-383.047749
1030.262467,-962.267725,-11325.150913,76.609550
1030.262791,148.041188,-10955.047942,536.266849
1030.263115,888.247130,-9844.739029,459.657299
1030.263439,740.205942,-9474.636058,459.657299
1030.263762,962.267725,-10436.903782,-306.438199
1030.264086,0.000000,-11547.212695,76.609550
1030.264410,-518.144159,-11695.253884,536.266849
1030.264734,-518.144159,-11251.130318,1149.143247
1030.265057,0.000000,-10362.883188,1225.752797
1030.265381,148.041188,-9622.677246,536.266849
1030.265705,444.123565,-8956.491898,153.219100
1030.266028,370.102971,-8734.430116,76.609550
1030.266352,0.000000,-9178.553681,1378.971896
1030.266676,-814.226536,-9622.677246,1915.238745
1030.267000,-1184.329507,-8512.368333,2068.457845
1030.267323,-962.267725,-8068.244768,2068.457845
1030.267647,-592.164754,-8438.347739,919.314598
1030.267971,0.000000,-8364.327145,689.485948
1030.268295,518.144159,-8660.409521,1838.629195
1030.268618,1258.350101,-8808.450710,1915.238745
1030.268942,2072.576638,-8438.347739,1378.971896
1030.269266,1702.473667,-7254.018232,1455.581446
1030.269589,0.000000,-7179.997637,612.876398
1030.269913,-666.185348,-8882.471304,-536.266849
1030.270237,-1480.411884,-9326.594869,-536.266849
1030.270561,-1554.432478,-9178.553681,383.047749
1030.270884,-740.205942,-9548.656652,229.828649
1030.271208,222.061783,-9104.533087,0.000000
1030.271532,1332.370696,-9918.759623,383.047749
1030.271856,1110.308913,-10436.903782,306.438199
1030.272179,518.144159,-10584.944971,-1302.362347
1030.272503,-1702.473667,-9326.594869,-612.876398
1030.272827,-1332.370696,-9030.512492,-612.876398
1030.273150,0.000000,-9400.615463,-995.924147
1030.273474,1258.350101,-9844.739029,-995.924147
1030.273798,962.267725,-9918.759623,-995.924147
1030.274122,814.226536,-9918.759623,0.000000
1030.274445,814.226536,-9474.636058,-1762.019645
1030.274769,-296.082377,-9474.636058,-766.095498
1030.275093,-814.226536,-9622.677246,-995.924147
1030.275416,-962.267725,-9844.739029,-1225.752797
1030.275740,-888.247130,-11029.068536,-1915.238745
1030.276064,222.061783,-9844.739029,-2068.457845
1030.276388,1406.391290,-9400.615463,-1685.410096
1030.276711,1776.494261,-10214.842000,0.000000
1030.277035,1776.494261,-10436.903782,-1225.752797
1030.277359,1332.370696,-9548.656652,-1608.800546
1030.277683,962.267725,-10288.862594,-1762.019645
1030.278006,666.185348,-11695.253884,-1991.848295
1030.278330,1480.411884,-12583.501014,-1072.533697
1030.278654,1036.288319,-11251.130318,-1378.971896
1030.278977,148.041188,-10807.006753,-766.095498
1030.279301,-1258.350101,-11843.295072,-1302.362347
1030.279625,-888.247130,-11843.295072,-1608.800546
1030.279949,0.000000,-11399.171507,-1532.190996
1030.280272,296.082377,-10510.924376,-689.485948
1030.280596,444.123565,-10584.944971,-306.438199
1030.280920,518.144159,-10881.027347,-459.657299
1030.281243,0.000000,-9474.636058,-306.438199
1030.281567,-962.267725,-8956.491898,-153.219100
1030.281891,-888.247130,-9548.656652,229.828649
1030.282215,-740.205942,-9918.759623,536.266849
1030.282538,0.000000,-9104.533087,919.314598
1030.282862,222.061783,-7994.224174,766.095498
1030.283186,-740.205942,-7550.100608,229.828649
1030.283510,-444.123565,-8364.327145,995.924147
1030.283833,370.102971,-8808.450710,1608.800546
1030.284157,592.164754,-7994.224174,689.485948
1030.284481,-1110.308913,-6661.853478,536.266849
1030.284804,-2664.741391,-6587.832884,919.314598
1030.285128,-1702.473667,-8512.368333,612.876398
1030.285452,222.061783,-8364.327145,689.485948
1030.285776,296.082377,-7476.080014,689.485948
1030.286099,-962.267725,-8068.244768,1225.752797
1030.286423,0.000000,-9030.512492,1302.362347
1030.286747,0.000000,-9474.636058,1455.581446
1030.287070,370.102971,-9252.574275,1991.848295
1030.287394,0.000000,-9548.656652,1378.971896
1030.287718,-1036.288319,-10658.965565,229.828649
1030.288042,-740.205942,-9622.677246,306.438199
1030.288365,444.123565,-9622.677246,1991.848295
1030.288689,814.226536,-10436.903782,1072.533697
1030.289013,0.000000,-9770.718434,383.047749
1030.289337,-1850.514855,-9622.677246,153.219100
1030.289660,-1702.473667,-9474.636058,-689.485948
1030.289984,-666.185348,-10510.924376,-766.095498
1030.290308,-592.164754,-11621.233289,76.609550
1030.290631,-148.041188,-10881.027347,-612.876398
1030.290955,0.000000,-9474.636058,-919.314598
1030.291279,518.144159,-10807.006753,-153.219100
1030.291603,1332.370696,-11843.295072,76.609550
1030.291926,1998.556043,-11843.295072,0.000000
1030.292250,1998.556043,-11325.150913,766.095498
1030.292574,1998.556043,-11177.109724,0.000000
1030.292897,1480.411884,-11843.295072,-229.828649
1030.293221,592.164754,-11769.274478,306.438199
1030.293545,888.247130,-11843.295072,0.000000
1030.293869,1702.473667,-10732.986159,0.000000
1030.294192,1554.432478,-10732.986159,153.219100
1030.294516,222.061783,-10881.027347,0.000000
1030.294840,-740.205942,-10362.883188,-536.266849
1030.295164,-1406.391290,-9326.594869,-919.314598
1030.295487,-1258.350101,-9030.512492,-1378.971896
1030.295811,-1406.391290,-8586.388927,-842.705048
1030.296135,-1110.308913,-8216.285956,0.000000
1030.296458,-740.205942,-7698.141797,995.924147
1030.296782,0.000000,-7476.080014,766.095498
1030.297106,370.102971,-8068.244768,689.485948
1030.297430,1184.329507,-8142.265362,995.924147
1030.297753,2220.617826,-7846.182985,612.876398
1030.298077,2738.761985,-7031.956449,1378.971896
1030.298401,2294.638420,-7550.100608,1532.190996
1030.298724,1702.473667,-8142.265362,1225.752797
1030.299048,666.185348,-8290.306550,689.485948
1030.299372,-148.041188,-7105.977043,-153.219100
1030.299696,-740.205942,-7105.977043,-842.705048
1030.300019,-1258.350101,-7994.224174,-766.095498
1030.300343,-1258.350101,-9104.533087,153.219100
1030.300667,-1628.453072,-8734.430116,-459.657299
1030.300991,-2072.576638,-7254.018232,-1225.752797
1030.301314,-2664.741391,-7550.100608,-1685.410096
1030.301638,-2368.659014,-9992.780217,-1072.533697
1030.301962,-1850.514855,-11843.295072,0.000000
1030.302285,-518.144159,-11251.130318,0.000000
1030.302609,-148.041188,-10140.821405,-536.266849
1030.302933,-296.082377,-10584.944971,-383.047749
1030.303257,148.041188,-12509.480420,-612.876398
1030.303580,444.123565,-12509.480420,-1149.143247
1030.303904,666.185348,-12361.439231,-689.485948
1030.304228,148.041188,-11621.233289,-766.095498
1030.304551,74.020594,-11843.295072,-1991.848295
1030.304875,-814.226536,-11843.295072,-2604.724693
1030.305199,-592.164754,-10807.006753,-2451.505594
1030.305523,444.123565,-11991.336260,-2221.676944
1030.305846,592.164754,-11843.295072,-1455.581446
1030.306170,-296.082377,-11177.109724,-842.705048
1030.306494,-222.061783,-9918.759623,-229.828649
1030.306818,0.000000,-10658.965565,-1532.190996
1030.307141,-666.185348,-11399.171507,-1225.752797
1030.307465,-1110.308913,-11621.233289,-689.485948
1030.307789,-148.041188,-10214.842000,-842.705048
1030.308112,518.144159,-9622.677246,76.609550
1030.308436,1258.350101,-8956.491898,0.000000
1030.308760,1702.473667,-9252.574275,-306.438199
1030.309084,1036.288319,-10288.862594,-383.047749
1030.309407,0.000000,-9696.697840,76.609550
1030.309731,222.061783,-8734.430116,0.000000
1030.310055,740.205942,-8290.306550,0.000000
1030.310379,222.061783,-8882.471304,229.828649
1030.310702,-148.041188,-8956.491898,919.314598
1030.311026,222.061783,-8956.491898,1455.581446
1030.311350,74.020594,-9326.594869,2145.067394
1030.311673,296.082377,-8586.388927,1532.190996
1030.311997,0.000000,-7328.038826,1838.629195
1030.312321,0.000000,-6957.935855,919.314598
1030.312645,-1036.288319,-7550.100608,766.095498
1030.312968,-1332.370696,-7772.162391,689.485948
1030.313292,-1850.514855,-7772.162391,0.000000
1030.313616,-592.164754,-8586.388927,1762.019645
1030.313939,1628.453072,-9030.512492,1225.752797
1030.314263,2220.617826,-8512.368333,919.314598
1030.314587,1110.308913,-8808.450710,1915.238745
1030.314911,74.020594,-8956.491898,1608.800546
1030.315234,518.144159,-9622.677246,1608.800546
1030.315558,666.185348,-9326.594869,1378.971896
1030.315882,-148.041188,-8808.450710,995.924147
1030.316206,-814.226536,-8956.491898,1149.143247
1030.316529,-518.144159,-9844.739029,229.828649
1030.316853,-1554.432478,-10140.821405,459.657299
1030.317177,-1850.514855,-9770.718434,689.485948
1030.317500,-2294.638420,-9844.739029,536.266849
1030.317824,-2072.576638,-10362.883188,0.000000
1030.318148,-1850.514855,-9252.574275,-919.314598
1030.318472,-1776.494261,-9474.636058,-1225.752797
1030.318795,-1554.432478,-11547.212695,-689.485948
1030.319119,-148.041188,-12435.459826,-306.438199
1030.319443,1924.535449,-11251.130318,229.828649
1030.319766,1628.453072,-10362.883188,-229.828649
1030.320090,666.185348,-10214.842000,-1225.752797
1030.320414,518.144159,-11029.068536,-689.485948
1030.320738,1258.350101,-12139.377449,-1072.533697
1030.321061,1110.308913,-11917.315666,-383.047749
1030.321385,888.247130,-11325.150913,153.219100
1030.321709,-296.082377,-11177.109724,-383.047749
1030.322033,-1480.411884,-10510.924376,-1302.362347
1030.322356,-1184.329507,-9622.677246,-1378.971896
1030.322680,-814.226536,-10362.883188,-689.485948
1030.323004,-518.144159,-11029.068536,-766.095498
1030.323327,-592.164754,-10362.883188,536.266849
1030.323651,962.267725,-8808.450710,919.314598
1030.323975,2072.576638,-8586.388927,0.000000
1030.324299,1480.411884,-9326.594869,-153.219100
1030.324622,222.061783,-9844.739029,153.219100
1030.324946,1184.329507,-9104.533087,-229.828649
1030.325270,2368.659014,-7994.224174,459.657299
1030.325593,2738.761985,-8068.244768,1838.629195
1030.325917,2220.617826,-8512.368333,0.000000
1030.326241,518.144159,-8216.285956,-536.266849
1030.326565,-222.061783,-7179.997637,-536.266849
1030.326888,-518.144159,-7550.100608,-536.266849
1030.327212,-888.247130,-8660.409521,-689.485948
1030.327536,-1406.391290,-6513.812290,-1455.581446
1030.327860,-1628.453072,-5329.482782,-612.876398
1030.328183,-814.226536,-7254.018232,-1762.019645
1030.328507,-1036.288319,-8734.430116,-842.705048
1030.328831,-1554.432478,-9548.656652,0.000000
1030.329154,-1332.370696,-8216.285956,0.000000
1030.329478,148.041188,-7994.224174,-1072.533697
1030.329802,1184.329507,-9178.553681,153.219100
1030.330126,2590.720797,-11251.130318,229.828649
1030.330449,3330.926739,-13101.645173,1838.629195
1030.330773,3182.885551,-12731.542202,459.657299
1030.331097,888.247130,-10436.903782,-842.705048
1030.331420,-1554.432478,-10955.047942,-1455.581446
1030.331744,-2294.638420,-12509.480420,-2374.896044
1030.332068,-1924.535449,-12213.398043,-2374.896044
1030.332392,-2442.679609,-12805.562797,-1915.238745
1030.332715,-2960.823768,-11325.150913,-1378.971896
1030.333039,-1776.494261,-11695.253884,-2374.896044
1030.333363,-740.205942,-10362.883188,-1378.971896
1030.333687,518.144159,-10807.006753,-1225.752797
1030.334010,222.061783,-11103.089130,-1685.410096
1030.334334,-222.061783,-10510.924376,-919.314598
1030.334658,296.082377,-9770.718434,76.609550
1030.334981,1036.288319,-9696.697840,306.438199
1030.335305,1332.370696,-10214.842000,-383.047749
1030.335629,740.205942,-9918.759623,0.000000
1030.335953,518.144159,-10214.842000,-153.219100
1030.336276,1554.432478,-9474.636058,-536.266849
1030.336600,1258.350101,-8586.388927,-306.438199
1030.336924,0.000000,-8734.430116,0.000000
1030.337247,-592.164754,-9030.512492,-919.314598
1030.337571,-1110.308913,-9178.553681,-306.438199
1030.337895,-740.205942,-9770.718434,153.219100
1030.338219,-1480.411884,-9844.739029,459.657299
1030.338542,-1406.391290,-9474.636058,612.876398
1030.338866,-592.164754,-8808.450710,1302.362347
1030.339190,222.061783,-9844.739029,2528.115143
1030.339514,1036.288319,-9918.759623,2068.457845
1030.339837,814.226536,-9030.512492,2298.286494
1030.340161,-370.102971,-8660.409521,1302.362347
1030.340485,0.000000,-7846.182985,689.485948
1030.340808,444.123565,-7698.141797,689.485948
1030.341132,-592.164754,-8438.347739,1072.533697
1030.341456,-962.267725,-8438.347739,1302.362347
1030.341780,-888.247130,-7402.059420,919.314598
1030.342103,222.061783,-8216.285956,1378.971896
1030.342427,222.061783,-7920.203579,842.705048
1030.342751,888.247130,-7550.100608,612.876398
1030.343074,370.102971,-7254.018232,689.485948
1030.343398,814.226536,-9474.636058,1608.800546
1030.343722,1628.453072,-11029.068536,1685.410096
1030.344046,3034.844362,-9844.739029,1378.971896
1030.344369,2294.638420,-7550.100608,1149.143247
1030.344693,518.144159,-7550.100608,1225.752797
1030.345017,0.000000,-9992.780217,0.000000
1030.345341,-1036.288319,-10807.006753,306.438199
1030.345664,-1110.308913,-10658.965565,689.485948
1030.345988,-1480.411884,-9696.697840,-459.657299
1030.346312,-2072.576638,-9770.718434,-1915.238745
1030.346635,-2590.720797,-10732.986159,-1378.971896
1030.346959,-1924.535449,-11769.274478,-1225.752797
1030.347283,-740.205942,-12065.356855,-1378.971896
1030.347607,-1480.411884,-11843.295072,-1302.362347
1030.347930,-1998.556043,-11695.253884,-995.924147
1030.348254,296.082377,-11843.295072,-459.657299
1030.348578,3256.906145,-12509.480420,0.000000
1030.348901,3256.906145,-12139.377449,153.219100
1030.349225,2146.597232,-10658.965565,-1532.190996
1030.349549,-370.102971,-9992.780217,-1762.019645
1030.349873,-148.041188,-11029.068536,0.000000
1030.350196,1406.391290,-11103.089130,-689.485948
1030.350520,1480.411884,-9992.780217,-1608.800546
1030.350844,0.000000,-8364.327145,-1915.238745
1030.351168,518.144159,-9326.594869,-1378.971896
1030.351491,1258.350101,-10881.027347,-1762.019645
1030.351815,1628.453072,-10436.903782,-919.314598
1030.352139,-1184.329507,-8512.368333,-1532.190996
1030.352462,-2368.659014,-8882.471304,-1378.971896
1030.352786,-1184.329507,-9252.574275,-1072.533697
1030.353110,0.000000,-9326.594869,-536.266849
1030.353434,222.061783,-9030.512492,-689.485948
1030.353757,518.144159,-8290.306550,-766.095498
1030.354081,1036.288319,-9474.636058,0.000000
1030.354405,1036.288319,-10066.800811,612.876398
1030.354729,1110.308913,-8660.409521,153.219100
1030.355052,-1036.288319,-8216.285956,-459.657299
1030.355376,-1628.453072,-8216.285956,-1149.143247
1030.355700,-1110.308913,-9474.636058,-919.314598
1030.356023,370.102971,-9252.574275,229.828649
1030.356347,962.267725,-7550.100608,766.095498
1030.356671,518.144159,-8142.265362,-153.219100
1030.356995,0.000000,-8586.388927,-612.876398
1030.357318,-1184.329507,-8808.450710,-383.047749
1030.357642,-444.123565,-8364.327145,-842.705048
1030.357966,-666.185348,-8290.306550,-842.705048
1030.358289,-814.226536,-8290.306550,229.828649
1030.358613,-296.082377,-8882.471304,229.828649
1030.358937,-296.082377,-9696.697840,0.000000
1030.359261,-444.123565,-10510.924376,306.438199
1030.359584,74.020594,-9622.677246,0.000000
1030.359908,-148.041188,-10584.944971,-536.266849
1030.360232,0.000000,-11177.109724,766.095498
1030.360556,888.247130,-11769.274478,76.609550
1030.360879,666.185348,-10955.047942,0.000000
1030.361203,-148.041188,-11251.130318,0.000000
1030.361527,-814.226536,-11325.150913,153.219100
1030.361850,-518.144159,-11695.253884,-536.266849
1030.362174,-814.226536,-11547.212695,0.000000
1030.362498,296.082377,-11251.130318,0.000000
1030.362822,296.082377,-11251.130318,-766.095498
1030.363145,444.123565,-10214.842000,-1302.362347
1030.363469,-518.144159,-10584.944971,-1225.752797
1030.363793,-740.205942,-10732.986159,-383.047749
1030.364116,962.267725,-10658.965565,0.000000
1030.364440,1406.391290,-11177.109724,766.095498
1030.364764,814.226536,-10214.842000,766.095498
1030.365088,0.000000,-8956.491898,-306.438199
1030.365412,-370.102971,-9400.615463,-919.314598
1030.365736,-666.185348,-9474.636058,229.828649
1030.366060,1110.308913,-10066.800811,1225.752797
1030.366383,592.164754,-9622.677246,842.705048
1030.366707,222.061783,-8216.285956,1455.581446
1030.367031,-814.226536,-7772.162391,766.095498
1030.367355,-962.267725,-9030.512492,-766.095498
1030.367679,-962.267725,-9104.533087,-919.314598
1030.368003,-1776.494261,-7920.203579,-229.828649
1030.368327,-1036.288319,-7920.203579,766.095498
1030.368651,0.000000,-9252.574275,1072.533697
1030.368975,370.102971,-9400.615463,1455.581446
1030.369298,222.061783,-8364.327145,1762.019645
1030.369622,222.061783,-8586.388927,76.609550
1030.369946,-74.020594,-8882.471304,229.828649
1030.370270,148.041188,-8586.388927,1149.143247
1030.370594,148.041188,-8586.388927,383.047749
1030.370918,-222.061783,-8068.244768,459.657299
1030.371242,-962.267725,-8364.327145,766.095498
1030.371566,-444.123565,-8808.450710,1225.752797
1030.371890,518.144159,-8956.491898,0.000000
1030.372213,-444.123565,-8438.347739,0.000000
1030.372537,-1110.308913,-9178.553681,229.828649
1030.372861,-740.205942,-9770.718434,-383.047749
1030.373185,-148.041188,-9474.636058,-383.047749
1030.373509,-1036.288319,-9252.574275,306.438199
1030.373833,-148.041188,-10584.944971,76.609550
1030.374157,740.205942,-11621.233289,-536.266849
1030.374481,1554.432478,-10658.965565,-689.485948
1030.374804,1480.411884,-9770.718434,76.609550
1030.375128,666.185348,-10510.924376,-536.266849
1030.375452,74.020594,-10955.047942,-995.924147
1030.375776,-1406.391290,-10066.800811,-612.876398
1030.376100,-1554.432478,-9548.656652,-2221.676944
1030.376424,-2294.638420,-9104.533087,-2298.286494
1030.376748,-1850.514855,-11103.089130,-1532.190996
1030.377072,-444.123565,-11473.192101,-919.314598
1030.377396,518.144159,-11029.068536,-842.705048
1030.377719,0.000000,-10658.965565,-1149.143247
1030.378043,-1036.288319,-11251.130318,-766.095498
1030.378367,0.000000,-11917.315666,-536.266849
1030.378691,2072.576638,-10510.924376,-919.314598
1030.379015,2960.823768,-10362.883188,306.438199
1030.379339,1406.391290,-10658.965565,153.219100
1030.379663,666.185348,-11547.212695,-1302.362347
1030.379987,518.144159,-10140.821405,-536.266849
1030.380310,1110.308913,-9992.780217,-383.047749
1030.380634,0.000000,-11029.068536,-842.705048
1030.380958,-814.226536,-10584.944971,-1302.362347
1030.381282,-1702.473667,-9030.512492,-383.047749
1030.381606,-814.226536,-9104.533087,-766.095498
1030.381930,74.020594,-8216.285956,-919.314598
1030.382254,518.144159,-8364.327145,-229.828649
1030.382578,-148.041188,-8068.244768,0.000000
1030.382902,666.185348,-7772.162391,383.047749
1030.383225,1258.350101,-7476.080014,-383.047749
1030.383549,-222.061783,-7105.977043,0.000000
1030.383873,-962.267725,-7772.162391,153.219100
1030.384197,740.205942,-7846.182985,0.000000
1030.384521,1554.432478,-7105.977043,0.000000
1030.384845,-222.061783,-7920.203579,0.000000
1030.385169,-1184.329507,-9030.512492,-229.828649
1030.385493,-592.164754,-9622.677246,0.000000
1030.385817,592.164754,-10732.986159,842.705048
1030.386140,296.082377,-10584.944971,995.924147
1030.386464,-296.082377,-9474.636058,0.000000
1030.386788,-1036.288319,-9770.718434,0.000000
1030.387112,-740.205942,-10362.883188,459.657299
1030.387436,-148.041188,-10881.027347,306.438199
1030.387760,-592.164754,-10066.800811,153.219100
1030.388084,-1480.411884,-9474.636058,459.657299
1030.388408,-2220.617826,-9400.615463,0.000000
1030.388731,-1554.432478,-9252.574275,-995.924147
1030.389055,-2368.659014,-9548.656652,-766.095498
1030.389379,-1184.329507,-10510.924376,-306.438199
1030.389703,0.000000,-10214.842000,-612.876398
1030.390027,1406.391290,-9770.718434,0.000000
1030.390351,1850.514855,-9918.759623,306.438199
1030.390675,1332.370696,-10658.965565,229.828649
1030.390999,814.226536,-10807.006753,-459.657299
1030.391323,370.102971,-10510.924376,0.000000
1030.391646,0.000000,-10658.965565,-1072.533697
1030.391970,0.000000,-11325.150913,-229.828649
1030.392294,222.061783,-11843.295072,995.924147
1030.392618,888.247130,-11695.253884,459.657299
1030.392942,1998.556043,-9918.759623,0.000000
1030.393266,962.267725,-9622.677246,-383.047749
1030.393590,0.000000,-10732.986159,76.609550
1030.393914,296.082377,-10732.986159,689.485948
1030.394238,592.164754,-10436.903782,995.924147
1030.394561,-222.061783,-9474.636058,153.219100
1030.394885,-2072.576638,-8216.285956,-919.314598
1030.395209,-2294.638420,-8882.471304,-689.485948
1030.395533,-370.102971,-8882.471304,306.438199
1030.395857,1628.453072,-8808.450710,-229.828649
1030.396181,814.226536,-9178.553681,919.314598
1030.396505,-370.102971,-8512.368333,995.924147
1030.396829,0.000000,-9178.553681,1149.143247
1030.397152,814.226536,-9474.636058,766.095498
1030.397476,-370.102971,-8586.388927,229.828649
1030.397800,-962.267725,-8438.347739,459.657299
1030.398124,148.041188,-9252.574275,536.266849
1030.398448,2294.638420,-9918.759623,1072.533697
1030.398772,2442.679609,-8438.347739,842.705048
1030.399096,592.164754,-7772.162391,0.000000
1030.399420,-1628.453072,-8808.450710,-689.485948
1030.399744,-1332.370696,-9992.780217,-1072.533697
1030.400067,-740.205942,-9622.677246,-536.266849
1030.400391,-740.205942,-9178.553681,459.657299
1030.400715,-740.205942,-9474.636058,76.609550
1030.401039,-1184.329507,-9548.656652,-459.657299
1030.401363,-888.247130,-9252.574275,459.657299
1030.401687,148.041188,-9252.574275,689.485948
1030.402011,-444.123565,-9474.636058,383.047749
1030.402335,-1924.535449,-8956.491898,-153.219100
1030.402658,-2812.782580,-8956.491898,-536.266849
1030.402982,-2368.659014,-9252.574275,-536.266849
1030.403306,-592.164754,-9770.718434,-383.047749
1030.403630,222.061783,-10436.903782,0.000000
1030.403954,2146.597232,-9474.636058,0.000000
1030.404278,2960.823768,-9474.636058,-383.047749
1030.404602,2886.803174,-10955.047942,383.047749
1030.404926,3182.885551,-11991.336260,0.000000
1030.405250,2146.597232,-11695.253884,-612.876398
1030.405573,592.164754,-10584.944971,-1915.238745
1030.405897,-1480.411884,-10066.800811,-1991.848295
1030.406221,-1850.514855,-10510.924376,-1838.629195
1030.406545,-1702.473667,-10881.027347,-1991.848295
1030.406869,-1998.556043,-10732.986159,-995.924147
1030.407193,-1702.473667,-10140.821405,-1915.238745
1030.407517,-1480.411884,-9696.697840,-1149.143247
1030.407841,-444.123565,-11177.109724,-153.219100
1030.408165,0.000000,-11547.212695,0.000000
1030.408488,0.000000,-9992.780217,0.000000
1030.408812,0.000000,-9918.759623,-459.657299
1030.409136,518.144159,-10436.903782,0.000000
1030.409460,1850.514855,-11103.089130,153.219100
1030.409784,2738.761985,-10214.842000,459.657299
1030.410108,2442.679609,-9474.636058,0.000000
1030.410432,1184.329507,-8734.430116,-1072.533697
1030.410756,444.123565,-8882.471304,-1149.143247
1030.411079,0.000000,-8734.430116,-689.485948
1030.411403,0.000000,-8734.430116,-995.924147
1030.411727,148.041188,-8290.306550,-1149.143247
1030.412051,0.000000,-8438.347739,-383.047749
1030.412375,-370.102971,-8438.347739,0.000000
1030.412699,148.041188,-7846.182985,383.047749
1030.413023,0.000000,-7624.121203,459.657299
1030.413347,-592.164754,-8290.306550,0.000000
1030.413671,-1184.329507,-9326.594869,306.438199
1030.413994,-888.247130,-9178.553681,919.314598
1030.414318,0.000000,-9104.533087,536.266849
1030.414642,-592.164754,-8882.471304,689.485948
1030.414966,-740.205942,-9918.759623,536.266849
1030.415290,-1184.329507,-9918.759623,766.095498
1030.415614,-1110.308913,-9844.739029,153.219100
1030.415938,-1332.370696,-9252.574275,0.000000
1030.416262,-962.267725,-9178.553681,459.657299
1030.416585,0.000000,-10362.883188,459.657299
1030.416909,-444.123565,-10288.862594,153.219100
1030.417233,-1184.329507,-9178.553681,0.000000
1030.417557,-814.226536,-8734.430116,383.047749
1030.417881,-222.061783,-10510.924376,689.485948
1030.418205,370.102971,-10214.842000,919.314598
1030.418529,888.247130,-9474.636058,1072.533697
1030.418853,148.041188,-9474.636058,1149.143247
1030.419177,740.205942,-9548.656652,229.828649
1030.419500,888.247130,-9844.739029,0.000000
1030.419824,518.144159,-10510.924376,306.438199
1030.420148,296.082377,-10362.883188,-306.438199
1030.420472,0.000000,-10658.965565,-766.095498
1030.420796,-370.102971,-10584.944971,-536.266849
1030.421120,0.000000,-10510.924376,0.000000
1030.421444,444.123565,-10436.903782,-766.095498
1030.421768,962.267725,-10436.903782,383.047749
1030.422092,740.205942,-11843.295072,766.095498
1030.422415,592.164754,-11103.089130,-383.047749
1030.422739,-666.185348,-10214.842000,-306.438199
1030.423063,-1554.432478,-9844.739029,-536.266849
1030.423387,-740.205942,-11177.109724,-1455.581446
1030.423711,518.144159,-11029.068536,766.095498
1030.424035,1258.350101,-9696.697840,-536.266849
1030.424359,1406.391290,-9178.553681,-689.485948
1030.424683,1258.350101,-9400.615463,-536.266849
1030.425006,1406.391290,-10066.800811,-153.219100
1030.425330,1036.288319,-10214.842000,153.219100
1030.425654,518.144159,-9400.615463,0.000000
1030.425978,-296.082377,-8068.244768,-766.095498
1030.426302,0.000000,-8438.347739,-153.219100
1030.426626,740.205942,-8808.450710,306.438199
1030.426950,1850.514855,-9548.656652,0.000000
1030.427274,592.164754,-8882.471304,536.266849
1030.427598,-666.185348,-7994.224174,612.876398
1030.427921,-1184.329507,-7920.203579,0.000000
1030.428245,-592.164754,-8364.327145,0.000000
1030.428569,-518.144159,-8290.306550,-536.266849
1030.428893,-444.123565,-9178.553681,-229.828649
1030.429217,-1258.350101,-10066.800811,76.609550
1030.429541,-296.082377,-9326.594869,-306.438199
1030.429865,296.082377,-8808.450710,0.000000
1030.430189,296.082377,-9326.594869,536.266849
1030.430513,888.247130,-9770.718434,0.000000
1030.430836,0.000000,-9622.677246,0.000000
1030.431160,-1110.308913,-9992.780217,0.000000
1030.431484,-2072.576638,-9918.759623,-459.657299
1030.431808,-1036.288319,-9696.697840,76.609550
1030.432132,74.020594,-10066.800811,229.828649
1030.432456,74.020594,-9770.718434,-1225.752797
1030.432780,-592.164754,-8290.306550,-1762.019645
1030.433104,-1110.308913,-9104.533087,0.000000
1030.433427,-518.144159,-11251.130318,-153.219100
1030.433751,-222.061783,-10362.883188,383.047749
1030.434075,-666.185348,-8882.471304,-1302.362347
1030.434399,-2368.659014,-8956.491898,-1838.629195
1030.434723,-2368.659014,-10807.006753,-2298.286494
1030.435047,-592.164754,-11769.274478,-1225.752797
1030.435371,1036.288319,-11917.315666,76.609550
1030.435695,1258.350101,-10807.006753,229.828649
1030.436019,1850.514855,-10066.800811,0.000000
1030.436342,2368.659014,-10881.027347,-766.095498
1030.436666,2220.617826,-11843.295072,76.609550
1030.436990,2368.659014,-11769.274478,-306.438199
1030.437314,1480.411884,-11029.068536,-153.219100
1030.437638,518.144159,-11029.068536,612.876398
1030.437962,444.123565,-10732.986159,153.219100
1030.438286,370.102971,-10955.047942,-842.705048
1030.438610,-888.247130,-10510.924376,-306.438199
1030.438933,-962.267725,-10288.862594,-1072.533697
1030.439257,-1332.370696,-9400.615463,-995.924147
1030.439581,-740.205942,-8660.409521,0.000000
1030.439905,0.000000,-8586.388927,76.609550
1030.440229,0.000000,-8882.471304,536.266849
1030.440553,148.041188,-9178.553681,0.000000
1030.440877,0.000000,-8586.388927,689.485948
1030.441201,370.102971,-8512.368333,1225.752797
1030.441525,518.144159,-8586.388927,842.705048
1030.441848,0.000000,-7772.162391,76.609550
1030.442172,148.041188,-7328.038826,919.314598
1030.442496,1332.370696,-8956.491898,1532.190996
1030.442820,814.226536,-9400.615463,1532.190996
1030.443144,-74.020594,-8068.244768,1149.143247
1030.443468,-1554.432478,-6883.915261,612.876398
1030.443792,-1628.453072,-8660.409521,0.000000
1030.444116,-1776.494261,-9844.739029,-229.828649
1030.444440,-2516.700203,-8438.347739,306.438199
1030.444763,-2294.638420,-8660.409521,153.219100
1030.445087,-1554.432478,-9622.677246,612.876398
1030.445411,-1184.329507,-9474.636058,612.876398
1030.445735,-444.123565,-9178.553681,1072.533697
1030.446059,0.000000,-9622.677246,1149.143247
1030.446383,-222.061783,-10881.027347,459.657299
1030.446707,0.000000,-11695.253884,766.095498
1030.447031,148.041188,-10955.047942,1072.533697
1030.447354,1628.453072,-9992.780217,689.485948
1030.447678,1628.453072,-9622.677246,153.219100
1030.448002,1184.329507,-9918.759623,76.609550
1030.448326,444.123565,-10658.965565,-229.828649
1030.448650,-962.267725,-10436.903782,-919.314598
1030.448974,-2072.576638,-9696.697840,-1532.190996
1030.449298,-1406.391290,-9400.615463,-1149.143247
1030.449622,666.185348,-10362.883188,0.000000
1030.449946,1628.453072,-10510.924376,995.924147
1030.450269,2220.617826,-10140.821405,1302.362347
1030.450593,1924.535449,-9104.533087,766.095498
1030.450917,370.102971,-9030.512492,0.000000
1030.451241,-592.164754,-9844.739029,-1149.143247
1030.451565,-222.061783,-9548.656652,153.219100
1030.451889,1406.391290,-10214.842000,1072.533697
1030.452213,2220.617826,-11103.089130,383.047749
1030.452537,888.247130,-10288.862594,-612.876398
1030.452861,-296.082377,-8808.450710,-842.705048
1030.453184,0.000000,-10288.862594,-1685.410096
1030.453508,444.123565,-11177.109724,-1302.362347
1030.453832,148.041188,-10584.944971,-842.705048
1030.454156,-962.267725,-9918.759623,0.000000
1030.454480,-1480.411884,-11399.171507,459.657299
1030.454804,-222.061783,-11399.171507,306.438199
1030.455128,0.000000,-10658.965565,-1149.143247
1030.455452,-1110.308913,-9474.636058,-383.047749
1030.455775,-1776.494261,-8808.450710,0.000000
1030.456099,-888.247130,-9770.718434,536.266849
1030.456423,0.000000,-9474.636058,1608.800546
1030.456747,0.000000,-8216.285956,1149.143247
1030.457071,-1332.370696,-7254.018232,842.705048
1030.457395,-1998.556043,-7328.038826,-1149.143247
1030.457719,-1406.391290,-7105.977043,-1915.238745
1030.458043,0.000000,-7624.121203,0.000000
1030.458367,148.041188,-8438.347739,-612.876398
1030.458690,-148.041188,-8142.265362,-612.876398
1030.459014,-888.247130,-7328.038826,-536.266849
1030.459338,-1036.288319,-7698.141797,-842.705048
1030.459662,-1776.494261,-8586.388927,-1302.362347
1030.459986,-1480.411884,-9474.636058,76.609550
1030.460310,518.144159,-10510.924376,1225.752797
1030.460634,2368.659014,-9622.677246,766.095498
1030.460958,2590.720797,-10140.821405,689.485948
1030.461281,1776.494261,-10658.965565,1302.362347
1030.461605,1332.370696,-11399.171507,-229.828649
1030.461929,74.020594,-10807.006753,-1149.143247
1030.462253,-740.205942,-10955.047942,-995.924147
1030.462577,-1924.535449,-10881.027347,-1302.362347
1030.462901,-2072.576638,-12139.377449,-383.047749
1030.463225,-1406.391290,-11695.253884,-536.266849
1030.463549,0.000000,-10955.047942,-919.314598
1030.463873,296.082377,-10584.944971,-1072.533697
1030.464196,0.000000,-9992.780217,-1378.971896
1030.464520,222.061783,-10807.006753,0.000000
1030.464844,888.247130,-10881.027347,1838.629195
1030.465168,1258.350101,-10140.821405,842.705048
1030.465492,518.144159,-9696.697840,1225.752797
1030.465816,0.000000,-8808.450710,229.828649
1030.466140,1184.329507,-8512.368333,-536.266849
1030.466464,2146.597232,-10140.821405,689.485948
1030.466788,1850.514855,-11103.089130,1302.362347
1030.467112,1776.494261,-9770.718434,766.095498
1030.467436,1036.288319,-9030.512492,766.095498
1030.467760,444.123565,-8512.368333,995.924147
1030.468084,592.164754,-9474.636058,153.219100
1030.468408,-222.061783,-8956.491898,-536.266849
1030.468732,-888.247130,-8734.430116,76.609550
1030.469056,-518.144159,-9252.574275,1072.533697
1030.469380,1184.329507,-9770.718434,1302.362347
1030.469704,592.164754,-9400.615463,1915.238745
1030.470028,-888.247130,-9252.574275,689.485948
1030.470352,-1998.556043,-8734.430116,1072.533697
1030.470675,-1480.411884,-9474.636058,1149.143247
1030.470999,-1184.329507,-8882.471304,1762.019645
1030.471323,-962.267725,-8586.388927,1991.848295
1030.471647,-1036.288319,-8216.285956,0.000000
1030.471971,-518.144159,-6957.935855,-459.657299
1030.472295,148.041188,-8068.244768,-459.657299
1030.472619,-296.082377,-8808.450710,229.828649
1030.472943,-222.061783,-8956.491898,459.657299
1030.473267,-740.205942,-8882.471304,536.266849
1030.473591,-370.102971,-8364.327145,-459.657299
1030.473915,148.041188,-9548.656652,0.000000
1030.474239,296.082377,-10732.986159,766.095498
1030.474563,1332.370696,-10362.883188,1302.362347
1030.474887,1702.473667,-9992.780217,1378.971896
1030.475211,1924.535449,-10658.965565,1608.800546
1030.475535,1036.288319,-11103.089130,306.438199
1030.475859,-518.144159,-11695.253884,-383.047749
1030.476183,-1924.535449,-11621.233289,-766.095498
1030.476507,-2146.597232,-11251.130318,-1762.019645
1030.476831,-2442.679609,-11177.109724,-1991.848295
1030.477155,-2516.700203,-10807.006753,-842.705048
1030.477479,-1110.308913,-11103.089130,-1762.019645
1030.477803,0.000000,-9844.739029,-1608.800546
1030.478127,518.144159,-10288.862594,-1608.800546
1030.478451,-148.041188,-11621.233289,-1072.533697
1030.478775,-888.247130,-11325.150913,-689.485948
1030.479098,74.020594,-9326.594869,-383.047749
1030.479422,666.185348,-8808.450710,76.609550
1030.479746,370.102971,-9474.636058,306.438199
1030.480070,1036.288319,-9548.656652,766.095498
1030.480394,1924.535449,-9474.636058,1532.190996
1030.480718,3034.844362,-9178.553681,766.095498
1030.481042,3108.864956,-8586.388927,842.705048
1030.481366,2368.659014,-8364.327145,229.828649
1030.481690,1110.308913,-8882.471304,-229.828649
1030.482014,518.144159,-8808.450710,-1378.971896
1030.482338,-740.205942,-8068.244768,-1915.238745
1030.482662,-2146.597232,-8438.347739,-1532.190996
1030.482986,-2516.700203,-9178.553681,-1455.581446
1030.483310,-1258.350101,-9104.533087,-995.924147
1030.483634,0.000000,-8290.306550,-1149.143247
1030.483958,-740.205942,-8512.368333,-766.095498
1030.484282,-1332.370696,-9696.697840,-229.828649
1030.484606,-1036.288319,-10658.965565,229.828649
1030.484930,74.020594,-9770.718434,229.828649
1030.485254,444.123565,-9252.574275,612.876398
1030.485578,74.020594,-9474.636058,689.485948
1030.485902,148.041188,-11029.068536,459.657299
1030.486226,370.102971,-11547.212695,0.000000
1030.486550,592.164754,-10436.903782,-306.438199
1030.486874,666.185348,-9400.615463,-306.438199
1030.487197,0.000000,-10214.842000,-689.485948
1030.487521,148.041188,-10584.944971,-919.314598
1030.487845,592.164754,-10288.862594,-995.924147
1030.488169,370.102971,-9400.615463,-995.924147
1030.488493,0.000000,-9474.636058,-1378.971896
1030.488817,-888.247130,-9400.615463,-842.705048
1030.489141,0.000000,-9326.594869,-1225.752797
1030.489465,74.020594,-9178.553681,0.000000
1030.489789,740.205942,-11029.068536,536.266849
1030.490113,740.205942,-10881.027347,153.219100
1030.490437,1258.350101,-9844.739029,383.047749
1030.490761,222.061783,-9770.718434,-383.047749
1030.491085,-1036.288319,-10140.821405,76.609550
1030.491409,-888.247130,-11177.109724,612.876398
1030.491733,-222.061783,-11177.109724,919.314598
1030.492057,1110.308913,-10732.986159,536.266849
1030.492381,296.082377,-9622.677246,383.047749
1030.492705,-444.123565,-9252.574275,229.828649
1030.493029,-370.102971,-10510.924376,842.705048
1030.493353,-296.082377,-11325.150913,383.047749
1030.493677,-1258.350101,-9178.553681,306.438199
1030.494001,-1036.288319,-7698.141797,1378.971896
1030.494325,-592.164754,-8216.285956,1302.362347
1030.494649,1258.350101,-8882.471304,1302.362347
1030.494973,296.082377,-7920.203579,842.705048
1030.495297,-666.185348,-7698.141797,1762.019645
1030.495620,0.000000,-8808.450710,689.485948
1030.495944,-148.041188,-8882.471304,1225.752797
1030.496268,-592.164754,-7105.977043,995.924147
1030.496592,-1332.370696,-7846.182985,76.609550
1030.496916,-1258.350101,-9474.636058,-229.828649
1030.497240,-814.226536,-8956.491898,-612.876398
1030.497564,148.041188,-8660.409521,995.924147
1030.497888,0.000000,-9178.553681,689.485948
1030.498212,222.061783,-10362.883188,229.828649
1030.498536,0.000000,-10066.800811,459.657299
1030.498860,148.041188,-10288.862594,383.047749
1030.499184,0.000000,-10658.965565,-306.438199
1030.499508,-1110.308913,-10214.842000,536.266849
1030.499832,-592.164754,-10214.842000,229.828649
1030.500156,-296.082377,-11547.212695,766.095498
1030.500480,-814.226536,-11177.109724,229.828649
1030.500804,-1480.411884,-9918.759623,-919.314598
1030.501128,-814.226536,-9474.636058,-1608.800546
1030.501452,592.164754,-10066.800811,-1302.362347
1030.501776,1554.432478,-10732.986159,-612.876398
1030.502100,814.226536,-10436.903782,-919.314598
1030.502424,666.185348,-9992.780217,229.828649
1030.502748,1406.391290,-10510.924376,153.219100
1030.503072,2220.617826,-10658.965565,-229.828649
1030.503396,740.205942,-9918.759623,-689.485948
1030.503719,222.061783,-9622.677246,-306.438199
1030.504043,666.185348,-10584.944971,76.609550
1030.504367,1628.453072,-11177.109724,153.219100
1030.504691,1702.473667,-9696.697840,-306.438199
1030.505015,444.123565,-9252.574275,-766.095498
1030.505339,-148.041188,-9992.780217,-1225.752797
1030.505663,-222.061783,-9474.636058,-1455.581446
1030.505987,-518.144159,-9474.636058,-995.924147
1030.506311,-1628.453072,-9400.615463,-995.924147
1030.506635,-1258.350101,-9178.553681,-842.705048
1030.506959,-1036.288319,-9844.739029,0.000000
1030.507283,-518.144159,-10362.883188,306.438199
1030.507607,-296.082377,-9844.739029,-689.485948
1030.507931,-814.226536,-8364.327145,-153.219100
1030.508255,74.020594,-8216.285956,536.266849
1030.508579,592.164754,-8882.471304,1072.533697
1030.508903,0.000000,-9104.533087,459.657299
1030.509227,-1702.473667,-8142.265362,919.314598
1030.509551,-1110.308913,-7550.100608,383.047749
1030.509875,1184.329507,-8364.327145,459.657299
1030.510199,2294.638420,-8660.409521,306.438199
1030.510523,888.247130,-7476.080014,0.000000
1030.510847,-370.102971,-7402.059420,0.000000
1030.511171,148.041188,-9844.739029,-536.266849
1030.511495,814.226536,-10658.965565,459.657299
1030.511818,592.164754,-9474.636058,-229.828649
1030.512142,-1036.288319,-8216.285956,-689.485948
1030.512466,-1258.350101,-8882.471304,-1302.362347
1030.512790,-444.123565,-10066.800811,-995.924147
1030.513114,74.020594,-10214.842000,0.000000
1030.513438,0.000000,-10066.800811,766.095498
1030.513762,-666.185348,-10140.821405,459.657299
1030.514086,-592.164754,-10140.821405,-229.828649
1030.514410,-1036.288319,-10584.944971,306.438199
1030.514734,-1332.370696,-11103.089130,-536.266849
1030.515058,-2072.576638,-10732.986159,-1072.533697
1030.515382,-2442.679609,-11029.068536,-689.485948
1030.515706,-1480.411884,-10955.047942,153.219100
1030.516030,296.082377,-11029.068536,0.000000
1030.516354,296.082377,-10658.965565,-536.266849
1030.516678,222.061783,-10658.965565,-536.266849
1030.517002,1184.329507,-10288.862594,-1378.971896
1030.517326,1554.432478,-10584.944971,-612.876398
1030.517650,1480.411884,-11029.068536,842.705048
1030.517974,1998.556043,-11177.109724,1838.629195
1030.518298,1850.514855,-10955.047942,459.657299
1030.518622,1406.391290,-9474.636058,842.705048
1030.518946,296.082377,-9992.780217,-229.828649
1030.519270,296.082377,-10140.821405,0.000000
1030.519594,-148.041188,-10436.903782,842.705048
1030.519918,-740.205942,-10510.924376,1532.190996
1030.520241,-740.205942,-9474.636058,995.924147
1030.520565,-1554.432478,-8068.244768,0.000000
1030.520889,-2590.720797,-8660.409521,229.828649
1030.521213,-2220.617826,-9030.512492,-536.266849
1030.521537,296.082377,-8808.450710,0.000000
1030.521861,888.247130,-8216.285956,1685.410096
1030.522185,222.061783,-8956.491898,2757.943793
1030.522509,740.205942,-9178.553681,1608.800546
1030.522833,222.061783,-7624.121203,1378.971896
1030.523157,666.185348,-8068.244768,2374.896044
1030.523481,1480.411884,-7624.121203,459.657299
1030.523805,2664.741391,-8216.285956,1149.143247
1030.524129,1924.535449,-7846.182985,3217.601092
1030.524453,1110.308913,-9030.512492,1991.848295
1030.524777,-1184.329507,-8808.450710,612.876398
1030.525101,-2738.761985,-7476.080014,689.485948
1030.525425,-1924.535449,-6883.915261,-995.924147
1030.525749,-370.102971,-7105.977043,-536.266849
1030.526073,148.041188,-8438.347739,-76.609550
1030.526397,0.000000,-8586.388927,153.219100
1030.526721,-1110.308913,-9770.718434,76.609550
1030.527045,-1702.473667,-9992.780217,-153.219100
1030.527369,-592.164754,-9844.739029,-612.876398
1030.527693,0.000000,-9548.656652,-1532.190996
1030.528017,0.000000,-11251.130318,-766.095498
1030.528340,0.000000,-12435.459826,0.000000
1030.528664,814.226536,-12583.501014,76.609550
1030.528988,296.082377,-12139.377449,-689.485948
1030.529312,-1332.370696,-11177.109724,-536.266849
1030.529636,-1628.453072,-11029.068536,-1378.971896
1030.529960,-740.205942,-11695.253884,-1532.190996
1030.530284,-962.267725,-11177.109724,-2374.896044
1030.530608,-962.267725,-10732.986159,-1149.143247
1030.530932,-962.267725,-11547.212695,-1532.190996
1030.531256,0.000000,-11473.192101,-766.095498
1030.531580,0.000000,-11621.233289,-766.095498
1030.531904,-296.082377,-10362.883188,-919.314598
1030.532228,592.164754,-10288.862594,-1149.143247
1030.532552,1628.453072,-10658.965565,-1455.581446
1030.532876,2368.659014,-10362.883188,-919.314598
1030.533200,2368.659014,-9770.718434,-383.047749
1030.533524,666.185348,-9992.780217,-766.095498
1030.533848,666.185348,-10510.924376,-995.924147
1030.534172,1258.350101,-9252.574275,-766.095498
1030.534496,1406.391290,-8512.368333,-766.095498
1030.534820,370.102971,-9104.533087,0.000000
1030.535144,0.000000,-9770.718434,-229.828649
1030.535468,-296.082377,-8882.471304,-229.828649
1030.535792,-222.061783,-9104.533087,306.438199
1030.536116,-296.082377,-8808.450710,383.047749
1030.536439,-222.061783,-9030.512492,0.000000
1030.536763,-518.144159,-7402.059420,1302.362347
1030.537087,0.000000,-7772.162391,153.219100
1030.537411,-666.185348,-8364.327145,0.000000
1030.537735,-1850.514855,-8364.327145,0.000000
1030.538059,-2146.597232,-7846.182985,0.000000
1030.538383,0.000000,-7994.224174,0.000000
1030.538707,888.247130,-8290.306550,-536.266849
1030.539031,370.102971,-8364.327145,919.314598
1030.539355,0.000000,-9326.594869,1608.800546
1030.539679,1628.453072,-9770.718434,842.705048
1030.540003,2294.638420,-9252.574275,536.266849
1030.540327,1184.329507,-8586.388927,306.438199
1030.540651,0.000000,-8586.388927,-612.876398
1030.540975,-444.123565,-9326.594869,-842.705048
1030.541299,-444.123565,-8956.491898,459.657299
1030.541623,0.000000,-9918.759623,1225.752797
1030.541947,-592.164754,-10584.944971,766.095498
1030.542271,-888.247130,-9474.636058,-153.219100
1030.542595,-1184.329507,-8882.471304,-306.438199
1030.542919,-518.144159,-10066.800811,-229.828649
1030.543243,-370.102971,-11177.109724,383.047749
1030.543567,-1036.288319,-11991.336260,1378.971896
1030.543891,-740.205942,-11325.150913,383.047749
1030.544215,0.000000,-10214.842000,-766.095498
1030.544539,0.000000,-11177.109724,-689.485948
1030.544862,-148.041188,-12139.377449,-229.828649
1030.545186,0.000000,-11991.336260,-1302.362347
1030.545510,1036.288319,-10436.903782,-612.876398
1030.545834,1258.350101,-11029.068536,-153.219100
1030.546158,1332.370696,-12435.459826,0.000000
1030.546482,1332.370696,-12509.480420,383.047749
1030.546806,888.247130,-10955.047942,-459.657299
1030.547130,666.185348,-10214.842000,-689.485948
1030.547454,-444.123565,-10362.883188,-536.266849
1030.547778,-1110.308913,-10807.006753,-383.047749
1030.548102,-1184.329507,-10288.862594,1072.533697
1030.548426,222.061783,-9104.533087,1455.581446
1030.548750,1184.329507,-8290.306550,-229.828649
1030.549074,0.000000,-6883.915261,0.000000
1030.549398,-592.164754,-7254.018232,-459.657299
1030.549722,-370.102971,-7476.080014,306.438199
1030.550046,-296.082377,-8438.347739,536.266849
1030.550370,-1850.514855,-8734.430116,229.828649
1030.550694,-2368.659014,-7328.038826,306.438199
1030.551018,-444.123565,-7698.141797,842.705048
1030.551342,740.205942,-8216.285956,76.609550
1030.551666,0.000000,-8216.285956,0.000000
1030.551990,-814.226536,-8142.265362,766.095498
1030.552314,-814.226536,-8734.430116,919.314598
1030.552638,74.020594,-8586.388927,306.438199
1030.552961,222.061783,-7772.162391,536.266849
1030.553285,222.061783,-7920.203579,1149.143247
1030.553609,962.267725,-9548.656652,-612.876398
1030.553933,1406.391290,-9400.615463,306.438199
1030.554257,1850.514855,-8808.450710,306.438199
1030.554581,1332.370696,-9178.553681,612.876398
1030.554905,296.082377,-11325.150913,306.438199
1030.555229,-666.185348,-11695.253884,383.047749
1030.555553,-888.247130,-9030.512492,-689.485948
1030.555877,-1628.453072,-8512.368333,-1532.190996
1030.556201,-1406.391290,-10436.903782,-459.657299
1030.556525,148.041188,-11621.233289,76.609550
1030.556849,1184.329507,-11177.109724,536.266849
1030.557173,-148.041188,-10436.903782,0.000000
1030.557497,-1184.329507,-9918.759623,153.219100
1030.557821,-222.061783,-10066.800811,-995.924147
1030.558145,222.061783,-10584.944971,-689.485948
1030.558469,0.000000,-11843.295072,0.000000
1030.558793,-1332.370696,-11695.253884,-1225.752797
1030.559117,-1480.411884,-11843.295072,-919.314598
1030.559441,0.000000,-12139.377449,-919.314598
1030.559765,2072.576638,-11399.171507,-1149.143247
1030.560089,2146.597232,-9844.739029,-1455.581446
1030.560413,1036.288319,-9622.677246,76.609550
1030.560737,1036.288319,-10955.047942,-383.047749
1030.561061,1998.556043,-11399.171507,-153.219100
1030.561384,0.000000,-10436.903782,-306.438199
1030.561708,-1628.453072,-8956.491898,-995.924147
1030.562032,-1702.473667,-9252.574275,-1149.143247
1030.562356,-296.082377,-9992.780217,-306.438199
1030.562680,814.226536,-10510.924376,383.047749
1030.563004,666.185348,-10510.924376,689.485948
1030.563328,0.000000,-9252.574275,153.219100
1030.563652,0.000000,-8364.327145,-1455.581446
1030.563976,0.000000,-7920.203579,-536.266849
1030.564300,-814.226536,-9622.677246,-383.047749
1030.564624,-1776.494261,-10140.821405,-153.219100
1030.564948,-2368.659014,-8512.368333,306.438199
1030.565272,-1332.370696,-7772.162391,459.657299
1030.565596,296.082377,-9252.574275,766.095498
1030.565920,740.205942,-9474.636058,459.657299
1030.566244,962.267725,-8882.471304,995.924147
1030.566568,888.247130,-7698.141797,689.485948
1030.566892,-148.041188,-7772.162391,153.219100
1030.567216,-1406.391290,-8586.388927,153.219100
1030.567540,-1184.329507,-9252.574275,0.000000
1030.567864,0.000000,-8142.265362,153.219100
1030.568188,-148.041188,-7179.997637,-153.219100
1030.568512,-888.247130,-7994.224174,-766.095498
1030.568836,-1184.329507,-8142.265362,-612.876398
1030.569160,-370.102971,-7994.224174,-689.485948
1030.569484,296.082377,-8364.327145,-459.657299
1030.569808,666.185348,-10288.862594,0.000000
1030.570132,1554.432478,-10732.986159,76.609550
1030.570456,2590.720797,-10881.027347,919.314598
1030.570780,1998.556043,-10140.821405,459.657299
1030.571104,1702.473667,-10510.924376,536.266849
1030.571429,148.041188,-12139.377449,995.924147
1030.571753,222.061783,-12953.603985,1072.533697
1030.572077,370.102971,-11843.295072,0.000000
1030.572401,-740.205942,-10658.965565,0.000000
1030.572725,-2738.761985,-10066.800811,-995.924147
1030.573049,-2886.803174,-11251.130318,-1302.362347
1030.573373,-2368.659014,-11251.130318,-1072.533697
1030.573697,-1184.329507,-9474.636058,-612.876398
1030.574021,-1332.370696,-9622.677246,-612.876398
1030.574345,-740.205942,-9252.574275,-1608.800546
1030.574669,1184.329507,-9252.574275,-689.485948
1030.574993,2960.823768,-9770.718434,-383.047749
1030.575317,2812.782580,-9992.780217,842.705048
1030.575641,1850.514855,-10362.883188,229.828649
1030.575965,666.185348,-10362.883188,306.438199
1030.576289,814.226536,-10658.965565,0.000000
1030.576613,1998.556043,-10436.903782,-612.876398
1030.576937,1998.556043,-10214.842000,-995.924147
1030.577261,1258.350101,-9622.677246,-229.828649
1030.577585,2368.659014,-10510.924376,0.000000
1030.577909,1776.494261,-10214.842000,689.485948
1030.578233,592.164754,-10288.862594,689.485948
1030.578557,-1258.350101,-9622.677246,-612.876398
1030.578881,-2442.679609,-8956.491898,-1378.971896
1030.579205,-3256.906145,-9474.636058,-229.828649
1030.579529,-1850.514855,-10066.800811,-612.876398
1030.579853,-444.123565,-9474.636058,-689.485948
1030.580177,-962.267725,-8882.471304,995.924147
1030.580501,-370.102971,-8734.430116,-229.828649
1030.580825,-148.041188,-7772.162391,-383.047749
1030.581149,-444.123565,-7254.018232,-612.876398
1030.581473,-592.164754,-8364.327145,383.047749
1030.581797,74.020594,-10510.924376,995.924147
1030.582121,1036.288319,-9622.677246,612.876398
1030.582445,1702.473667,-8290.306550,766.095498
1030.582770,666.185348,-8808.450710,612.876398
1030.583094,370.102971,-9548.656652,919.314598
1030.583418,370.102971,-9622.677246,919.314598
1030.583742,0.000000,-8512.368333,1532.190996
1030.584066,-444.123565,-7550.100608,766.095498
1030.584390,-814.226536,-8586.388927,229.828649
1030.584714,-1332.370696,-9474.636058,229.828649
1030.585038,-1702.473667,-9326.594869,-76.609550
1030.585362,-1480.411884,-9548.656652,153.219100
1030.585686,-2664.741391,-9030.512492,153.219100
1030.586010,-2590.720797,-9030.512492,-842.705048
1030.586334,-3034.844362,-8882.471304,-995.924147
1030.586658,-2368.659014,-9622.677246,-842.705048
1030.586982,-1406.391290,-10658.965565,-306.438199
1030.587306,-1036.288319,-11103.089130,229.828649
1030.587630,-296.082377,-10732.986159,-153.219100
1030.587954,592.164754,-9696.697840,-459.657299
1030.588278,740.205942,-10510.924376,0.000000
1030.588602,962.267725,-11991.336260,0.000000
1030.588926,1776.494261,-11991.336260,0.000000
1030.589250,1776.494261,-11103.089130,229.828649
1030.589574,1332.370696,-10658.965565,-689.485948
1030.589898,222.061783,-11029.068536,-689.485948
1030.590222,-1036.288319,-11843.295072,-1072.533697
1030.590546,-370.102971,-11547.212695,-995.924147
1030.590870,888.247130,-11251.130318,-766.095498
1030.591194,1184.329507,-10140.821405,-306.438199
1030.591518,1406.391290,-9622.677246,383.047749
1030.591842,888.247130,-9474.636058,0.000000
1030.592166,592.164754,-8956.491898,0.000000
1030.592490,296.082377,-8734.430116,-536.266849
1030.592814,296.082377,-9326.594869,-229.828649
1030.593138,296.082377,-9918.759623,612.876398
1030.593462,148.041188,-9622.677246,1225.752797
1030.593786,666.185348,-9178.553681,919.314598
1030.594111,1406.391290,-8290.306550,0.000000
1030.594435,1258.350101,-7772.162391,-1532.190996
1030.594759,1110.308913,-8216.285956,-229.828649
1030.595083,888.247130,-8660.409521,1072.533697
1030.595407,444.123565,-9770.718434,-153.219100
1030.595731,-1332.370696,-8512.368333,153.219100
1030.596055,-1036.288319,-7920.203579,0.000000
1030.596379,740.205942,-8882.471304,-842.705048
1030.596703,444.123565,-9252.574275,-689.485948
1030.597027,0.000000,-8216.285956,229.828649
1030.597351,-592.164754,-8438.347739,612.876398
1030.597675,-148.041188,-9696.697840,0.000000
1030.597999,-518.144159,-8660.409521,-229.828649
1030.598323,-1258.350101,-7846.182985,306.438199
1030.598647,-962.267725,-9548.656652,153.219100
1030.598971,-444.123565,-10214.842000,0.000000
1030.599295,-592.164754,-8660.409521,153.219100
1030.599619,-1406.391290,-8290.306550,-229.828649
1030.599943,-2294.638420,-8808.450710,0.000000
1030.600267,-2146.597232,-9622.677246,-1225.752797
1030.600591,-2294.638420,-9622.677246,-1072.533697
1030.600915,-2368.659014,-9992.780217,-766.095498
1030.601239,-2294.638420,-10436.903782,-995.924147
1030.601563,-1110.308913,-10807.006753,-153.219100
1030.601887,962.267725,-11177.109724,919.314598
1030.602211,2590.720797,-11177.109724,0.000000
1030.602535,2738.761985,-12139.377449,76.609550
1030.602859,1924.535449,-11843.295072,536.266849
1030.603183,2072.576638,-11177.109724,-306.438199
1030.603507,1036.288319,-10955.047942,-459.657299
1030.603831,74.020594,-11547.212695,-459.657299
1030.604155,148.041188,-12361.439231,-306.438199
1030.604479,814.226536,-12583.501014,-536.266849
1030.604803,814.226536,-10140.821405,-1149.143247
1030.605127,-814.226536,-8882.471304,-842.705048
1030.605451,-1258.350101,-8586.388927,-1072.533697
1030.605776,-1480.411884,-9770.718434,-1532.190996
1030.606100,-1480.411884,-10140.821405,-1149.143247
1030.606424,-1184.329507,-8142.265362,-383.047749
1030.606748,0.000000,-8216.285956,-1149.143247
1030.607072,148.041188,-7994.224174,0.000000
1030.607396,0.000000,-8512.368333,0.000000
1030.607720,666.185348,-9474.636058,-153.219100
1030.608044,1036.288319,-9548.656652,-306.438199
1030.608368,1628.453072,-10214.842000,536.266849
1030.608692,2886.803174,-10881.027347,1225.752797
1030.609016,3478.967927,-10066.800811,1455.581446
1030.609340,2442.679609,-9844.739029,1149.143247
1030.609664,-444.123565,-9474.636058,383.047749
1030.609988,-1702.473667,-10140.821405,0.000000
1030.610312,-1332.370696,-9992.780217,-383.047749
1030.610636,-148.041188,-9030.512492,383.047749
1030.610960,-370.102971,-8290.306550,-153.219100
1030.611284,-1184.329507,-7254.018232,-766.095498
1030.611608,-2664.741391,-8216.285956,76.609550
1030.611932,-2590.720797,-9326.594869,383.047749
1030.612256,-1332.370696,-8068.244768,-766.095498
1030.612580,0.000000,-6365.771101,229.828649
1030.612904,0.000000,-7476.080014,919.314598
1030.613228,1406.391290,-8142.265362,306.438199
1030.613552,2442.679609,-7920.203579,536.266849
1030.613876,1924.535449,-9104.533087,1915.238745
1030.614200,1184.329507,-10584.944971,1149.143247
1030.614524,1332.370696,-9474.636058,153.219100
1030.614848,1110.308913,-8290.306550,0.000000
1030.615172,518.144159,-8364.327145,-919.314598
1030.615496,-296.082377,-9326.594869,-2068.457845
1030.615820,-444.123565,-10732.986159,-1302.362347
1030.616144,148.041188,-10732.986159,-842.705048
1030.616468,1554.432478,-10362.883188,-1072.533697
1030.616792,814.226536,-10214.842000,-842.705048
1030.617117,-148.041188,-12065.356855,-1072.533697
1030.617441,-1110.308913,-12731.542202,-1838.629195
1030.617765,-1332.370696,-12953.603985,-689.485948
1030.618089,-1036.288319,-12731.542202,-919.314598
1030.618413,-370.102971,-11399.171507,-536.266849
1030.618737,74.020594,-10510.924376,-459.657299
1030.619061,1406.391290,-10658.965565,-995.924147
1030.619385,2516.700203,-10288.862594,-1762.019645
1030.619709,2368.659014,-9548.656652,-2757.943793
1030.620033,2368.659014,-10214.842000,-2604.724693
1030.620357,2516.700203,-10362.883188,-2834.553343
1030.620681,2960.823768,-9622.677246,-2451.505594
1030.621005,2886.803174,-9474.636058,-2298.286494
1030.621329,1480.411884,-9844.739029,-2604.724693
1030.621653,444.123565,-11399.171507,-3294.210641
1030.621977,1628.453072,-10584.944971,-2145.067394
1030.622301,3775.050304,-9696.697840,-612.876398
1030.622625,4367.215058,-9622.677246,459.657299
1030.622949,3701.029710,-9252.574275,-306.438199
1030.623273,2886.803174,-8438.347739,-1072.533697
1030.623597,2516.700203,-7031.956449,-1838.629195
1030.623921,0.000000,-6883.915261,-2681.334243
1030.624245,-1628.453072,-7772.162391,-3217.601092
1030.624569,-1850.514855,-7328.038826,-3524.039291
1030.624893,-444.123565,-7476.080014,-3217.601092
1030.625217,222.061783,-9326.594869,-2987.772442
1030.625541,518.144159,-9252.574275,-4136.915689
1030.625865,518.144159,-9548.656652,-2528.115143
1030.626189,1998.556043,-10362.883188,-1991.848295
1030.626513,4663.297435,-9992.780217,-2068.457845
1030.626837,5033.400406,-8586.388927,-1302.362347
1030.627161,3997.112087,-9030.512492,-229.828649
1030.627485,4737.318029,-9770.718434,-1991.848295
1030.627809,5255.462188,-8660.409521,-2757.943793
1030.628133,3849.070898,-8068.244768,-1302.362347
1030.628457,2442.679609,-8808.450710,-2451.505594
1030.628782,1924.535449,-9696.697840,-3217.601092
1030.629106,592.164754,-10288.862594,-3217.601092
1030.629430,0.000000,-9844.739029,-4213.525239
1030.629754,-518.144159,-10436.903782,-4290.134789
1030.630078,-888.247130,-11177.109724,-3830.477490
1030.630402,-740.205942,-10436.903782,-3753.867940
1030.630726,-296.082377,-10066.800811,-2757.943793
1030.631050,222.061783,-10288.862594,-2987.772442
1030.631374,2368.659014,-11029.068536,-2451.505594
1030.631698,4441.235652,-11029.068536,-1685.410096
1030.632022,5699.585753,-10140.821405,-1149.143247
1030.632346,5773.606348,-10807.006753,-536.266849
1030.632670,5699.585753,-12139.377449,-1072.533697
1030.632994,5255.462188,-12361.439231,-1608.800546
1030.633318,4219.173869,-11399.171507,-2145.067394
1030.633642,2516.700203,-10584.944971,-2987.772442
1030.633966,444.123565,-10510.924376,-3447.429741
1030.634290,-888.247130,-10658.965565,-3217.601092
1030.634614,-1332.370696,-9622.677246,-3677.258390
1030.634938,-666.185348,-9030.512492,-3370.820191
1030.635262,370.102971,-8364.327145,-3140.991542
1030.635586,2442.679609,-7698.141797,-2681.334243
1030.635910,2664.741391,-7476.080014,-689.485948
1030.636234,3108.864956,-7698.141797,-689.485948
1030.636558,4367.215058,-7846.182985,-383.047749
1030.636882,4959.379811,-9030.512492,459.657299
1030.637206,5033.400406,-9548.656652,-306.438199
1030.637530,3627.009116,-9252.574275,-1455.581446
1030.637854,1332.370696,-10066.800811,-1915.238745
1030.638178,0.000000,-9992.780217,-2604.724693
1030.638502,222.061783,-10214.842000,-2757.943793
1030.638826,444.123565,-9844.739029,-2451.505594
1030.639150,888.247130,-9770.718434,-2834.553343
1030.639474,740.205942,-9104.533087,-2451.505594
1030.639798,370.102971,-8660.409521,-2451.505594
1030.640123,592.164754,-9326.594869,-2221.676944
1030.640447,1998.556043,-8882.471304,-1378.971896
1030.640771,2294.638420,-8512.368333,-689.485948
1030.641095,2368.659014,-9400.615463,-766.095498
1030.641419,2072.576638,-8956.491898,-1378.971896
1030.641743,1554.432478,-9252.574275,-919.314598
1030.642067,740.205942,-9844.739029,-1608.800546
1030.642391,1184.329507,-9400.615463,-2451.505594
1030.642715,1480.411884,-8882.471304,-1991.848295
1030.643039,2072.576638,-9918.759623,-2221.676944
1030.643363,2590.720797,-9548.656652,-2911.162892
1030.643687,2664.741391,-8882.471304,-2987.772442
1030.644011,1776.494261,-9474.636058,-2757.943793
1030.644335,2960.823768,-10362.883188,-3217.601092
1030.644659,3775.050304,-9474.636058,-2528.115143
1030.644983,3627.009116,-10288.862594,-1685.410096
1030.645307,3775.050304,-10955.047942,-2221.676944
1030.645631,4145.153275,-10955.047942,-2528.115143
1030.645955,3034.844362,-11325.150913,-1532.190996
1030.646279,2368.659014,-11473.192101,-1838.629195
1030.646603,1850.514855,-10362.883188,-2451.505594
1030.646927,814.226536,-11029.068536,-1378.971896
1030.647251,888.247130,-10881.027347,-1302.362347
1030.647575,1110.308913,-9030.512492,-2068.457845
1030.647899,666.185348,-9844.739029,-1455.581446
1030.648223,370.102971,-10436.903782,-2145.067394
1030.648547,592.164754,-8660.409521,-3140.991542
1030.648871,296.082377,-8068.244768,-1991.848295
1030.649195,1184.329507,-9474.636058,-1838.629195
1030.649519,2368.659014,-9400.615463,-2451.505594
1030.649843,3108.864956,-7698.141797,-2145.067394
1030.650167,2664.741391,-8290.306550,-1915.238745
1030.650491,3923.091493,-10066.800811,-2451.505594
1030.650815,3849.070898,-9622.677246,-2451.505594
1030.651139,2590.720797,-8882.471304,-1685.410096
1030.651463,2146.597232,-8956.491898,-1608.800546
1030.651788,3182.885551,-9622.677246,-2298.286494
1030.652112,3034.844362,-9104.533087,-2451.505594
1030.652436,1702.473667,-8956.491898,-1532.190996
1030.652760,1924.535449,-10288.862594,-689.485948
1030.653084,3478.967927,-10510.924376,-1532.190996
1030.653408,2368.659014,-9030.512492,-1915.238745
1030.653732,0.000000,-8956.491898,-2374.896044
1030.654056,-814.226536,-10436.903782,-2681.334243
1030.654380,74.020594,-10658.965565,-2757.943793
1030.654704,444.123565,-9918.759623,-2757.943793
1030.655028,-296.082377,-9844.739029,-3370.820191
1030.655352,888.247130,-10066.800811,-3140.991542
1030.655676,2368.659014,-10362.883188,-2681.334243
1030.656000,3404.947333,-10510.924376,-1915.238745
1030.656324,3552.988522,-10658.965565,-2604.724693
1030.656648,1850.514855,-10510.924376,-2451.505594
1030.656972,1850.514855,-10288.862594,-2145.067394
1030.657296,3627.009116,-10140.821405,-1685.410096
1030.657620,4885.359217,-9844.739029,-1838.629195
1030.657944,4071.132681,-9992.780217,-1455.581446
1030.658268,2368.659014,-10288.862594,-2068.457845
1030.658592,2812.782580,-9178.553681,-1991.848295
1030.658916,3552.988522,-8068.244768,-2221.676944
1030.659240,3182.885551,-8734.430116,-2834.553343
1030.659564,1258.350101,-9030.512492,-3217.601092
1030.659888,-148.041188,-9030.512492,-2834.553343
1030.660212,-518.144159,-8142.265362,-3753.867940
1030.660536,222.061783,-8068.244768,-2987.772442
1030.660860,1850.514855,-9104.533087,-2987.772442
1030.661184,2516.700203,-9992.780217,-2145.067394
1030.661508,2960.823768,-10288.862594,-1838.629195
1030.661832,2812.782580,-10066.800811,-1149.143247
1030.662156,2590.720797,-9918.759623,-612.876398
1030.662480,2812.782580,-10362.883188,-612.876398
1030.662804,3404.947333,-10362.883188,-689.485948
1030.663129,3923.091493,-9770.718434,-1072.533697
1030.663453,2516.700203,-9548.656652,-1455.581446
1030.663777,888.247130,-9992.780217,-2068.457845
1030.664101,0.000000,-9548.656652,-2911.162892
1030.664425,444.123565,-8216.285956,-2528.115143
1030.664749,1998.556043,-7550.100608,-2068.457845
1030.665073,2368.659014,-8512.368333,-2451.505594
1030.665397,1480.411884,-9622.677246,-3064.381992
1030.665721,74.020594,-8956.491898,-2528.115143
1030.666045,74.020594,-8364.327145,-2681.334243
1030.666369,1702.473667,-8956.491898,-1302.362347
1030.666693,4145.153275,-9622.677246,-459.657299
1030.667017,5033.400406,-10214.842000,-612.876398
1030.667341,4515.256246,-10732.986159,-1225.752797
1030.667665,2590.720797,-10584.944971,-2221.676944
1030.667989,1332.370696,-10881.027347,-2221.676944
1030.668313,296.082377,-11621.233289,-2068.457845
1030.668637,-370.102971,-11103.089130,-1915.238745
1030.668961,-1036.288319,-9992.780217,-2757.943793
1030.669285,-296.082377,-9474.636058,-3064.381992
1030.669609,1554.432478,-10288.862594,-2681.334243
1030.669933,3182.885551,-10807.006753,-2221.676944
1030.670257,3627.009116,-10732.986159,-2068.457845
1030.670581,2072.576638,-9474.636058,-2145.067394
1030.670905,1184.329507,-8882.471304,-1608.800546
1030.671229,592.164754,-9474.636058,-1838.629195
1030.671553,1110.308913,-10362.883188,-2528.115143
1030.671877,2368.659014,-10584.944971,-2145.067394
1030.672201,4145.153275,-9770.718434,-1378.971896
1030.672525,5625.565159,-9252.574275,-689.485948
1030.672849,5921.647536,-9474.636058,-1072.533697
1030.673173,4737.318029,-9326.594869,-1685.410096
1030.673497,2146.597232,-8734.430116,-2451.505594
1030.673821,-296.082377,-8882.471304,-3294.210641
1030.674145,-740.205942,-8660.409521,-3370.820191
1030.674469,0.000000,-9030.512492,-2681.334243
1030.674793,814.226536,-9104.533087,-2374.896044
1030.675117,1998.556043,-9104.533087,-1991.848295
1030.675441,2368.659014,-8882.471304,-1991.848295
1030.675764,2960.823768,-8882.471304,-1685.410096
1030.676088,2886.803174,-9178.553681,-536.266849
1030.676412,2812.782580,-9622.677246,-1072.533697
1030.676736,2368.659014,-10140.821405,-919.314598
1030.677060,1998.556043,-10288.862594,-1991.848295
1030.677384,1110.308913,-10436.903782,-3064.381992
1030.677708,296.082377,-10140.821405,-3753.867940
1030.678032,370.102971,-9622.677246,-3907.087040
1030.678356,148.041188,-8808.450710,-3907.087040
1030.678680,1628.453072,-9178.553681,-3064.381992
1030.679004,1998.556043,-9622.677246,-2604.724693
1030.679328,2146.597232,-9622.677246,-2221.676944
1030.679652,2368.659014,-9474.636058,-1762.019645
1030.679976,3034.844362,-9474.636058,-1072.533697
1030.680300,4145.153275,-9400.615463,-536.266849
1030.680624,4515.256246,-9770.718434,0.000000
1030.680948,4367.215058,-9992.780217,0.000000
1030.681272,3330.926739,-10140.821405,-995.924147
1030.681596,1776.494261,-10288.862594,-2374.896044
1030.681920,-148.041188,-10510.924376,-3370.820191
1030.682244,-962.267725,-10362.883188,-4903.011187
1030.682568,-1628.453072,-10066.800811,-5822.325785
1030.682892,-1332.370696,-9548.656652,-5975.544884
1030.683216,0.000000,-9474.636058,-4903.011187
1030.683540,2368.659014,-9252.574275,-2834.553343
1030.683864,4737.318029,-9918.759623,-2145.067394
1030.684188,4737.318029,-8956.491898,-459.657299
1030.684512,5477.523971,-9918.759623,-229.828649
1030.684836,5403.503377,-11177.109724,0.000000
1030.685160,4811.338623,-11251.130318,229.828649
1030.685484,4293.194464,-10732.986159,0.000000
1030.685808,2886.803174,-10732.986159,-689.485948
1030.686132,1036.288319,-10140.821405,-2221.676944
1030.686456,-1184.329507,-9622.677246,-3370.820191
1030.686780,-2960.823768,-9474.636058,-3753.867940
1030.687104,-3849.070898,-9326.594869,-4826.401637
1030.687428,-3701.029710,-8586.388927,-3907.087040
1030.687752,-2442.679609,-7920.203579,-2757.943793
1030.688076,-666.185348,-7994.224174,-1685.410096
1030.688400,1332.370696,-8438.347739,-1225.752797
1030.688724,2664.741391,-8808.450710,229.828649
1030.689048,4071.132681,-9844.739029,536.266849
1030.689372,4367.215058,-10510.924376,612.876398
1030.689696,4219.173869,-10881.027347,1455.581446
1030.690020,3404.947333,-10732.986159,842.705048
1030.690344,2516.700203,-11029.068536,-689.485948
1030.690668,518.144159,-10658.965565,-1991.848295
1030.690992,-222.061783,-9992.780217,-2834.553343
1030.691316,-222.061783,-9326.594869,-3064.381992
1030.691640,-296.082377,-8956.491898,-3140.991542
1030.691964,148.041188,-8290.306550,-2221.676944
1030.692288,1480.411884,-7179.997637,-1762.019645
1030.692612,2442.679609,-7179.997637,-1378.971896
1030.692936,3701.029710,-8142.265362,-766.095498
1030.693260,4959.379811,-7846.182985,-383.047749
1030.693584,6587.832884,-8586.388927,1302.362347
1030.693908,7105.977043,-9178.553681,766.095498
1030.694232,5847.626942,-9548.656652,-459.657299
1030.694556,4515.256246,-9622.677246,-1455.581446
1030.694880,2960.823768,-10066.800811,-2834.553343
1030.695204,2146.597232,-10584.944971,-3753.867940
1030.695528,2146.597232,-10436.903782,-4213.525239
1030.695852,1998.556043,-9622.677246,-4136.915689
1030.696176,2146.597232,-9696.697840,-4903.011187
1030.696500,1554.432478,-8660.409521,-3983.696590
1030.696824,1702.473667,-9326.594869,-3370.820191
1030.697148,2220.617826,-9326.594869,-2911.162892
1030.697472,2590.720797,-9474.636058,-2145.067394
1030.697796,3034.844362,-9696.697840,-1455.581446
1030.698120,4367.215058,-10658.965565,-1608.800546
1030.698444,4145.153275,-10955.047942,-1532.190996
1030.698768,3997.112087,-11547.212695,-1608.800546
1030.699092,2664.741391,-11547.212695,-2987.772442
1030.699416,1702.473667,-10584.944971,-3983.696590
1030.699740,592.164754,-10362.883188,-4903.011187
1030.700064,-296.082377,-10510.924376,-5975.544884
1030.700388,-1628.453072,-9992.780217,-6818.249932
1030.700712,-2442.679609,-9474.636058,-6435.202183
1030.701036,-2516.700203,-9178.553681,-6052.154434
1030.701360,-962.267725,-9474.636058,-4749.792088
1030.701684,1628.453072,-9548.656652,-2834.553343
1030.702008,4293.194464,-9474.636058,-1762.019645
1030.702332,6587.832884,-10066.800811,-1225.752797
1030.702656,7550.100608,-10955.047942,0.000000
1030.702980,6957.935855,-11251.130318,-459.657299
1030.703304,5181.441594,-11325.150913,-842.705048
1030.703628,2368.659014,-11473.192101,-1915.238745
1030.703952,-1184.329507,-10955.047942,-3907.087040
1030.704276,-3849.070898,-10140.821405,-5439.278036
1030.704600,-4811.338623,-9770.718434,-6281.983084
1030.704924,-3478.967927,-9548.656652,-6205.373534
1030.705248,-592.164754,-8808.450710,-5362.668486
1030.705572,1554.432478,-8586.388927,-3983.696590
1030.705896,2664.741391,-8882.471304,-2681.334243
1030.706220,2664.741391,-8660.409521,-1991.848295
1030.706544,2886.803174,-8956.491898,-842.705048
1030.706868,3552.988522,-9622.677246,0.000000
1030.707192,5255.462188,-9992.780217,536.266849
1030.707516,6957.935855,-10436.903782,1302.362347
1030.707840,7698.141797,-10214.842000,1225.752797
1030.708164,5995.668130,-9992.780217,536.266849
1030.708488,2664.741391,-9770.718434,-766.095498
1030.708812,-888.247130,-9104.533087,-2221.676944
1030.709136,-2812.782580,-8142.265362,-3217.601092
1030.709460,-2738.761985,-7328.038826,-3524.039291
1030.709784,-1554.432478,-7402.059420,-3140.991542
1030.710108,0.000000,-7402.059420,-2451.505594
1030.710432,740.205942,-7994.224174,-1685.410096
1030.710756,1480.411884,-8216.285956,-229.828649
1030.711080,2072.576638,-7994.224174,536.266849
1030.711404,3256.906145,-8216.285956,1685.410096
1030.711728,4959.379811,-9474.636058,1685.410096
1030.712052,5625.565159,-10881.027347,1762.019645
1030.712376,5477.523971,-11695.253884,1225.752797
1030.712700,4367.215058,-11843.295072,536.266849
1030.713024,2812.782580,-10510.924376,612.876398
1030.713348,2442.679609,-9844.739029,-536.266849
1030.713672,1850.514855,-9400.615463,-1532.190996
1030.713996,0.000000,-9326.594869,-2987.772442
1030.714320,-2146.597232,-9400.615463,-4443.353888
1030.714644,-2516.700203,-9474.636058,-4596.572988
1030.714968,-1184.329507,-9104.533087,-3064.381992
1030.715292,2368.659014,-9030.512492,-2528.115143
1030.715616,4737.318029,-8660.409521,-995.924147
1030.715940,5403.503377,-9030.512492,-383.047749
1030.716264,4885.359217,-10584.944971,-689.485948
1030.716588,4811.338623,-11695.253884,-229.828649
1030.716912,5329.482782,-11991.336260,-306.438199
1030.717236,4737.318029,-11769.274478,-383.047749
1030.717559,2664.741391,-11769.274478,-612.876398
1030.717883,1110.308913,-10955.047942,-1915.238745
1030.718207,148.041188,-10881.027347,-2681.334243
1030.718531,296.082377,-10066.800811,-3830.477490
1030.718855,0.000000,-9030.512492,-4519.963438
1030.719179,-740.205942,-8216.285956,-4290.134789
1030.719503,-592.164754,-8068.244768,-4213.525239
1030.719827,370.102971,-8882.471304,-4060.306139
1030.720151,1036.288319,-8956.491898,-3907.087040
1030.720475,1110.308913,-8734.430116,-3370.820191
1030.720799,2368.659014,-8956.491898,-2604.724693
1030.721123,4145.153275,-10362.883188,-1608.800546
1030.721447,5403.503377,-10584.944971,-1302.362347
1030.721771,5995.668130,-10584.944971,-1225.752797
1030.722095,5033.400406,-11251.130318,-689.485948
1030.722419,4737.318029,-11843.295072,-612.876398
1030.722743,3404.947333,-10288.862594,-1915.238745
1030.723067,666.185348,-8734.430116,-2374.896044
1030.723391,-2368.659014,-9104.533087,-3294.210641
1030.723715,-2886.803174,-8956.491898,-3830.477490
1030.724039,-1480.411884,-8660.409521,-3600.648841
1030.724363,-814.226536,-7402.059420,-3217.601092
1030.724687,-592.164754,-6809.894666,-2834.553343
1030.725011,-518.144159,-7698.141797,-2757.943793
1030.725335,1110.308913,-8438.347739,-2757.943793
1030.725659,1480.411884,-8438.347739,-2528.115143
1030.725983,1776.494261,-8882.471304,-2298.286494
1030.726307,2294.638420,-10584.944971,-2145.067394
1030.726631,3478.967927,-11103.089130,-2374.896044
1030.726955,4737.318029,-9548.656652,-1838.629195
1030.727279,5255.462188,-9992.780217,-1532.190996
1030.727603,4737.318029,-11547.212695,-1608.800546
1030.727927,3627.009116,-11473.192101,-2221.676944
1030.728251,1628.453072,-9844.739029,-2221.676944
1030.728575,888.247130,-9622.677246,-2374.896044
1030.728899,1850.514855,-10214.842000,-2221.676944
1030.729223,3923.091493,-10066.800811,-1685.410096
1030.729547,4293.194464,-9474.636058,-1378.971896
1030.729871,3552.988522,-9030.512492,-2451.505594
1030.730195,2590.720797,-9030.512492,-2528.115143
1030.730519,2220.617826,-9030.512492,-1991.848295
1030.730843,1480.411884,-9918.759623,-1991.848295
1030.731167,1332.370696,-9770.718434,-2757.943793
1030.731491,1332.370696,-8660.409521,-3370.820191
1030.731815,1702.473667,-9030.512492,-3830.477490
1030.732139,1850.514855,-9548.656652,-4290.134789
1030.732463,1480.411884,-10658.965565,-2528.115143
1030.732787,1184.329507,-10436.903782,-2298.286494
1030.733111,1998.556043,-9252.574275,-2681.334243
1030.733435,2294.638420,-9400.615463,-1378.971896
1030.733759,3256.906145,-10955.047942,-229.828649
1030.734083,5033.400406,-11695.253884,-536.266849
1030.734407,4589.276840,-10584.944971,612.876398
1030.734731,3256.906145,-9548.656652,612.876398
1030.735055,3108.864956,-9770.718434,-842.705048
1030.735379,3775.050304,-9326.594869,-995.924147
1030.735703,2220.617826,-8660.409521,-1991.848295
1030.736027,888.247130,-9326.594869,-3753.867940
1030.736351,-666.185348,-8290.306550,-4749.792088
1030.736675,-2442.679609,-7994.224174,-5132.839837
1030.736999,-3997.112087,-8512.368333,-6128.763984
1030.737323,-1776.494261,-8512.368333,-5362.668486
1030.737647,296.082377,-8512.368333,-3830.477490
1030.737971,2146.597232,-10436.903782,-2987.772442
1030.738295,4515.256246,-10288.862594,-1302.362347
1030.738619,5847.626942,-11103.089130,1225.752797
1030.738943,6587.832884,-12731.542202,1685.410096
1030.739267,7105.977043,-11621.233289,1072.533697
1030.739591,6513.812290,-11399.171507,1762.019645
1030.739915,4367.215058,-11251.130318,153.219100
1030.740239,1258.350101,-10732.986159,-1608.800546
1030.740563,-1480.411884,-9548.656652,-1532.190996
1030.740887,-2812.782580,-8956.491898,-2451.505594
1030.741211,-3997.112087,-9104.533087,-4136.915689
1030.741535,-4885.359217,-7105.977043,-4903.011187
1030.741859,-4885.359217,-5995.668130,-4903.011187
1030.742183,-2664.741391,-7254.018232,-4826.401637
1030.742507,370.102971,-7846.182985,-3524.039291
1030.742831,3108.864956,-8364.327145,-1762.019645
1030.743155,5107.421000,-8586.388927,-383.047749
1030.743479,5995.668130,-8438.347739,76.609550
1030.743803,6217.729913,-10584.944971,842.705048
1030.744127,7031.956449,-11917.315666,1072.533697
1030.744451,7105.977043,-11695.253884,1225.752797
1030.744775,6661.853478,-11029.068536,919.314598
1030.745099,4885.359217,-9770.718434,1225.752797
1030.745423,2368.659014,-9992.780217,-383.047749
1030.745747,148.041188,-10362.883188,-1915.238745
1030.746071,-1332.370696,-9252.574275,-2987.772442
1030.746395,-1924.535449,-8586.388927,-3370.820191
1030.746719,-2442.679609,-8586.388927,-3983.696590
1030.747043,-2368.659014,-7994.224174,-4290.134789
1030.747367,-1924.535449,-7624.121203,-3447.429741
1030.747691,-296.082377,-8364.327145,-3064.381992
1030.748015,2072.576638,-8586.388927,-2987.772442
1030.748339,3627.009116,-8660.409521,-1762.019645
1030.748663,5033.400406,-9400.615463,306.438199
1030.748987,6439.791695,-10584.944971,0.000000
1030.749311,6069.688724,-11917.315666,689.485948
1030.749635,5477.523971,-12213.398043,1378.971896
1030.749959,4737.318029,-12509.480420,-459.657299
1030.750283,2442.679609,-12139.377449,0.000000
1030.750607,148.041188,-10955.047942,-153.219100
1030.750931,-1480.411884,-10214.842000,-1455.581446
1030.751255,-2368.659014,-9622.677246,-3370.820191
1030.751579,-2442.679609,-8290.306550,-2681.334243
1030.751903,-666.185348,-8290.306550,-2451.505594
1030.752227,1036.288319,-9104.533087,-3064.381992
1030.752551,0.000000,-8290.306550,-2987.772442
1030.752875,-2368.659014,-7772.162391,-3830.477490
1030.753199,-3552.988522,-9252.574275,-3600.648841
1030.753523,-2294.638420,-11251.130318,-3753.867940
1030.753847,444.123565,-11399.171507,-1762.019645
1030.754171,2072.576638,-11473.192101,0.000000
1030.754495,3775.050304,-11547.212695,-383.047749
1030.754819,4515.256246,-10955.047942,-153.219100
1030.755143,3552.988522,-10807.006753,153.219100
1030.755467,3108.864956,-11473.192101,383.047749
1030.755791,2886.803174,-10807.006753,-229.828649
1030.756115,2590.720797,-8808.450710,-383.047749
1030.756439,2738.761985,-7550.100608,153.219100
1030.756763,1702.473667,-8438.347739,-306.438199
1030.757087,814.226536,-9548.656652,-1378.971896
1030.757411,-2294.638420,-7920.203579,-2374.896044
1030.757735,-3775.050304,-6957.935855,-3217.601092
1030.758059,-3923.091493,-8290.306550,-3140.991542
1030.758383,-3404.947333,-9696.697840,-2374.896044
1030.758707,-3478.967927,-9622.677246,-2451.505594
1030.759031,-3108.864956,-8808.450710,-1762.019645
1030.759355,-1480.411884,-8586.388927,-1302.362347
1030.759678,1184.329507,-9178.553681,-1455.581446
1030.760002,2146.597232,-10066.800811,689.485948
1030.760326,3256.906145,-11251.130318,2911.162892
1030.760650,4589.276840,-12139.377449,3370.820191
1030.760974,3627.009116,-11769.274478,2911.162892
1030.761298,1850.514855,-10140.821405,2451.505594
1030.761622,0.000000,-10807.006753,1915.238745
1030.761946,-1924.535449,-12139.377449,1762.019645
1030.762270,-2664.741391,-11029.068536,153.219100
1030.762594,-3108.864956,-8512.368333,536.266849
1030.762918,-3552.988522,-8068.244768,-536.266849
1030.763242,-3478.967927,-8364.327145,-995.924147
1030.763566,-3775.050304,-7772.162391,-1532.190996
1030.763890,-2960.823768,-6513.812290,-766.095498
1030.764214,-2738.761985,-6735.874072,-1302.362347
1030.764538,-1998.556043,-7105.977043,-1378.971896
1030.764862,-962.267725,-7920.203579,229.828649
1030.765186,1480.411884,-9030.512492,1838.629195
1030.765510,3256.906145,-10436.903782,3217.601092
1030.765834,3849.070898,-11473.192101,3753.867940
1030.766158,4737.318029,-10658.965565,4903.011187
1030.766481,5107.421000,-10658.965565,4366.744339
1030.766805,4441.235652,-10658.965565,3753.867940
1030.767129,1850.514855,-10214.842000,1532.190996
1030.767453,-1554.432478,-8808.450710,0.000000
1030.767777,-3034.844362,-9400.615463,-612.876398
1030.768101,-1628.453072,-9252.574275,-1915.238745
1030.768425,-592.164754,-8364.327145,-1685.410096
1030.768749,-1924.535449,-8586.388927,-2374.896044
1030.769073,-2738.761985,-9770.718434,-2757.943793
1030.769398,-2590.720797,-10807.006753,-4136.915689
1030.769722,-1702.473667,-10214.842000,-2987.772442
1030.770046,-370.102971,-10807.006753,-306.438199
1030.770370,1406.391290,-13323.706956,1532.190996
1030.770694,3330.926739,-13693.809927,2451.505594
1030.771018,4589.276840,-11695.253884,3753.867940
1030.771342,4589.276840,-11695.253884,3983.696590
1030.771666,3478.967927,-11621.233289,2451.505594
1030.771990,2368.659014,-11029.068536,2145.067394
1030.772314,1036.288319,-9178.553681,1149.143247
1030.772638,-666.185348,-7772.162391,-229.828649
1030.772962,-3330.926739,-7550.100608,-1608.800546
1030.773286,-3256.906145,-7402.059420,-2604.724693
1030.773610,-2960.823768,-7105.977043,-3370.820191
1030.773934,-1850.514855,-7105.977043,-3217.601092
1030.774258,-2368.659014,-7328.038826,-3524.039291
1030.774582,-2738.761985,-8216.285956,-2298.286494
1030.774906,-1332.370696,-8660.409521,-1991.848295
1030.775230,0.000000,-9252.574275,229.828649
1030.775554,1924.535449,-10436.903782,2068.457845
1030.775878,3034.844362,-11177.109724,2298.286494
1030.776202,3330.926739,-11399.171507,2528.115143
1030.776526,3108.864956,-9992.780217,3064.381992
1030.776850,2738.761985,-9770.718434,1915.238745
1030.777174,370.102971,-10288.862594,1685.410096
1030.777498,-370.102971,-10214.842000,1532.190996
1030.777822,-592.164754,-9548.656652,-306.438199
1030.778146,-1480.411884,-9104.533087,-689.485948
1030.778470,-2812.782580,-9474.636058,-1915.238745
1030.778794,-3256.906145,-9178.553681,-2987.772442
1030.779118,-2812.782580,-8660.409521,-2374.896044
1030.779442,-2072.576638,-7994.224174,-1608.800546
1030.779766,-1554.432478,-7624.121203,-1149.143247
1030.780090,-1850.514855,-7402.059420,-1378.971896
1030.780414,-1776.494261,-8512.368333,-766.095498
1030.780738,-370.102971,-9400.615463,-229.828649
1030.781062,1850.514855,-10288.862594,536.266849
1030.781386,1184.329507,-11103.089130,1378.971896
1030.781710,-222.061783,-10955.047942,1072.533697
1030.782034,-518.144159,-10436.903782,689.485948
1030.782358,-296.082377,-10436.903782,-306.438199
1030.782682,-222.061783,-11251.130318,-1685.410096
1030.783006,-222.061783,-11399.171507,-919.314598
1030.783330,1036.288319,-11029.068536,-689.485948
1030.783654,1702.473667,-10955.047942,-1532.190996
1030.783978,1258.350101,-11177.109724,-842.705048
1030.784302,444.123565,-11103.089130,-1378.971896
1030.784626,666.185348,-11029.068536,-1685.410096
1030.784950,888.247130,-10362.883188,-2451.505594
1030.785274,1110.308913,-9252.574275,-1378.971896
1030.785598,962.267725,-10214.842000,-306.438199
1030.785922,444.123565,-10362.883188,-383.047749
1030.786246,518.144159,-10288.862594,0.000000
1030.786570,0.000000,-8808.450710,-459.657299
1030.786894,-370.102971,-8586.388927,-919.314598
1030.787219,-1480.411884,-9770.718434,153.219100
1030.787543,-666.185348,-9918.759623,0.000000
1030.787867,814.226536,-8660.409521,383.047749
1030.788191,666.185348,-8068.244768,459.657299
1030.788515,-814.226536,-8438.347739,-842.705048
1030.788839,-370.102971,-9474.636058,-459.657299
1030.789163,1480.411884,-9548.656652,-153.219100
1030.789487,1628.453072,-9770.718434,689.485948
1030.789811,962.267725,-9696.697840,0.000000
1030.790135,0.000000,-9918.759623,766.095498
1030.790459,0.000000,-10140.821405,306.438199
1030.790783,148.041188,-9474.636058,76.609550
1030.791107,-518.144159,-8364.327145,689.485948
1030.791431,-592.164754,-8438.347739,0.000000
1030.791755,-814.226536,-8216.285956,306.438199
1030.792079,-1332.370696,-7698.141797,536.266849
1030.792403,-1480.411884,-8734.430116,612.876398
1030.792727,-2368.659014,-9474.636058,1149.143247
1030.793051,-2220.617826,-9474.636058,1532.190996
1030.793375,-1850.514855,-8660.409521,1838.629195
1030.793699,-888.247130,-7846.182985,1378.971896
1030.794023,-296.082377,-7550.100608,766.095498
1030.794347,-222.061783,-8290.306550,1532.190996
1030.794671,1184.329507,-9918.759623,919.314598
1030.794995,1776.494261,-9770.718434,919.314598
1030.795319,1110.308913,-9474.636058,995.924147
1030.795643,0.000000,-10066.800811,76.609550
1030.795967,-444.123565,-10584.944971,0.000000
1030.796291,-592.164754,-10510.924376,-995.924147
1030.796615,-296.082377,-10140.821405,-383.047749
1030.796939,0.000000,-11251.130318,459.657299
1030.797263,962.267725,-12583.501014,1455.581446
1030.797587,1850.514855,-12731.542202,1149.143247
1030.797911,888.247130,-11103.089130,612.876398
1030.798235,-518.144159,-10140.821405,229.828649
1030.798559,-2368.659014,-10584.944971,229.828649
1030.798883,-1406.391290,-11769.274478,536.266849
1030.799207,0.000000,-9992.780217,306.438199
1030.799531,370.102971,-9178.553681,229.828649
1030.799855,74.020594,-9400.615463,-919.314598
1030.800179,666.185348,-10214.842000,-1149.143247
1030.800503,740.205942,-10214.842000,-1149.143247
1030.800827,0.000000,-9104.533087,-459.657299
1030.801151,-1998.556043,-8512.368333,-1378.971896
1030.801475,-2368.659014,-8956.491898,-919.314598
1030.801799,-518.144159,-9548.656652,-1072.533697
1030.802123,962.267725,-9400.615463,-612.876398
1030.802447,1702.473667,-9696.697840,153.219100
1030.802771,1480.411884,-10066.800811,1149.143247
1030.803095,1628.453072,-9474.636058,689.485948
1030.803419,1036.288319,-8586.388927,1149.143247
1030.803743,1554.432478,-9548.656652,1072.533697
1030.804067,222.061783,-9474.636058,229.828649
1030.804391,148.041188,-9326.594869,229.828649
1030.804715,-296.082377,-8586.388927,-383.047749
1030.805039,-444.123565,-7328.038826,-995.924147
1030.805364,-296.082377,-8068.244768,-995.924147
1030.805688,148.041188,-9326.594869,-766.095498
1030.806012,370.102971,-9030.512492,-1378.971896
1030.806336,518.144159,-7402.059420,-1532.190996
1030.806660,-296.082377,-7920.203579,-1378.971896
1030.806984,-740.205942,-9474.636058,0.000000
1030.807308,-592.164754,-9918.759623,306.438199
1030.807632,-962.267725,-9992.780217,306.438199
1030.807956,-740.205942,-9548.656652,995.924147
1030.808280,666.185348,-9844.739029,612.876398
1030.808604,2072.576638,-10214.842000,1225.752797
1030.808928,2368.659014,-10214.842000,766.095498
1030.809252,1110.308913,-9178.553681,0.000000
1030.809576,-1554.432478,-10658.965565,-842.705048
1030.809900,-2072.576638,-11621.233289,-1455.581446
1030.810224,-814.226536,-10881.027347,-1072.533697
1030.810548,1110.308913,-9696.697840,-689.485948
1030.810872,740.205942,-9252.574275,-689.485948
1030.811196,222.061783,-9548.656652,-2451.505594
1030.811520,148.041188,-9844.739029,-2604.724693
1030.811844,592.164754,-10658.965565,-1762.019645
1030.812168,1110.308913,-11473.192101,-1608.800546
1030.812492,0.000000,-11177.109724,-766.095498
1030.812816,-1406.391290,-11473.192101,536.266849
1030.813140,-2072.576638,-11843.295072,0.000000
1030.813464,-2146.597232,-11103.089130,229.828649
1030.813788,-962.267725,-11325.150913,-383.047749
1030.814112,370.102971,-11251.130318,536.266849
1030.814436,1480.411884,-11029.068536,459.657299
1030.814760,592.164754,-9548.656652,-229.828649
1030.815084,-962.267725,-8512.368333,-229.828649
1030.815408,-2960.823768,-9548.656652,-536.266849
1030.815732,-2812.782580,-10584.944971,-1302.362347
1030.816056,-1110.308913,-9770.718434,-995.924147
1030.816380,222.061783,-7994.224174,-1149.143247
1030.816704,666.185348,-8586.388927,-1149.143247
1030.817028,444.123565,-9326.594869,-459.657299
1030.817352,962.267725,-9918.759623,536.266849
1030.817676,1332.370696,-9622.677246,995.924147
1030.818000,740.205942,-8808.450710,612.876398
1030.818324,0.000000,-8068.244768,1608.800546
1030.818648,444.123565,-8512.368333,995.924147
1030.818972,1406.391290,-8512.368333,612.876398
1030.819296,1924.535449,-8364.327145,1072.533697
1030.819620,444.123565,-7402.059420,0.000000
1030.819944,-444.123565,-8216.285956,766.095498
1030.820268,-370.102971,-8882.471304,1455.581446
1030.820592,222.061783,-9548.656652,1302.362347
1030.820916,-222.061783,-9326.594869,383.047749
1030.821240,-1924.535449,-8586.388927,459.657299
1030.821564,-3256.906145,-9696.697840,-306.438199
1030.821888,-2590.720797,-10436.903782,-536.266849
1030.822212,-740.205942,-9844.739029,-229.828649
1030.822536,0.000000,-9252.574275,1455.581446
1030.822860,1406.391290,-9918.759623,1608.800546
1030.823184,1702.473667,-9104.533087,306.438199
1030.823509,-296.082377,-8660.409521,383.047749
1030.823833,-1924.535449,-9844.739029,306.438199
1030.824157,-518.144159,-11029.068536,0.000000
1030.824481,962.267725,-10955.047942,689.485948
1030.824805,1628.453072,-9696.697840,919.314598
1030.825129,1258.350101,-9104.533087,536.266849
1030.825453,1184.329507,-10584.944971,995.924147
1030.825777,962.267725,-11251.130318,0.000000
1030.826101,1332.370696,-10214.842000,229.828649
1030.826425,888.247130,-9252.574275,0.000000
1030.826749,148.041188,-9622.677246,76.609550
1030.827073,-148.041188,-9696.697840,0.000000
1030.827397,0.000000,-9844.739029,0.000000
1030.827721,-370.102971,-9992.780217,-459.657299
1030.828045,-1110.308913,-9844.739029,-1685.410096
1030.828369,0.000000,-9252.574275,0.000000
1030.828693,666.185348,-9474.636058,76.609550
1030.829017,888.247130,-9844.739029,76.609550
1030.829341,-296.082377,-10214.842000,153.219100
1030.829665,-1184.329507,-10658.965565,76.609550
1030.829989,-518.144159,-10732.986159,-153.219100
1030.830313,888.247130,-10140.821405,153.219100
1030.830637,1480.411884,-10510.924376,0.000000
1030.830961,1554.432478,-9622.677246,0.000000
1030.831285,1480.411884,-9770.718434,689.485948
1030.831609,962.267725,-9474.636058,-536.266849
1030.831933,962.267725,-8808.450710,-1072.533697
1030.832257,222.061783,-8438.347739,-306.438199
1030.832581,74.020594,-10066.800811,-766.095498
1030.832905,-222.061783,-10214.842000,-1608.800546
1030.833229,-1332.370696,-8290.306550,-1915.238745
1030.833553,-1480.411884,-7550.100608,-1072.533697
1030.833877,-1258.350101,-9548.656652,-1149.143247
1030.834201,-1110.308913,-10362.883188,-842.705048
1030.834525,-518.144159,-9030.512492,383.047749
1030.834849,592.164754,-9178.553681,153.219100
1030.835173,518.144159,-10214.842000,229.828649
1030.835497,148.041188,-10288.862594,306.438199
1030.835821,-444.123565,-9770.718434,1378.971896
1030.836145,-1110.308913,-10288.862594,1072.533697
1030.836469,-962.267725,-10584.944971,229.828649
1030.836793,0.000000,-9474.636058,536.266849
1030.837117,814.226536,-8512.368333,0.000000
1030.837441,666.185348,-6957.935855,-1915.238745
1030.837765,-296.082377,-8068.244768,-1608.800546
1030.838089,-2960.823768,-10214.842000,-1225.752797
1030.838413,-2960.823768,-10955.047942,-2374.896044
1030.838737,-3034.844362,-9252.574275,-2834.553343
1030.839061,-2516.700203,-8586.388927,-1378.971896
1030.839385,-296.082377,-10362.883188,-1991.848295
1030.839709,814.226536,-11251.130318,-536.266849
1030.840033,1702.473667,-10807.006753,229.828649
1030.840357,2516.700203,-10510.924376,1532.190996
1030.840681,3330.926739,-12139.377449,1838.629195
1030.841005,2886.803174,-11695.253884,1991.848295
1030.841329,1998.556043,-10288.862594,2068.457845
1030.841654,592.164754,-9696.697840,689.485948
1030.841978,-814.226536,-10584.944971,-383.047749
1030.842302,-2220.617826,-10807.006753,-612.876398
1030.842626,-1628.453072,-10288.862594,153.219100
1030.842950,222.061783,-9400.615463,-612.876398
1030.843274,518.144159,-7772.162391,-1378.971896
1030.843598,-740.205942,-8142.265362,-1149.143247
1030.843922,-1332.370696,-8956.491898,-1838.629195
1030.844246,-962.267725,-10362.883188,-1225.752797
1030.844570,222.061783,-9918.759623,383.047749
1030.844894,1628.453072,-9918.759623,612.876398
1030.845218,2590.720797,-9622.677246,995.924147
1030.845542,3775.050304,-9844.739029,1532.190996
1030.845866,3478.967927,-9770.718434,1915.238745
1030.846190,2590.720797,-9548.656652,1302.362347
1030.846514,296.082377,-8956.491898,842.705048
1030.846838,-370.102971,-10214.842000,1149.143247
1030.847162,222.061783,-9178.553681,0.000000
1030.847486,1702.473667,-8808.450710,229.828649
1030.847810,888.247130,-9622.677246,1225.752797
1030.848134,-296.082377,-10066.800811,842.705048
1030.848458,-1998.556043,-10288.862594,0.000000
1030.848782,-4367.215058,-9474.636058,0.000000
1030.849106,-5329.482782,-8512.368333,-459.657299
1030.849430,-3627.009116,-8290.306550,0.000000
1030.849754,-1184.329507,-8808.450710,153.219100
1030.850078,888.247130,-8364.327145,1072.533697
1030.850402,1406.391290,-7994.224174,229.828649
1030.850726,-518.144159,-8512.368333,612.876398
1030.851050,-148.041188,-9622.677246,1378.971896
1030.851374,518.144159,-10066.800811,1532.190996
1030.851698,1036.288319,-10066.800811,76.609550
1030.852022,0.000000,-9326.594869,-153.219100
1030.852346,518.144159,-9104.533087,0.000000
1030.852670,2072.576638,-9548.656652,536.266849
1030.852994,962.267725,-10510.924376,689.485948
1030.853318,-148.041188,-10140.821405,0.000000
1030.853642,-888.247130,-8586.388927,-689.485948
1030.853966,-148.041188,-9474.636058,0.000000
1030.854290,-222.061783,-9696.697840,-1072.533697
1030.854614,-888.247130,-9696.697840,-612.876398
1030.854938,-2294.638420,-10140.821405,-383.047749
1030.855262,-1924.535449,-10584.944971,-766.095498
1030.855586,-1258.350101,-9992.780217,-229.828649
1030.855910,-148.041188,-9918.759623,0.000000
1030.856234,444.123565,-10732.986159,-612.876398
1030.856558,0.000000,-11325.150913,-153.219100
1030.856882,-296.082377,-10584.944971,-766.095498
1030.857206,-1184.329507,-9918.759623,-766.095498
1030.857530,-1702.473667,-10288.862594,-383.047749
1030.857854,-962.267725,-11399.171507,-306.438199
1030.858178,1554.432478,-11547.212695,-229.828649
1030.858502,2516.700203,-9252.574275,-689.485948
1030.858826,2368.659014,-9252.574275,-383.047749
1030.859150,1776.494261,-10214.842000,-995.924147
1030.859474,1184.329507,-9844.739029,-766.095498
1030.859799,1406.391290,-9326.594869,-1149.143247
1030.860123,1406.391290,-9622.677246,-1302.362347
1030.860447,1258.350101,-10140.821405,-612.876398
1030.860771,1332.370696,-10214.842000,0.000000
1030.861095,1036.288319,-10436.903782,-536.266849
1030.861419,518.144159,-9400.615463,-229.828649
1030.861743,592.164754,-8956.491898,76.609550
1030.862067,-148.041188,-10066.800811,229.828649
1030.862391,0.000000,-10288.862594,-229.828649
1030.862715,148.041188,-8438.347739,-459.657299
1030.863039,0.000000,-8438.347739,459.657299
1030.863363,-1036.288319,-9104.533087,-536.266849
1030.863687,-1258.350101,-8956.491898,-1455.581446
1030.864011,-2220.617826,-9178.553681,76.609550
1030.864335,-1702.473667,-10066.800811,76.609550
1030.864659,-1480.411884,-10140.821405,-689.485948
1030.864983,-1850.514855,-8660.409521,-229.828649
1030.865307,-888.247130,-8290.306550,0.000000
1030.865631,370.102971,-8808.450710,-842.705048
1030.865955,370.102971,-8734.430116,-459.657299
1030.866279,-666.185348,-8364.327145,766.095498
1030.866603,-1036.288319,-9918.759623,1378.971896
1030.866927,-370.102971,-10807.006753,612.876398
1030.867251,0.000000,-9030.512492,0.000000
1030.867575,-148.041188,-8068.244768,153.219100
1030.867899,1480.411884,-9474.636058,1608.800546
1030.868223,2442.679609,-12139.377449,1608.800546
1030.868547,2220.617826,-11621.233289,2068.457845
1030.868871,740.205942,-8734.430116,995.924147
1030.869195,-1184.329507,-8438.347739,-153.219100
1030.869520,-2146.597232,-9992.780217,-1225.752797
1030.869844,-1332.370696,-10214.842000,-1455.581446
1030.870168,0.000000,-10066.800811,-229.828649
1030.870492,0.000000,-10214.842000,766.095498
1030.870816,0.000000,-9474.636058,-459.657299
1030.871140,-740.205942,-8956.491898,-383.047749
1030.871464,-1406.391290,-9400.615463,0.000000
1030.871788,-1110.308913,-11991.336260,-689.485948
1030.872112,-1850.514855,-11917.315666,383.047749
1030.872436,-962.267725,-11843.295072,1378.971896
1030.872760,370.102971,-11547.212695,1455.581446
1030.873084,2072.576638,-9844.739029,153.219100
1030.873408,1924.535449,-8068.244768,76.609550
1030.873732,296.082377,-9770.718434,612.876398
1030.874056,518.144159,-11621.233289,-1072.533697
1030.874381,74.020594,-9622.677246,0.000000
1030.874705,-148.041188,-9178.553681,995.924147
1030.875029,444.123565,-10288.862594,459.657299
1030.875353,518.144159,-10066.800811,-1302.362347
1030.875677,0.000000,-8660.409521,-383.047749
1030.876001,-814.226536,-7624.121203,-919.314598
1030.876325,74.020594,-9400.615463,-459.657299
1030.876649,444.123565,-10362.883188,766.095498
1030.876973,1036.288319,-8882.471304,919.314598
1030.877297,814.226536,-7920.203579,-153.219100
1030.877621,-666.185348,-8290.306550,-995.924147
1030.877945,-1776.494261,-9104.533087,-689.485948
1030.878269,-962.267725,-9178.553681,536.266849
1030.878593,-148.041188,-8660.409521,612.876398
1030.878918,0.000000,-8512.368333,612.876398
1030.879242,0.000000,-9104.533087,612.876398
1030.879566,814.226536,-9844.739029,229.828649
1030.879890,1258.350101,-10066.800811,0.000000
1030.880214,222.061783,-9474.636058,-842.705048
1030.880538,-1776.494261,-9474.636058,76.609550
1030.880862,-2590.720797,-9844.739029,0.000000
1030.881186,-1554.432478,-8956.491898,-612.876398
1030.881510,148.041188,-8512.368333,-995.924147
1030.881834,1110.308913,-9400.615463,-766.095498
1030.882158,2072.576638,-11251.130318,459.657299
1030.882482,2442.679609,-10881.027347,-383.047749
1030.882806,1628.453072,-8068.244768,-919.314598
1030.883130,-74.020594,-8956.491898,842.705048
1030.883455,-666.185348,-11325.150913,459.657299
1030.883779,0.000000,-12139.377449,-919.314598
1030.884103,1258.350101,-10510.924376,306.438199
1030.884427,2664.741391,-9178.553681,919.314598
1030.884751,3330.926739,-9770.718434,306.438199
1030.885075,2146.597232,-10584.944971,383.047749
1030.885399,962.267725,-9622.677246,229.828649
1030.885723,0.000000,-9474.636058,-536.266849
1030.886047,-1480.411884,-9548.656652,-995.924147
1030.886371,-2590.720797,-10214.842000,229.828649
1030.886695,-2072.576638,-10214.842000,-306.438199
1030.887019,-592.164754,-8882.471304,-1915.238745
1030.887343,-1998.556043,-8882.471304,-1225.752797
1030.887667,-2738.761985,-10510.924376,-306.438199
1030.887991,-1332.370696,-11399.171507,-1302.362347
1030.888316,-1184.329507,-9400.615463,-229.828649
1030.888640,-222.061783,-8586.388927,0.000000
1030.888964,148.041188,-9770.718434,153.219100
1030.889288,962.267725,-11473.192101,0.000000
1030.889612,740.205942,-10807.006753,306.438199
1030.889936,814.226536,-9622.677246,459.657299
1030.890260,2294.638420,-9696.697840,689.485948
1030.890584,3256.906145,-11029.068536,1762.019645
1030.890908,3256.906145,-10881.027347,995.924147
1030.891232,2146.597232,-8808.450710,612.876398
1030.891556,0.000000,-9030.512492,-1072.533697
1030.891880,-2220.617826,-9696.697840,-1762.019645
1030.892204,-2220.617826,-9622.677246,-1685.410096
1030.892528,-1480.411884,-8882.471304,-1072.533697
1030.892853,-1628.453072,-8068.244768,-1072.533697
1030.893177,-1702.473667,-8586.388927,-153.219100
1030.893501,-962.267725,-9104.533087,0.000000
1030.893825,74.020594,-8808.450710,-459.657299
1030.894149,0.000000,-8068.244768,76.609550
1030.894473,-1258.350101,-9178.553681,459.657299
1030.894797,-2146.597232,-10510.924376,1302.362347
1030.895121,-1258.350101,-11029.068536,0.000000
1030.895445,-1036.288319,-8734.430116,459.657299
1030.895769,0.000000,-8364.327145,-612.876398
1030.896093,444.123565,-9696.697840,0.000000
1030.896417,592.164754,-11547.212695,383.047749
1030.896741,222.061783,-11251.130318,536.266849
