#time,accel_x,accel_y,accel_z
896.935041,0.000000,-9918.759623,0.000000
896.935365,0.000000,-9548.656652,76.609550
896.935689,0.000000,-9844.739029,0.000000
896.936013,0.000000,-9474.636058,-229.828649
896.936337,0.000000,-9548.656652,-229.828649
896.936661,-148.041188,-9474.636058,0.000000
896.936985,0.000000,-9696.697840,76.609550
896.937308,0.000000,-9622.677246,306.438199
896.937632,-148.041188,-9770.718434,0.000000
896.937956,-296.082377,-9918.759623,76.609550
896.938280,-222.061783,-9844.739029,0.000000
896.938604,-370.102971,-9622.677246,0.000000
896.938928,-444.123565,-9548.656652,-306.438199
896.939252,-222.061783,-9548.656652,76.609550
896.939576,-666.185348,-9548.656652,0.000000
896.939900,-148.041188,-9474.636058,0.000000
896.940224,-296.082377,-9474.636058,76.609550
896.940548,-370.102971,-9622.677246,0.000000
896.940872,-296.082377,-9696.697840,-153.219100
896.941195,-222.061783,-9548.656652,0.000000
896.941519,74.020594,-9400.615463,153.219100
896.941843,148.041188,-9770.718434,153.219100
896.942167,222.061783,-9696.697840,229.828649
896.942491,0.000000,-9548.656652,306.438199
896.942815,0.000000,-9622.677246,0.000000
896.943139,74.020594,-9696.697840,0.000000
896.943463,74.020594,-10066.800811,0.000000
896.943787,0.000000,-9844.739029,76.609550
896.944111,0.000000,-9548.656652,0.000000
896.944435,74.020594,-9474.636058,-153.219100
896.944759,148.041188,-9770.718434,0.000000
896.945082,-370.102971,-9622.677246,76.609550
896.945406,-148.041188,-9844.739029,383.047749
896.945730,148.041188,-9770.718434,0.000000
896.946054,-148.041188,-9992.780217,0.000000
896.946378,-666.185348,-9770.718434,612.876398
896.946702,-1184.329507,-9622.677246,-153.219100
896.947026,-1110.308913,-9548.656652,0.000000
896.947350,-962.267725,-9030.512492,459.657299
896.947674,-444.123565,-8660.409521,766.095498
896.947998,370.102971,-9474.636058,536.266849
896.948322,592.164754,-9844.739029,536.266849
896.948645,0.000000,-10288.862594,1225.752797
896.948969,-592.164754,-10140.821405,536.266849
896.949293,-962.267725,-10214.842000,689.485948
896.949617,-2146.597232,-10510.924376,612.876398
896.949941,-2960.823768,-10214.842000,306.438199
896.950265,-2516.700203,-10436.903782,612.876398
896.950589,-2146.597232,-9770.718434,689.485948
896.950913,-1480.411884,-9326.594869,612.876398
896.951237,-592.164754,-8956.491898,1378.971896
896.951561,-296.082377,-9104.533087,1302.362347
896.951885,0.000000,-9548.656652,1762.019645
896.952209,-1554.432478,-9474.636058,1378.971896
896.952532,-2368.659014,-9474.636058,1838.629195
896.952856,-3256.906145,-9918.759623,1685.410096
896.953180,-3182.885551,-10584.944971,1532.190996
896.953504,-3108.864956,-10510.924376,1762.019645
896.953828,-3182.885551,-10732.986159,1762.019645
896.954152,-2812.782580,-10732.986159,1532.190996
896.954476,-2516.700203,-9696.697840,2068.457845
896.954800,-1628.453072,-9030.512492,2221.676944
896.955124,-1850.514855,-8512.368333,1838.629195
896.955448,-962.267725,-9326.594869,2298.286494
896.955772,-592.164754,-9400.615463,2604.724693
896.956096,-1110.308913,-9622.677246,2451.505594
896.956419,-2294.638420,-9622.677246,2451.505594
896.956743,-3330.926739,-10140.821405,2451.505594
896.957067,-4293.194464,-10436.903782,2757.943793
896.957391,-4737.318029,-10288.862594,3217.601092
896.957715,-5107.421000,-10140.821405,3064.381992
896.958039,-4885.359217,-10066.800811,3140.991542
896.958363,-4885.359217,-9770.718434,2987.772442
896.958687,-4441.235652,-9474.636058,3370.820191
896.959011,-3627.009116,-9474.636058,3600.648841
896.959335,-2368.659014,-9400.615463,3907.087040
896.959659,-296.082377,-9104.533087,5209.449386
896.959982,1184.329507,-8438.347739,4443.353888
896.960306,1406.391290,-7994.224174,4596.572988
896.960630,1036.288319,-7994.224174,3677.258390
896.960954,444.123565,-8364.327145,3370.820191
896.961278,-444.123565,-9030.512492,3064.381992
896.961602,-1702.473667,-8734.430116,2604.724693
896.961926,-3775.050304,-8364.327145,2374.896044
896.962250,-5773.606348,-8364.327145,1072.533697
896.962574,-7179.997637,-8734.430116,0.000000
896.962898,-7550.100608,-11103.089130,766.095498
896.963222,-5625.565159,-11843.295072,2145.067394
896.963546,-2294.638420,-10732.986159,3294.210641
896.963869,222.061783,-9400.615463,5132.839837
896.964193,2886.803174,-8586.388927,4749.792088
896.964517,3849.070898,-9030.512492,4136.915689
896.964841,3775.050304,-10658.965565,4443.353888
896.965165,2590.720797,-10288.862594,3677.258390
896.965489,1036.288319,-10066.800811,2987.772442
896.965813,-1110.308913,-9178.553681,1149.143247
896.966137,-3923.091493,-8808.450710,-229.828649
896.966461,-6069.688724,-9844.739029,-1378.971896
896.966785,-6217.729913,-10955.047942,-2221.676944
896.967109,-5329.482782,-10732.986159,-1149.143247
896.967433,-3849.070898,-9474.636058,-459.657299
896.967756,-2442.679609,-8216.285956,842.705048
896.968080,-2146.597232,-8956.491898,995.924147
896.968404,-2664.741391,-9696.697840,1991.848295
896.968728,-2590.720797,-10288.862594,1838.629195
896.969052,-1332.370696,-11695.253884,2757.943793
896.969376,1628.453072,-11843.295072,3830.477490
896.969700,5033.400406,-11399.171507,4443.353888
896.970024,5921.647536,-10658.965565,4443.353888
896.970348,3775.050304,-10214.842000,2451.505594
896.970672,-592.164754,-10288.862594,689.485948
896.970996,-4071.132681,-9474.636058,-689.485948
896.971320,-5477.523971,-7846.182985,-1685.410096
896.971643,-5699.585753,-6661.853478,-1608.800546
896.971967,-5773.606348,-7550.100608,-1608.800546
896.972291,-5329.482782,-10584.944971,-995.924147
896.972615,-5033.400406,-11695.253884,-1378.971896
896.972939,-6513.812290,-9992.780217,-229.828649
896.973263,-7698.141797,-9178.553681,919.314598
896.973587,-5995.668130,-9104.533087,1378.971896
896.973911,-2368.659014,-9918.759623,1838.629195
896.974235,0.000000,-10807.006753,2911.162892
896.974559,1480.411884,-11473.192101,3677.258390
896.974883,1850.514855,-11399.171507,2911.162892
896.975206,1036.288319,-10066.800811,2528.115143
896.975530,0.000000,-7994.224174,2374.896044
896.975854,-444.123565,-7476.080014,1838.629195
896.976178,-1258.350101,-8586.388927,1378.971896
896.976502,-2590.720797,-9474.636058,229.828649
896.976826,-4515.256246,-8956.491898,-229.828649
896.977150,-4737.318029,-8142.265362,689.485948
896.977474,-3997.112087,-8142.265362,1149.143247
896.977798,-3330.926739,-7698.141797,1072.533697
896.978122,-3627.009116,-8142.265362,842.705048
896.978446,-5773.606348,-9400.615463,842.705048
896.978770,-6587.832884,-10955.047942,995.924147
896.979093,-4589.276840,-11177.109724,2221.676944
896.979417,-740.205942,-10362.883188,3524.039291
896.979741,1776.494261,-9474.636058,3064.381992
896.980065,888.247130,-10584.944971,2681.334243
896.980389,-370.102971,-12435.459826,3524.039291
896.980713,296.082377,-13249.686362,3600.648841
896.981037,1332.370696,-11991.336260,3217.601092
896.981361,814.226536,-10066.800811,3447.429741
896.981685,-1258.350101,-9622.677246,2757.943793
896.982009,-2590.720797,-10510.924376,2451.505594
896.982333,-2812.782580,-10288.862594,2604.724693
896.982657,-2960.823768,-8438.347739,1685.410096
896.982980,-3552.988522,-7105.977043,1455.581446
896.983304,-4589.276840,-7254.018232,1838.629195
896.983628,-4071.132681,-8216.285956,2757.943793
896.983952,-2886.803174,-8068.244768,3064.381992
896.984276,-1924.535449,-8586.388927,1685.410096
896.984600,-2442.679609,-8068.244768,1072.533697
896.984924,-2146.597232,-8438.347739,1685.410096
896.985248,370.102971,-9474.636058,3064.381992
896.985572,2368.659014,-10140.821405,3677.258390
896.985896,2072.576638,-10807.006753,3753.867940
896.986220,740.205942,-10807.006753,3524.039291
896.986544,222.061783,-11177.109724,3370.820191
896.986867,444.123565,-11029.068536,2987.772442
896.987191,-962.267725,-9474.636058,2757.943793
896.987515,-3182.885551,-9400.615463,2298.286494
896.987839,-3330.926739,-9474.636058,1685.410096
896.988163,-1776.494261,-8882.471304,1608.800546
896.988487,-592.164754,-7550.100608,1378.971896
896.988811,-1332.370696,-6957.935855,766.095498
896.989135,-2072.576638,-7550.100608,0.000000
896.989459,-1850.514855,-7550.100608,-842.705048
896.989783,-148.041188,-7550.100608,0.000000
896.990107,888.247130,-8438.347739,995.924147
896.990430,962.267725,-10658.965565,306.438199
896.990754,592.164754,-10807.006753,0.000000
896.991078,518.144159,-9770.718434,306.438199
896.991402,740.205942,-9992.780217,842.705048
896.991726,1110.308913,-12213.398043,1532.190996
896.992050,1628.453072,-11621.233289,76.609550
896.992374,2442.679609,-9622.677246,689.485948
896.992698,3034.844362,-8734.430116,919.314598
896.993022,2664.741391,-9400.615463,306.438199
896.993346,1258.350101,-9770.718434,-612.876398
896.993670,-888.247130,-8734.430116,-1455.581446
896.993994,-2368.659014,-9770.718434,-2298.286494
896.994317,-3108.864956,-12065.356855,-2834.553343
896.994641,-3627.009116,-11621.233289,-3217.601092
896.994965,-3552.988522,-9844.739029,-2834.553343
896.995289,-3997.112087,-10732.986159,-2528.115143
896.995613,-2590.720797,-12361.439231,-2298.286494
896.995938,-296.082377,-11843.295072,-1762.019645
896.996262,1184.329507,-9326.594869,-995.924147
896.996586,2220.617826,-9474.636058,-1072.533697
896.996910,3256.906145,-10584.944971,-459.657299
896.997235,3775.050304,-9844.739029,-536.266849
896.997559,2960.823768,-8586.388927,76.609550
896.997883,1184.329507,-9918.759623,-459.657299
896.998207,222.061783,-11547.212695,-1915.238745
896.998531,-370.102971,-10584.944971,-2298.286494
896.998856,-962.267725,-9844.739029,-2068.457845
896.999180,-1850.514855,-11473.192101,-2604.724693
896.999504,-2590.720797,-11029.068536,-3294.210641
896.999828,-2072.576638,-9104.533087,-3064.381992
897.000153,-1702.473667,-8290.306550,-1608.800546
897.000477,-1776.494261,-9474.636058,-1455.581446
897.000801,-518.144159,-9770.718434,-842.705048
897.001125,1036.288319,-7994.224174,76.609550
897.001449,1998.556043,-7254.018232,1149.143247
897.001774,1850.514855,-9104.533087,1225.752797
897.002098,2664.741391,-10362.883188,995.924147
897.002422,1776.494261,-8438.347739,995.924147
897.002746,0.000000,-9326.594869,612.876398
897.003071,-1628.453072,-11399.171507,-689.485948
897.003395,-2442.679609,-11029.068536,-1532.190996
897.003719,-2368.659014,-8956.491898,-229.828649
897.004043,-1332.370696,-9400.615463,0.000000
897.004367,0.000000,-9474.636058,-459.657299
897.004692,962.267725,-8956.491898,306.438199
897.005016,1480.411884,-8364.327145,1455.581446
897.005340,2220.617826,-9030.512492,919.314598
897.005664,1258.350101,-9326.594869,842.705048
897.005989,222.061783,-7624.121203,919.314598
897.006313,444.123565,-7105.977043,1991.848295
897.006637,1258.350101,-9844.739029,1608.800546
897.006961,2072.576638,-10288.862594,1608.800546
897.007285,1110.308913,-9326.594869,842.705048
897.007610,-666.185348,-9178.553681,1072.533697
897.007934,-1998.556043,-10658.965565,459.657299
897.008258,-2368.659014,-11547.212695,76.609550
897.008582,-2590.720797,-10214.842000,766.095498
897.008907,-2368.659014,-9696.697840,995.924147
897.009231,-2072.576638,-11547.212695,766.095498
897.009555,-222.061783,-10658.965565,383.047749
897.009879,592.164754,-9548.656652,1685.410096
897.010203,222.061783,-10140.821405,1838.629195
897.010528,-74.020594,-11399.171507,995.924147
897.010852,-296.082377,-10955.047942,1455.581446
897.011176,0.000000,-9474.636058,1762.019645
897.011500,148.041188,-9696.697840,1991.848295
897.011825,0.000000,-10732.986159,536.266849
897.012149,444.123565,-9918.759623,919.314598
897.012473,148.041188,-8586.388927,1225.752797
897.012797,-666.185348,-9178.553681,766.095498
897.013121,-962.267725,-9474.636058,76.609550
897.013446,-962.267725,-7624.121203,76.609550
897.013770,-1036.288319,-7031.956449,383.047749
897.014094,-962.267725,-9030.512492,459.657299
897.014418,222.061783,-10510.924376,229.828649
897.014743,1184.329507,-9104.533087,536.266849
897.015067,1628.453072,-7994.224174,1532.190996
897.015391,666.185348,-8882.471304,842.705048
897.015715,-148.041188,-9622.677246,459.657299
897.016039,-666.185348,-9178.553681,1149.143247
897.016364,-740.205942,-9178.553681,766.095498
897.016688,296.082377,-10658.965565,612.876398
897.017012,740.205942,-10362.883188,-383.047749
897.017336,1036.288319,-8068.244768,0.000000
897.017661,592.164754,-8586.388927,-229.828649
897.017985,0.000000,-9992.780217,-1762.019645
897.018309,-296.082377,-9474.636058,-1685.410096
897.018633,-518.144159,-7772.162391,-1532.190996
897.018958,0.000000,-8586.388927,-766.095498
897.019282,740.205942,-10362.883188,-1532.190996
897.019606,1258.350101,-9844.739029,-766.095498
897.019930,1184.329507,-8808.450710,-76.609550
897.020254,296.082377,-9770.718434,0.000000
897.020579,370.102971,-11103.089130,-459.657299
897.020903,592.164754,-9696.697840,0.000000
897.021227,962.267725,-9622.677246,1302.362347
897.021551,666.185348,-11103.089130,306.438199
897.021876,1184.329507,-12065.356855,-919.314598
897.022200,962.267725,-9918.759623,-1378.971896
897.022524,0.000000,-9178.553681,-1762.019645
897.022848,-888.247130,-11029.068536,-2681.334243
897.023172,-1184.329507,-11695.253884,-3294.210641
897.023497,-1406.391290,-9918.759623,-2451.505594
897.023821,-1332.370696,-9696.697840,-1915.238745
897.024145,-1406.391290,-11399.171507,-3064.381992
897.024469,-1110.308913,-11325.150913,-2528.115143
897.024794,-444.123565,-10066.800811,-1149.143247
897.025118,-148.041188,-10066.800811,-383.047749
897.025442,296.082377,-11325.150913,153.219100
897.025766,444.123565,-10436.903782,229.828649
897.026090,666.185348,-9104.533087,1685.410096
897.026415,592.164754,-9326.594869,1455.581446
897.026739,1406.391290,-10658.965565,1225.752797
897.027063,1776.494261,-9918.759623,383.047749
897.027387,2072.576638,-7698.141797,229.828649
897.027712,1110.308913,-8216.285956,-689.485948
897.028036,74.020594,-9622.677246,-2451.505594
897.028360,-1184.329507,-8512.368333,-2834.553343
897.028684,-2368.659014,-8586.388927,-1378.971896
897.029008,-1850.514855,-9474.636058,-1991.848295
897.029333,-1110.308913,-10214.842000,-2374.896044
897.029657,-666.185348,-9104.533087,-1149.143247
897.029981,-666.185348,-9474.636058,0.000000
897.030305,-962.267725,-11251.130318,536.266849
897.030630,-444.123565,-10881.027347,919.314598
897.030954,0.000000,-9104.533087,2451.505594
897.031278,666.185348,-9178.553681,3600.648841
897.031602,1776.494261,-11103.089130,2911.162892
897.031926,2368.659014,-11325.150913,2604.724693
897.032251,2368.659014,-9400.615463,2834.553343
897.032575,1332.370696,-8512.368333,2374.896044
897.032899,0.000000,-7994.224174,-229.828649
897.033223,-1702.473667,-7402.059420,-1608.800546
897.033548,-3552.988522,-7476.080014,-1455.581446
897.033872,-3627.009116,-9622.677246,-2298.286494
897.034196,-2886.803174,-10362.883188,-2757.943793
897.034520,-2886.803174,-9252.574275,-919.314598
897.034844,-1628.453072,-8068.244768,383.047749
897.035169,-962.267725,-9622.677246,459.657299
897.035493,-1406.391290,-10066.800811,919.314598
897.035817,-296.082377,-9474.636058,2987.772442
897.036141,666.185348,-8882.471304,3524.039291
897.036466,1850.514855,-10658.965565,4136.915689
897.036790,2738.761985,-11177.109724,4596.572988
897.037114,3997.112087,-9400.615463,4366.744339
897.037438,3923.091493,-8660.409521,3294.210641
897.037762,1554.432478,-8512.368333,459.657299
897.038087,-444.123565,-8586.388927,-1378.971896
897.038411,-1776.494261,-8586.388927,-1532.190996
897.038735,-1924.535449,-8808.450710,-2451.505594
897.039059,-2368.659014,-10436.903782,-2451.505594
897.039384,-2294.638420,-9992.780217,-1915.238745
897.039708,-1924.535449,-9178.553681,-1149.143247
897.040032,-2294.638420,-9474.636058,-229.828649
897.040356,-2072.576638,-9992.780217,306.438199
897.040680,-814.226536,-9326.594869,1532.190996
897.041005,1036.288319,-9104.533087,2068.457845
897.041329,2220.617826,-9770.718434,3370.820191
897.041653,3330.926739,-10732.986159,3907.087040
897.041977,4441.235652,-10807.006753,3677.258390
897.042302,4219.173869,-10066.800811,3447.429741
897.042626,2664.741391,-9178.553681,689.485948
897.042950,1110.308913,-8586.388927,-1991.848295
897.043274,0.000000,-9474.636058,-2451.505594
897.043598,-666.185348,-10510.924376,-3064.381992
897.043923,-592.164754,-10955.047942,-3753.867940
897.044247,-1332.370696,-10510.924376,-2834.553343
897.044571,-666.185348,-9252.574275,-2757.943793
897.044895,-1258.350101,-9548.656652,-2451.505594
897.045220,-2294.638420,-10214.842000,-2298.286494
897.045544,-2590.720797,-10066.800811,-612.876398
897.045868,-1258.350101,-9104.533087,229.828649
897.046192,222.061783,-8808.450710,1149.143247
897.046516,1406.391290,-10362.883188,1838.629195
897.046841,2812.782580,-11325.150913,2681.334243
897.047165,3923.091493,-11325.150913,2298.286494
897.047489,2294.638420,-11769.274478,1838.629195
897.047813,1184.329507,-10140.821405,-229.828649
897.048138,0.000000,-6291.750507,-4443.353888
897.048462,-2368.659014,-7105.977043,-4136.915689
897.048786,-2960.823768,-11399.171507,-3907.087040
897.049110,-740.205942,-13027.624579,-5592.497135
897.049435,-666.185348,-10584.944971,-4366.744339
897.049759,-1480.411884,-7624.121203,-2145.067394
897.050083,-1332.370696,-8364.327145,-3064.381992
897.050407,-1480.411884,-9918.759623,-3064.381992
897.050731,-1554.432478,-8808.450710,-1225.752797
897.051056,-592.164754,-8142.265362,1302.362347
897.051380,1332.370696,-9770.718434,383.047749
897.051704,2220.617826,-11843.295072,1915.238745
897.052028,3404.947333,-9844.739029,2221.676944
897.052353,3478.967927,-9030.512492,2604.724693
897.052677,1480.411884,-10955.047942,536.266849
897.053001,-592.164754,-8734.430116,-2757.943793
897.053325,-814.226536,-6439.791695,-3677.258390
897.053649,-1924.535449,-9326.594869,-2757.943793
897.053974,74.020594,-13027.624579,-3370.820191
897.054298,1332.370696,-12065.356855,-3524.039291
897.054622,74.020594,-9104.533087,-1072.533697
897.054946,-1258.350101,-9030.512492,-1762.019645
897.055271,-2516.700203,-10510.924376,-2451.505594
897.055595,-2664.741391,-9622.677246,-689.485948
897.055919,-1480.411884,-8882.471304,1685.410096
897.056243,370.102971,-10732.986159,1838.629195
897.056567,962.267725,-10955.047942,1915.238745
897.056892,1184.329507,-10436.903782,3370.820191
897.057216,1554.432478,-9770.718434,4290.134789
897.057540,1554.432478,-11103.089130,2681.334243
897.057864,222.061783,-11177.109724,2068.457845
897.058189,592.164754,-7476.080014,1225.752797
897.058513,370.102971,-5107.421000,-1378.971896
897.058837,-1110.308913,-8956.491898,-2298.286494
897.059161,-1628.453072,-12361.439231,-1532.190996
897.059485,0.000000,-11399.171507,-2221.676944
897.059810,-1258.350101,-9326.594869,-612.876398
897.060134,-3552.988522,-8808.450710,612.876398
897.060458,-3034.844362,-8808.450710,153.219100
897.060782,-1998.556043,-8734.430116,995.924147
897.061107,-1998.556043,-9696.697840,1762.019645
897.061431,-592.164754,-11251.130318,3140.991542
897.061755,1998.556043,-10362.883188,3294.210641
897.062079,2664.741391,-7846.182985,4903.011187
897.062403,1480.411884,-8142.265362,4979.620737
897.062728,888.247130,-9622.677246,3140.991542
897.063052,888.247130,-9400.615463,919.314598
897.063376,370.102971,-9104.533087,1302.362347
897.063700,518.144159,-8808.450710,842.705048
897.064025,1776.494261,-9918.759623,-919.314598
897.064349,814.226536,-9696.697840,-766.095498
897.064673,-962.267725,-8734.430116,0.000000
897.064997,-1554.432478,-9474.636058,-1149.143247
897.065321,-2590.720797,-9252.574275,-1455.581446
897.065646,-2960.823768,-8068.244768,612.876398
897.065970,-1924.535449,-7846.182985,1225.752797
897.066294,148.041188,-9474.636058,1915.238745
897.066618,1258.350101,-10732.986159,2451.505594
897.066943,1628.453072,-9474.636058,2987.772442
897.067267,1998.556043,-8882.471304,2911.162892
897.067591,2146.597232,-10214.842000,2298.286494
897.067915,2738.761985,-9770.718434,1532.190996
897.068239,2442.679609,-9104.533087,689.485948
897.068564,1998.556043,-9474.636058,-1149.143247
897.068888,0.000000,-10732.986159,-2298.286494
897.069212,-222.061783,-11177.109724,-2451.505594
897.069536,0.000000,-10288.862594,-2221.676944
897.069861,-666.185348,-10510.924376,-2221.676944
897.070185,-1924.535449,-10214.842000,-2451.505594
897.070509,-2220.617826,-9178.553681,-2068.457845
897.070833,-2072.576638,-9252.574275,-1225.752797
897.071157,-2886.803174,-10436.903782,0.000000
897.071482,-2072.576638,-10732.986159,-229.828649
897.071806,148.041188,-9030.512492,0.000000
897.072130,1850.514855,-7550.100608,1302.362347
897.072454,2072.576638,-9844.739029,1685.410096
897.072779,1628.453072,-11547.212695,766.095498
897.073103,2072.576638,-10140.821405,612.876398
897.073427,1480.411884,-8068.244768,-2298.286494
897.073751,-148.041188,-8956.491898,-4519.963438
897.074075,-888.247130,-11029.068536,-4903.011187
897.074400,-296.082377,-10955.047942,-4749.792088
897.074724,-666.185348,-10288.862594,-3447.429741
897.075048,-1184.329507,-10288.862594,-3294.210641
897.075372,-1258.350101,-9400.615463,-2681.334243
897.075697,-1702.473667,-8438.347739,-2298.286494
897.076021,-1480.411884,-9252.574275,-1532.190996
897.076345,-370.102971,-10510.924376,-689.485948
897.076669,1184.329507,-10658.965565,229.828649
897.076993,2146.597232,-9770.718434,1608.800546
897.077318,2368.659014,-10140.821405,2221.676944
897.077642,2368.659014,-10288.862594,153.219100
897.077966,1850.514855,-9770.718434,-689.485948
897.078290,370.102971,-10140.821405,-1378.971896
897.078615,0.000000,-11325.150913,-2374.896044
897.078939,370.102971,-11621.233289,-3294.210641
897.079263,592.164754,-10288.862594,-2911.162892
897.079587,0.000000,-9696.697840,-2451.505594
897.079911,-888.247130,-10732.986159,-2451.505594
897.080236,-1332.370696,-10658.965565,-2298.286494
897.080560,-1628.453072,-9178.553681,-766.095498
897.080884,-1184.329507,-8438.347739,842.705048
897.081208,-370.102971,-9844.739029,1608.800546
897.081533,740.205942,-9992.780217,2068.457845
897.081857,148.041188,-8882.471304,2374.896044
897.082181,-148.041188,-8438.347739,2604.724693
897.082505,-148.041188,-9400.615463,2681.334243
897.082830,296.082377,-9474.636058,2451.505594
897.083154,740.205942,-8216.285956,2374.896044
897.083478,666.185348,-7624.121203,306.438199
897.083802,74.020594,-8882.471304,-995.924147
897.084126,814.226536,-10140.821405,-536.266849
897.084451,296.082377,-9770.718434,0.000000
897.084775,-296.082377,-9770.718434,-536.266849
897.085099,-1480.411884,-9696.697840,306.438199
897.085423,-1628.453072,-8734.430116,919.314598
897.085748,-1332.370696,-8586.388927,1302.362347
897.086072,-1924.535449,-9474.636058,1915.238745
897.086396,-1702.473667,-9548.656652,2374.896044
897.086720,-518.144159,-8956.491898,2757.943793
897.087044,-370.102971,-8290.306550,2834.553343
897.087369,-1110.308913,-8586.388927,2834.553343
897.087693,-1184.329507,-9030.512492,1838.629195
897.088017,-666.185348,-8660.409521,842.705048
897.088341,-592.164754,-8808.450710,689.485948
897.088666,-296.082377,-9548.656652,-153.219100
897.088990,1480.411884,-10066.800811,-766.095498
897.089314,2072.576638,-9400.615463,-1072.533697
897.089638,1332.370696,-9770.718434,-306.438199
897.089962,592.164754,-10881.027347,-536.266849
897.090287,444.123565,-10658.965565,-766.095498
897.090611,222.061783,-9622.677246,229.828649
897.090935,-74.020594,-9770.718434,919.314598
897.091259,0.000000,-10436.903782,536.266849
897.091584,1850.514855,-10510.924376,1149.143247
897.091908,1628.453072,-9178.553681,1991.848295
897.092232,888.247130,-9474.636058,1455.581446
897.092556,0.000000,-9770.718434,459.657299
897.092880,-592.164754,-9326.594869,0.000000
897.093205,-518.144159,-8660.409521,76.609550
897.093529,222.061783,-9548.656652,-612.876398
897.093853,814.226536,-10510.924376,-1302.362347
897.094177,1332.370696,-9770.718434,-1455.581446
897.094502,1332.370696,-9252.574275,-995.924147
897.094826,296.082377,-10584.944971,-1149.143247
897.095150,0.000000,-10955.047942,-1685.410096
897.095474,-666.185348,-9622.677246,-842.705048
897.095798,-592.164754,-10140.821405,306.438199
897.096123,-1184.329507,-11029.068536,-383.047749
897.096447,-666.185348,-10510.924376,0.000000
897.096771,-444.123565,-8734.430116,689.485948
897.097095,-222.061783,-8956.491898,919.314598
897.097419,-888.247130,-10214.842000,383.047749
897.097743,-740.205942,-8956.491898,153.219100
897.098067,-370.102971,-7772.162391,-1072.533697
897.098392,-962.267725,-8364.327145,-1072.533697
897.098716,-1184.329507,-9844.739029,-2451.505594
897.099040,-518.144159,-9548.656652,-2298.286494
897.099364,222.061783,-8364.327145,-1991.848295
897.099688,148.041188,-9030.512492,-1838.629195
897.100012,-296.082377,-9992.780217,-2528.115143
897.100337,-666.185348,-9992.780217,-2834.553343
897.100661,-1332.370696,-9326.594869,-766.095498
897.100985,-1332.370696,-10807.006753,-229.828649
897.101309,-592.164754,-11251.130318,-689.485948
897.101633,296.082377,-9178.553681,76.609550
897.101957,814.226536,-9400.615463,995.924147
897.102281,814.226536,-11029.068536,153.219100
897.102606,592.164754,-11177.109724,-306.438199
897.102930,518.144159,-9622.677246,0.000000
897.103254,666.185348,-9918.759623,-689.485948
897.103578,518.144159,-11103.089130,-2528.115143
897.103902,740.205942,-10288.862594,-2145.067394
897.104226,962.267725,-9548.656652,-2145.067394
897.104550,518.144159,-9918.759623,-2451.505594
897.104875,-222.061783,-10436.903782,-2451.505594
897.105199,-148.041188,-9400.615463,-2145.067394
897.105523,814.226536,-9252.574275,-1455.581446
897.105847,-296.082377,-10066.800811,-536.266849
897.106171,0.000000,-11251.130318,-459.657299
897.106495,0.000000,-9844.739029,306.438199
897.106819,0.000000,-9252.574275,1225.752797
897.107144,444.123565,-10436.903782,1838.629195
897.107468,444.123565,-10881.027347,1149.143247
897.107792,592.164754,-9622.677246,1302.362347
897.108116,-148.041188,-8956.491898,76.609550
897.108440,-518.144159,-10362.883188,0.000000
897.108764,0.000000,-10214.842000,-383.047749
897.109088,222.061783,-9178.553681,-383.047749
897.109413,0.000000,-9326.594869,-306.438199
897.109737,-444.123565,-10510.924376,-766.095498
897.110061,-888.247130,-9918.759623,-306.438199
897.110385,-1036.288319,-8364.327145,0.000000
897.110709,-1480.411884,-8808.450710,995.924147
897.111033,-962.267725,-10288.862594,995.924147
897.111358,-518.144159,-9844.739029,1302.362347
897.111682,-444.123565,-8364.327145,1991.848295
897.112006,-222.061783,-8512.368333,2298.286494
897.112330,0.000000,-9548.656652,2374.896044
897.112654,-296.082377,-9400.615463,2298.286494
897.112978,444.123565,-7994.224174,2528.115143
897.113302,444.123565,-7920.203579,2145.067394
897.113627,444.123565,-8956.491898,1378.971896
897.113951,1110.308913,-9104.533087,1378.971896
897.114275,1036.288319,-8068.244768,1455.581446
897.114599,370.102971,-8956.491898,459.657299
897.114923,-444.123565,-9474.636058,0.000000
897.115247,-814.226536,-8808.450710,383.047749
897.115571,-518.144159,-8808.450710,995.924147
897.115896,-814.226536,-9548.656652,0.000000
897.116220,-444.123565,-9844.739029,612.876398
897.116544,888.247130,-8956.491898,612.876398
897.116868,666.185348,-9326.594869,1072.533697
897.117192,-296.082377,-10658.965565,1072.533697
897.117516,-370.102971,-10214.842000,1685.410096
897.117840,74.020594,-9770.718434,995.924147
897.118165,148.041188,-9252.574275,1455.581446
897.118489,0.000000,-10362.883188,306.438199
897.118813,518.144159,-10658.965565,0.000000
897.119137,1110.308913,-9992.780217,153.219100
897.119461,592.164754,-10066.800811,229.828649
897.119785,0.000000,-10584.944971,0.000000
897.120110,-370.102971,-10140.821405,-689.485948
897.120434,-666.185348,-9400.615463,0.000000
897.120758,-1036.288319,-9474.636058,-536.266849
897.121082,-296.082377,-10436.903782,-1532.190996
897.121406,0.000000,-9622.677246,-1072.533697
897.121730,0.000000,-8956.491898,-842.705048
897.122054,-296.082377,-9918.759623,-689.485948
897.122379,-518.144159,-10510.924376,-1072.533697
897.122703,-518.144159,-9696.697840,-919.314598
897.123027,-962.267725,-9696.697840,-1072.533697
897.123351,-148.041188,-10881.027347,-1302.362347
897.123675,518.144159,-11399.171507,-689.485948
897.123999,1628.453072,-10584.944971,0.000000
897.124323,1480.411884,-10140.821405,-153.219100
897.124648,518.144159,-10214.842000,-1762.019645
897.124972,222.061783,-9178.553681,-2145.067394
897.125296,370.102971,-8956.491898,-612.876398
897.125620,0.000000,-9178.553681,-1608.800546
897.125944,0.000000,-9992.780217,-2068.457845
897.126268,222.061783,-9178.553681,-1838.629195
897.126592,444.123565,-8364.327145,-1991.848295
897.126917,-740.205942,-9252.574275,-2068.457845
897.127241,-1776.494261,-9474.636058,-2757.943793
897.127565,-1480.411884,-9178.553681,-2374.896044
897.127889,-740.205942,-9474.636058,-1378.971896
897.128213,-296.082377,-10140.821405,-1225.752797
897.128537,0.000000,-10214.842000,-1149.143247
897.128862,814.226536,-9696.697840,-689.485948
897.129186,1110.308913,-9918.759623,0.000000
897.129510,740.205942,-11103.089130,76.609550
897.129834,666.185348,-10807.006753,0.000000
897.130158,1036.288319,-9770.718434,536.266849
897.130482,74.020594,-9770.718434,383.047749
897.130806,0.000000,-11177.109724,0.000000
897.131131,-296.082377,-11029.068536,-766.095498
897.131455,-222.061783,-9770.718434,-995.924147
897.131779,-962.267725,-9548.656652,-842.705048
897.132103,-1702.473667,-9474.636058,-1302.362347
897.132427,-2072.576638,-9252.574275,-1149.143247
897.132751,-2146.597232,-9030.512492,-612.876398
897.133075,-2072.576638,-9770.718434,-383.047749
897.133400,-1776.494261,-10436.903782,-612.876398
897.133724,-740.205942,-9918.759623,153.219100
897.134048,444.123565,-8956.491898,1455.581446
897.134372,1184.329507,-9474.636058,2068.457845
897.134696,888.247130,-10436.903782,2145.067394
897.135020,1110.308913,-9178.553681,2757.943793
897.135344,1406.391290,-8882.471304,2681.334243
897.135669,1258.350101,-9844.739029,1838.629195
897.135993,1036.288319,-9918.759623,1072.533697
897.136317,814.226536,-9178.553681,1149.143247
897.136641,74.020594,-8586.388927,612.876398
897.136965,-962.267725,-9104.533087,383.047749
897.137289,-2368.659014,-9548.656652,-383.047749
897.137614,-1924.535449,-8438.347739,-229.828649
897.137938,-888.247130,-8808.450710,383.047749
897.138262,-296.082377,-9548.656652,383.047749
897.138586,74.020594,-9770.718434,1225.752797
897.138910,1036.288319,-8882.471304,1685.410096
897.139234,1184.329507,-8216.285956,2451.505594
897.139558,814.226536,-8734.430116,2528.115143
897.139883,1184.329507,-10066.800811,2834.553343
897.140207,1332.370696,-9252.574275,2451.505594
897.140531,444.123565,-9252.574275,2374.896044
897.140855,370.102971,-10066.800811,1378.971896
897.141179,1036.288319,-9548.656652,153.219100
897.141503,962.267725,-8586.388927,306.438199
897.141827,148.041188,-9030.512492,-612.876398
897.142152,-740.205942,-10140.821405,-1225.752797
897.142476,-370.102971,-9474.636058,-1302.362347
897.142800,-518.144159,-8216.285956,-459.657299
897.143124,-1184.329507,-9400.615463,-995.924147
897.143448,-1036.288319,-10362.883188,-1149.143247
897.143772,148.041188,-9844.739029,0.000000
897.144096,444.123565,-9992.780217,1072.533697
897.144421,0.000000,-10584.944971,536.266849
897.144745,222.061783,-10584.944971,1072.533697
897.145069,740.205942,-9992.780217,1378.971896
897.145393,740.205942,-10066.800811,1225.752797
897.145717,0.000000,-10658.965565,459.657299
897.146041,74.020594,-10807.006753,229.828649
897.146366,370.102971,-9918.759623,-766.095498
897.146690,148.041188,-9474.636058,-1378.971896
897.147014,-666.185348,-9696.697840,-1762.019645
897.147338,-518.144159,-9400.615463,-2451.505594
897.147662,-444.123565,-9326.594869,-2681.334243
897.147986,-1258.350101,-10140.821405,-2221.676944
897.148310,-1480.411884,-10732.986159,-2451.505594
897.148635,-592.164754,-10066.800811,-2451.505594
897.148959,0.000000,-9326.594869,-1225.752797
897.149283,-592.164754,-9548.656652,-842.705048
897.149607,-740.205942,-10732.986159,76.609550
897.149931,-296.082377,-10362.883188,383.047749
897.150255,0.000000,-9474.636058,919.314598
897.150579,222.061783,-9696.697840,383.047749
897.150904,1036.288319,-9844.739029,-536.266849
897.151228,1850.514855,-9178.553681,-459.657299
897.151552,1850.514855,-9030.512492,-536.266849
897.151876,1258.350101,-10288.862594,-1915.238745
897.152200,74.020594,-9696.697840,-2987.772442
897.152524,0.000000,-8882.471304,-2604.724693
897.152848,-370.102971,-9548.656652,-2834.553343
897.153173,-1036.288319,-10955.047942,-3217.601092
897.153497,-1406.391290,-10807.006753,-2298.286494
897.153821,-888.247130,-9326.594869,-1608.800546
897.154145,-888.247130,-9326.594869,-842.705048
897.154469,-1776.494261,-9770.718434,306.438199
897.154793,-296.082377,-9474.636058,919.314598
897.155117,370.102971,-9252.574275,1532.190996
897.155442,888.247130,-10362.883188,2145.067394
897.155766,1702.473667,-11251.130318,1532.190996
897.156090,2590.720797,-9770.718434,1685.410096
897.156414,3034.844362,-7772.162391,1149.143247
897.156738,1258.350101,-7328.038826,-1455.581446
897.157062,-962.267725,-9400.615463,-2374.896044
897.157387,-1628.453072,-9770.718434,-2374.896044
897.157711,-888.247130,-9548.656652,-2604.724693
897.158035,-1554.432478,-9918.759623,-2068.457845
897.158359,-1628.453072,-10214.842000,-1915.238745
897.158683,-1480.411884,-9474.636058,-1532.190996
897.159007,-2072.576638,-9770.718434,-766.095498
897.159331,-1480.411884,-10214.842000,459.657299
897.159656,-592.164754,-10955.047942,1608.800546
897.159980,592.164754,-10362.883188,2528.115143
897.160304,1258.350101,-10584.944971,3370.820191
897.160628,1406.391290,-10955.047942,3447.429741
897.160952,1554.432478,-10955.047942,2834.553343
897.161276,1332.370696,-10140.821405,2068.457845
897.161600,148.041188,-9400.615463,842.705048
897.161925,-444.123565,-9252.574275,-153.219100
897.162249,-296.082377,-9992.780217,-1302.362347
897.162573,-888.247130,-9178.553681,-1685.410096
897.162897,-1332.370696,-9326.594869,-1072.533697
897.163221,-1406.391290,-10066.800811,-1225.752797
897.163545,-222.061783,-9474.636058,-919.314598
897.163869,74.020594,-8142.265362,689.485948
897.164194,592.164754,-8290.306550,1685.410096
897.164518,1332.370696,-9030.512492,1991.848295
897.164842,1036.288319,-9918.759623,3217.601092
897.165166,592.164754,-8956.491898,4213.525239
897.165490,962.267725,-8956.491898,3983.696590
897.165814,1702.473667,-9622.677246,4136.915689
897.166139,3182.885551,-8808.450710,4213.525239
897.166463,2368.659014,-6883.915261,2681.334243
897.166787,0.000000,-7328.038826,153.219100
897.167111,-1924.535449,-8364.327145,-1072.533697
897.167435,-1628.453072,-8586.388927,-1608.800546
897.167759,-1184.329507,-8438.347739,-2068.457845
897.168083,-1998.556043,-9178.553681,-1838.629195
897.168408,-1480.411884,-10214.842000,-1302.362347
897.168732,-296.082377,-9474.636058,-842.705048
897.169056,-888.247130,-9918.759623,229.828649
897.169380,-1480.411884,-10732.986159,383.047749
897.169704,-962.267725,-11029.068536,919.314598
897.170028,0.000000,-10658.965565,2068.457845
897.170352,148.041188,-10732.986159,2604.724693
897.170677,888.247130,-11325.150913,2911.162892
897.171001,2368.659014,-11547.212695,2451.505594
897.171325,2442.679609,-10436.903782,1685.410096
897.171649,1332.370696,-9178.553681,-306.438199
897.171973,148.041188,-7624.121203,-2221.676944
897.172297,-888.247130,-8216.285956,-3370.820191
897.172621,-1924.535449,-9548.656652,-3907.087040
897.172946,-2072.576638,-11177.109724,-4749.792088
897.173270,-1702.473667,-11251.130318,-3677.258390
897.173594,-666.185348,-9918.759623,-2528.115143
897.173918,-962.267725,-9474.636058,-3064.381992
897.174242,-1850.514855,-10288.862594,-2298.286494
897.174566,-1480.411884,-10584.944971,-1685.410096
897.174891,-296.082377,-11029.068536,-229.828649
897.175215,814.226536,-11325.150913,766.095498
897.175539,1702.473667,-10881.027347,1608.800546
897.175863,3330.926739,-9992.780217,1762.019645
897.176187,4145.153275,-9696.697840,1455.581446
897.176511,2516.700203,-10066.800811,-459.657299
897.176835,1332.370696,-10436.903782,-995.924147
897.177160,222.061783,-10066.800811,-2451.505594
897.177484,-370.102971,-9104.533087,-3907.087040
897.177808,-1184.329507,-9400.615463,-3983.696590
897.178132,-1110.308913,-10214.842000,-3294.210641
897.178456,-370.102971,-9918.759623,-2911.162892
897.178780,-296.082377,-9326.594869,-2451.505594
897.179104,-1998.556043,-8660.409521,-1991.848295
897.179429,-1924.535449,-8586.388927,-1149.143247
897.179753,-666.185348,-9622.677246,689.485948
897.180077,-148.041188,-9918.759623,1991.848295
897.180401,148.041188,-9844.739029,2604.724693
897.180725,666.185348,-10066.800811,3064.381992
897.181049,2368.659014,-9992.780217,3140.991542
897.181373,2368.659014,-9178.553681,2298.286494
897.181698,1776.494261,-8068.244768,1838.629195
897.182022,740.205942,-8142.265362,-459.657299
897.182346,-740.205942,-7994.224174,-1225.752797
897.182670,-1480.411884,-8882.471304,-1378.971896
897.182994,-962.267725,-9992.780217,-2298.286494
897.183318,-740.205942,-10362.883188,-1685.410096
897.183643,-1776.494261,-9252.574275,-1915.238745
897.183967,-2516.700203,-8882.471304,-1149.143247
897.184291,-3108.864956,-9548.656652,-1072.533697
897.184615,-2368.659014,-9770.718434,0.000000
897.184939,-1480.411884,-9992.780217,1455.581446
897.185263,-592.164754,-10658.965565,2451.505594
897.185587,296.082377,-10955.047942,2757.943793
897.185912,1776.494261,-10436.903782,3294.210641
897.186236,1480.411884,-9474.636058,3524.039291
897.186560,666.185348,-9844.739029,2374.896044
897.186884,0.000000,-10140.821405,766.095498
897.187208,296.082377,-9474.636058,-153.219100
897.187532,814.226536,-9178.553681,-153.219100
897.187856,148.041188,-9844.739029,-1532.190996
897.188181,148.041188,-10214.842000,-1608.800546
897.188505,-740.205942,-9622.677246,-1225.752797
897.188829,-814.226536,-9326.594869,-1378.971896
897.189153,-1924.535449,-9474.636058,-1302.362347
897.189477,-1850.514855,-9770.718434,0.000000
897.189801,-296.082377,-9844.739029,1532.190996
897.190125,666.185348,-10584.944971,2834.553343
897.190450,1258.350101,-11029.068536,3064.381992
897.190774,2294.638420,-9844.739029,3217.601092
897.191098,3256.906145,-8956.491898,3907.087040
897.191422,3034.844362,-9178.553681,2911.162892
897.191746,1924.535449,-9622.677246,1685.410096
897.192070,1258.350101,-9252.574275,766.095498
897.192395,1184.329507,-8660.409521,306.438199
897.192719,592.164754,-9326.594869,-995.924147
897.193043,-444.123565,-10140.821405,-1532.190996
897.193367,-1184.329507,-8956.491898,-1149.143247
897.193691,-1036.288319,-8660.409521,-1072.533697
897.194015,-1702.473667,-9030.512492,-1072.533697
897.194339,-2368.659014,-8586.388927,-229.828649
897.194664,-1850.514855,-7920.203579,689.485948
897.194988,-1406.391290,-8660.409521,1608.800546
897.195312,-1184.329507,-9400.615463,2604.724693
897.195636,-148.041188,-9474.636058,2298.286494
897.195960,148.041188,-9104.533087,2221.676944
897.196284,444.123565,-9326.594869,2451.505594
897.196608,592.164754,-9992.780217,1608.800546
897.196933,592.164754,-9104.533087,229.828649
897.197257,-148.041188,-8364.327145,-995.924147
897.197581,-888.247130,-9400.615463,-1762.019645
897.197905,0.000000,-11325.150913,-2451.505594
897.198229,1332.370696,-10658.965565,-2681.334243
897.198553,962.267725,-9400.615463,-1838.629195
897.198877,-518.144159,-9400.615463,-2528.115143
897.199202,-2220.617826,-10214.842000,-3294.210641
897.199526,-2072.576638,-10066.800811,-1991.848295
897.199850,-1406.391290,-9992.780217,-536.266849
897.200174,-592.164754,-10881.027347,536.266849
897.200498,0.000000,-11399.171507,459.657299
897.200822,1184.329507,-10436.903782,1149.143247
897.201147,1110.308913,-9252.574275,766.095498
897.201471,-148.041188,-10436.903782,306.438199
897.201795,-740.205942,-11177.109724,-842.705048
897.202119,-148.041188,-9770.718434,-1608.800546
897.202443,0.000000,-8586.388927,-1838.629195
897.202767,0.000000,-10510.924376,-3370.820191
897.203091,1406.391290,-11029.068536,-3447.429741
897.203416,1924.535449,-10140.821405,-3064.381992
897.203740,740.205942,-9474.636058,-2834.553343
897.204064,-666.185348,-10066.800811,-3064.381992
897.204388,-666.185348,-10214.842000,-1838.629195
897.204712,0.000000,-10140.821405,-306.438199
897.205036,296.082377,-10214.842000,153.219100
897.205361,444.123565,-11473.192101,536.266849
897.205685,74.020594,-10732.986159,1072.533697
897.206009,814.226536,-9548.656652,1838.629195
897.206333,148.041188,-9030.512492,1685.410096
897.206657,-518.144159,-9178.553681,1608.800546
897.206981,0.000000,-8882.471304,306.438199
897.207305,74.020594,-8142.265362,-612.876398
897.207630,-518.144159,-7920.203579,-1608.800546
897.207954,0.000000,-8808.450710,-1685.410096
897.208278,1480.411884,-9474.636058,-1608.800546
897.208602,888.247130,-9400.615463,-1302.362347
897.208926,-296.082377,-9326.594869,-1072.533697
897.209250,-888.247130,-9030.512492,-1072.533697
897.209575,-962.267725,-8956.491898,-766.095498
897.209899,-814.226536,-9474.636058,0.000000
897.210223,-1184.329507,-10066.800811,1072.533697
897.210547,-370.102971,-10436.903782,2374.896044
897.210871,-518.144159,-9918.759623,2374.896044
897.211195,-888.247130,-9252.574275,2451.505594
897.211519,-1258.350101,-9770.718434,2068.457845
897.211844,-740.205942,-10288.862594,766.095498
897.212168,222.061783,-9400.615463,766.095498
897.212492,444.123565,-9104.533087,459.657299
897.212816,1332.370696,-10288.862594,153.219100
897.213140,2220.617826,-10436.903782,-689.485948
897.213464,1554.432478,-9326.594869,-842.705048
897.213789,444.123565,-9474.636058,-1072.533697
897.214113,148.041188,-10658.965565,-1685.410096
897.214437,666.185348,-10807.006753,-459.657299
897.214761,444.123565,-9474.636058,612.876398
897.215085,370.102971,-9992.780217,1532.190996
897.215409,592.164754,-11103.089130,1838.629195
897.215733,814.226536,-11177.109724,2145.067394
897.216058,666.185348,-9770.718434,2451.505594
897.216382,222.061783,-9696.697840,2604.724693
897.216706,148.041188,-10584.944971,2298.286494
897.217030,888.247130,-9548.656652,1838.629195
897.217354,518.144159,-8586.388927,1455.581446
897.217678,0.000000,-9474.636058,689.485948
897.218003,888.247130,-9696.697840,0.000000
897.218327,518.144159,-8660.409521,-995.924147
897.218651,-148.041188,-8438.347739,-612.876398
897.218975,-740.205942,-9474.636058,-995.924147
897.219299,-666.185348,-9844.739029,-689.485948
897.219623,-888.247130,-8808.450710,0.000000
897.219947,-1258.350101,-8512.368333,766.095498
897.220272,-1628.453072,-9844.739029,612.876398
897.220596,-888.247130,-9918.759623,1455.581446
897.220920,-148.041188,-9252.574275,1762.019645
897.221244,-666.185348,-8586.388927,1838.629195
897.221568,-962.267725,-9474.636058,1378.971896
897.221892,0.000000,-9400.615463,1455.581446
897.222217,518.144159,-7772.162391,995.924147
897.222541,-222.061783,-8142.265362,383.047749
897.222865,-444.123565,-8882.471304,-536.266849
897.223189,74.020594,-8956.491898,-2068.457845
897.223513,0.000000,-8956.491898,-1455.581446
897.223837,-370.102971,-8882.471304,-2451.505594
897.224161,-444.123565,-9252.574275,-1915.238745
897.224486,-518.144159,-9696.697840,-1608.800546
897.224810,-666.185348,-10066.800811,-1455.581446
897.225134,-1110.308913,-10140.821405,-995.924147
897.225458,-962.267725,-10066.800811,-1072.533697
897.225782,-296.082377,-10362.883188,-536.266849
897.226106,-518.144159,-10807.006753,76.609550
897.226431,-666.185348,-10807.006753,306.438199
897.226755,518.144159,-10732.986159,459.657299
897.227079,518.144159,-10732.986159,153.219100
897.227403,370.102971,-10510.924376,0.000000
897.227727,888.247130,-11177.109724,-612.876398
897.228051,2072.576638,-10807.006753,-1532.190996
897.228375,2294.638420,-10362.883188,-1302.362347
897.228700,814.226536,-10436.903782,-1991.848295
897.229024,0.000000,-10807.006753,-2298.286494
897.229348,0.000000,-10510.924376,-2145.067394
897.229672,-148.041188,-10066.800811,-1991.848295
897.229996,-1110.308913,-10436.903782,-1455.581446
897.230320,0.000000,-11325.150913,-919.314598
897.230644,222.061783,-10510.924376,-229.828649
897.230969,222.061783,-9474.636058,459.657299
897.231293,-148.041188,-9918.759623,919.314598
897.231617,0.000000,-10807.006753,1072.533697
897.231941,-148.041188,-10214.842000,1838.629195
897.232265,370.102971,-8882.471304,1838.629195
897.232589,370.102971,-9030.512492,1225.752797
897.232914,666.185348,-9474.636058,689.485948
897.233238,1110.308913,-9104.533087,459.657299
897.233562,444.123565,-8438.347739,153.219100
897.233886,-444.123565,-8216.285956,-536.266849
897.234210,-888.247130,-8068.244768,-383.047749
897.234534,-1702.473667,-7698.141797,-842.705048
897.234858,-1702.473667,-7994.224174,-689.485948
897.235183,-1332.370696,-8660.409521,-536.266849
897.235507,-148.041188,-8956.491898,459.657299
897.235831,222.061783,-8142.265362,995.924147
897.236155,0.000000,-7994.224174,1455.581446
897.236479,-962.267725,-8660.409521,1532.190996
897.236803,0.000000,-9252.574275,1455.581446
897.237128,222.061783,-9030.512492,2221.676944
897.237452,-296.082377,-9400.615463,2298.286494
897.237776,592.164754,-10140.821405,1072.533697
897.238100,1258.350101,-9474.636058,689.485948
897.238424,1110.308913,-9030.512492,306.438199
897.238748,74.020594,-9770.718434,0.000000
897.239072,0.000000,-10288.862594,-766.095498
897.239397,222.061783,-9326.594869,-306.438199
897.239721,-518.144159,-8956.491898,-153.219100
897.240045,-148.041188,-9844.739029,-153.219100
897.240369,0.000000,-10362.883188,-995.924147
897.240693,222.061783,-9474.636058,-536.266849
897.241017,-370.102971,-9474.636058,76.609550
897.241342,-148.041188,-10362.883188,0.000000
897.241666,0.000000,-9918.759623,153.219100
897.241990,0.000000,-9474.636058,766.095498
897.242314,-592.164754,-9622.677246,1149.143247
897.242638,-148.041188,-11251.130318,153.219100
897.242962,962.267725,-11325.150913,536.266849
897.243286,1702.473667,-9992.780217,766.095498
897.243611,1406.391290,-10140.821405,229.828649
897.243935,888.247130,-10732.986159,306.438199
897.244259,740.205942,-10066.800811,0.000000
897.244583,-148.041188,-9474.636058,76.609550
897.244907,-1184.329507,-9918.759623,-919.314598
897.245231,-888.247130,-10807.006753,-1608.800546
897.245556,74.020594,-10362.883188,-919.314598
897.245880,-148.041188,-9474.636058,-536.266849
897.246204,-1628.453072,-9474.636058,-766.095498
897.246528,-2368.659014,-10140.821405,-919.314598
897.246852,-2368.659014,-9622.677246,-383.047749
897.247176,-2072.576638,-9474.636058,-153.219100
897.247500,-1332.370696,-9918.759623,0.000000
897.247825,444.123565,-10288.862594,153.219100
897.248149,2294.638420,-9622.677246,229.828649
897.248473,1776.494261,-8808.450710,383.047749
897.248797,518.144159,-9030.512492,-306.438199
897.249121,148.041188,-9474.636058,0.000000
897.249445,222.061783,-9548.656652,229.828649
897.249770,-148.041188,-9474.636058,-306.438199
897.250094,-148.041188,-9548.656652,-766.095498
897.250418,444.123565,-9622.677246,-1378.971896
897.250742,444.123565,-8882.471304,-995.924147
897.251066,148.041188,-8660.409521,0.000000
897.251390,0.000000,-9474.636058,-612.876398
897.251714,-592.164754,-9400.615463,-689.485948
897.252039,-1184.329507,-7772.162391,153.219100
897.252363,-1406.391290,-8808.450710,-306.438199
897.252687,-444.123565,-10140.821405,-919.314598
897.253011,888.247130,-10066.800811,-76.609550
897.253335,666.185348,-9474.636058,612.876398
897.253659,148.041188,-9474.636058,842.705048
897.253984,370.102971,-9992.780217,842.705048
897.254308,444.123565,-9252.574275,1072.533697
897.254632,222.061783,-9474.636058,306.438199
897.254956,-222.061783,-10288.862594,-612.876398
897.255280,148.041188,-10288.862594,0.000000
897.255604,444.123565,-9252.574275,0.000000
897.255928,-296.082377,-9030.512492,-383.047749
897.256253,-1110.308913,-9178.553681,-459.657299
897.256577,-1110.308913,-9252.574275,-689.485948
897.256901,-666.185348,-9548.656652,-229.828649
897.257225,-1258.350101,-9696.697840,-536.266849
897.257549,-962.267725,-10658.965565,0.000000
897.257873,148.041188,-10807.006753,76.609550
897.258198,0.000000,-10214.842000,0.000000
897.258522,-444.123565,-10066.800811,919.314598
897.258846,-222.061783,-10658.965565,1302.362347
897.259170,888.247130,-10732.986159,1302.362347
897.259494,296.082377,-9770.718434,1455.581446
897.259818,-222.061783,-9770.718434,995.924147
897.260142,444.123565,-10584.944971,536.266849
897.260467,1036.288319,-10436.903782,229.828649
897.260791,444.123565,-8660.409521,76.609550
897.261115,-888.247130,-8216.285956,-383.047749
897.261439,-1036.288319,-9326.594869,-459.657299
897.261763,-962.267725,-9548.656652,-612.876398
897.262087,-666.185348,-9252.574275,-229.828649
897.262411,-370.102971,-9400.615463,-459.657299
897.262736,222.061783,-9548.656652,-229.828649
897.263060,962.267725,-9178.553681,153.219100
897.263384,1702.473667,-8660.409521,995.924147
897.263708,1702.473667,-9474.636058,1302.362347
897.264032,2220.617826,-9548.656652,1302.362347
897.264356,1998.556043,-9474.636058,1685.410096
897.264681,1480.411884,-9252.574275,1455.581446
897.265005,1776.494261,-9992.780217,612.876398
897.265329,1776.494261,-9992.780217,0.000000
897.265653,814.226536,-8290.306550,-766.095498
897.265977,-666.185348,-8512.368333,-1149.143247
897.266301,-1258.350101,-9918.759623,-1532.190996
897.266625,-518.144159,-9918.759623,-1378.971896
897.266950,0.000000,-9178.553681,-995.924147
897.267274,-888.247130,-9696.697840,-919.314598
897.267598,-962.267725,-10436.903782,-1532.190996
897.267922,-592.164754,-9844.739029,-1072.533697
897.268246,-1258.350101,-8882.471304,-229.828649
897.268570,-1924.535449,-10140.821405,153.219100
897.268895,-962.267725,-11473.192101,229.828649
897.269219,-370.102971,-9844.739029,842.705048
897.269543,0.000000,-9030.512492,1072.533697
897.269867,74.020594,-9696.697840,0.000000
897.270191,814.226536,-10510.924376,-842.705048
897.270515,1184.329507,-9474.636058,-459.657299
897.270839,592.164754,-9252.574275,-383.047749
897.271164,0.000000,-9474.636058,-1302.362347
897.271488,-370.102971,-9030.512492,-2068.457845
897.271812,-1110.308913,-8586.388927,-2068.457845
897.272136,-1480.411884,-9548.656652,-1991.848295
897.272460,-740.205942,-11103.089130,-1608.800546
897.272784,222.061783,-10658.965565,-1149.143247
897.273109,296.082377,-9622.677246,76.609550
897.273433,-518.144159,-10436.903782,229.828649
897.273757,-666.185348,-11029.068536,1072.533697
897.274081,148.041188,-11473.192101,1072.533697
897.274405,0.000000,-10214.842000,1378.971896
897.274729,148.041188,-10066.800811,1532.190996
897.275053,740.205942,-10436.903782,766.095498
897.275378,1184.329507,-9326.594869,229.828649
897.275702,1258.350101,-8956.491898,842.705048
897.276026,-740.205942,-9104.533087,-919.314598
897.276350,-1110.308913,-9474.636058,-2221.676944
897.276674,-1702.473667,-8068.244768,-1991.848295
897.276998,-1776.494261,-8512.368333,-1838.629195
897.277323,-888.247130,-10214.842000,-1762.019645
897.277647,74.020594,-10140.821405,-1455.581446
897.277971,518.144159,-8438.347739,-153.219100
897.278295,444.123565,-8660.409521,0.000000
897.278619,888.247130,-10881.027347,842.705048
897.278943,1480.411884,-10362.883188,2221.676944
897.279267,2146.597232,-9252.574275,2374.896044
897.279592,1110.308913,-9918.759623,2681.334243
897.279916,1110.308913,-11029.068536,2298.286494
897.280240,1850.514855,-9844.739029,1302.362347
897.280564,1628.453072,-8956.491898,1378.971896
897.280888,-444.123565,-8882.471304,-459.657299
897.281212,-1628.453072,-9178.553681,-1302.362347
897.281537,-1776.494261,-9104.533087,-2068.457845
897.281861,-2368.659014,-8586.388927,-1991.848295
897.282185,-3182.885551,-9622.677246,-1532.190996
897.282509,-2072.576638,-10362.883188,-1991.848295
897.282833,-814.226536,-9844.739029,-842.705048
897.283157,-962.267725,-8956.491898,0.000000
897.283481,-518.144159,-9844.739029,766.095498
897.283806,222.061783,-10584.944971,2528.115143
897.284130,1258.350101,-10732.986159,2451.505594
897.284454,888.247130,-9992.780217,2911.162892
897.284778,1184.329507,-10140.821405,2604.724693
897.285102,1776.494261,-9992.780217,1991.848295
897.285426,1850.514855,-9104.533087,1608.800546
897.285751,740.205942,-8808.450710,459.657299
897.286075,-814.226536,-9030.512492,-1072.533697
897.286399,-1258.350101,-9252.574275,-1838.629195
897.286723,-1924.535449,-8512.368333,-1915.238745
897.287047,-2368.659014,-8586.388927,-1685.410096
897.287371,-1924.535449,-9548.656652,-2145.067394
897.287695,-666.185348,-9844.739029,-1302.362347
897.288020,0.000000,-9030.512492,306.438199
897.288344,370.102971,-9474.636058,1072.533697
897.288668,444.123565,-10658.965565,1991.848295
897.288992,740.205942,-10214.842000,2681.334243
897.289316,1110.308913,-9474.636058,3677.258390
897.289640,1332.370696,-10436.903782,3370.820191
897.289965,1628.453072,-10881.027347,2757.943793
897.290289,1924.535449,-8660.409521,1378.971896
897.290613,1406.391290,-7105.977043,459.657299
897.290937,-444.123565,-8808.450710,-229.828649
897.291261,-1110.308913,-9622.677246,-1608.800546
897.291585,-1036.288319,-8068.244768,-2451.505594
897.291909,-1924.535449,-7846.182985,-2451.505594
897.292234,-1776.494261,-9474.636058,-2451.505594
897.292558,-444.123565,-10288.862594,-2298.286494
897.292882,0.000000,-9104.533087,-919.314598
897.293206,222.061783,-9030.512492,0.000000
897.293530,666.185348,-10436.903782,842.705048
897.293854,1184.329507,-10807.006753,1532.190996
897.294178,666.185348,-10807.006753,2451.505594
897.294503,444.123565,-10658.965565,2911.162892
897.294827,1036.288319,-11843.295072,2145.067394
897.295151,1258.350101,-11621.233289,1685.410096
897.295475,962.267725,-9696.697840,612.876398
897.295799,0.000000,-8512.368333,-995.924147
897.296123,-1332.370696,-9030.512492,-1991.848295
897.296448,-1850.514855,-9622.677246,-2987.772442
897.296772,-1628.453072,-9918.759623,-3983.696590
897.297096,-1702.473667,-10066.800811,-3907.087040
897.297420,-888.247130,-10658.965565,-3064.381992
897.297744,296.082377,-10288.862594,-2757.943793
897.298069,296.082377,-10066.800811,-2221.676944
897.298393,444.123565,-10214.842000,-1302.362347
897.298717,1406.391290,-10140.821405,0.000000
897.299041,1998.556043,-9918.759623,919.314598
897.299365,1480.411884,-10066.800811,2221.676944
897.299690,888.247130,-10732.986159,2221.676944
897.300014,1480.411884,-10955.047942,2145.067394
897.300338,370.102971,-10140.821405,1378.971896
897.300662,-148.041188,-8660.409521,229.828649
897.300987,-518.144159,-7920.203579,-1685.410096
897.301311,-1554.432478,-8142.265362,-2221.676944
897.301635,-2220.617826,-8660.409521,-2451.505594
897.301959,-2072.576638,-9622.677246,-3600.648841
897.302283,-1850.514855,-9770.718434,-4060.306139
897.302608,-1110.308913,-9030.512492,-2528.115143
897.302932,-518.144159,-8660.409521,-1608.800546
897.303256,-518.144159,-9474.636058,-766.095498
897.303580,444.123565,-9696.697840,0.000000
897.303904,1702.473667,-9770.718434,1378.971896
897.304229,2146.597232,-10140.821405,2604.724693
897.304553,2146.597232,-10732.986159,3294.210641
897.304877,2146.597232,-10807.006753,3677.258390
897.305201,2442.679609,-10066.800811,3140.991542
897.305526,740.205942,-9474.636058,2528.115143
897.305850,0.000000,-9844.739029,1838.629195
897.306174,0.000000,-7994.224174,-689.485948
897.306498,-1332.370696,-5329.482782,-2451.505594
897.306822,-3404.947333,-7105.977043,-2528.115143
897.307147,-3108.864956,-10362.883188,-3140.991542
897.307471,-1036.288319,-10584.944971,-3217.601092
897.307795,-1480.411884,-8660.409521,-1685.410096
897.308119,-3108.864956,-8216.285956,-1378.971896
897.308443,-2442.679609,-9918.759623,-842.705048
897.308768,-1110.308913,-11251.130318,76.609550
897.309092,74.020594,-10732.986159,1838.629195
897.309416,1406.391290,-11177.109724,3524.039291
897.309740,2368.659014,-11843.295072,3217.601092
897.310065,2220.617826,-10955.047942,4213.525239
897.310389,1554.432478,-9474.636058,3677.258390
897.310713,814.226536,-10288.862594,3370.820191
897.311037,74.020594,-11399.171507,766.095498
897.311361,-888.247130,-8512.368333,-1072.533697
897.311686,-1332.370696,-7105.977043,-1225.752797
897.312010,-592.164754,-9104.533087,-1991.848295
897.312334,592.164754,-10658.965565,-2374.896044
897.312658,296.082377,-9178.553681,-1608.800546
897.312982,-888.247130,-8660.409521,-842.705048
897.313307,-1702.473667,-9030.512492,-1762.019645
897.313631,-1406.391290,-9474.636058,-536.266849
897.313955,0.000000,-9252.574275,1685.410096
897.314279,1480.411884,-10066.800811,2221.676944
897.314604,2146.597232,-11621.233289,2757.943793
897.314928,2664.741391,-10658.965565,3830.477490
897.315252,3330.926739,-9252.574275,3830.477490
897.315576,2368.659014,-8956.491898,2987.772442
897.315900,222.061783,-9992.780217,1225.752797
897.316225,-666.185348,-9770.718434,-383.047749
897.316549,-962.267725,-8882.471304,-1072.533697
897.316873,-888.247130,-9622.677246,-1991.848295
897.317197,-222.061783,-10140.821405,-3064.381992
897.317522,0.000000,-8882.471304,-2451.505594
897.317846,-444.123565,-8586.388927,-2374.896044
897.318170,-1628.453072,-9400.615463,-2374.896044
897.318494,-1406.391290,-9326.594869,-1838.629195
897.318818,-518.144159,-8586.388927,-229.828649
897.319143,222.061783,-9474.636058,1149.143247
897.319467,740.205942,-10732.986159,1685.410096
897.319791,2368.659014,-10362.883188,2068.457845
897.320115,3256.906145,-9252.574275,3217.601092
897.320439,1924.535449,-9770.718434,2298.286494
897.320764,74.020594,-10955.047942,1532.190996
897.321088,-370.102971,-10066.800811,-459.657299
897.321412,-666.185348,-8586.388927,-1302.362347
897.321736,-1776.494261,-9400.615463,-2221.676944
897.322061,-1480.411884,-10436.903782,-3677.258390
897.322385,-370.102971,-9844.739029,-3600.648841
897.322709,-296.082377,-8956.491898,-2911.162892
897.323033,-1036.288319,-9326.594869,-2757.943793
897.323357,-1332.370696,-10140.821405,-2451.505594
897.323682,-370.102971,-9992.780217,-1225.752797
897.324006,222.061783,-10214.842000,0.000000
897.324330,-370.102971,-10658.965565,919.314598
897.324654,0.000000,-10955.047942,842.705048
897.324978,888.247130,-10214.842000,2068.457845
897.325303,740.205942,-9400.615463,1991.848295
897.325627,0.000000,-10362.883188,2221.676944
897.325951,0.000000,-10955.047942,842.705048
897.326275,-222.061783,-8586.388927,-612.876398
897.326600,-1480.411884,-7105.977043,-1838.629195
897.326924,-2220.617826,-8586.388927,-1991.848295
897.327248,-1110.308913,-9622.677246,-3294.210641
897.327572,-444.123565,-9622.677246,-2911.162892
897.327896,-962.267725,-9326.594869,-1915.238745
897.328221,-666.185348,-9474.636058,-1915.238745
897.328545,-370.102971,-9400.615463,-1302.362347
897.328869,-370.102971,-9474.636058,-612.876398
897.329193,-740.205942,-10510.924376,612.876398
897.329517,148.041188,-11695.253884,1072.533697
897.329842,1184.329507,-11547.212695,1915.238745
897.330166,1702.473667,-10140.821405,2681.334243
897.330490,1776.494261,-9918.759623,2834.553343
897.330814,888.247130,-11029.068536,1762.019645
897.331139,0.000000,-9918.759623,306.438199
897.331463,-1406.391290,-8216.285956,-995.924147
897.331787,-2146.597232,-8660.409521,-1915.238745
897.332111,-1332.370696,-9918.759623,-2757.943793
897.332435,0.000000,-9400.615463,-2604.724693
897.332760,-444.123565,-8364.327145,-1608.800546
897.333084,0.000000,-9400.615463,-1608.800546
897.333408,592.164754,-9622.677246,-1685.410096
897.333732,888.247130,-9548.656652,0.000000
897.334056,1258.350101,-9770.718434,1608.800546
897.334381,2294.638420,-11251.130318,1915.238745
897.334705,2590.720797,-11103.089130,2145.067394
897.335029,2590.720797,-9400.615463,2757.943793
897.335353,1776.494261,-8660.409521,2528.115143
897.335678,518.144159,-10214.842000,1915.238745
897.336002,296.082377,-10584.944971,1915.238745
897.336326,-148.041188,-9326.594869,1378.971896
897.336650,-740.205942,-9400.615463,76.609550
897.336974,-1480.411884,-9474.636058,-1378.971896
897.337299,-962.267725,-8956.491898,-1225.752797
897.337623,-592.164754,-8734.430116,-1149.143247
897.337947,-962.267725,-9326.594869,-1149.143247
897.338271,-1184.329507,-9622.677246,-995.924147
897.338596,-518.144159,-8586.388927,-536.266849
897.338920,0.000000,-8364.327145,459.657299
897.339244,222.061783,-9992.780217,1225.752797
897.339568,1110.308913,-10362.883188,1838.629195
897.339892,1628.453072,-9474.636058,2451.505594
897.340217,814.226536,-9104.533087,2604.724693
897.340541,-148.041188,-9844.739029,2374.896044
897.340865,0.000000,-9918.759623,1762.019645
897.341189,0.000000,-9178.553681,1762.019645
897.341513,-962.267725,-8586.388927,612.876398
897.341838,-1184.329507,-9548.656652,-153.219100
897.342162,-1332.370696,-9622.677246,-995.924147
897.342486,-1110.308913,-8586.388927,-1072.533697
897.342810,-1702.473667,-8808.450710,-1225.752797
897.343135,-1850.514855,-9400.615463,-1532.190996
897.343459,-888.247130,-9252.574275,-1762.019645
897.343783,-740.205942,-8512.368333,-536.266849
897.344107,-666.185348,-9474.636058,76.609550
897.344431,222.061783,-10732.986159,383.047749
897.344756,592.164754,-10658.965565,1072.533697
897.345080,814.226536,-9548.656652,1455.581446
897.345404,-296.082377,-9770.718434,1225.752797
897.345728,-592.164754,-10807.006753,995.924147
897.346052,148.041188,-10066.800811,229.828649
897.346377,370.102971,-9474.636058,229.828649
897.346701,-740.205942,-9474.636058,-919.314598
897.347025,0.000000,-9918.759623,-1378.971896
897.347349,518.144159,-9474.636058,-1608.800546
897.347674,222.061783,-9104.533087,-1991.848295
897.347998,-148.041188,-9622.677246,-2451.505594
897.348322,0.000000,-9548.656652,-2604.724693
897.348646,0.000000,-9622.677246,-1532.190996
897.348970,370.102971,-10288.862594,-383.047749
897.349295,444.123565,-10732.986159,-612.876398
897.349619,814.226536,-10732.986159,-459.657299
897.349943,888.247130,-9918.759623,-383.047749
897.350267,296.082377,-10288.862594,-153.219100
897.350591,148.041188,-11103.089130,-153.219100
897.350916,592.164754,-11177.109724,306.438199
897.351240,1702.473667,-10066.800811,459.657299
897.351564,1628.453072,-9770.718434,-306.438199
897.351888,1184.329507,-10362.883188,-612.876398
897.352213,1184.329507,-9844.739029,-1302.362347
897.352537,592.164754,-9178.553681,-1378.971896
897.352861,-370.102971,-9030.512492,-1762.019645
897.353185,-1036.288319,-9474.636058,-1915.238745
897.353509,-666.185348,-8882.471304,-995.924147
897.353834,-1332.370696,-8364.327145,-153.219100
897.354158,-1480.411884,-8808.450710,-536.266849
897.354482,-370.102971,-9474.636058,-612.876398
897.354806,74.020594,-9104.533087,-153.219100
897.355130,-296.082377,-9030.512492,766.095498
897.355455,-962.267725,-9696.697840,1302.362347
897.355779,-222.061783,-10288.862594,1378.971896
897.356103,-1036.288319,-9696.697840,1225.752797
897.356427,-1036.288319,-10066.800811,842.705048
897.356752,-962.267725,-10510.924376,229.828649
897.357076,518.144159,-10658.965565,0.000000
897.357400,1110.308913,-9474.636058,76.609550
897.357724,296.082377,-9548.656652,0.000000
897.358048,-666.185348,-9770.718434,-229.828649
897.358373,-1406.391290,-9326.594869,-1225.752797
897.358697,-1332.370696,-8512.368333,-459.657299
897.359021,-1998.556043,-9252.574275,-919.314598
897.359345,-1110.308913,-10140.821405,-1072.533697
897.359670,222.061783,-9178.553681,-153.219100
897.359994,148.041188,-8216.285956,536.266849
897.360318,0.000000,-9252.574275,842.705048
897.360642,-962.267725,-9992.780217,766.095498
897.360966,-740.205942,-9474.636058,919.314598
897.361291,0.000000,-8660.409521,919.314598
897.361615,74.020594,-9400.615463,536.266849
897.361939,962.267725,-10510.924376,612.876398
897.362263,1776.494261,-10436.903782,919.314598
897.362587,1480.411884,-9844.739029,1378.971896
897.362912,296.082377,-9992.780217,536.266849
897.363236,-444.123565,-9770.718434,-612.876398
897.363560,-888.247130,-9474.636058,-612.876398
897.363884,-2146.597232,-8956.491898,-459.657299
897.364209,-1184.329507,-10510.924376,-383.047749
897.364533,296.082377,-10436.903782,-383.047749
897.364857,1036.288319,-9400.615463,306.438199
897.365181,592.164754,-8956.491898,536.266849
897.365505,0.000000,-9696.697840,612.876398
897.365830,740.205942,-9400.615463,1072.533697
897.366154,518.144159,-9474.636058,1455.581446
897.366478,-148.041188,-9918.759623,766.095498
897.366802,-296.082377,-10584.944971,612.876398
897.367126,1036.288319,-9770.718434,459.657299
897.367451,1554.432478,-8808.450710,919.314598
897.367775,1184.329507,-9622.677246,536.266849
897.368099,148.041188,-10288.862594,0.000000
897.368423,0.000000,-9030.512492,0.000000
897.368748,-888.247130,-8364.327145,0.000000
897.369072,-1184.329507,-9622.677246,-766.095498
897.369396,-370.102971,-10436.903782,-1072.533697
897.369720,370.102971,-9622.677246,-536.266849
897.370044,444.123565,-8882.471304,0.000000
897.370369,74.020594,-9844.739029,-689.485948
897.370693,-148.041188,-10658.965565,-536.266849
897.371017,-444.123565,-9474.636058,-229.828649
897.371341,-1332.370696,-9844.739029,-153.219100
897.371665,-1258.350101,-10658.965565,-612.876398
897.371990,0.000000,-10288.862594,-459.657299
897.372314,666.185348,-9622.677246,76.609550
897.372638,1036.288319,-9696.697840,229.828649
897.372962,296.082377,-9844.739029,-306.438199
897.373287,296.082377,-9400.615463,-1225.752797
897.373611,444.123565,-8882.471304,-995.924147
897.373935,296.082377,-9548.656652,-536.266849
897.374259,1036.288319,-9918.759623,-995.924147
897.374583,1776.494261,-9178.553681,-919.314598
897.374908,1036.288319,-8438.347739,-459.657299
897.375232,0.000000,-8956.491898,-1072.533697
897.375556,-148.041188,-9844.739029,-1378.971896
897.375880,-740.205942,-9326.594869,-689.485948
897.376204,-666.185348,-9622.677246,-766.095498
897.376529,-666.185348,-10436.903782,-766.095498
897.376853,0.000000,-10732.986159,-689.485948
897.377177,148.041188,-9992.780217,0.000000
897.377501,-592.164754,-9252.574275,-383.047749
897.377826,-666.185348,-10288.862594,-76.609550
897.378150,-296.082377,-10066.800811,0.000000
897.378474,296.082377,-9770.718434,229.828649
897.378798,296.082377,-10066.800811,229.828649
897.379122,222.061783,-10584.944971,-995.924147
897.379447,222.061783,-10288.862594,-1225.752797
897.379771,-518.144159,-9474.636058,-1378.971896
897.380095,-1554.432478,-9622.677246,-2068.457845
897.380419,-2072.576638,-10288.862594,-1072.533697
897.380744,-1924.535449,-9622.677246,-1838.629195
897.381068,-1036.288319,-9696.697840,-612.876398
897.381392,-740.205942,-10658.965565,-383.047749
897.381716,-148.041188,-11251.130318,-306.438199
897.382040,222.061783,-10510.924376,536.266849
897.382365,666.185348,-9474.636058,919.314598
897.382689,0.000000,-10288.862594,1225.752797
897.383013,74.020594,-10584.944971,1685.410096
897.383337,592.164754,-9548.656652,1302.362347
897.383661,74.020594,-9252.574275,1685.410096
897.383986,148.041188,-9844.739029,919.314598
897.384310,444.123565,-9474.636058,-153.219100
897.384634,296.082377,-8142.265362,0.000000
897.384958,-814.226536,-8290.306550,-383.047749
897.385283,-1036.288319,-9326.594869,-612.876398
897.385607,-1036.288319,-9548.656652,-1149.143247
897.385931,-962.267725,-8216.285956,-459.657299
897.386255,-444.123565,-8586.388927,0.000000
897.386579,222.061783,-9400.615463,842.705048
897.386904,1406.391290,-9992.780217,1608.800546
897.387228,1998.556043,-8734.430116,2528.115143
897.387552,1628.453072,-8956.491898,2528.115143
897.387876,666.185348,-9696.697840,2451.505594
897.388200,1036.288319,-9326.594869,2528.115143
897.388525,1332.370696,-8068.244768,2451.505594
897.388849,592.164754,-8956.491898,1685.410096
897.389173,222.061783,-9548.656652,229.828649
897.389497,814.226536,-8882.471304,153.219100
897.389822,148.041188,-8364.327145,-306.438199
897.390146,-296.082377,-9104.533087,-459.657299
897.390470,-1036.288319,-9104.533087,-1302.362347
897.390794,-888.247130,-9030.512492,-1302.362347
897.391118,-1110.308913,-9548.656652,-919.314598
897.391443,-888.247130,-11103.089130,-612.876398
897.391767,148.041188,-11473.192101,229.828649
897.392091,1258.350101,-10288.862594,1302.362347
897.392415,1036.288319,-9696.697840,1608.800546
897.392739,444.123565,-10955.047942,1762.019645
897.393064,444.123565,-11843.295072,1608.800546
897.393388,518.144159,-10881.027347,1608.800546
897.393712,0.000000,-10066.800811,1685.410096
897.394036,-370.102971,-9992.780217,-76.609550
897.394361,0.000000,-9252.574275,-919.314598
897.394685,0.000000,-8364.327145,-1608.800546
897.395009,-1332.370696,-9252.574275,-1915.238745
897.395333,-1776.494261,-9918.759623,-3140.991542
897.395657,-1480.411884,-9326.594869,-3064.381992
897.395982,-1258.350101,-8660.409521,-2298.286494
897.396306,-888.247130,-9918.759623,-1991.848295
897.396630,0.000000,-11399.171507,-1532.190996
897.396954,666.185348,-10584.944971,-1072.533697
897.397278,1480.411884,-9992.780217,536.266849
897.397603,1036.288319,-10288.862594,1072.533697
897.397927,1332.370696,-11473.192101,1532.190996
897.398251,888.247130,-10658.965565,2221.676944
897.398575,148.041188,-10066.800811,1838.629195
897.398899,-296.082377,-10510.924376,766.095498
897.399223,222.061783,-9252.574275,0.000000
897.399547,296.082377,-7846.182985,-612.876398
897.399871,-814.226536,-7624.121203,-842.705048
897.400195,-2590.720797,-8364.327145,-2987.772442
897.400519,-2516.700203,-8734.430116,-3983.696590
897.400844,-2294.638420,-7994.224174,-3370.820191
897.401168,-2220.617826,-8290.306550,-2911.162892
897.401492,-1258.350101,-9252.574275,-2451.505594
897.401816,518.144159,-9178.553681,-1302.362347
897.402140,2146.597232,-9474.636058,0.000000
897.402464,1480.411884,-9548.656652,1225.752797
897.402788,1776.494261,-11177.109724,1762.019645
897.403112,1998.556043,-10807.006753,2604.724693
897.403436,2368.659014,-10436.903782,3370.820191
897.403760,1850.514855,-11029.068536,2911.162892
897.404084,1406.391290,-11029.068536,1685.410096
897.404409,1110.308913,-9844.739029,383.047749
897.404733,0.000000,-8586.388927,0.000000
897.405057,-1924.535449,-9326.594869,-1532.190996
897.405381,-2590.720797,-9770.718434,-2681.334243
897.405705,-2738.761985,-8660.409521,-2911.162892
897.406029,-3330.926739,-8438.347739,-3064.381992
897.406353,-3034.844362,-9622.677246,-3064.381992
897.406677,-1554.432478,-10288.862594,-2528.115143
897.407001,74.020594,-9992.780217,-919.314598
897.407325,740.205942,-10214.842000,1225.752797
897.407650,1702.473667,-10732.986159,2068.457845
897.407974,2738.761985,-11399.171507,2911.162892
897.408298,2590.720797,-10955.047942,3753.867940
897.408622,1702.473667,-11177.109724,3524.039291
897.408946,1924.535449,-12213.398043,3677.258390
897.409270,2220.617826,-11029.068536,2451.505594
897.409594,1036.288319,-8586.388927,1225.752797
897.409918,-962.267725,-7550.100608,0.000000
897.410242,-2220.617826,-9252.574275,-1991.848295
897.410566,-2294.638420,-9030.512492,-3064.381992
897.410890,-2516.700203,-7624.121203,-3064.381992
897.411215,-2960.823768,-7402.059420,-2604.724693
897.411539,-1554.432478,-8660.409521,-2145.067394
897.411863,222.061783,-8734.430116,-1302.362347
897.412187,962.267725,-8586.388927,306.438199
897.412511,1332.370696,-9326.594869,919.314598
897.412835,1998.556043,-10658.965565,1915.238745
897.413159,2146.597232,-10140.821405,3064.381992
897.413483,1776.494261,-9548.656652,4290.134789
897.413807,1110.308913,-11103.089130,3907.087040
897.414131,1332.370696,-12139.377449,3370.820191
897.414456,1258.350101,-10436.903782,2757.943793
897.414780,370.102971,-7624.121203,1455.581446
897.415104,-1702.473667,-6661.853478,-1532.190996
897.415428,-3182.885551,-8216.285956,-1762.019645
897.415752,-2960.823768,-9252.574275,-2451.505594
897.416076,-2664.741391,-8956.491898,-3217.601092
897.416400,-2368.659014,-9252.574275,-2757.943793
897.416724,-1924.535449,-8808.450710,-2451.505594
897.417048,-296.082377,-8216.285956,-1608.800546
897.417372,296.082377,-8956.491898,0.000000
897.417696,2368.659014,-10510.924376,1532.190996
897.418021,3552.988522,-11103.089130,2451.505594
897.418345,3034.844362,-10066.800811,3140.991542
897.418669,2220.617826,-10066.800811,3064.381992
897.418993,2220.617826,-11399.171507,2757.943793
897.419317,2072.576638,-11029.068536,2451.505594
897.419641,518.144159,-10214.842000,1532.190996
897.419965,-1924.535449,-7920.203579,-1685.410096
897.420289,-2590.720797,-7994.224174,-3753.867940
897.420613,-2812.782580,-10140.821405,-3217.601092
897.420937,-2072.576638,-10807.006753,-4290.134789
897.421262,-2516.700203,-10436.903782,-4673.182538
897.421586,-1924.535449,-9770.718434,-2911.162892
897.421910,-666.185348,-9770.718434,-3294.210641
897.422234,-148.041188,-10362.883188,-1762.019645
897.422558,-518.144159,-11325.150913,-612.876398
897.422882,1776.494261,-11547.212695,536.266849
897.423206,2664.741391,-11843.295072,1685.410096
897.423530,2590.720797,-11547.212695,2681.334243
897.423854,2960.823768,-11251.130318,2834.553343
897.424178,2886.803174,-10658.965565,2374.896044
897.424503,1406.391290,-9696.697840,1072.533697
897.424827,-1110.308913,-8882.471304,-1072.533697
897.425151,-1702.473667,-8956.491898,-1991.848295
897.425475,-1332.370696,-8956.491898,-2451.505594
897.425799,-1332.370696,-8290.306550,-3600.648841
897.426123,-1924.535449,-8216.285956,-3447.429741
897.426447,-1184.329507,-9030.512492,-3447.429741
897.426771,-592.164754,-8586.388927,-3294.210641
897.427095,-1184.329507,-7772.162391,-2068.457845
897.427419,-1406.391290,-8438.347739,-229.828649
897.427743,518.144159,-9696.697840,383.047749
897.428068,1554.432478,-10066.800811,1149.143247
897.428392,518.144159,-9622.677246,2451.505594
897.428716,148.041188,-10140.821405,2604.724693
897.429040,740.205942,-11325.150913,2757.943793
897.429364,1036.288319,-11473.192101,2528.115143
897.429688,0.000000,-9770.718434,2681.334243
897.430012,-370.102971,-9252.574275,2298.286494
897.430336,-444.123565,-8068.244768,-612.876398
897.430660,-2146.597232,-6587.832884,-2911.162892
897.430984,-4441.235652,-7920.203579,-2757.943793
897.431309,-3108.864956,-10362.883188,-2834.553343
897.431633,-444.123565,-10658.965565,-3983.696590
897.431957,0.000000,-9104.533087,-1302.362347
897.432281,-592.164754,-8956.491898,76.609550
897.432605,222.061783,-11029.068536,-306.438199
897.432929,592.164754,-11177.109724,229.828649
897.433253,1406.391290,-9622.677246,1685.410096
897.433577,2590.720797,-10510.924376,3447.429741
897.433901,4589.276840,-12509.480420,3600.648841
897.434225,4441.235652,-11029.068536,4290.134789
897.434549,2368.659014,-9178.553681,3983.696590
897.434874,592.164754,-9622.677246,1838.629195
897.435198,-1628.453072,-9622.677246,-1608.800546
897.435522,-3256.906145,-8290.306550,-2068.457845
897.435846,-4145.153275,-8734.430116,-1608.800546
897.436170,-2368.659014,-10658.965565,-2911.162892
897.436494,-1258.350101,-10732.986159,-2681.334243
897.436818,-1184.329507,-8734.430116,-919.314598
897.437142,-296.082377,-8586.388927,-1225.752797
897.437466,0.000000,-10214.842000,-1225.752797
897.437790,296.082377,-10807.006753,766.095498
897.438115,2146.597232,-9696.697840,2145.067394
897.438439,3256.906145,-10658.965565,3140.991542
897.438763,3478.967927,-11103.089130,3140.991542
897.439087,3701.029710,-10214.842000,3600.648841
897.439411,2664.741391,-8438.347739,3600.648841
897.439735,740.205942,-9696.697840,2221.676944
897.440059,-1184.329507,-10436.903782,383.047749
897.440383,-2294.638420,-8734.430116,-842.705048
897.440707,-2442.679609,-7550.100608,-1762.019645
897.441031,-3108.864956,-8660.409521,-2757.943793
897.441355,-2146.597232,-9844.739029,-3294.210641
897.441680,-1850.514855,-7920.203579,-2604.724693
897.442004,-666.185348,-7476.080014,-2221.676944
897.442328,-888.247130,-8660.409521,-1149.143247
897.442652,0.000000,-9770.718434,-306.438199
897.442976,1628.453072,-9696.697840,1455.581446
897.443300,2294.638420,-10362.883188,2374.896044
897.443624,2220.617826,-11399.171507,2374.896044
897.443948,2664.741391,-10955.047942,2681.334243
897.444272,2368.659014,-9992.780217,2987.772442
897.444596,1036.288319,-10584.944971,2528.115143
897.444921,-592.164754,-10732.986159,995.924147
897.445245,-1702.473667,-8438.347739,-919.314598
897.445569,-3108.864956,-6661.853478,-2451.505594
897.445893,-3997.112087,-8068.244768,-3140.991542
897.446217,-2442.679609,-9474.636058,-4443.353888
897.446541,-296.082377,-8956.491898,-3753.867940
897.446865,0.000000,-7476.080014,-1991.848295
897.447189,0.000000,-9252.574275,-1838.629195
897.447513,814.226536,-10362.883188,-1378.971896
897.447837,2072.576638,-10362.883188,0.000000
897.448161,2590.720797,-10658.965565,1072.533697
897.448486,2886.803174,-11991.336260,2298.286494
897.448810,3108.864956,-12583.501014,1685.410096
897.449134,2812.782580,-10881.027347,2451.505594
897.449458,592.164754,-9622.677246,1915.238745
897.449782,-888.247130,-10584.944971,76.609550
897.450106,-1924.535449,-10214.842000,-1608.800546
897.450430,-2812.782580,-9030.512492,-2221.676944
897.450754,-3404.947333,-9030.512492,-1915.238745
897.451078,-3034.844362,-9918.759623,-2987.772442
897.451402,-2220.617826,-9770.718434,-3600.648841
897.451727,-1776.494261,-8956.491898,-2911.162892
897.452051,-1924.535449,-8586.388927,-2681.334243
897.452375,-740.205942,-10288.862594,-2221.676944
897.452699,1332.370696,-10214.842000,-383.047749
897.453023,2664.741391,-9844.739029,1608.800546
897.453347,3108.864956,-10436.903782,2528.115143
897.453671,2886.803174,-11251.130318,2451.505594
897.453995,2072.576638,-10510.924376,1762.019645
897.454319,814.226536,-9030.512492,2374.896044
897.454643,-370.102971,-9622.677246,2451.505594
897.454967,-740.205942,-10510.924376,1532.190996
897.455292,-1184.329507,-8808.450710,689.485948
897.455616,-2368.659014,-7105.977043,153.219100
897.455940,-2664.741391,-8068.244768,-1302.362347
897.456264,-2442.679609,-9474.636058,-2604.724693
897.456588,-1702.473667,-8438.347739,-2681.334243
897.456912,-1332.370696,-7772.162391,-1532.190996
897.457236,-814.226536,-8882.471304,-1532.190996
897.457560,148.041188,-8956.491898,-919.314598
897.457884,666.185348,-8956.491898,76.609550
897.458208,1258.350101,-10066.800811,689.485948
897.458533,2368.659014,-12435.459826,1685.410096
897.458857,3256.906145,-11843.295072,2145.067394
897.459181,3034.844362,-10066.800811,3600.648841
897.459505,2294.638420,-10066.800811,2911.162892
897.459829,74.020594,-10881.027347,2145.067394
897.460153,-740.205942,-10066.800811,459.657299
897.460477,-1924.535449,-8808.450710,0.000000
897.460801,-2368.659014,-9326.594869,-459.657299
897.461125,-1480.411884,-9918.759623,-1532.190996
897.461449,-740.205942,-8808.450710,-1762.019645
897.461773,-592.164754,-7550.100608,-1225.752797
897.462098,-1628.453072,-8142.265362,-1915.238745
897.462422,-1554.432478,-9844.739029,-2221.676944
897.462746,-592.164754,-8734.430116,-612.876398
897.463070,666.185348,-8660.409521,1225.752797
897.463394,2368.659014,-10658.965565,1685.410096
897.463718,3701.029710,-10955.047942,1838.629195
897.464042,3627.009116,-9622.677246,1838.629195
897.464366,2516.700203,-9696.697840,2374.896044
897.464690,2072.576638,-11621.233289,1991.848295
897.465014,962.267725,-11399.171507,1149.143247
897.465339,0.000000,-9622.677246,919.314598
897.465663,-814.226536,-9252.574275,0.000000
897.465987,-962.267725,-10436.903782,-1455.581446
897.466311,-592.164754,-10658.965565,-1762.019645
897.466635,-1258.350101,-8956.491898,-1302.362347
897.466959,-2146.597232,-8734.430116,-1225.752797
897.467283,-1184.329507,-9622.677246,-1225.752797
897.467607,-740.205942,-9474.636058,-919.314598
897.467931,-1036.288319,-8142.265362,0.000000
897.468255,-592.164754,-9252.574275,306.438199
897.468579,518.144159,-11029.068536,612.876398
897.468904,2072.576638,-10140.821405,1532.190996
897.469228,1406.391290,-8290.306550,1762.019645
897.469552,-518.144159,-8882.471304,1455.581446
897.469876,0.000000,-10658.965565,536.266849
897.470200,-370.102971,-9992.780217,0.000000
897.470524,-1480.411884,-9030.512492,-536.266849
897.470848,-1702.473667,-9474.636058,-1455.581446
897.471172,-296.082377,-9844.739029,-1915.238745
897.471496,740.205942,-8808.450710,-1225.752797
897.471820,888.247130,-9178.553681,-995.924147
897.472145,-518.144159,-10140.821405,-2221.676944
897.472469,-1036.288319,-10362.883188,-2221.676944
897.472793,-1036.288319,-9474.636058,-1225.752797
897.473117,-1110.308913,-10066.800811,-153.219100
897.473441,-296.082377,-11177.109724,0.000000
897.473765,518.144159,-10658.965565,306.438199
897.474089,444.123565,-9326.594869,995.924147
897.474413,-592.164754,-9326.594869,919.314598
897.474737,-1406.391290,-10510.924376,229.828649
897.475061,-1406.391290,-9992.780217,0.000000
897.475385,-1406.391290,-9252.574275,-306.438199
897.475710,-1258.350101,-9770.718434,-995.924147
897.476034,-148.041188,-10658.965565,-153.219100
897.476358,1036.288319,-9548.656652,-1225.752797
897.476682,1036.288319,-8882.471304,-766.095498
897.477006,222.061783,-9178.553681,-766.095498
897.477330,74.020594,-10288.862594,-1532.190996
897.477654,444.123565,-9474.636058,-689.485948
897.477978,444.123565,-9326.594869,76.609550
897.478302,1036.288319,-10807.006753,306.438199
897.478626,2220.617826,-11251.130318,1225.752797
897.478951,2220.617826,-9474.636058,2068.457845
897.479275,1110.308913,-8956.491898,1838.629195
897.479599,0.000000,-10214.842000,1762.019645
897.479923,-296.082377,-10436.903782,766.095498
897.480247,-1110.308913,-9326.594869,842.705048
897.480571,-1924.535449,-9104.533087,689.485948
897.480895,-1332.370696,-10214.842000,-766.095498
897.481219,-962.267725,-9400.615463,-536.266849
897.481543,-1184.329507,-7624.121203,-842.705048
897.481867,-1036.288319,-8882.471304,-612.876398
897.482191,-296.082377,-9992.780217,-689.485948
897.482516,222.061783,-9104.533087,-459.657299
897.482840,222.061783,-8364.327145,0.000000
897.483164,148.041188,-9918.759623,306.438199
897.483488,1110.308913,-10955.047942,229.828649
897.483812,2072.576638,-9622.677246,1225.752797
897.484136,2072.576638,-8734.430116,1685.410096
897.484460,1110.308913,-9622.677246,1455.581446
897.484784,0.000000,-10436.903782,842.705048
897.485108,-444.123565,-9326.594869,306.438199
897.485432,-1480.411884,-8364.327145,0.000000
897.485757,-1850.514855,-9104.533087,-306.438199
897.486081,-518.144159,-9770.718434,-1378.971896
897.486405,0.000000,-8660.409521,-612.876398
897.486729,0.000000,-8068.244768,-153.219100
897.487053,-370.102971,-9474.636058,-919.314598
897.487377,0.000000,-9992.780217,-1378.971896
897.487701,444.123565,-9252.574275,-153.219100
897.488025,592.164754,-9400.615463,459.657299
897.488349,1628.453072,-11103.089130,383.047749
897.488673,2294.638420,-10584.944971,995.924147
897.488997,1998.556043,-9326.594869,689.485948
897.489322,1480.411884,-10066.800811,383.047749
897.489646,592.164754,-11103.089130,0.000000
897.489970,814.226536,-10584.944971,383.047749
897.490294,74.020594,-9992.780217,612.876398
897.490618,-814.226536,-9918.759623,229.828649
897.490942,-1036.288319,-10066.800811,-153.219100
897.491266,-148.041188,-9548.656652,-536.266849
897.491590,-592.164754,-8586.388927,-1072.533697
897.491914,-1110.308913,-9844.739029,-689.485948
897.492238,-666.185348,-10066.800811,-229.828649
897.492563,370.102971,-8734.430116,0.000000
897.492887,0.000000,-8734.430116,689.485948
897.493211,-518.144159,-9992.780217,459.657299
897.493535,444.123565,-10807.006753,0.000000
897.493859,0.000000,-8956.491898,766.095498
897.494183,-518.144159,-8956.491898,689.485948
897.494507,0.000000,-10436.903782,153.219100
897.494831,222.061783,-10362.883188,153.219100
897.495155,-444.123565,-9104.533087,459.657299
897.495479,-1184.329507,-9918.759623,-153.219100
897.495803,-888.247130,-10807.006753,-1455.581446
897.496128,0.000000,-10066.800811,-1302.362347
897.496452,0.000000,-8586.388927,0.000000
897.496776,-592.164754,-8956.491898,-612.876398
897.497100,-814.226536,-10288.862594,-995.924147
897.497424,-814.226536,-9104.533087,-612.876398
897.497748,-666.185348,-8734.430116,0.000000
897.498072,-222.061783,-9622.677246,-459.657299
897.498396,666.185348,-10584.944971,-76.609550
897.498720,592.164754,-9104.533087,-153.219100
897.499044,-518.144159,-8364.327145,76.609550
897.499369,-1036.288319,-9770.718434,-766.095498
897.499693,-1036.288319,-10881.027347,-536.266849
897.500017,0.000000,-9696.697840,-229.828649
897.500341,148.041188,-9104.533087,0.000000
897.500665,0.000000,-9770.718434,-459.657299
897.500989,814.226536,-11103.089130,-612.876398
897.501313,1480.411884,-9474.636058,-229.828649
897.501637,370.102971,-9918.759623,-153.219100
897.501961,0.000000,-10955.047942,153.219100
897.502285,148.041188,-10807.006753,76.609550
897.502610,148.041188,-9474.636058,612.876398
897.502934,0.000000,-9918.759623,153.219100
897.503258,0.000000,-11325.150913,0.000000
897.503582,296.082377,-9992.780217,-229.828649
897.503906,-148.041188,-8364.327145,689.485948
897.504230,-370.102971,-9104.533087,153.219100
897.504554,0.000000,-9992.780217,-995.924147
897.504878,0.000000,-9178.553681,-383.047749
897.505202,-148.041188,-8660.409521,0.000000
897.505526,-148.041188,-10436.903782,459.657299
897.505851,814.226536,-11843.295072,459.657299
897.506175,1110.308913,-10066.800811,612.876398
897.506499,296.082377,-8956.491898,919.314598
897.506823,-444.123565,-9992.780217,995.924147
897.507147,0.000000,-10510.924376,383.047749
897.507471,444.123565,-9474.636058,1225.752797
897.507795,0.000000,-8438.347739,2145.067394
897.508119,222.061783,-9474.636058,919.314598
897.508443,666.185348,-9474.636058,229.828649
897.508767,444.123565,-7772.162391,612.876398
897.509092,-740.205942,-7772.162391,459.657299
897.509416,-2146.597232,-9030.512492,-229.828649
897.509740,-1924.535449,-8734.430116,-383.047749
897.510064,-1850.514855,-7772.162391,0.000000
897.510388,-1628.453072,-7772.162391,612.876398
897.510712,-962.267725,-9622.677246,0.000000
897.511036,0.000000,-9252.574275,536.266849
897.511360,370.102971,-8068.244768,1378.971896
897.511684,0.000000,-8068.244768,1225.752797
897.512008,-148.041188,-9252.574275,995.924147
897.512333,370.102971,-8438.347739,842.705048
897.512657,740.205942,-8586.388927,689.485948
897.512981,1184.329507,-10066.800811,459.657299
897.513305,1702.473667,-11547.212695,229.828649
897.513629,2072.576638,-10510.924376,0.000000
897.513953,1184.329507,-9178.553681,-383.047749
897.514277,-296.082377,-10288.862594,-919.314598
897.514601,-444.123565,-11621.233289,-2221.676944
897.514925,-740.205942,-10955.047942,-2221.676944
897.515249,-1628.453072,-10436.903782,-1608.800546
897.515574,-1036.288319,-11621.233289,-1149.143247
897.515898,222.061783,-11843.295072,-766.095498
897.516222,740.205942,-10362.883188,-536.266849
897.516546,0.000000,-9992.780217,383.047749
897.516870,-370.102971,-11991.336260,153.219100
897.517194,518.144159,-11769.274478,0.000000
897.517518,518.144159,-10658.965565,842.705048
897.517842,518.144159,-10658.965565,1378.971896
897.518166,1850.514855,-11473.192101,76.609550
897.518490,2368.659014,-10510.924376,-306.438199
897.518815,1554.432478,-9178.553681,0.000000
897.519139,74.020594,-8956.491898,-1302.362347
897.519463,-222.061783,-9622.677246,-2068.457845
897.519787,-222.061783,-8956.491898,-2298.286494
897.520111,-1258.350101,-7772.162391,-1532.190996
897.520435,-1184.329507,-9104.533087,-1685.410096
897.520759,-444.123565,-9548.656652,-1762.019645
897.521083,222.061783,-8438.347739,-995.924147
897.521407,-444.123565,-7550.100608,153.219100
897.521731,-148.041188,-9030.512492,536.266849
897.522056,74.020594,-9400.615463,1072.533697
897.522380,148.041188,-9030.512492,842.705048
897.522704,-666.185348,-8216.285956,1685.410096
897.523028,-518.144159,-9474.636058,612.876398
897.523352,592.164754,-9622.677246,76.609550
897.523676,740.205942,-8586.388927,919.314598
897.524000,-518.144159,-8216.285956,536.266849
897.524324,-1110.308913,-9252.574275,-1225.752797
897.524648,-1554.432478,-9400.615463,-1838.629195
897.524973,-2738.761985,-8956.491898,-1915.238745
897.525297,-3108.864956,-9770.718434,-2068.457845
897.525621,-2294.638420,-10732.986159,-2221.676944
897.525945,-740.205942,-9622.677246,-1225.752797
897.526269,74.020594,-8956.491898,0.000000
897.526593,518.144159,-9622.677246,0.000000
897.526917,962.267725,-11473.192101,766.095498
897.527241,1184.329507,-9918.759623,1149.143247
897.527565,1184.329507,-9252.574275,1838.629195
897.527889,1184.329507,-10955.047942,2068.457845
897.528214,2072.576638,-11991.336260,2068.457845
897.528538,2516.700203,-10362.883188,1685.410096
897.528862,1480.411884,-7994.224174,612.876398
897.529186,666.185348,-9844.739029,-612.876398
897.529510,-888.247130,-10510.924376,-2528.115143
897.529834,-740.205942,-9622.677246,-2911.162892
897.530158,-1998.556043,-9474.636058,-2298.286494
897.530482,-2220.617826,-11473.192101,-2145.067394
897.530806,-1480.411884,-11917.315666,-2068.457845
897.531130,-1184.329507,-9770.718434,-1072.533697
897.531455,-1110.308913,-9252.574275,153.219100
897.531779,0.000000,-11103.089130,995.924147
897.532103,1110.308913,-11843.295072,1378.971896
897.532427,814.226536,-10214.842000,2451.505594
897.532751,666.185348,-10140.821405,3064.381992
897.533075,1184.329507,-11473.192101,2911.162892
897.533399,1628.453072,-10362.883188,2068.457845
897.533723,1332.370696,-8438.347739,612.876398
897.534047,222.061783,-7846.182985,229.828649
897.534371,444.123565,-9326.594869,-1455.581446
897.534696,666.185348,-9178.553681,-2068.457845
897.535020,-814.226536,-7772.162391,-995.924147
897.535344,-1776.494261,-8512.368333,-1225.752797
897.535668,-1036.288319,-9400.615463,-2068.457845
897.535992,-222.061783,-7994.224174,-689.485948
897.536316,0.000000,-7179.997637,612.876398
897.536640,592.164754,-8882.471304,1991.848295
897.536964,1776.494261,-9844.739029,2374.896044
897.537288,1628.453072,-8438.347739,3600.648841
897.537612,1406.391290,-8142.265362,3677.258390
897.537937,1110.308913,-10955.047942,3524.039291
897.538261,1628.453072,-11547.212695,3370.820191
897.538585,1776.494261,-9326.594869,3600.648841
897.538909,888.247130,-7328.038826,2757.943793
897.539233,-222.061783,-6217.729913,-1149.143247
897.539557,-1850.514855,-6957.935855,-3524.039291
897.539881,-3775.050304,-9252.574275,-2451.505594
897.540205,-2516.700203,-11325.150913,-3217.601092
897.540529,-1628.453072,-11621.233289,-3447.429741
897.540853,-2146.597232,-9622.677246,-1608.800546
897.541178,-1406.391290,-8734.430116,-689.485948
897.541502,-444.123565,-10510.924376,-383.047749
897.541826,148.041188,-11695.253884,612.876398
897.542150,1406.391290,-10510.924376,1378.971896
897.542474,2368.659014,-10066.800811,2374.896044
897.542798,2664.741391,-12139.377449,2987.772442
897.543122,3182.885551,-13027.624579,3370.820191
897.543446,3330.926739,-10288.862594,3064.381992
897.543770,1480.411884,-9622.677246,1149.143247
897.544094,-1110.308913,-9474.636058,-459.657299
897.544419,-1110.308913,-7994.224174,-4366.744339
897.544743,-1924.535449,-7846.182985,-3677.258390
897.545067,-2664.741391,-10881.027347,-2911.162892
897.545391,-1554.432478,-12805.562797,-4290.134789
897.545715,-1776.494261,-11843.295072,-2757.943793
897.546039,-2368.659014,-9326.594869,-1991.848295
897.546363,-1998.556043,-10140.821405,-1838.629195
897.546687,-740.205942,-11917.315666,-919.314598
897.547011,1406.391290,-10436.903782,383.047749
897.547335,3182.885551,-9104.533087,2221.676944
897.547660,3034.844362,-10140.821405,2145.067394
897.547984,2960.823768,-11473.192101,2757.943793
897.548308,2664.741391,-10955.047942,3677.258390
897.548632,1406.391290,-9400.615463,2987.772442
897.548956,-1184.329507,-9326.594869,995.924147
897.549280,-2220.617826,-6365.771101,-2757.943793
897.549604,-2442.679609,-4441.235652,-4290.134789
897.549928,-3627.009116,-7624.121203,-2451.505594
897.550252,-2368.659014,-10436.903782,-4060.306139
897.550576,-1110.308913,-9252.574275,-3907.087040
897.550901,-1628.453072,-6661.853478,-2298.286494
897.551225,-1406.391290,-6587.832884,-1915.238745
897.551549,-962.267725,-9622.677246,-995.924147
897.551873,888.247130,-10436.903782,0.000000
897.552197,2442.679609,-9178.553681,2221.676944
897.552521,3478.967927,-10584.944971,2451.505594
897.552845,3701.029710,-12065.356855,2987.772442
897.553169,4441.235652,-11103.089130,3907.087040
897.553493,3849.070898,-10066.800811,3294.210641
897.553817,518.144159,-10510.924376,1838.629195
897.554142,-2368.659014,-11029.068536,-842.705048
897.554466,-3256.906145,-7402.059420,-3447.429741
897.554790,-4071.132681,-7328.038826,-2834.553343
897.555114,-3849.070898,-10658.965565,-3370.820191
897.555438,-1850.514855,-11695.253884,-3983.696590
897.555762,-1258.350101,-10436.903782,-2298.286494
897.556086,-1998.556043,-8808.450710,-1685.410096
897.556410,-1776.494261,-9918.759623,-1072.533697
897.556734,0.000000,-12361.439231,76.609550
897.557058,1850.514855,-11473.192101,1685.410096
897.557383,3256.906145,-10436.903782,2911.162892
897.557707,3997.112087,-11695.253884,3370.820191
897.558031,4589.276840,-12139.377449,4290.134789
897.558355,4293.194464,-10955.047942,4596.572988
897.558679,2516.700203,-10066.800811,4979.620737
897.559003,518.144159,-10658.965565,2374.896044
897.559327,-888.247130,-7846.182985,-1378.971896
897.559651,-2220.617826,-5699.585753,-2145.067394
897.559975,-2886.803174,-8290.306550,-1915.238745
897.560299,-1850.514855,-10658.965565,-2987.772442
897.560624,-1332.370696,-9474.636058,-1685.410096
897.560948,-2146.597232,-7402.059420,-919.314598
897.561272,-1702.473667,-6069.688724,-842.705048
897.561596,-962.267725,-9474.636058,-383.047749
897.561920,518.144159,-9918.759623,919.314598
897.562244,1480.411884,-8290.306550,2604.724693
897.562568,962.267725,-9992.780217,3524.039291
897.562892,1628.453072,-11029.068536,3753.867940
897.563216,2442.679609,-9178.553681,3524.039291
897.563540,1702.473667,-8364.327145,3753.867940
897.563865,0.000000,-9178.553681,2221.676944
897.564189,-518.144159,-9400.615463,-153.219100
897.564513,-370.102971,-6069.688724,-1915.238745
897.564837,-1332.370696,-6291.750507,-995.924147
897.565161,-1554.432478,-10510.924376,-2451.505594
897.565485,-814.226536,-11029.068536,-3600.648841
897.565809,-1036.288319,-9400.615463,-2911.162892
897.566133,-2220.617826,-8290.306550,-1608.800546
897.566457,-1850.514855,-9918.759623,-2374.896044
897.566782,-740.205942,-11029.068536,-1149.143247
897.567106,0.000000,-9918.759623,229.828649
897.567430,370.102971,-10140.821405,995.924147
897.567754,1850.514855,-12065.356855,536.266849
897.568078,2368.659014,-11769.274478,1915.238745
897.568402,2146.597232,-10807.006753,2528.115143
897.568726,1036.288319,-11547.212695,2374.896044
897.569050,296.082377,-12657.521608,919.314598
897.569374,148.041188,-9918.759623,-612.876398
897.569698,148.041188,-6587.832884,-2911.162892
897.570023,-1036.288319,-9548.656652,-3064.381992
897.570347,-666.185348,-12435.459826,-2987.772442
897.570671,814.226536,-11399.171507,-4443.353888
897.570995,-666.185348,-9622.677246,-2757.943793
897.571319,-2220.617826,-9474.636058,-2298.286494
897.571643,-1184.329507,-10881.027347,-2911.162892
897.571967,-666.185348,-10140.821405,-1608.800546
897.572291,74.020594,-8586.388927,306.438199
897.572615,1258.350101,-10214.842000,1532.190996
897.572939,2516.700203,-11769.274478,1455.581446
897.573264,1924.535449,-9696.697840,2374.896044
897.573588,888.247130,-8660.409521,3294.210641
897.573912,148.041188,-10140.821405,1455.581446
897.574236,-1110.308913,-10288.862594,-919.314598
897.574560,-2072.576638,-7772.162391,-1455.581446
897.574884,-1258.350101,-7402.059420,-1378.971896
897.575208,666.185348,-10066.800811,-1608.800546
897.575532,814.226536,-10436.903782,-1608.800546
897.575856,-666.185348,-8364.327145,-1532.190996
897.576180,-1776.494261,-8216.285956,-1762.019645
897.576505,-1554.432478,-9252.574275,-2374.896044
897.576829,-740.205942,-8734.430116,-1149.143247
897.577153,-148.041188,-7698.141797,689.485948
897.577477,592.164754,-8882.471304,1608.800546
897.577801,1406.391290,-10140.821405,2298.286494
897.578125,1850.514855,-9474.636058,2451.505594
897.578449,1036.288319,-8216.285956,2757.943793
897.578773,-814.226536,-8660.409521,1991.848295
897.579097,-1406.391290,-9474.636058,536.266849
897.579421,-1406.391290,-8290.306550,-306.438199
897.579746,-1258.350101,-8438.347739,0.000000
897.580070,-592.164754,-10140.821405,-612.876398
897.580394,666.185348,-11103.089130,-1149.143247
897.580718,518.144159,-9030.512492,-1455.581446
897.581042,0.000000,-8512.368333,-1225.752797
897.581366,-296.082377,-10362.883188,-1532.190996
897.581690,74.020594,-11177.109724,-995.924147
897.582014,0.000000,-10584.944971,0.000000
897.582338,-148.041188,-11103.089130,612.876398
897.582662,666.185348,-11991.336260,1072.533697
897.582987,2294.638420,-11547.212695,1532.190996
897.583311,1998.556043,-9770.718434,1991.848295
897.583635,814.226536,-10288.862594,1915.238745
897.583959,-592.164754,-11769.274478,1072.533697
897.584283,-1702.473667,-10881.027347,153.219100
897.584607,-2368.659014,-8586.388927,-153.219100
897.584931,-1554.432478,-8956.491898,-536.266849
897.585255,296.082377,-11103.089130,-1225.752797
897.585579,1702.473667,-9548.656652,-842.705048
897.585903,1258.350101,-7920.203579,-306.438199
897.586228,370.102971,-9400.615463,-306.438199
897.586552,592.164754,-10214.842000,-919.314598
897.586876,666.185348,-8586.388927,-383.047749
897.587200,592.164754,-7994.224174,1149.143247
897.587524,1332.370696,-10288.862594,1762.019645
897.587848,2368.659014,-11177.109724,1532.190996
897.588172,2072.576638,-8882.471304,2145.067394
897.588496,592.164754,-8068.244768,2604.724693
897.588820,0.000000,-9844.739029,919.314598
897.589144,-666.185348,-10140.821405,306.438199
897.589469,-1554.432478,-7920.203579,459.657299
897.589793,-2146.597232,-7920.203579,229.828649
897.590117,-1628.453072,-9992.780217,-536.266849
897.590441,-814.226536,-9178.553681,-1225.752797
897.590765,-962.267725,-7328.038826,-919.314598
897.591089,-962.267725,-7846.182985,-383.047749
897.591413,-296.082377,-9696.697840,-1072.533697
897.591737,-296.082377,-9178.553681,-536.266849
897.592061,-666.185348,-8216.285956,306.438199
897.592385,-1036.288319,-9696.697840,612.876398
897.592710,-296.082377,-11547.212695,229.828649
897.593034,666.185348,-10214.842000,459.657299
897.593358,370.102971,-9326.594869,1149.143247
897.593682,222.061783,-10732.986159,1225.752797
897.594006,666.185348,-11029.068536,76.609550
897.594330,592.164754,-9326.594869,-153.219100
897.594654,-370.102971,-8586.388927,-153.219100
897.594978,-444.123565,-11103.089130,-1225.752797
897.595302,444.123565,-11325.150913,-2068.457845
897.595626,814.226536,-9474.636058,-1685.410096
897.595951,296.082377,-9326.594869,-1608.800546
897.596275,74.020594,-10732.986159,-2451.505594
897.596599,962.267725,-11251.130318,-1991.848295
897.596923,0.000000,-9918.759623,-1225.752797
897.597247,-592.164754,-9770.718434,-1072.533697
897.597571,-148.041188,-11399.171507,-919.314598
897.597895,962.267725,-11399.171507,-1149.143247
897.598219,518.144159,-9030.512492,-1072.533697
897.598543,-592.164754,-10288.862594,0.000000
897.598868,-962.267725,-11251.130318,-459.657299
897.599192,-1110.308913,-10140.821405,-612.876398
897.599516,-1924.535449,-8586.388927,-612.876398
897.599840,-2368.659014,-9770.718434,-1532.190996
897.600164,-1406.391290,-10658.965565,-1991.848295
897.600488,-888.247130,-9104.533087,-2298.286494
897.600812,-962.267725,-8438.347739,-1608.800546
897.601137,-666.185348,-9622.677246,-1378.971896
897.601461,222.061783,-10140.821405,-1149.143247
897.601785,296.082377,-9030.512492,-383.047749
897.602109,0.000000,-8808.450710,76.609550
897.602433,296.082377,-10362.883188,229.828649
897.602757,888.247130,-9992.780217,306.438199
897.603081,1036.288319,-8364.327145,1225.752797
897.603406,1110.308913,-8660.409521,2145.067394
897.603730,1776.494261,-10881.027347,1762.019645
897.604054,1628.453072,-9992.780217,1225.752797
897.604378,518.144159,-7624.121203,1149.143247
897.604702,-148.041188,-8216.285956,459.657299
897.605026,222.061783,-9770.718434,-229.828649
897.605351,592.164754,-9474.636058,-459.657299
897.605675,-666.185348,-7846.182985,0.000000
897.605999,-2072.576638,-8586.388927,-536.266849
897.606323,-1036.288319,-10066.800811,-766.095498
897.606647,74.020594,-9474.636058,-306.438199
897.606971,0.000000,-8882.471304,1149.143247
897.607295,-148.041188,-10140.821405,1149.143247
897.607620,518.144159,-10732.986159,1149.143247
897.607944,518.144159,-9548.656652,1225.752797
897.608268,148.041188,-9178.553681,2374.896044
897.608592,-444.123565,-10658.965565,1532.190996
897.608916,148.041188,-11177.109724,1225.752797
897.609240,592.164754,-9474.636058,1378.971896
897.609564,148.041188,-9400.615463,1302.362347
897.609889,74.020594,-10362.883188,383.047749
897.610213,888.247130,-10288.862594,0.000000
897.610537,518.144159,-8290.306550,306.438199
897.610861,-222.061783,-8142.265362,0.000000
897.611185,-888.247130,-9622.677246,-153.219100
897.611509,0.000000,-9622.677246,-306.438199
897.611833,444.123565,-8216.285956,0.000000
897.612158,592.164754,-8586.388927,383.047749
897.612482,1258.350101,-10362.883188,1072.533697
897.612806,1258.350101,-9992.780217,1455.581446
897.613130,592.164754,-8734.430116,1685.410096
897.613454,-296.082377,-8882.471304,919.314598
897.613778,-518.144159,-10214.842000,306.438199
897.614102,-1110.308913,-9622.677246,-229.828649
897.614427,-1924.535449,-9178.553681,0.000000
897.614751,-1554.432478,-10436.903782,229.828649
897.615075,-962.267725,-10881.027347,-842.705048
897.615399,-296.082377,-8734.430116,-383.047749
897.615723,-370.102971,-8660.409521,-689.485948
897.616047,-444.123565,-10140.821405,-842.705048
897.616372,0.000000,-11325.150913,-1532.190996
897.616696,74.020594,-10140.821405,-919.314598
897.617020,-148.041188,-9400.615463,-306.438199
897.617344,666.185348,-10732.986159,-459.657299
897.617668,1850.514855,-11251.130318,0.000000
897.617992,1480.411884,-9400.615463,0.000000
897.618316,-296.082377,-9474.636058,-536.266849
897.618641,-1110.308913,-11029.068536,-1149.143247
897.618965,-740.205942,-10732.986159,-1378.971896
897.619289,-666.185348,-8216.285956,-1072.533697
897.619613,-592.164754,-8660.409521,-995.924147
897.619937,370.102971,-10732.986159,-1685.410096
897.620261,1332.370696,-10807.006753,-1149.143247
897.620585,1702.473667,-9178.553681,-612.876398
897.620910,666.185348,-9548.656652,-383.047749
897.621234,444.123565,-10955.047942,-1072.533697
897.621558,814.226536,-10214.842000,-1149.143247
897.621882,370.102971,-9252.574275,-229.828649
897.622206,592.164754,-10510.924376,0.000000
897.622530,1554.432478,-11103.089130,-842.705048
897.622854,888.247130,-9474.636058,-459.657299
897.623179,-296.082377,-8512.368333,0.000000
897.623503,-1184.329507,-9770.718434,-1149.143247
897.623827,-1406.391290,-9696.697840,-1838.629195
897.624151,-2220.617826,-8512.368333,-1378.971896
897.624475,-2886.803174,-8586.388927,-1378.971896
897.624799,-2368.659014,-9696.697840,-842.705048
897.625124,74.020594,-9474.636058,-766.095498
897.625448,1110.308913,-7994.224174,536.266849
897.625772,888.247130,-8734.430116,229.828649
897.626096,518.144159,-10362.883188,153.219100
897.626420,444.123565,-9770.718434,383.047749
897.626744,666.185348,-8586.388927,612.876398
897.627068,296.082377,-9030.512492,306.438199
897.627393,740.205942,-10510.924376,-76.609550
897.627717,1406.391290,-9696.697840,-459.657299
897.628041,814.226536,-8660.409521,76.609550
897.628365,-592.164754,-9696.697840,-153.219100
897.628689,-1184.329507,-10510.924376,-995.924147
897.629013,-1406.391290,-9770.718434,-995.924147
897.629337,-2146.597232,-8808.450710,-612.876398
897.629662,-1332.370696,-10732.986159,766.095498
897.629986,296.082377,-12361.439231,995.924147
897.630310,1332.370696,-10955.047942,1072.533697
897.630634,222.061783,-8734.430116,1225.752797
897.630958,0.000000,-10066.800811,1072.533697
897.631282,370.102971,-11103.089130,459.657299
897.631606,-222.061783,-9918.759623,766.095498
897.631931,-666.185348,-9400.615463,995.924147
897.632255,0.000000,-10510.924376,0.000000
897.632579,1036.288319,-10288.862594,-612.876398
897.632903,222.061783,-8512.368333,-229.828649
897.633227,-814.226536,-9400.615463,0.000000
897.633551,-1036.288319,-10288.862594,-1225.752797
897.633875,-1036.288319,-9400.615463,-1072.533697
897.634200,-1110.308913,-8142.265362,0.000000
897.634524,-814.226536,-9770.718434,612.876398
897.634848,296.082377,-11473.192101,919.314598
897.635172,1332.370696,-9474.636058,612.876398
897.635496,740.205942,-8216.285956,1838.629195
897.635820,74.020594,-9696.697840,2451.505594
897.636145,888.247130,-10658.965565,2068.457845
897.636469,1480.411884,-8956.491898,2068.457845
897.636793,814.226536,-7846.182985,1685.410096
897.637117,222.061783,-9548.656652,612.876398
897.637441,444.123565,-10214.842000,-153.219100
897.637765,370.102971,-8216.285956,-383.047749
897.638089,-518.144159,-7772.162391,-229.828649
897.638414,-740.205942,-9178.553681,-383.047749
897.638738,-1110.308913,-9326.594869,-766.095498
897.639062,-1554.432478,-8216.285956,0.000000
897.639386,-1628.453072,-8290.306550,229.828649
897.639710,-666.185348,-10436.903782,76.609550
897.640034,148.041188,-10584.944971,536.266849
897.640358,0.000000,-8956.491898,1302.362347
897.640683,-518.144159,-9178.553681,1685.410096
897.641007,0.000000,-10140.821405,919.314598
897.641331,1110.308913,-9918.759623,919.314598
897.641655,1406.391290,-8364.327145,1225.752797
897.641979,1258.350101,-9548.656652,459.657299
897.642303,1776.494261,-11177.109724,-995.924147
897.642627,1924.535449,-10066.800811,-1455.581446
897.642952,518.144159,-8438.347739,-1532.190996
897.643276,-296.082377,-9548.656652,-2681.334243
897.643600,-222.061783,-11103.089130,-2451.505594
897.643924,74.020594,-9770.718434,-1838.629195
897.644248,-666.185348,-9178.553681,-1302.362347
897.644572,-370.102971,-11103.089130,-1302.362347
897.644896,296.082377,-11843.295072,-995.924147
897.645221,148.041188,-9918.759623,-612.876398
897.645545,-962.267725,-9178.553681,76.609550
897.645869,-1036.288319,-11177.109724,0.000000
897.646193,-666.185348,-11251.130318,0.000000
897.646517,-222.061783,-9622.677246,76.609550
897.646841,-518.144159,-9252.574275,229.828649
897.647166,740.205942,-10658.965565,-1072.533697
897.647490,1406.391290,-10436.903782,-1762.019645
897.647814,1036.288319,-8808.450710,-2451.505594
897.648138,-666.185348,-9104.533087,-2298.286494
897.648462,-444.123565,-10881.027347,-2528.115143
897.648786,222.061783,-10140.821405,-3600.648841
897.649110,-222.061783,-9178.553681,-2451.505594
897.649435,-592.164754,-10362.883188,-1608.800546
897.649759,370.102971,-11695.253884,-1455.581446
897.650083,1258.350101,-9992.780217,-306.438199
897.650407,740.205942,-8364.327145,1072.533697
897.650731,0.000000,-9918.759623,995.924147
897.651055,-444.123565,-10807.006753,612.876398
897.651379,-296.082377,-9844.739029,1685.410096
897.651704,-740.205942,-9622.677246,2604.724693
897.652028,-444.123565,-11399.171507,2068.457845
897.652352,1110.308913,-10584.944971,995.924147
897.652676,1258.350101,-7476.080014,306.438199
897.653000,-888.247130,-7550.100608,0.000000
897.653324,-1776.494261,-10362.883188,-1838.629195
897.653648,-2220.617826,-10140.821405,-2451.505594
897.653973,-2886.803174,-8512.368333,-1838.629195
897.654297,-3256.906145,-8808.450710,-1149.143247
897.654621,-2516.700203,-10510.924376,-1302.362347
897.654945,-1554.432478,-10214.842000,-1225.752797
897.655269,-1110.308913,-8216.285956,689.485948
897.655593,-592.164754,-9252.574275,1532.190996
897.655917,518.144159,-11843.295072,3064.381992
897.656242,1628.453072,-10436.903782,3447.429741
897.656566,1998.556043,-8808.450710,4443.353888
897.656890,2146.597232,-10510.924376,4366.744339
897.657214,3108.864956,-11769.274478,2834.553343
897.657538,2516.700203,-9030.512492,1608.800546
897.657862,444.123565,-5847.626942,383.047749
897.658187,-1924.535449,-7550.100608,-1762.019645
897.658511,-2516.700203,-10140.821405,-2757.943793
897.658835,-1554.432478,-9104.533087,-2987.772442
897.659159,-1998.556043,-7402.059420,-1762.019645
897.659483,-1850.514855,-8808.450710,-1378.971896
897.659807,-666.185348,-10214.842000,-1149.143247
897.660131,74.020594,-9104.533087,0.000000
897.660456,740.205942,-7846.182985,1838.629195
897.660780,1110.308913,-10066.800811,3140.991542
897.661104,1184.329507,-11399.171507,2528.115143
897.661428,1702.473667,-9326.594869,3370.820191
897.661752,2294.638420,-8882.471304,4136.915689
897.662076,2294.638420,-10955.047942,3370.820191
897.662400,2368.659014,-10288.862594,1378.971896
897.662725,740.205942,-7328.038826,229.828649
897.663049,-888.247130,-7846.182985,-383.047749
897.663373,-814.226536,-10362.883188,-2528.115143
897.663697,-592.164754,-9992.780217,-3294.210641
897.664021,-1776.494261,-8290.306550,-2451.505594
897.664345,-2368.659014,-9548.656652,-2757.943793
897.664669,-1258.350101,-11325.150913,-2757.943793
897.664994,74.020594,-10288.862594,-1915.238745
897.665318,222.061783,-8734.430116,229.828649
897.665642,1702.473667,-10140.821405,1225.752797
897.665966,2442.679609,-12139.377449,1455.581446
897.666290,1924.535449,-10807.006753,1991.848295
897.666614,1258.350101,-10214.842000,2987.772442
897.666939,1480.411884,-12509.480420,2681.334243
897.667263,1850.514855,-13471.748144,1455.581446
897.667587,1184.329507,-10214.842000,1991.848295
897.667911,-666.185348,-6439.791695,-306.438199
897.668235,-1702.473667,-7031.956449,-3064.381992
897.668559,-3627.009116,-9992.780217,-4519.963438
897.668883,-3627.009116,-9548.656652,-4290.134789
897.669208,-2886.803174,-9252.574275,-4290.134789
897.669532,-2516.700203,-10066.800811,-2911.162892
897.669856,-1850.514855,-9474.636058,-2221.676944
897.670180,-888.247130,-8290.306550,-1149.143247
897.670504,-740.205942,-9326.594869,-153.219100
897.670828,518.144159,-11029.068536,229.828649
897.671152,1628.453072,-10436.903782,1685.410096
897.671477,2220.617826,-10066.800811,2757.943793
897.671801,2368.659014,-11399.171507,3677.258390
897.672125,3034.844362,-11695.253884,2528.115143
897.672449,2664.741391,-9696.697840,1608.800546
897.672773,370.102971,-7920.203579,1149.143247
897.673097,-962.267725,-5921.647536,-2451.505594
897.673421,-1036.288319,-7105.977043,-4213.525239
897.673746,-2146.597232,-9030.512492,-3294.210641
897.674070,-1702.473667,-10066.800811,-4213.525239
897.674394,-1332.370696,-10436.903782,-3907.087040
897.674718,-1110.308913,-10140.821405,-1915.238745
897.675042,-444.123565,-9474.636058,-995.924147
897.675366,-592.164754,-9844.739029,-766.095498
897.675690,0.000000,-10732.986159,-383.047749
897.676015,1258.350101,-11399.171507,1838.629195
897.676339,2516.700203,-10510.924376,1532.190996
897.676663,1998.556043,-11103.089130,2757.943793
897.676987,2294.638420,-12361.439231,4136.915689
897.677311,2886.803174,-11029.068536,2451.505594
897.677635,888.247130,-8808.450710,2145.067394
897.677960,-1998.556043,-7476.080014,842.705048
897.678284,-2442.679609,-6883.915261,-3600.648841
897.678608,-2960.823768,-7994.224174,-3753.867940
897.678932,-3108.864956,-9696.697840,-2911.162892
897.679256,-1332.370696,-10584.944971,-2987.772442
897.679580,-444.123565,-10807.006753,-1685.410096
897.679904,-814.226536,-8586.388927,-995.924147
897.680229,-1184.329507,-7179.997637,-919.314598
897.680553,-1554.432478,-9622.677246,-306.438199
897.680877,370.102971,-10955.047942,0.000000
897.681201,2664.741391,-9992.780217,2451.505594
897.681525,4219.173869,-9992.780217,3753.867940
897.681849,4219.173869,-11251.130318,4366.744339
897.682173,3997.112087,-11621.233289,4290.134789
897.682498,2146.597232,-9622.677246,2604.724693
897.682822,-1850.514855,-9400.615463,689.485948
897.683146,-4071.132681,-9844.739029,-2374.896044
897.683470,-3849.070898,-9622.677246,-2298.286494
897.683794,-1998.556043,-8882.471304,-1991.848295
897.684118,-888.247130,-9696.697840,-1838.629195
897.684442,0.000000,-10066.800811,-995.924147
897.684767,740.205942,-9474.636058,-1685.410096
897.685091,-962.267725,-7105.977043,-1838.629195
897.685415,-1554.432478,-7994.224174,0.000000
897.685739,-518.144159,-9844.739029,1532.190996
897.686063,1628.453072,-11177.109724,3064.381992
897.686387,1702.473667,-10732.986159,3677.258390
897.686711,1776.494261,-9474.636058,4443.353888
897.687036,3849.070898,-10436.903782,4290.134789
897.687360,4145.153275,-10140.821405,3217.601092
897.687684,2368.659014,-8142.265362,2451.505594
897.688008,-814.226536,-7772.162391,153.219100
897.688332,-2072.576638,-8438.347739,-1149.143247
897.688656,-2516.700203,-8660.409521,-1915.238745
897.688981,-2146.597232,-8438.347739,-2604.724693
897.689305,-1850.514855,-8512.368333,-2221.676944
897.689629,-962.267725,-9474.636058,-2528.115143
897.689953,0.000000,-8956.491898,-919.314598
897.690277,296.082377,-9252.574275,0.000000
897.690601,1036.288319,-10732.986159,1072.533697
897.690925,1258.350101,-11399.171507,2068.457845
897.691250,518.144159,-11251.130318,2451.505594
897.691574,370.102971,-11103.089130,2604.724693
897.691898,1184.329507,-12361.439231,3753.867940
897.692222,1776.494261,-12361.439231,1915.238745
897.692546,148.041188,-9992.780217,1762.019645
897.692870,-1702.473667,-8808.450710,1302.362347
897.693194,-1998.556043,-7254.018232,-2374.896044
897.693519,-2664.741391,-6809.894666,-3830.477490
897.693843,-4145.153275,-8586.388927,-3370.820191
897.694167,-2072.576638,-9918.759623,-4673.182538
897.694491,0.000000,-9548.656652,-4443.353888
897.694815,-666.185348,-8290.306550,-2757.943793
897.695139,-1702.473667,-7772.162391,-2221.676944
897.695463,-666.185348,-9918.759623,-2451.505594
897.695788,1406.391290,-10732.986159,-1225.752797
897.696112,2516.700203,-9548.656652,919.314598
897.696436,3330.926739,-10584.944971,2221.676944
897.696760,2664.741391,-12139.377449,2757.943793
897.697084,2812.782580,-12435.459826,2681.334243
897.697408,2960.823768,-10214.842000,1608.800546
897.697733,148.041188,-9400.615463,229.828649
897.698057,-2368.659014,-9770.718434,-3217.601092
897.698381,-3404.947333,-9326.594869,-3524.039291
897.698705,-2590.720797,-9400.615463,-3140.991542
897.699028,-1702.473667,-10510.924376,-4443.353888
897.699352,-962.267725,-10732.986159,-3907.087040
897.699676,0.000000,-8956.491898,-3294.210641
897.700000,1184.329507,-9104.533087,-2911.162892
897.700325,592.164754,-10510.924376,-2451.505594
897.700649,296.082377,-11103.089130,-689.485948
897.700973,1110.308913,-10436.903782,1302.362347
897.701297,2072.576638,-11029.068536,2145.067394
897.701621,2220.617826,-12287.418637,2911.162892
897.701945,3256.906145,-12139.377449,2681.334243
897.702269,3256.906145,-10510.924376,2451.505594
897.702593,1258.350101,-10436.903782,2451.505594
897.702917,-222.061783,-10732.986159,1455.581446
897.703242,-740.205942,-8660.409521,-306.438199
897.703566,-2072.576638,-6883.915261,-1302.362347
897.703890,-3775.050304,-7920.203579,-1838.629195
897.704214,-2220.617826,-9844.739029,-2681.334243
897.704538,-222.061783,-9104.533087,-2604.724693
897.704862,-370.102971,-7402.059420,-1455.581446
897.705186,-1480.411884,-7328.038826,-536.266849
897.705510,-666.185348,-9326.594869,-153.219100
897.705834,222.061783,-9622.677246,536.266849
897.706158,740.205942,-9030.512492,1838.629195
897.706483,666.185348,-9696.697840,3140.991542
897.706807,2294.638420,-10881.027347,3217.601092
897.707131,2294.638420,-9770.718434,3753.867940
897.707455,740.205942,-8586.388927,3830.477490
897.707779,-1628.453072,-9696.697840,2374.896044
897.708103,-2738.761985,-9770.718434,-153.219100
897.708427,-2886.803174,-7550.100608,-919.314598
897.708751,-2738.761985,-6735.874072,-1225.752797
897.709075,-1850.514855,-8808.450710,-1685.410096
897.709400,-444.123565,-9548.656652,-1532.190996
897.709724,-222.061783,-8364.327145,-1608.800546
897.710048,-962.267725,-8142.265362,-1455.581446
897.710372,-518.144159,-9918.759623,-919.314598
897.710696,962.267725,-10955.047942,0.000000
897.711020,2368.659014,-10066.800811,1455.581446
897.711344,2812.782580,-9770.718434,2068.457845
897.711668,2886.803174,-12213.398043,1991.848295
897.711992,2886.803174,-12435.459826,2604.724693
897.712316,2738.761985,-10288.862594,2681.334243
897.712641,1850.514855,-9918.759623,2528.115143
897.712965,666.185348,-11029.068536,1608.800546
897.713289,-148.041188,-10140.821405,76.609550
897.713613,-666.185348,-8808.450710,-229.828649
897.713937,-2146.597232,-9474.636058,-1378.971896
897.714261,-2072.576638,-11251.130318,-2451.505594
897.714585,-1628.453072,-9548.656652,-2451.505594
897.714909,-1406.391290,-8512.368333,-1838.629195
897.715233,-814.226536,-9252.574275,-1685.410096
897.715557,296.082377,-10658.965565,-1532.190996
897.715882,814.226536,-10066.800811,-383.047749
897.716206,518.144159,-9918.759623,919.314598
897.716530,1628.453072,-11695.253884,1455.581446
897.716854,2368.659014,-11991.336260,1991.848295
897.717178,2812.782580,-9844.739029,1762.019645
897.717502,1554.432478,-8882.471304,2374.896044
897.717826,296.082377,-11029.068536,1838.629195
897.718150,0.000000,-11251.130318,919.314598
897.718474,-1332.370696,-7994.224174,306.438199
897.718799,-3182.885551,-6365.771101,-995.924147
897.719123,-3627.009116,-7846.182985,-2451.505594
897.719447,-2664.741391,-8364.327145,-3294.210641
897.719771,-2368.659014,-6365.771101,-2757.943793
897.720095,-2368.659014,-6439.791695,-2451.505594
897.720419,-1924.535449,-7772.162391,-2451.505594
897.720743,-592.164754,-8068.244768,-1915.238745
897.721067,0.000000,-7476.080014,-766.095498
897.721391,222.061783,-9178.553681,0.000000
897.721715,1184.329507,-11621.233289,229.828649
897.722040,2368.659014,-11695.253884,1532.190996
897.722364,2220.617826,-9770.718434,2221.676944
897.722688,2294.638420,-11325.150913,2451.505594
897.723012,2368.659014,-12805.562797,1532.190996
897.723336,1554.432478,-11473.192101,229.828649
897.723660,-592.164754,-9622.677246,-689.485948
897.723984,-2220.617826,-10362.883188,-1532.190996
897.724308,-2442.679609,-11251.130318,-2451.505594
897.724632,-2590.720797,-9844.739029,-2834.553343
897.724956,-3478.967927,-8956.491898,-2987.772442
897.725281,-2886.803174,-9844.739029,-2528.115143
897.725605,-1406.391290,-10510.924376,-2604.724693
897.725929,-222.061783,-9474.636058,-1149.143247
897.726253,370.102971,-9844.739029,0.000000
897.726577,1850.514855,-11621.233289,76.609550
897.726901,3182.885551,-11917.315666,1302.362347
897.727225,3552.988522,-10510.924376,2221.676944
897.727549,2738.761985,-10807.006753,2987.772442
897.727873,1924.535449,-11695.253884,2221.676944
897.728198,1776.494261,-11177.109724,1072.533697
897.728522,0.000000,-9400.615463,995.924147
897.728846,-962.267725,-9770.718434,229.828649
897.729170,-740.205942,-10881.027347,-842.705048
897.729494,-1406.391290,-8956.491898,-1455.581446
897.729818,-2812.782580,-7105.977043,-1225.752797
897.730142,-2886.803174,-8290.306550,-919.314598
897.730466,-1406.391290,-9474.636058,-919.314598
897.730790,-296.082377,-8068.244768,-153.219100
897.731114,-296.082377,-6957.935855,612.876398
897.731439,666.185348,-8882.471304,919.314598
897.731763,2960.823768,-10807.006753,1915.238745
897.732087,2812.782580,-9400.615463,2987.772442
897.732411,2072.576638,-8882.471304,3294.210641
897.732735,814.226536,-10214.842000,2911.162892
897.733059,296.082377,-10362.883188,1762.019645
897.733383,-740.205942,-8364.327145,842.705048
897.733707,-1628.453072,-8142.265362,689.485948
897.734031,-1184.329507,-9252.574275,0.000000
897.734356,-1036.288319,-8808.450710,0.000000
897.734680,-888.247130,-6735.874072,0.000000
897.735004,-1110.308913,-6513.812290,-459.657299
897.735328,-888.247130,-9104.533087,-919.314598
897.735652,-666.185348,-9178.553681,-995.924147
897.735976,-740.205942,-7550.100608,-459.657299
897.736300,370.102971,-8734.430116,-306.438199
897.736624,2220.617826,-11177.109724,1072.533697
897.736948,3404.947333,-11399.171507,2451.505594
897.737272,2664.741391,-10140.821405,2298.286494
897.737597,1036.288319,-10732.986159,1685.410096
897.737921,0.000000,-12287.418637,153.219100
897.738245,-592.164754,-11251.130318,0.000000
897.738569,-1702.473667,-10214.842000,0.000000
897.738893,-2146.597232,-11251.130318,-612.876398
897.739217,-962.267725,-11547.212695,-1455.581446
897.739541,-592.164754,-9696.697840,-1455.581446
897.739865,-962.267725,-9178.553681,-1302.362347
897.740189,-1332.370696,-10288.862594,-1608.800546
897.740513,-592.164754,-10658.965565,-1608.800546
897.740838,-444.123565,-9474.636058,-1072.533697
897.741162,-370.102971,-9696.697840,-612.876398
897.741486,518.144159,-10584.944971,-536.266849
897.741810,2294.638420,-10881.027347,-536.266849
897.742134,1110.308913,-9030.512492,153.219100
897.742458,74.020594,-9252.574275,536.266849
897.742782,-148.041188,-11177.109724,0.000000
897.743106,0.000000,-9770.718434,-612.876398
897.743430,-592.164754,-8142.265362,-229.828649
