#time,accel_x,accel_y,accel_z
330.747946,2516.700203,-11325.150913,229.828649
330.748270,222.061783,-11325.150913,-536.266849
330.748595,-1480.411884,-10955.047942,-383.047749
330.748919,-2516.700203,-10584.944971,-229.828649
330.749243,-3404.947333,-10214.842000,0.000000
330.749568,-4663.297435,-10066.800811,0.000000
330.749892,-4959.379811,-8068.244768,306.438199
330.750216,-3552.988522,-6587.832884,689.485948
330.750541,-1924.535449,-6365.771101,919.314598
330.750865,296.082377,-7179.997637,1838.629195
330.751189,2516.700203,-7698.141797,2145.067394
330.751513,5329.482782,-8586.388927,2451.505594
330.751838,5403.503377,-8290.306550,766.095498
330.752162,4293.194464,-10658.965565,689.485948
330.752486,2294.638420,-13619.789333,-229.828649
330.752811,1924.535449,-14656.077652,-2374.896044
330.753135,666.185348,-14211.954086,-2068.457845
330.753459,-666.185348,-13397.727550,-536.266849
330.753784,-1628.453072,-12805.562797,-1072.533697
330.754108,-2516.700203,-12213.398043,-1608.800546
330.754432,-2738.761985,-9622.677246,-536.266849
330.754757,-2072.576638,-8734.430116,-153.219100
330.755081,-962.267725,-8586.388927,-536.266849
330.755405,0.000000,-8512.368333,842.705048
330.755730,1628.453072,-8290.306550,1302.362347
330.756054,2886.803174,-7846.182985,306.438199
330.756378,1924.535449,-8216.285956,-153.219100
330.756703,74.020594,-9548.656652,-1762.019645
330.757027,-444.123565,-9622.677246,-2834.553343
330.757351,444.123565,-10436.903782,-2681.334243
330.757676,444.123565,-10584.944971,-1838.629195
330.758000,444.123565,-10510.924376,-383.047749
330.758324,1184.329507,-10658.965565,0.000000
330.758649,1554.432478,-9992.780217,612.876398
330.758973,2146.597232,-8956.491898,1149.143247
330.759297,3330.926739,-7994.224174,1225.752797
330.759622,3330.926739,-7994.224174,1762.019645
330.759946,2072.576638,-9474.636058,1455.581446
330.760270,666.185348,-9770.718434,842.705048
330.760595,-592.164754,-9474.636058,-229.828649
330.760919,-1702.473667,-9992.780217,-459.657299
330.761243,-1850.514855,-9992.780217,-919.314598
330.761568,-1480.411884,-8956.491898,-1225.752797
330.761892,-370.102971,-8364.327145,-1532.190996
330.762216,740.205942,-8438.347739,229.828649
330.762541,1776.494261,-9326.594869,842.705048
330.762865,2072.576638,-9104.533087,1685.410096
330.763189,1628.453072,-8660.409521,2221.676944
330.763514,1406.391290,-8586.388927,1685.410096
330.763838,1628.453072,-9178.553681,1378.971896
330.764162,222.061783,-9030.512492,536.266849
330.764487,-1332.370696,-9474.636058,842.705048
330.764811,-2368.659014,-9770.718434,229.828649
330.765135,-2886.803174,-9548.656652,0.000000
330.765460,-3034.844362,-9770.718434,-229.828649
330.765784,-2442.679609,-9844.739029,-229.828649
330.766108,-666.185348,-9918.759623,-229.828649
330.766432,0.000000,-9030.512492,306.438199
330.766757,1036.288319,-9770.718434,1302.362347
330.767081,1406.391290,-9918.759623,1302.362347
330.767405,2072.576638,-10807.006753,1838.629195
330.767730,1924.535449,-10732.986159,1991.848295
330.768054,518.144159,-10510.924376,1532.190996
330.768378,-962.267725,-10584.944971,766.095498
330.768703,-2664.741391,-10288.862594,0.000000
330.769027,-3182.885551,-10955.047942,-766.095498
330.769351,-3923.091493,-9548.656652,-612.876398
330.769676,-3256.906145,-9474.636058,-612.876398
330.770000,-2812.782580,-8956.491898,-383.047749
330.770324,-2072.576638,-8512.368333,-306.438199
330.770649,-666.185348,-8438.347739,-153.219100
330.770973,148.041188,-8734.430116,383.047749
330.771297,1184.329507,-9474.636058,689.485948
330.771622,2146.597232,-10214.842000,536.266849
330.771946,2442.679609,-10288.862594,842.705048
330.772270,2294.638420,-10658.965565,689.485948
330.772595,1554.432478,-10807.006753,153.219100
330.772919,740.205942,-11177.109724,-306.438199
330.773243,148.041188,-10510.924376,-995.924147
330.773568,-444.123565,-9474.636058,-1225.752797
330.773892,-592.164754,-8660.409521,-1302.362347
330.774216,-518.144159,-8290.306550,-766.095498
330.774541,592.164754,-8364.327145,-383.047749
330.774865,1184.329507,-8438.347739,-153.219100
330.775189,1554.432478,-8512.368333,0.000000
330.775514,1850.514855,-9252.574275,76.609550
330.775838,2146.597232,-9474.636058,536.266849
330.776162,2516.700203,-10214.842000,229.828649
330.776487,1998.556043,-10510.924376,-229.828649
330.776811,1184.329507,-11103.089130,-842.705048
330.777135,740.205942,-10584.944971,-766.095498
330.777460,518.144159,-10288.862594,-766.095498
330.777784,148.041188,-9918.759623,-919.314598
330.778108,296.082377,-9474.636058,-766.095498
330.778433,222.061783,-8660.409521,-536.266849
330.778757,740.205942,-8216.285956,0.000000
330.779081,740.205942,-8142.265362,76.609550
330.779406,962.267725,-9030.512492,306.438199
330.779730,370.102971,-9474.636058,383.047749
330.780054,518.144159,-9918.759623,229.828649
330.780379,296.082377,-10510.924376,229.828649
330.780703,222.061783,-10732.986159,383.047749
330.781027,-518.144159,-10584.944971,0.000000
330.781351,-1110.308913,-10214.842000,0.000000
330.781676,-1332.370696,-10288.862594,0.000000
330.782000,-1628.453072,-9918.759623,-306.438199
330.782324,-1924.535449,-9548.656652,-536.266849
330.782649,-1776.494261,-9252.574275,-383.047749
330.782973,-1702.473667,-9252.574275,0.000000
330.783297,-1480.411884,-8956.491898,0.000000
330.783622,-1258.350101,-9474.636058,76.609550
330.783946,-1258.350101,-9474.636058,76.609550
330.784270,-1332.370696,-9844.739029,0.000000
330.784595,-1332.370696,-9918.759623,0.000000
330.784919,-1480.411884,-10214.842000,0.000000
330.785243,-1480.411884,-10510.924376,-306.438199
330.785567,-1332.370696,-10140.821405,-536.266849
330.785892,-1184.329507,-10214.842000,0.000000
330.786216,-1258.350101,-9844.739029,-383.047749
330.786540,-1036.288319,-10066.800811,-612.876398
330.786865,-1036.288319,-9474.636058,-153.219100
330.787189,-814.226536,-9400.615463,-229.828649
330.787513,0.000000,-9622.677246,-383.047749
330.787838,0.000000,-9474.636058,-459.657299
330.788162,370.102971,-9474.636058,-153.219100
330.788486,222.061783,-9696.697840,-153.219100
330.788811,444.123565,-9992.780217,-536.266849
330.789135,148.041188,-9770.718434,-995.924147
330.789459,74.020594,-9844.739029,-842.705048
330.789783,148.041188,-10066.800811,-689.485948
330.790108,222.061783,-9844.739029,-612.876398
330.790432,740.205942,-9770.718434,0.000000
330.790756,962.267725,-9548.656652,229.828649
330.791081,1184.329507,-9400.615463,0.000000
330.791405,1258.350101,-9770.718434,0.000000
330.791729,1332.370696,-9548.656652,-459.657299
330.792054,1628.453072,-9770.718434,0.000000
330.792378,1406.391290,-10066.800811,0.000000
330.792702,1184.329507,-9844.739029,0.000000
330.793027,1332.370696,-9696.697840,-306.438199
330.793351,1406.391290,-9918.759623,0.000000
330.793675,1554.432478,-9474.636058,0.000000
330.794000,1628.453072,-9474.636058,153.219100
330.794324,1406.391290,-9252.574275,229.828649
330.794648,1406.391290,-9252.574275,229.828649
330.794972,1332.370696,-9326.594869,383.047749
330.795297,1258.350101,-8882.471304,689.485948
330.795621,740.205942,-8956.491898,1455.581446
330.795945,888.247130,-8956.491898,842.705048
330.796270,148.041188,-8734.430116,995.924147
330.796594,-444.123565,-9104.533087,536.266849
330.796918,-740.205942,-9474.636058,229.828649
330.797243,-814.226536,-9400.615463,459.657299
330.797567,-1036.288319,-9400.615463,536.266849
330.797891,-666.185348,-9104.533087,306.438199
330.798216,-740.205942,-9030.512492,612.876398
330.798540,-518.144159,-9178.553681,766.095498
330.798864,-444.123565,-9326.594869,689.485948
330.799188,-592.164754,-9474.636058,689.485948
330.799513,-814.226536,-9474.636058,612.876398
330.799837,-814.226536,-9622.677246,612.876398
330.800161,-1184.329507,-9474.636058,0.000000
330.800486,-1628.453072,-9844.739029,76.609550
330.800810,-1776.494261,-9548.656652,0.000000
330.801134,-2220.617826,-9474.636058,-153.219100
330.801459,-2294.638420,-9844.739029,-229.828649
330.801783,-2294.638420,-9474.636058,-383.047749
330.802107,-1850.514855,-9696.697840,0.000000
330.802432,-1332.370696,-9474.636058,0.000000
330.802756,-740.205942,-9918.759623,-306.438199
330.803080,-518.144159,-9770.718434,-229.828649
330.803404,-592.164754,-9770.718434,-459.657299
330.803729,-592.164754,-10362.883188,-536.266849
330.804053,-370.102971,-10584.944971,-766.095498
330.804377,-518.144159,-10732.986159,-766.095498
330.804702,-222.061783,-10807.006753,-1302.362347
330.805026,-296.082377,-10881.027347,-995.924147
330.805350,-296.082377,-10584.944971,-1302.362347
330.805675,0.000000,-10288.862594,-1072.533697
330.805999,222.061783,-10658.965565,-689.485948
330.806323,370.102971,-10066.800811,-1225.752797
330.806648,740.205942,-10066.800811,-1225.752797
330.806972,814.226536,-9770.718434,-995.924147
330.807296,1036.288319,-9844.739029,-919.314598
330.807621,1406.391290,-9918.759623,-842.705048
330.807945,814.226536,-9918.759623,-1225.752797
330.808269,1110.308913,-9844.739029,-842.705048
330.808593,1036.288319,-9770.718434,-995.924147
330.808918,1036.288319,-9992.780217,-919.314598
330.809242,1258.350101,-10066.800811,-612.876398
330.809566,1332.370696,-9918.759623,-919.314598
330.809891,1332.370696,-9252.574275,0.000000
330.810215,1554.432478,-9178.553681,0.000000
330.810539,1924.535449,-9178.553681,76.609550
330.810864,1850.514855,-9400.615463,0.000000
330.811188,1406.391290,-9178.553681,0.000000
330.811512,1332.370696,-9252.574275,153.219100
330.811837,962.267725,-9326.594869,76.609550
330.812161,666.185348,-9252.574275,76.609550
330.812485,740.205942,-9474.636058,306.438199
330.812809,444.123565,-9400.615463,536.266849
330.813134,0.000000,-9178.553681,459.657299
330.813458,74.020594,-9104.533087,612.876398
330.813782,-296.082377,-9030.512492,536.266849
330.814107,-296.082377,-9178.553681,536.266849
330.814431,0.000000,-9104.533087,766.095498
330.814755,-370.102971,-9178.553681,919.314598
330.815080,-296.082377,-9030.512492,842.705048
330.815404,-592.164754,-8808.450710,1149.143247
330.815728,-370.102971,-9252.574275,383.047749
330.816053,-370.102971,-9548.656652,842.705048
330.816377,-888.247130,-9548.656652,995.924147
330.816701,-1036.288319,-9844.739029,919.314598
330.817026,-962.267725,-9918.759623,842.705048
330.817350,-1036.288319,-9770.718434,689.485948
330.817674,-1110.308913,-9844.739029,612.876398
330.817998,-1628.453072,-9992.780217,766.095498
330.818323,-1480.411884,-9548.656652,766.095498
330.818647,-962.267725,-9474.636058,612.876398
330.818971,-962.267725,-9770.718434,842.705048
330.819296,-1332.370696,-9548.656652,383.047749
330.819620,-1184.329507,-9696.697840,229.828649
330.819944,-1110.308913,-9622.677246,229.828649
330.820269,-1110.308913,-9844.739029,76.609550
330.820593,-888.247130,-9844.739029,-229.828649
330.820917,-1184.329507,-9918.759623,-459.657299
330.821242,-1036.288319,-9992.780217,0.000000
330.821566,-888.247130,-9844.739029,0.000000
330.821890,-962.267725,-10214.842000,-306.438199
330.822214,-962.267725,-10510.924376,-459.657299
330.822539,-740.205942,-10288.862594,-459.657299
330.822863,-222.061783,-9992.780217,-459.657299
330.823187,74.020594,-9696.697840,-459.657299
330.823512,148.041188,-9992.780217,0.000000
330.823836,444.123565,-9992.780217,-383.047749
330.824160,814.226536,-10066.800811,-536.266849
330.824485,666.185348,-9844.739029,-919.314598
330.824809,814.226536,-9844.739029,-766.095498
330.825133,814.226536,-9622.677246,-766.095498
330.825458,962.267725,-10140.821405,-1225.752797
330.825782,888.247130,-9770.718434,-919.314598
330.826106,1036.288319,-9844.739029,-842.705048
330.826430,888.247130,-9992.780217,-919.314598
330.826755,1184.329507,-9918.759623,-842.705048
330.827079,1406.391290,-9770.718434,-689.485948
330.827403,1184.329507,-9696.697840,-536.266849
330.827728,1184.329507,-9326.594869,0.000000
330.828052,1110.308913,-9474.636058,0.000000
330.828376,814.226536,-9178.553681,-536.266849
330.828701,1184.329507,-9252.574275,0.000000
330.829025,1110.308913,-9548.656652,-229.828649
330.829349,1258.350101,-9474.636058,-306.438199
330.829674,1332.370696,-9622.677246,-229.828649
330.829998,962.267725,-9548.656652,-306.438199
330.830322,962.267725,-9474.636058,0.000000
330.830647,740.205942,-9474.636058,-306.438199
330.830971,888.247130,-9548.656652,-153.219100
330.831295,444.123565,-9326.594869,-153.219100
330.831619,296.082377,-9622.677246,0.000000
330.831944,-148.041188,-9474.636058,306.438199
330.832268,-296.082377,-9474.636058,229.828649
330.832592,-518.144159,-9326.594869,76.609550
330.832917,-518.144159,-9400.615463,536.266849
330.833241,-740.205942,-9252.574275,766.095498
330.833565,-814.226536,-9474.636058,306.438199
330.833890,-518.144159,-9326.594869,306.438199
330.834214,-1110.308913,-9548.656652,229.828649
330.834538,-1184.329507,-9696.697840,76.609550
330.834863,-1258.350101,-9844.739029,153.219100
330.835187,-962.267725,-9844.739029,689.485948
330.835511,-1406.391290,-9548.656652,76.609550
330.835835,-1406.391290,-9992.780217,459.657299
330.836160,-1406.391290,-10066.800811,76.609550
330.836484,-1480.411884,-10066.800811,76.609550
330.836808,-1628.453072,-9992.780217,306.438199
330.837133,-1554.432478,-9770.718434,306.438199
330.837457,-1406.391290,-9548.656652,306.438199
330.837781,-1110.308913,-9770.718434,229.828649
330.838106,-740.205942,-9474.636058,0.000000
330.838430,-814.226536,-10066.800811,0.000000
330.838754,-814.226536,-9992.780217,0.000000
330.839079,-814.226536,-9992.780217,0.000000
330.839403,-962.267725,-10066.800811,-383.047749
330.839727,-888.247130,-10066.800811,-459.657299
330.840051,-444.123565,-10140.821405,-306.438199
330.840376,-518.144159,-9622.677246,-459.657299
330.840700,-444.123565,-9770.718434,-612.876398
330.841024,74.020594,-9548.656652,-153.219100
330.841349,296.082377,-10066.800811,-459.657299
330.841673,518.144159,-9696.697840,-383.047749
330.841997,740.205942,-9992.780217,-306.438199
330.842322,740.205942,-9844.739029,-459.657299
330.842646,666.185348,-9474.636058,-229.828649
330.842970,1036.288319,-9622.677246,-689.485948
330.843295,814.226536,-9918.759623,-766.095498
330.843619,1184.329507,-10066.800811,-383.047749
330.843943,888.247130,-9770.718434,-459.657299
330.844268,962.267725,-9548.656652,-919.314598
330.844592,962.267725,-9622.677246,-689.485948
330.844916,1406.391290,-9622.677246,-383.047749
330.845240,1406.391290,-9622.677246,-306.438199
330.845565,1998.556043,-9474.636058,-229.828649
330.845889,1924.535449,-9548.656652,-153.219100
330.846213,1998.556043,-9252.574275,0.000000
330.846538,1850.514855,-9474.636058,0.000000
330.846862,1702.473667,-9770.718434,76.609550
330.847186,1554.432478,-9474.636058,383.047749
330.847511,1406.391290,-9474.636058,229.828649
330.847835,666.185348,-9474.636058,76.609550
330.848159,740.205942,-9770.718434,0.000000
330.848484,518.144159,-9622.677246,0.000000
330.848808,666.185348,-9400.615463,153.219100
330.849132,444.123565,-9548.656652,153.219100
330.849456,444.123565,-9474.636058,459.657299
330.849781,444.123565,-9400.615463,919.314598
330.850105,74.020594,-9178.553681,919.314598
330.850429,0.000000,-9326.594869,919.314598
330.850754,-296.082377,-9252.574275,612.876398
330.851078,-814.226536,-9326.594869,459.657299
330.851402,-1036.288319,-9400.615463,306.438199
330.851727,-1258.350101,-9252.574275,229.828649
330.852051,-1480.411884,-9474.636058,459.657299
330.852375,-1554.432478,-9548.656652,842.705048
330.852700,-1480.411884,-9474.636058,1149.143247
330.853024,-1776.494261,-9770.718434,612.876398
330.853348,-1628.453072,-9548.656652,536.266849
330.853672,-1776.494261,-9548.656652,536.266849
330.853997,-1628.453072,-9844.739029,766.095498
330.854321,-1406.391290,-9622.677246,842.705048
330.854645,-1480.411884,-9252.574275,689.485948
330.854970,-1332.370696,-9178.553681,383.047749
330.855294,-1480.411884,-9252.574275,0.000000
330.855618,-1258.350101,-9918.759623,0.000000
330.855943,-1332.370696,-9918.759623,-536.266849
330.856267,-1554.432478,-9770.718434,-612.876398
330.856591,-1480.411884,-10066.800811,-612.876398
330.856916,-1332.370696,-10140.821405,-842.705048
330.857240,-1258.350101,-9844.739029,-536.266849
330.857564,-1184.329507,-10140.821405,-536.266849
330.857889,-888.247130,-9918.759623,-612.876398
330.858213,-370.102971,-9622.677246,-459.657299
330.858537,74.020594,-10066.800811,-383.047749
330.858861,444.123565,-9992.780217,-536.266849
330.859186,592.164754,-9992.780217,-689.485948
330.859510,1036.288319,-10066.800811,-689.485948
330.859834,1184.329507,-9844.739029,-383.047749
330.860159,962.267725,-9844.739029,-919.314598
330.860483,888.247130,-9770.718434,-766.095498
330.860807,888.247130,-9770.718434,-1149.143247
330.861132,1184.329507,-10214.842000,-995.924147
330.861456,1406.391290,-10140.821405,-1149.143247
330.861780,1480.411884,-10066.800811,-919.314598
330.862105,1480.411884,-9918.759623,-766.095498
330.862429,1554.432478,-10066.800811,-459.657299
330.862753,2220.617826,-10066.800811,-459.657299
330.863077,1850.514855,-9696.697840,0.000000
330.863402,1776.494261,-9548.656652,0.000000
330.863726,1776.494261,-9696.697840,-306.438199
330.864050,1776.494261,-9696.697840,153.219100
330.864375,1628.453072,-9622.677246,-153.219100
330.864699,1184.329507,-9030.512492,-153.219100
330.865023,1406.391290,-9622.677246,0.000000
330.865348,888.247130,-9104.533087,-306.438199
330.865672,740.205942,-9252.574275,-153.219100
330.865996,444.123565,-9474.636058,229.828649
330.866321,370.102971,-9474.636058,229.828649
330.866645,74.020594,-9400.615463,612.876398
330.866969,-148.041188,-9400.615463,459.657299
330.867294,0.000000,-9104.533087,1072.533697
330.867618,-1184.329507,-9252.574275,919.314598
330.867942,-370.102971,-9474.636058,1302.362347
330.868266,-962.267725,-9548.656652,995.924147
330.868591,-1036.288319,-9400.615463,995.924147
330.868915,-1332.370696,-9252.574275,842.705048
330.869239,-1332.370696,-9178.553681,689.485948
330.869564,-1406.391290,-9474.636058,842.705048
330.869888,-1480.411884,-9252.574275,383.047749
330.870212,-1480.411884,-9622.677246,-153.219100
330.870537,-1258.350101,-9770.718434,689.485948
330.870861,-1554.432478,-9622.677246,536.266849
330.871185,-1702.473667,-9622.677246,689.485948
330.871510,-1924.535449,-9548.656652,229.828649
330.871834,-1998.556043,-9622.677246,459.657299
330.872158,-2146.597232,-9474.636058,459.657299
330.872482,-1776.494261,-9474.636058,383.047749
330.872807,-1776.494261,-9844.739029,229.828649
330.873131,-1110.308913,-9844.739029,153.219100
330.873455,-1036.288319,-9770.718434,0.000000
330.873780,-962.267725,-9770.718434,-229.828649
330.874104,-888.247130,-9770.718434,-383.047749
330.874428,-740.205942,-9918.759623,-612.876398
330.874753,-666.185348,-10066.800811,-612.876398
330.875077,0.000000,-10732.986159,-689.485948
330.875401,148.041188,-10807.006753,-689.485948
330.875726,0.000000,-10510.924376,-995.924147
330.876050,296.082377,-10584.944971,-536.266849
330.876374,444.123565,-10362.883188,-842.705048
330.876698,444.123565,-10140.821405,-383.047749
330.877023,814.226536,-9992.780217,-536.266849
330.877347,1110.308913,-9400.615463,-459.657299
330.877671,1110.308913,-9548.656652,-689.485948
330.877996,1184.329507,-9918.759623,-1225.752797
330.878320,1110.308913,-9992.780217,-842.705048
330.878644,1184.329507,-10066.800811,-842.705048
330.878969,1258.350101,-9622.677246,-1149.143247
330.879293,1628.453072,-9918.759623,-766.095498
330.879617,1702.473667,-9844.739029,-842.705048
330.879942,1628.453072,-9844.739029,-995.924147
330.880266,1406.391290,-9622.677246,-1225.752797
330.880590,1554.432478,-9770.718434,-612.876398
330.880915,1332.370696,-9474.636058,-689.485948
330.881239,1480.411884,-9400.615463,-229.828649
330.881563,1480.411884,-8956.491898,-306.438199
330.881887,1406.391290,-8882.471304,153.219100
330.882212,962.267725,-8956.491898,-153.219100
330.882536,1110.308913,-8808.450710,0.000000
330.882860,518.144159,-9326.594869,153.219100
330.883184,592.164754,-9400.615463,0.000000
330.883509,296.082377,-9474.636058,0.000000
330.883833,74.020594,-9178.553681,229.828649
330.884157,0.000000,-9178.553681,0.000000
330.884481,0.000000,-8956.491898,153.219100
330.884806,-148.041188,-8956.491898,459.657299
330.885130,-222.061783,-9252.574275,459.657299
330.885454,-296.082377,-9326.594869,459.657299
330.885778,-666.185348,-9104.533087,612.876398
330.886103,-962.267725,-9252.574275,459.657299
330.886427,-962.267725,-9252.574275,995.924147
330.886751,-740.205942,-9474.636058,1225.752797
330.887075,-666.185348,-9696.697840,536.266849
330.887400,-814.226536,-9770.718434,229.828649
330.887724,-1332.370696,-9622.677246,689.485948
330.888048,-1554.432478,-9696.697840,459.657299
330.888372,-1554.432478,-9622.677246,612.876398
330.888697,-1554.432478,-9992.780217,842.705048
330.889021,-1924.535449,-9474.636058,766.095498
330.889345,-1628.453072,-10214.842000,766.095498
330.889669,-1776.494261,-9622.677246,0.000000
330.889994,-1184.329507,-9548.656652,306.438199
330.890318,-1036.288319,-9918.759623,229.828649
330.890642,-1110.308913,-9918.759623,0.000000
330.890966,-1184.329507,-9844.739029,153.219100
330.891291,-1258.350101,-9622.677246,229.828649
330.891615,-814.226536,-9770.718434,76.609550
330.891939,-814.226536,-9918.759623,-229.828649
330.892263,-666.185348,-9992.780217,-306.438199
330.892588,-888.247130,-10362.883188,-459.657299
330.892912,-592.164754,-10288.862594,-766.095498
330.893236,-592.164754,-10214.842000,-459.657299
330.893560,-296.082377,-10214.842000,-383.047749
330.893885,296.082377,-10510.924376,-153.219100
330.894209,222.061783,-9992.780217,-612.876398
330.894533,962.267725,-9548.656652,-536.266849
330.894858,1036.288319,-9844.739029,-842.705048
330.895182,740.205942,-9918.759623,-612.876398
330.895506,740.205942,-9770.718434,-383.047749
330.895830,666.185348,-9770.718434,-536.266849
330.896155,1036.288319,-9326.594869,-459.657299
330.896479,1184.329507,-9992.780217,-612.876398
330.896803,1258.350101,-9770.718434,-536.266849
330.897127,1332.370696,-9622.677246,-919.314598
330.897452,1480.411884,-9474.636058,-689.485948
330.897776,1258.350101,-9474.636058,-229.828649
330.898100,1110.308913,-9548.656652,-459.657299
330.898424,1332.370696,-9474.636058,-153.219100
330.898749,1110.308913,-9178.553681,383.047749
330.899073,1776.494261,-9548.656652,-229.828649
330.899397,2146.597232,-9622.677246,-153.219100
330.899721,1406.391290,-9474.636058,-612.876398
330.900046,1258.350101,-9474.636058,0.000000
330.900370,1036.288319,-9474.636058,0.000000
330.900694,740.205942,-9622.677246,0.000000
330.901018,518.144159,-9622.677246,153.219100
330.901343,592.164754,-9326.594869,76.609550
330.901667,222.061783,-9178.553681,-919.314598
330.901991,0.000000,-8808.450710,0.000000
330.902315,0.000000,-9474.636058,76.609550
330.902640,0.000000,-9474.636058,459.657299
330.902964,-370.102971,-9178.553681,383.047749
330.903288,-666.185348,-9252.574275,153.219100
330.903612,-1184.329507,-9178.553681,0.000000
330.903937,-888.247130,-9252.574275,689.485948
330.904261,-592.164754,-9474.636058,612.876398
330.904585,-888.247130,-9548.656652,689.485948
330.904909,-1110.308913,-9474.636058,383.047749
330.905234,-1480.411884,-9548.656652,306.438199
330.905558,-1554.432478,-9622.677246,306.438199
330.905882,-1406.391290,-9622.677246,229.828649
330.906206,-1184.329507,-9474.636058,536.266849
330.906531,-1258.350101,-9844.739029,229.828649
330.906855,-1184.329507,-9918.759623,229.828649
330.907179,-1258.350101,-9844.739029,306.438199
330.907503,-1258.350101,-9918.759623,612.876398
330.907828,-1332.370696,-9844.739029,153.219100
330.908152,-1554.432478,-9844.739029,76.609550
330.908476,-1480.411884,-9474.636058,0.000000
330.908801,-2072.576638,-9474.636058,383.047749
330.909125,-1924.535449,-9918.759623,0.000000
330.909449,-1258.350101,-9844.739029,-383.047749
330.909773,-1110.308913,-9918.759623,-306.438199
330.910098,-1036.288319,-9770.718434,-306.438199
330.910422,-888.247130,-9770.718434,-383.047749
330.910746,-444.123565,-9696.697840,-536.266849
330.911070,0.000000,-9844.739029,-766.095498
330.911395,370.102971,-9992.780217,-153.219100
330.911719,370.102971,-9770.718434,-383.047749
330.912043,518.144159,-10066.800811,-383.047749
330.912367,1036.288319,-10066.800811,-459.657299
330.912692,888.247130,-9770.718434,-612.876398
330.913016,962.267725,-10066.800811,-229.828649
330.913340,666.185348,-9844.739029,-766.095498
330.913664,962.267725,-9844.739029,-612.876398
330.913989,1036.288319,-9696.697840,-383.047749
330.914313,1036.288319,-10066.800811,-612.876398
330.914637,888.247130,-9696.697840,-612.876398
330.914961,1258.350101,-9622.677246,-766.095498
330.915286,1184.329507,-9548.656652,-536.266849
330.915610,1702.473667,-9252.574275,-306.438199
330.915934,2072.576638,-9696.697840,0.000000
330.916258,1776.494261,-9326.594869,0.000000
330.916583,1924.535449,-9548.656652,-383.047749
330.916907,1850.514855,-9474.636058,0.000000
330.917231,1924.535449,-9696.697840,0.000000
330.917555,1702.473667,-9474.636058,0.000000
330.917880,1702.473667,-9548.656652,0.000000
330.918204,1628.453072,-9400.615463,0.000000
330.918528,1702.473667,-10140.821405,0.000000
330.918852,814.226536,-9474.636058,229.828649
330.919177,296.082377,-9548.656652,459.657299
330.919501,296.082377,-9474.636058,459.657299
330.919825,222.061783,-9400.615463,612.876398
330.920149,0.000000,-9400.615463,536.266849
330.920474,222.061783,-9178.553681,689.485948
330.920798,-592.164754,-9030.512492,995.924147
330.921122,-888.247130,-9252.574275,689.485948
330.921447,-888.247130,-9030.512492,1072.533697
330.921771,-1036.288319,-9252.574275,842.705048
330.922095,-962.267725,-9548.656652,689.485948
330.922419,-1110.308913,-9474.636058,383.047749
330.922744,-1406.391290,-9400.615463,459.657299
330.923068,-1850.514855,-9252.574275,612.876398
330.923392,-1924.535449,-9326.594869,536.266849
330.923716,-1480.411884,-9622.677246,766.095498
330.924041,-1924.535449,-9844.739029,459.657299
330.924365,-1998.556043,-9622.677246,689.485948
330.924689,-1776.494261,-9548.656652,459.657299
330.925013,-1702.473667,-9622.677246,612.876398
330.925338,-1258.350101,-9844.739029,536.266849
330.925662,-1110.308913,-9474.636058,766.095498
330.925986,-1110.308913,-9844.739029,842.705048
330.926310,-1184.329507,-9696.697840,0.000000
330.926635,-1184.329507,-9844.739029,76.609550
330.926959,-1184.329507,-9992.780217,-306.438199
330.927283,-1110.308913,-10214.842000,-383.047749
330.927607,-1110.308913,-9992.780217,-229.828649
330.927932,-888.247130,-10140.821405,-919.314598
330.928256,-1184.329507,-9622.677246,-689.485948
330.928580,-888.247130,-9696.697840,-612.876398
330.928904,-666.185348,-9844.739029,-612.876398
330.929229,0.000000,-10066.800811,-536.266849
330.929553,296.082377,-10066.800811,-842.705048
330.929877,814.226536,-9918.759623,-536.266849
330.930201,888.247130,-9770.718434,-306.438199
330.930526,1554.432478,-9992.780217,-459.657299
330.930850,1406.391290,-10066.800811,-766.095498
330.931174,888.247130,-9770.718434,-1608.800546
330.931498,1110.308913,-10066.800811,-1302.362347
330.931823,1258.350101,-10066.800811,-1149.143247
330.932147,1184.329507,-9844.739029,-1225.752797
330.932471,1702.473667,-10140.821405,-459.657299
330.932795,2072.576638,-10066.800811,-1072.533697
330.933120,2146.597232,-9696.697840,-1302.362347
330.933444,2072.576638,-9400.615463,-306.438199
330.933768,1924.535449,-9622.677246,-383.047749
330.934092,1924.535449,-9696.697840,-459.657299
330.934417,1702.473667,-9326.594869,-306.438199
330.934741,1554.432478,-9548.656652,0.000000
330.935065,1332.370696,-9770.718434,0.000000
330.935390,1924.535449,-9992.780217,153.219100
330.935714,1406.391290,-9548.656652,76.609550
330.936038,962.267725,-9178.553681,-383.047749
330.936362,814.226536,-9400.615463,-229.828649
330.936687,444.123565,-9326.594869,76.609550
330.937011,222.061783,-9474.636058,229.828649
330.937335,0.000000,-9326.594869,229.828649
330.937659,-148.041188,-8882.471304,459.657299
330.937984,-296.082377,-8808.450710,612.876398
330.938308,0.000000,-9400.615463,766.095498
330.938632,-148.041188,-9400.615463,612.876398
330.938956,-666.185348,-9400.615463,842.705048
330.939281,-1184.329507,-9326.594869,689.485948
330.939605,-1332.370696,-9474.636058,689.485948
330.939929,-1628.453072,-9252.574275,459.657299
330.940253,-1406.391290,-9252.574275,689.485948
330.940578,-1554.432478,-9474.636058,306.438199
330.940902,-1480.411884,-9696.697840,459.657299
330.941226,-1850.514855,-9474.636058,383.047749
330.941550,-2146.597232,-9326.594869,383.047749
330.941875,-2294.638420,-9326.594869,306.438199
330.942199,-2146.597232,-9252.574275,0.000000
330.942523,-2146.597232,-9326.594869,536.266849
330.942847,-2220.617826,-9474.636058,0.000000
330.943172,-1702.473667,-9622.677246,76.609550
330.943496,-1554.432478,-9696.697840,76.609550
330.943820,-1628.453072,-9696.697840,76.609550
330.944144,-1480.411884,-9992.780217,0.000000
330.944469,-1406.391290,-10140.821405,-153.219100
330.944793,-1110.308913,-10140.821405,-153.219100
330.945117,-1258.350101,-9992.780217,153.219100
330.945441,-592.164754,-10436.903782,0.000000
330.945766,-1110.308913,-10140.821405,-689.485948
330.946090,-444.123565,-10214.842000,-306.438199
330.946414,222.061783,-10288.862594,-383.047749
330.946738,592.164754,-10140.821405,-383.047749
330.947063,1036.288319,-10066.800811,-153.219100
330.947387,1258.350101,-10214.842000,-536.266849
330.947711,1036.288319,-9696.697840,-1072.533697
330.948036,888.247130,-9770.718434,-995.924147
330.948360,814.226536,-9770.718434,-1225.752797
330.948684,962.267725,-9918.759623,-1302.362347
330.949008,814.226536,-10140.821405,-842.705048
330.949333,962.267725,-9918.759623,-766.095498
330.949657,1184.329507,-9992.780217,-995.924147
330.949981,1702.473667,-10066.800811,-153.219100
330.950305,1776.494261,-9548.656652,76.609550
330.950630,2146.597232,-9548.656652,-306.438199
330.950954,2368.659014,-9474.636058,-306.438199
330.951278,1850.514855,-9326.594869,0.000000
330.951602,1924.535449,-9474.636058,-76.609550
330.951927,1924.535449,-9548.656652,-153.219100
330.952251,1554.432478,-9548.656652,0.000000
330.952575,1998.556043,-9548.656652,-536.266849
330.952899,1628.453072,-9474.636058,0.000000
330.953224,962.267725,-9474.636058,-306.438199
330.953548,222.061783,-9252.574275,0.000000
330.953872,74.020594,-9622.677246,459.657299
330.954196,222.061783,-9326.594869,459.657299
330.954521,-222.061783,-9252.574275,306.438199
330.954845,-148.041188,-8808.450710,229.828649
330.955169,0.000000,-8956.491898,612.876398
330.955493,0.000000,-9104.533087,536.266849
330.955818,-222.061783,-9326.594869,306.438199
330.956142,-370.102971,-9252.574275,383.047749
330.956466,-1036.288319,-8734.430116,536.266849
330.956790,-444.123565,-9548.656652,459.657299
330.957115,-740.205942,-9548.656652,229.828649
330.957439,-592.164754,-9696.697840,689.485948
330.957763,-740.205942,-9770.718434,153.219100
330.958087,-1036.288319,-9696.697840,536.266849
330.958412,-1184.329507,-9918.759623,383.047749
330.958736,-1554.432478,-9918.759623,383.047749
330.959060,-1406.391290,-9918.759623,689.485948
330.959384,-1480.411884,-9992.780217,536.266849
330.959709,-1332.370696,-9918.759623,459.657299
330.960033,-1406.391290,-9622.677246,612.876398
330.960357,-1332.370696,-9696.697840,306.438199
330.960681,-1554.432478,-9548.656652,306.438199
330.961006,-1628.453072,-9400.615463,306.438199
330.961330,-1332.370696,-9548.656652,153.219100
330.961654,-1036.288319,-9622.677246,-229.828649
330.961979,-1332.370696,-9770.718434,-459.657299
330.962303,-1110.308913,-9918.759623,-306.438199
330.962627,-1110.308913,-10288.862594,-383.047749
330.962951,-888.247130,-10066.800811,-306.438199
330.963276,-592.164754,-9844.739029,-536.266849
330.963600,-444.123565,-10362.883188,76.609550
330.963924,-444.123565,-9992.780217,0.000000
330.964248,296.082377,-9918.759623,-306.438199
330.964573,370.102971,-10140.821405,-383.047749
330.964897,592.164754,-9770.718434,-383.047749
330.965221,666.185348,-9918.759623,-459.657299
330.965545,740.205942,-9770.718434,-612.876398
330.965870,888.247130,-9474.636058,-842.705048
330.966194,370.102971,-9844.739029,-536.266849
330.966518,222.061783,-9770.718434,-995.924147
330.966842,370.102971,-9918.759623,-919.314598
330.967167,888.247130,-10066.800811,-1072.533697
330.967491,1110.308913,-9622.677246,-612.876398
330.967815,1332.370696,-9622.677246,-766.095498
330.968139,1702.473667,-9474.636058,-536.266849
330.968464,1850.514855,-9474.636058,-153.219100
330.968788,1628.453072,-9474.636058,-306.438199
330.969112,1628.453072,-9474.636058,-153.219100
330.969436,1480.411884,-9400.615463,-153.219100
330.969761,1702.473667,-9474.636058,-153.219100
330.970085,1628.453072,-9622.677246,-153.219100
330.970409,1702.473667,-9770.718434,0.000000
330.970733,1258.350101,-9474.636058,0.000000
330.971058,1332.370696,-9622.677246,0.000000
330.971382,814.226536,-9474.636058,-153.219100
330.971706,518.144159,-9622.677246,76.609550
330.972030,444.123565,-9474.636058,0.000000
330.972355,296.082377,-9474.636058,153.219100
330.972679,296.082377,-9030.512492,536.266849
330.973003,296.082377,-9400.615463,306.438199
330.973327,148.041188,-9474.636058,919.314598
330.973652,-148.041188,-8882.471304,459.657299
330.973976,-518.144159,-9178.553681,459.657299
330.974300,-666.185348,-9252.574275,306.438199
330.974624,-592.164754,-9178.553681,153.219100
330.974949,-814.226536,-9548.656652,306.438199
330.975273,-962.267725,-9474.636058,383.047749
330.975597,-740.205942,-9548.656652,612.876398
330.975922,-962.267725,-9474.636058,612.876398
330.976246,-888.247130,-9474.636058,229.828649
330.976570,-1406.391290,-9696.697840,153.219100
330.976894,-1406.391290,-9770.718434,229.828649
330.977219,-1480.411884,-10140.821405,306.438199
330.977543,-1702.473667,-9770.718434,383.047749
330.977867,-1628.453072,-9844.739029,612.876398
330.978191,-1554.432478,-9622.677246,612.876398
330.978516,-1628.453072,-9474.636058,383.047749
330.978840,-1406.391290,-9770.718434,229.828649
330.979164,-1554.432478,-9918.759623,153.219100
330.979488,-1554.432478,-9844.739029,-229.828649
330.979813,-1480.411884,-9696.697840,-306.438199
330.980137,-1628.453072,-9622.677246,0.000000
330.980461,-1184.329507,-10066.800811,0.000000
330.980785,-1036.288319,-9918.759623,-229.828649
330.981110,-1110.308913,-10288.862594,-229.828649
330.981434,-888.247130,-10362.883188,-689.485948
330.981758,-592.164754,-10288.862594,-383.047749
330.982082,0.000000,-10214.842000,-383.047749
330.982406,222.061783,-9770.718434,-306.438199
330.982730,592.164754,-10214.842000,-612.876398
330.983054,888.247130,-10214.842000,-229.828649
330.983378,1036.288319,-9770.718434,-459.657299
330.983702,518.144159,-9474.636058,-459.657299
330.984026,592.164754,-9992.780217,-766.095498
330.984350,740.205942,-9918.759623,-536.266849
330.984674,814.226536,-9696.697840,-766.095498
330.984999,888.247130,-9696.697840,-766.095498
330.985323,1184.329507,-9474.636058,-766.095498
330.985647,1406.391290,-9844.739029,-1225.752797
330.985971,1554.432478,-9252.574275,-842.705048
330.986295,1554.432478,-9770.718434,-459.657299
330.986619,1332.370696,-9474.636058,-536.266849
330.986943,1258.350101,-9400.615463,-383.047749
330.987267,1480.411884,-9400.615463,-153.219100
330.987591,1332.370696,-9326.594869,0.000000
330.987915,2072.576638,-9918.759623,0.000000
330.988239,2368.659014,-9474.636058,229.828649
330.988563,1480.411884,-9400.615463,76.609550
330.988887,1406.391290,-9474.636058,229.828649
330.989211,1258.350101,-9696.697840,0.000000
330.989535,814.226536,-9622.677246,0.000000
330.989859,666.185348,-9326.594869,612.876398
330.990183,592.164754,-9178.553681,306.438199
330.990507,370.102971,-9104.533087,612.876398
330.990832,370.102971,-9030.512492,612.876398
330.991156,74.020594,-9252.574275,536.266849
330.991480,0.000000,-9400.615463,536.266849
330.991804,-222.061783,-9474.636058,459.657299
330.992128,-666.185348,-9326.594869,919.314598
330.992452,-518.144159,-9326.594869,536.266849
330.992776,-1036.288319,-9326.594869,612.876398
330.993100,-1184.329507,-9178.553681,536.266849
330.993424,-1184.329507,-9252.574275,842.705048
330.993748,-1332.370696,-9474.636058,536.266849
330.994072,-1184.329507,-9622.677246,536.266849
330.994396,-1332.370696,-9844.739029,612.876398
330.994720,-1850.514855,-9326.594869,229.828649
330.995044,-1258.350101,-10066.800811,306.438199
330.995368,-1628.453072,-9548.656652,153.219100
330.995692,-1776.494261,-9918.759623,536.266849
330.996016,-1924.535449,-10140.821405,229.828649
330.996341,-1184.329507,-10066.800811,-229.828649
330.996665,-1406.391290,-10140.821405,76.609550
330.996989,-1554.432478,-9844.739029,0.000000
330.997313,-1776.494261,-9918.759623,0.000000
330.997637,-1554.432478,-9918.759623,0.000000
330.997961,-1332.370696,-9992.780217,-383.047749
330.998285,-1258.350101,-10140.821405,0.000000
330.998609,-814.226536,-10510.924376,-306.438199
330.998933,-888.247130,-10288.862594,0.000000
330.999257,-962.267725,-10214.842000,-689.485948
330.999581,-962.267725,-10140.821405,-536.266849
330.999905,-296.082377,-10140.821405,-536.266849
331.000229,74.020594,-10214.842000,-536.266849
331.000553,148.041188,-9844.739029,-1225.752797
331.000877,888.247130,-9918.759623,-612.876398
331.001201,222.061783,-9696.697840,-995.924147
331.001525,814.226536,-9918.759623,-689.485948
331.001850,888.247130,-9918.759623,-919.314598
331.002174,1110.308913,-9992.780217,-766.095498
331.002498,1036.288319,-9770.718434,-995.924147
331.002822,1184.329507,-9844.739029,-1149.143247
331.003146,1480.411884,-9548.656652,-153.219100
331.003470,1628.453072,-9696.697840,-306.438199
331.003794,1998.556043,-9844.739029,-1149.143247
331.004118,1998.556043,-9770.718434,-536.266849
331.004442,1628.453072,-9474.636058,-536.266849
331.004766,1702.473667,-9622.677246,-306.438199
331.005090,1184.329507,-9474.636058,-306.438199
331.005414,1702.473667,-9326.594869,-612.876398
331.005738,1258.350101,-9400.615463,-766.095498
331.006062,1628.453072,-9104.533087,0.000000
331.006386,1258.350101,-9400.615463,0.000000
331.006710,1258.350101,-9400.615463,76.609550
331.007034,1258.350101,-9400.615463,76.609550
331.007358,1036.288319,-9326.594869,0.000000
331.007683,518.144159,-8956.491898,-153.219100
331.008007,740.205942,-9252.574275,153.219100
331.008331,518.144159,-9104.533087,153.219100
331.008655,74.020594,-9474.636058,459.657299
331.008979,0.000000,-9252.574275,306.438199
331.009303,-222.061783,-9622.677246,536.266849
331.009627,-666.185348,-9474.636058,459.657299
331.009951,-740.205942,-9400.615463,612.876398
331.010275,-888.247130,-9400.615463,995.924147
331.010599,-592.164754,-9474.636058,459.657299
331.010923,-1184.329507,-9252.574275,919.314598
331.011247,-1332.370696,-9326.594869,383.047749
331.011571,-1332.370696,-9474.636058,612.876398
331.011895,-1776.494261,-9474.636058,612.876398
331.012219,-1776.494261,-9474.636058,383.047749
331.012543,-2072.576638,-9104.533087,383.047749
331.012867,-1998.556043,-9474.636058,76.609550
331.013192,-2146.597232,-9622.677246,689.485948
331.013516,-2072.576638,-9844.739029,306.438199
331.013840,-2146.597232,-9696.697840,0.000000
331.014164,-2072.576638,-10066.800811,0.000000
331.014488,-1776.494261,-9918.759623,76.609550
331.014812,-1850.514855,-10436.903782,153.219100
331.015136,-1554.432478,-10066.800811,76.609550
331.015460,-1258.350101,-9918.759623,-306.438199
331.015784,-962.267725,-9770.718434,0.000000
331.016108,-814.226536,-10584.944971,-306.438199
331.016432,-814.226536,-10140.821405,-459.657299
331.016756,-592.164754,-10362.883188,-766.095498
331.017080,-518.144159,-9992.780217,-612.876398
331.017404,0.000000,-9770.718434,-842.705048
331.017728,148.041188,-10066.800811,-536.266849
331.018052,444.123565,-9992.780217,-153.219100
331.018376,444.123565,-9770.718434,-536.266849
331.018701,0.000000,-9696.697840,-612.876398
331.019025,518.144159,-9770.718434,-766.095498
331.019349,814.226536,-10140.821405,-689.485948
331.019673,1036.288319,-10066.800811,-689.485948
331.019997,888.247130,-9696.697840,-459.657299
331.020321,962.267725,-9400.615463,-536.266849
331.020645,1258.350101,-9918.759623,-459.657299
331.020969,1702.473667,-9548.656652,-306.438199
331.021293,2220.617826,-9548.656652,-689.485948
331.021617,2146.597232,-9474.636058,-612.876398
331.021941,2072.576638,-9474.636058,-612.876398
331.022265,2146.597232,-9474.636058,-383.047749
331.022589,1776.494261,-9252.574275,-459.657299
331.022913,1924.535449,-9326.594869,0.000000
331.023237,1480.411884,-9252.574275,-153.219100
331.023561,1332.370696,-9474.636058,-229.828649
331.023885,1110.308913,-9474.636058,0.000000
331.024210,814.226536,-9474.636058,0.000000
331.024534,666.185348,-9252.574275,153.219100
331.024858,592.164754,-9030.512492,0.000000
331.025182,814.226536,-8882.471304,306.438199
331.025506,518.144159,-8956.491898,153.219100
331.025830,444.123565,-8882.471304,459.657299
331.026154,444.123565,-9030.512492,536.266849
331.026478,74.020594,-9178.553681,536.266849
331.026802,0.000000,-9400.615463,229.828649
331.027126,-518.144159,-9178.553681,919.314598
331.027450,-518.144159,-9326.594869,383.047749
331.027774,-296.082377,-9770.718434,536.266849
331.028098,-740.205942,-9548.656652,383.047749
331.028422,-814.226536,-9696.697840,383.047749
331.028746,-1184.329507,-9400.615463,536.266849
331.029070,-1184.329507,-9844.739029,689.485948
331.029394,-1332.370696,-9918.759623,459.657299
331.029718,-1702.473667,-9770.718434,612.876398
331.030043,-1776.494261,-9622.677246,536.266849
331.030367,-1332.370696,-9992.780217,536.266849
331.030691,-1258.350101,-9548.656652,76.609550
331.031015,-1258.350101,-9548.656652,459.657299
331.031339,-1702.473667,-9844.739029,0.000000
331.031663,-1702.473667,-9696.697840,153.219100
331.031987,-1332.370696,-9622.677246,76.609550
331.032311,-1406.391290,-9622.677246,0.000000
331.032635,-1480.411884,-9918.759623,-153.219100
331.032959,-1332.370696,-10066.800811,153.219100
331.033283,-1184.329507,-10214.842000,153.219100
331.033607,-1554.432478,-10214.842000,0.000000
331.033931,-1184.329507,-10066.800811,-153.219100
331.034255,-1110.308913,-10066.800811,-306.438199
331.034579,-592.164754,-10140.821405,0.000000
331.034903,-444.123565,-9992.780217,-229.828649
331.035227,-222.061783,-9992.780217,-536.266849
331.035552,518.144159,-9918.759623,-612.876398
331.035876,592.164754,-9474.636058,-383.047749
331.036200,740.205942,-9770.718434,-536.266849
331.036524,740.205942,-9992.780217,-995.924147
331.036848,740.205942,-10214.842000,-842.705048
331.037172,592.164754,-10066.800811,-842.705048
331.037496,1184.329507,-9992.780217,-1149.143247
331.037820,888.247130,-9548.656652,-383.047749
331.038144,1036.288319,-9548.656652,-842.705048
331.038468,1258.350101,-10066.800811,-536.266849
331.038792,1258.350101,-9696.697840,-536.266849
331.039116,1332.370696,-9474.636058,-459.657299
331.039440,1406.391290,-9474.636058,-383.047749
331.039764,1480.411884,-9326.594869,-766.095498
331.040088,1628.453072,-9548.656652,-536.266849
331.040412,2146.597232,-9622.677246,153.219100
331.040736,1776.494261,-9326.594869,0.000000
331.041061,1406.391290,-9326.594869,-306.438199
331.041385,1628.453072,-9548.656652,-153.219100
331.041709,1776.494261,-9622.677246,-153.219100
331.042033,1702.473667,-9548.656652,-383.047749
331.042357,1480.411884,-9400.615463,0.000000
331.042681,740.205942,-8882.471304,459.657299
331.043005,592.164754,-9474.636058,536.266849
331.043329,148.041188,-9400.615463,76.609550
331.043653,0.000000,-9474.636058,153.219100
331.043977,-148.041188,-9474.636058,306.438199
331.044301,-148.041188,-9548.656652,306.438199
331.044625,-370.102971,-9104.533087,766.095498
331.044949,-148.041188,-9104.533087,229.828649
331.045273,-222.061783,-8956.491898,306.438199
331.045597,-444.123565,-9474.636058,1225.752797
331.045921,-666.185348,-9400.615463,536.266849
331.046245,-962.267725,-9474.636058,536.266849
331.046570,-1110.308913,-9474.636058,383.047749
331.046894,-962.267725,-9696.697840,612.876398
331.047218,-1332.370696,-9474.636058,842.705048
331.047542,-1258.350101,-9770.718434,995.924147
331.047866,-1702.473667,-9622.677246,306.438199
331.048190,-1998.556043,-9622.677246,459.657299
331.048514,-1998.556043,-9474.636058,536.266849
331.048838,-1924.535449,-9770.718434,229.828649
331.049162,-1702.473667,-9770.718434,153.219100
331.049486,-1406.391290,-9770.718434,229.828649
331.049810,-1332.370696,-9548.656652,229.828649
331.050134,-1110.308913,-9696.697840,612.876398
331.050458,-1184.329507,-9770.718434,-383.047749
331.050782,-1110.308913,-10214.842000,0.000000
331.051106,-1110.308913,-9992.780217,-383.047749
331.051430,-1184.329507,-10140.821405,-306.438199
331.051754,-1110.308913,-10066.800811,-459.657299
331.052078,-1184.329507,-10510.924376,-229.828649
331.052403,-296.082377,-10214.842000,0.000000
331.052727,-370.102971,-10362.883188,-306.438199
331.053051,-370.102971,-10140.821405,-459.657299
331.053375,74.020594,-9992.780217,-306.438199
331.053699,370.102971,-9918.759623,-383.047749
331.054023,666.185348,-9844.739029,-689.485948
331.054347,740.205942,-9992.780217,-536.266849
331.054671,1036.288319,-10140.821405,-383.047749
331.054995,888.247130,-9844.739029,-612.876398
331.055319,1036.288319,-9770.718434,-689.485948
331.055643,740.205942,-10140.821405,-612.876398
331.055967,1110.308913,-10066.800811,-919.314598
331.056291,1184.329507,-10140.821405,-689.485948
331.056615,1554.432478,-9622.677246,-612.876398
331.056939,1332.370696,-9178.553681,-766.095498
331.057263,1406.391290,-9178.553681,-536.266849
331.057587,1480.411884,-9326.594869,-229.828649
331.057912,1628.453072,-9252.574275,-383.047749
331.058236,1628.453072,-9252.574275,-229.828649
331.058560,1702.473667,-9400.615463,-306.438199
331.058884,1850.514855,-9548.656652,0.000000
331.059208,1850.514855,-9548.656652,-383.047749
331.059532,1332.370696,-9252.574275,-229.828649
331.059856,1184.329507,-9474.636058,-306.438199
331.060180,740.205942,-9696.697840,-229.828649
331.060504,592.164754,-9622.677246,76.609550
331.060828,592.164754,-9474.636058,229.828649
331.061152,592.164754,-9400.615463,229.828649
331.061476,296.082377,-8882.471304,766.095498
331.061800,592.164754,-9326.594869,536.266849
331.062124,444.123565,-9178.553681,766.095498
331.062448,74.020594,-8956.491898,766.095498
331.062772,-370.102971,-9030.512492,536.266849
331.063096,-814.226536,-9030.512492,459.657299
331.063421,-740.205942,-9400.615463,459.657299
331.063745,-888.247130,-9474.636058,842.705048
331.064069,-740.205942,-9474.636058,229.828649
331.064393,-1332.370696,-9178.553681,459.657299
331.064717,-1332.370696,-9696.697840,306.438199
331.065041,-1184.329507,-9770.718434,536.266849
331.065365,-1776.494261,-9622.677246,612.876398
331.065689,-1924.535449,-9992.780217,459.657299
331.066013,-1702.473667,-9918.759623,536.266849
331.066337,-1776.494261,-9992.780217,459.657299
331.066661,-1554.432478,-9770.718434,76.609550
331.066985,-1184.329507,-9622.677246,76.609550
331.067309,-1554.432478,-9696.697840,306.438199
331.067633,-1332.370696,-9548.656652,229.828649
331.067957,-1480.411884,-9844.739029,-153.219100
331.068281,-1480.411884,-9918.759623,0.000000
331.068605,-1554.432478,-10066.800811,-306.438199
331.068929,-1406.391290,-10140.821405,-153.219100
331.069254,-1184.329507,-10436.903782,-229.828649
331.069578,-1332.370696,-9918.759623,-995.924147
331.069902,-1258.350101,-9992.780217,-229.828649
331.070226,-1258.350101,-9992.780217,-383.047749
331.070550,-666.185348,-9918.759623,-229.828649
331.070874,0.000000,-10140.821405,-612.876398
331.071198,0.000000,-9844.739029,-459.657299
331.071522,666.185348,-9918.759623,-459.657299
331.071846,666.185348,-9844.739029,-536.266849
331.072170,962.267725,-9770.718434,-536.266849
331.072494,1184.329507,-9992.780217,-612.876398
331.072818,1184.329507,-9770.718434,-919.314598
331.073142,1036.288319,-10066.800811,-689.485948
331.073466,592.164754,-9844.739029,-689.485948
331.073790,1110.308913,-9770.718434,-612.876398
331.074114,1332.370696,-9992.780217,-919.314598
331.074438,1702.473667,-9992.780217,-612.876398
331.074763,1850.514855,-9622.677246,0.000000
331.075087,1850.514855,-9326.594869,-383.047749
331.075411,1998.556043,-9474.636058,-306.438199
331.075735,1776.494261,-9252.574275,0.000000
331.076059,1776.494261,-9474.636058,0.000000
331.076383,1776.494261,-9474.636058,-229.828649
331.076707,1924.535449,-9548.656652,0.000000
331.077031,1702.473667,-9252.574275,-612.876398
331.077355,1258.350101,-9252.574275,-229.828649
331.077679,1480.411884,-9252.574275,229.828649
331.078003,1406.391290,-9474.636058,153.219100
331.078327,888.247130,-9474.636058,0.000000
331.078651,740.205942,-9548.656652,153.219100
331.078975,518.144159,-9622.677246,76.609550
331.079299,592.164754,-9474.636058,459.657299
331.079623,74.020594,-9030.512492,153.219100
331.079947,0.000000,-9252.574275,612.876398
331.080272,-370.102971,-9474.636058,536.266849
331.080596,-592.164754,-9474.636058,612.876398
331.080920,-814.226536,-9622.677246,459.657299
331.081244,-1110.308913,-9400.615463,459.657299
331.081568,-1258.350101,-9400.615463,306.438199
331.081892,-1480.411884,-9252.574275,229.828649
331.082216,-1998.556043,-8808.450710,536.266849
331.082540,-1850.514855,-9030.512492,689.485948
331.082864,-1924.535449,-9178.553681,153.219100
331.083188,-1480.411884,-9992.780217,229.828649
331.083512,-1850.514855,-9918.759623,229.828649
331.083836,-1998.556043,-9770.718434,229.828649
331.084160,-2294.638420,-9548.656652,229.828649
331.084484,-1850.514855,-9770.718434,689.485948
331.084808,-1702.473667,-9918.759623,306.438199
331.085132,-1628.453072,-9770.718434,0.000000
331.085456,-1258.350101,-9770.718434,-383.047749
331.085780,-1184.329507,-9992.780217,-153.219100
331.086104,-1332.370696,-10140.821405,-306.438199
331.086428,-1184.329507,-10066.800811,-153.219100
331.086752,-1332.370696,-10140.821405,-536.266849
331.087076,-1332.370696,-9844.739029,-383.047749
331.087400,-518.144159,-10214.842000,-612.876398
331.087724,-592.164754,-9992.780217,-766.095498
331.088048,0.000000,-10214.842000,-842.705048
331.088372,296.082377,-10214.842000,-919.314598
331.088696,74.020594,-9992.780217,-766.095498
331.089020,444.123565,-9918.759623,-766.095498
331.089344,666.185348,-9696.697840,-383.047749
331.089668,592.164754,-9622.677246,-612.876398
331.089992,962.267725,-9622.677246,-919.314598
331.090316,962.267725,-9474.636058,-766.095498
331.090640,1258.350101,-10140.821405,-842.705048
331.090964,1406.391290,-10140.821405,-689.485948
331.091288,1850.514855,-10140.821405,-689.485948
331.091612,1628.453072,-9992.780217,-536.266849
331.091936,1776.494261,-9474.636058,-689.485948
331.092260,1628.453072,-9474.636058,-689.485948
331.092584,2368.659014,-9918.759623,76.609550
331.092908,2072.576638,-9622.677246,-383.047749
331.093232,1998.556043,-9696.697840,-383.047749
331.093556,1628.453072,-9326.594869,0.000000
331.093880,1332.370696,-9474.636058,-153.219100
331.094204,1554.432478,-8956.491898,0.000000
331.094528,1332.370696,-9326.594869,0.000000
331.094852,1406.391290,-8882.471304,229.828649
331.095176,1110.308913,-8660.409521,0.000000
331.095500,888.247130,-9400.615463,76.609550
331.095824,814.226536,-9326.594869,153.219100
331.096148,370.102971,-9252.574275,153.219100
331.096472,222.061783,-9252.574275,536.266849
331.096796,148.041188,-9030.512492,153.219100
331.097120,0.000000,-9030.512492,842.705048
331.097444,0.000000,-9400.615463,536.266849
331.097768,-296.082377,-9178.553681,766.095498
331.098092,-222.061783,-9400.615463,842.705048
331.098416,-444.123565,-9548.656652,612.876398
331.098740,-444.123565,-9548.656652,919.314598
331.099064,-740.205942,-9326.594869,1149.143247
331.099388,-1036.288319,-9400.615463,459.657299
331.099712,-962.267725,-9326.594869,842.705048
331.100036,-1110.308913,-9844.739029,536.266849
331.100360,-1554.432478,-9770.718434,612.876398
331.100684,-1924.535449,-9844.739029,536.266849
331.101008,-1850.514855,-9918.759623,536.266849
331.101332,-2294.638420,-9622.677246,229.828649
331.101656,-2072.576638,-9696.697840,229.828649
331.101980,-1924.535449,-9548.656652,459.657299
331.102304,-1702.473667,-9696.697840,919.314598
331.102628,-1702.473667,-9474.636058,459.657299
331.102952,-1554.432478,-9696.697840,153.219100
331.103276,-1554.432478,-9770.718434,0.000000
331.103600,-1406.391290,-9548.656652,-153.219100
331.103924,-1480.411884,-10066.800811,0.000000
331.104248,-962.267725,-10288.862594,-459.657299
331.104572,-814.226536,-10066.800811,-842.705048
331.104896,-740.205942,-10214.842000,-536.266849
331.105220,-814.226536,-10214.842000,-536.266849
331.105544,-296.082377,-10288.862594,-612.876398
331.105868,-296.082377,-10140.821405,-383.047749
331.106192,-148.041188,-10214.842000,-536.266849
331.106516,148.041188,-9918.759623,-536.266849
331.106840,666.185348,-9918.759623,-1225.752797
331.107164,888.247130,-9770.718434,-76.609550
331.107488,740.205942,-9326.594869,-536.266849
331.107812,814.226536,-9770.718434,-842.705048
331.108136,888.247130,-9844.739029,-842.705048
331.108460,888.247130,-9918.759623,-1072.533697
331.108784,1036.288319,-9696.697840,-1378.971896
331.109108,962.267725,-9548.656652,-995.924147
331.109432,1184.329507,-9992.780217,-766.095498
331.109756,1776.494261,-10140.821405,-995.924147
331.110080,1628.453072,-9918.759623,-612.876398
331.110404,1480.411884,-9696.697840,-536.266849
331.110728,1628.453072,-9474.636058,-306.438199
331.111052,1998.556043,-9696.697840,-459.657299
331.111376,2368.659014,-10066.800811,76.609550
331.111700,2368.659014,-9770.718434,229.828649
331.112024,1332.370696,-9548.656652,229.828649
331.112348,1110.308913,-9474.636058,0.000000
331.112672,1110.308913,-9622.677246,-229.828649
331.112996,814.226536,-9474.636058,0.000000
331.113320,518.144159,-9474.636058,0.000000
331.113644,518.144159,-9252.574275,-383.047749
331.113968,370.102971,-9030.512492,153.219100
331.114292,296.082377,-8882.471304,-229.828649
331.114616,222.061783,-9326.594869,459.657299
331.114940,0.000000,-9104.533087,383.047749
331.115264,-148.041188,-9030.512492,612.876398
331.115588,-592.164754,-9252.574275,612.876398
331.115912,-740.205942,-9400.615463,459.657299
331.116236,-740.205942,-9400.615463,229.828649
331.116560,-444.123565,-9474.636058,766.095498
331.116884,-888.247130,-9548.656652,536.266849
331.117208,-1184.329507,-9474.636058,689.485948
331.117532,-1184.329507,-9696.697840,842.705048
331.117856,-1332.370696,-9844.739029,153.219100
331.118180,-1628.453072,-9918.759623,306.438199
331.118504,-1776.494261,-9622.677246,229.828649
331.118828,-1702.473667,-9548.656652,229.828649
331.119152,-1628.453072,-9474.636058,689.485948
331.119476,-1480.411884,-9252.574275,0.000000
331.119800,-1332.370696,-9178.553681,842.705048
331.120124,-1628.453072,-9474.636058,383.047749
331.120448,-1850.514855,-9696.697840,0.000000
331.120772,-1776.494261,-9770.718434,0.000000
331.121096,-1776.494261,-10066.800811,0.000000
331.121420,-1480.411884,-10214.842000,0.000000
331.121744,-1036.288319,-10140.821405,153.219100
331.122068,-1480.411884,-9992.780217,76.609550
331.122392,-1036.288319,-10288.862594,0.000000
331.122716,-814.226536,-9770.718434,-383.047749
331.123040,-444.123565,-10362.883188,-153.219100
331.123364,-740.205942,-9770.718434,-229.828649
331.123688,0.000000,-10066.800811,-229.828649
331.124012,370.102971,-10066.800811,-306.438199
331.124336,666.185348,-9992.780217,-689.485948
331.124660,814.226536,-9992.780217,-612.876398
331.124984,1036.288319,-9918.759623,-536.266849
331.125308,888.247130,-9918.759623,-919.314598
331.125632,888.247130,-9696.697840,-689.485948
331.125956,370.102971,-9696.697840,-689.485948
331.126280,296.082377,-9844.739029,-689.485948
331.126604,518.144159,-9770.718434,-919.314598
331.126928,814.226536,-9696.697840,-612.876398
331.127252,1110.308913,-9474.636058,-689.485948
331.127576,1406.391290,-9326.594869,0.000000
331.127900,1702.473667,-9400.615463,-229.828649
331.128224,1850.514855,-9474.636058,0.000000
331.128548,1850.514855,-9474.636058,0.000000
331.128872,1998.556043,-9252.574275,-153.219100
331.129196,2072.576638,-9622.677246,0.000000
331.129520,2072.576638,-9696.697840,0.000000
331.129844,2072.576638,-9622.677246,0.000000
331.130168,1480.411884,-9548.656652,76.609550
331.130492,1110.308913,-9400.615463,0.000000
331.130816,666.185348,-9474.636058,-383.047749
331.131140,518.144159,-9622.677246,76.609550
331.131464,222.061783,-9400.615463,153.219100
331.131788,222.061783,-9548.656652,0.000000
331.132112,148.041188,-9400.615463,306.438199
331.132436,296.082377,-9252.574275,229.828649
331.132760,0.000000,-8808.450710,76.609550
331.133084,-148.041188,-9030.512492,612.876398
331.133408,0.000000,-9474.636058,459.657299
331.133732,-148.041188,-9326.594869,612.876398
331.134056,-444.123565,-9474.636058,306.438199
331.134380,-740.205942,-9548.656652,229.828649
331.134704,-666.185348,-9622.677246,229.828649
331.135028,-592.164754,-9622.677246,842.705048
331.135352,-1036.288319,-9918.759623,536.266849
331.135676,-1480.411884,-9622.677246,689.485948
331.136000,-1480.411884,-9844.739029,153.219100
331.136324,-1850.514855,-9918.759623,383.047749
331.136648,-1998.556043,-9918.759623,153.219100
331.136972,-1924.535449,-9918.759623,76.609550
331.137296,-1998.556043,-9918.759623,153.219100
331.137620,-1480.411884,-9696.697840,153.219100
331.137944,-1332.370696,-9622.677246,76.609550
331.138268,-1406.391290,-9696.697840,0.000000
331.138592,-1258.350101,-9992.780217,-306.438199
331.138916,-1480.411884,-9992.780217,0.000000
331.139240,-1332.370696,-10140.821405,-306.438199
331.139564,-1332.370696,-10214.842000,-459.657299
331.139888,-1258.350101,-9918.759623,-612.876398
331.140212,-1184.329507,-10140.821405,-612.876398
331.140536,-592.164754,-9770.718434,-612.876398
331.140860,-444.123565,-9918.759623,-306.438199
331.141184,-370.102971,-9992.780217,-919.314598
331.141508,0.000000,-9992.780217,-306.438199
331.141832,296.082377,-9992.780217,-306.438199
331.142156,296.082377,-9770.718434,-459.657299
331.142480,444.123565,-9474.636058,-76.609550
331.142804,518.144159,-9474.636058,-1455.581446
331.143128,296.082377,-9770.718434,-766.095498
331.143452,592.164754,-9844.739029,-306.438199
331.143776,814.226536,-9992.780217,-689.485948
331.144100,888.247130,-9844.739029,-612.876398
331.144424,1258.350101,-9992.780217,-536.266849
331.144748,1258.350101,-9696.697840,-229.828649
331.145072,1776.494261,-9400.615463,0.000000
331.145396,2146.597232,-9696.697840,-306.438199
331.145720,2220.617826,-9252.574275,0.000000
331.146044,2294.638420,-9474.636058,0.000000
331.146368,2072.576638,-9474.636058,0.000000
331.146692,1776.494261,-9474.636058,0.000000
331.147016,1702.473667,-9474.636058,0.000000
331.147340,1480.411884,-9326.594869,306.438199
331.147664,1554.432478,-9474.636058,-306.438199
331.147988,888.247130,-9030.512492,0.000000
331.148312,814.226536,-9030.512492,0.000000
331.148636,1036.288319,-9252.574275,0.000000
331.148960,888.247130,-9474.636058,153.219100
331.149284,814.226536,-9252.574275,306.438199
331.149608,592.164754,-8586.388927,229.828649
331.149932,592.164754,-9030.512492,612.876398
331.150256,592.164754,-9178.553681,459.657299
331.150580,222.061783,-9326.594869,536.266849
331.150904,0.000000,-9548.656652,766.095498
331.151228,-370.102971,-9844.739029,842.705048
331.151552,-518.144159,-9696.697840,536.266849
331.151876,-962.267725,-9400.615463,383.047749
331.152200,-962.267725,-8956.491898,689.485948
331.152524,-1184.329507,-9178.553681,689.485948
331.152848,-1850.514855,-9400.615463,689.485948
331.153172,-1702.473667,-9474.636058,459.657299
331.153496,-1702.473667,-9474.636058,612.876398
331.153820,-1924.535449,-9548.656652,229.828649
331.154144,-1924.535449,-9474.636058,459.657299
331.154468,-2146.597232,-9474.636058,383.047749
331.154792,-2516.700203,-9696.697840,459.657299
331.155116,-2516.700203,-9400.615463,766.095498
331.155440,-2294.638420,-9622.677246,459.657299
331.155764,-1702.473667,-9474.636058,306.438199
331.156088,-1554.432478,-9918.759623,0.000000
331.156412,-1702.473667,-9770.718434,-229.828649
331.156736,-1554.432478,-10066.800811,-306.438199
331.157060,-1406.391290,-10362.883188,-459.657299
331.157384,-1332.370696,-10066.800811,-383.047749
331.157708,-1480.411884,-10510.924376,-229.828649
331.158032,-1184.329507,-10140.821405,0.000000
331.158356,-666.185348,-10140.821405,-306.438199
331.158680,-296.082377,-10362.883188,-766.095498
331.159004,0.000000,-10288.862594,-766.095498
331.159328,74.020594,-9992.780217,-689.485948
331.159652,0.000000,-10066.800811,-766.095498
331.159976,888.247130,-9918.759623,-995.924147
331.160300,74.020594,-9548.656652,-1149.143247
331.160624,592.164754,-9918.759623,-995.924147
331.160948,740.205942,-9918.759623,-1149.143247
331.161272,888.247130,-10140.821405,-995.924147
331.161596,1258.350101,-10140.821405,-842.705048
331.161920,1554.432478,-9844.739029,-766.095498
331.162244,1776.494261,-9622.677246,-459.657299
331.162568,1776.494261,-9548.656652,-1149.143247
331.162892,2146.597232,-9548.656652,-766.095498
331.163216,2368.659014,-9770.718434,-536.266849
331.163540,2368.659014,-9844.739029,-229.828649
331.163864,2294.638420,-9474.636058,0.000000
331.164188,2220.617826,-9474.636058,-153.219100
331.164512,2072.576638,-9622.677246,0.000000
331.164836,1776.494261,-9548.656652,-306.438199
331.165160,1480.411884,-9326.594869,0.000000
331.165484,1258.350101,-9400.615463,0.000000
331.165808,666.185348,-9252.574275,-306.438199
331.166132,814.226536,-9400.615463,0.000000
331.166456,666.185348,-9326.594869,0.000000
331.166780,518.144159,-9252.574275,306.438199
331.167104,666.185348,-9252.574275,306.438199
331.167428,296.082377,-8956.491898,0.000000
331.167752,148.041188,-9104.533087,612.876398
331.168076,296.082377,-9326.594869,689.485948
331.168400,0.000000,-9474.636058,612.876398
331.168724,-296.082377,-9252.574275,536.266849
331.169048,-592.164754,-9326.594869,689.485948
331.169372,-592.164754,-9548.656652,919.314598
331.169696,-814.226536,-9474.636058,1378.971896
331.170020,-888.247130,-9474.636058,766.095498
331.170344,-1406.391290,-9474.636058,766.095498
331.170668,-1480.411884,-9770.718434,536.266849
331.170992,-1628.453072,-9770.718434,689.485948
331.171316,-1850.514855,-9622.677246,842.705048
331.171640,-2146.597232,-9548.656652,766.095498
331.171964,-1998.556043,-9474.636058,995.924147
331.172288,-2146.597232,-9474.636058,1072.533697
331.172612,-2146.597232,-9548.656652,1225.752797
331.172936,-1998.556043,-9400.615463,229.828649
331.173260,-1850.514855,-9474.636058,229.828649
331.173584,-1924.535449,-9474.636058,229.828649
331.173908,-1776.494261,-9696.697840,0.000000
331.174232,-1776.494261,-9696.697840,-229.828649
331.174556,-1702.473667,-9770.718434,383.047749
331.174880,-1258.350101,-9918.759623,-153.219100
331.175204,-1036.288319,-9770.718434,0.000000
331.175528,-1036.288319,-10140.821405,-229.828649
331.175852,-814.226536,-10214.842000,-306.438199
331.176176,-444.123565,-10288.862594,-229.828649
331.176500,-296.082377,-10066.800811,-153.219100
331.176824,0.000000,-9770.718434,-766.095498
331.177148,296.082377,-9992.780217,-1072.533697
331.177472,814.226536,-9918.759623,-459.657299
331.177796,1036.288319,-9918.759623,-612.876398
331.178120,1036.288319,-9992.780217,-995.924147
331.178444,740.205942,-10140.821405,-919.314598
331.178768,666.185348,-10066.800811,-995.924147
331.179092,740.205942,-10140.821405,-919.314598
331.179416,1110.308913,-9474.636058,-689.485948
331.179740,814.226536,-9474.636058,-1149.143247
331.180064,1702.473667,-9844.739029,-1302.362347
331.180388,1628.453072,-9696.697840,-842.705048
331.180712,1850.514855,-9696.697840,-612.876398
331.181036,1776.494261,-9548.656652,-766.095498
331.181360,1628.453072,-9474.636058,-689.485948
331.181684,1776.494261,-9252.574275,-306.438199
331.182008,2146.597232,-9474.636058,-383.047749
331.182332,1702.473667,-9696.697840,0.000000
331.182655,1628.453072,-9770.718434,-229.828649
331.182979,1628.453072,-9844.739029,-306.438199
331.183303,1184.329507,-9548.656652,-306.438199
331.183628,888.247130,-9474.636058,-306.438199
331.183952,814.226536,-9326.594869,0.000000
331.184276,1036.288319,-9400.615463,0.000000
331.184600,518.144159,-9104.533087,76.609550
331.184924,444.123565,-9030.512492,76.609550
331.185248,0.000000,-8956.491898,0.000000
331.185573,-222.061783,-9178.553681,306.438199
331.185897,-222.061783,-9474.636058,153.219100
331.186221,-666.185348,-9104.533087,459.657299
331.186545,-592.164754,-9104.533087,536.266849
331.186869,-1036.288319,-9104.533087,383.047749
331.187193,-1406.391290,-9178.553681,383.047749
331.187518,-1258.350101,-9474.636058,612.876398
331.187842,-1184.329507,-9548.656652,536.266849
331.188166,-1628.453072,-9474.636058,459.657299
331.188490,-1628.453072,-9622.677246,229.828649
331.188814,-1554.432478,-9474.636058,842.705048
331.189139,-1554.432478,-9918.759623,383.047749
331.189463,-1776.494261,-9548.656652,612.876398
331.189787,-1406.391290,-9622.677246,459.657299
331.190111,-1628.453072,-9844.739029,306.438199
331.190435,-1332.370696,-9622.677246,459.657299
331.190759,-1480.411884,-9770.718434,0.000000
331.191084,-1554.432478,-9992.780217,229.828649
331.191408,-1776.494261,-9844.739029,0.000000
331.191732,-1480.411884,-10140.821405,0.000000
331.192056,-1776.494261,-9844.739029,76.609550
331.192380,-1554.432478,-10066.800811,-229.828649
331.192704,-1554.432478,-10066.800811,-229.828649
331.193029,-1332.370696,-10214.842000,-229.828649
331.193353,-1110.308913,-10214.842000,-536.266849
331.193677,-666.185348,-9992.780217,-383.047749
331.194001,-740.205942,-9844.739029,-153.219100
331.194325,74.020594,-10066.800811,-229.828649
331.194649,592.164754,-10066.800811,-536.266849
331.194974,370.102971,-10066.800811,-153.219100
331.195298,814.226536,-9992.780217,-306.438199
331.195622,740.205942,-9770.718434,-536.266849
331.195946,814.226536,-10288.862594,0.000000
331.196270,888.247130,-9992.780217,-995.924147
331.196594,740.205942,-10214.842000,-459.657299
331.196919,666.185348,-10140.821405,-612.876398
331.197243,740.205942,-9918.759623,-536.266849
331.197567,888.247130,-9696.697840,-536.266849
331.197891,1258.350101,-9696.697840,-536.266849
331.198215,1480.411884,-9696.697840,0.000000
331.198539,1924.535449,-9474.636058,0.000000
331.198864,1850.514855,-9104.533087,-306.438199
331.199188,2146.597232,-9252.574275,-383.047749
331.199512,2146.597232,-9030.512492,0.000000
331.199836,2072.576638,-9474.636058,-229.828649
331.200160,1850.514855,-9400.615463,0.000000
331.200484,1628.453072,-9474.636058,-153.219100
331.200809,1332.370696,-9622.677246,-459.657299
331.201133,1184.329507,-9844.739029,0.000000
331.201457,592.164754,-9474.636058,0.000000
331.201781,666.185348,-9548.656652,383.047749
331.202105,370.102971,-9400.615463,153.219100
331.202429,222.061783,-9252.574275,383.047749
331.202754,296.082377,-9104.533087,306.438199
331.203078,148.041188,-9252.574275,612.876398
331.203402,222.061783,-9030.512492,229.828649
331.203726,0.000000,-8586.388927,153.219100
331.204050,148.041188,-9104.533087,76.609550
331.204375,-518.144159,-8734.430116,459.657299
331.204699,-666.185348,-9474.636058,306.438199
331.205023,-740.205942,-9474.636058,306.438199
331.205347,-1036.288319,-9474.636058,229.828649
331.205671,-1332.370696,-9400.615463,612.876398
331.205995,-1480.411884,-9474.636058,153.219100
331.206320,-1406.391290,-9918.759623,766.095498
331.206644,-1554.432478,-10288.862594,383.047749
331.206968,-1628.453072,-9844.739029,459.657299
331.207292,-1850.514855,-10140.821405,536.266849
331.207616,-1628.453072,-10140.821405,383.047749
331.207940,-1480.411884,-9918.759623,459.657299
331.208265,-1480.411884,-9548.656652,766.095498
331.208589,-1480.411884,-9992.780217,536.266849
331.208913,-1110.308913,-10066.800811,-459.657299
331.209237,-1258.350101,-9992.780217,-76.609550
331.209561,-1258.350101,-9992.780217,-306.438199
331.209885,-1184.329507,-10288.862594,-612.876398
331.210210,-1406.391290,-10288.862594,-689.485948
331.210534,-2072.576638,-10066.800811,-612.876398
331.210858,-1406.391290,-10140.821405,-536.266849
331.211182,-740.205942,-10436.903782,-229.828649
331.211506,-1258.350101,-10140.821405,-306.438199
331.211830,-444.123565,-10140.821405,-459.657299
331.212155,-296.082377,-9992.780217,-229.828649
331.212479,74.020594,-10140.821405,-306.438199
331.212803,444.123565,-10066.800811,-689.485948
331.213127,518.144159,-9326.594869,-536.266849
331.213451,592.164754,-9770.718434,-612.876398
331.213775,888.247130,-9770.718434,-383.047749
331.214100,962.267725,-9844.739029,-1302.362347
331.214424,1036.288319,-9992.780217,-1149.143247
331.214748,962.267725,-10066.800811,-766.095498
331.215072,1258.350101,-9770.718434,-766.095498
331.215396,1332.370696,-9474.636058,-153.219100
331.215720,1406.391290,-9326.594869,-383.047749
331.216045,1480.411884,-9622.677246,-383.047749
331.216369,2146.597232,-9474.636058,-306.438199
331.216693,1850.514855,-9400.615463,-229.828649
331.217017,1776.494261,-9474.636058,-306.438199
331.217341,1702.473667,-9252.574275,0.000000
331.217665,1554.432478,-9252.574275,0.000000
331.217990,1036.288319,-9252.574275,689.485948
331.218314,1406.391290,-9844.739029,0.000000
331.218638,1702.473667,-9474.636058,306.438199
331.218962,1184.329507,-9252.574275,76.609550
331.219286,1406.391290,-9400.615463,229.828649
331.219611,1184.329507,-9400.615463,383.047749
331.219935,962.267725,-9400.615463,306.438199
331.220259,666.185348,-9178.553681,536.266849
331.220583,518.144159,-9178.553681,459.657299
331.220907,592.164754,-9326.594869,612.876398
331.221231,148.041188,-9178.553681,459.657299
331.221556,-222.061783,-9474.636058,842.705048
331.221880,-518.144159,-9548.656652,842.705048
331.222204,-666.185348,-9474.636058,689.485948
331.222528,-370.102971,-9548.656652,689.485948
331.222852,-1110.308913,-9474.636058,689.485948
331.223176,-962.267725,-9400.615463,612.876398
331.223501,-962.267725,-9178.553681,919.314598
331.223825,-1406.391290,-9548.656652,306.438199
331.224149,-1776.494261,-9400.615463,689.485948
331.224473,-1850.514855,-9696.697840,229.828649
331.224797,-2072.576638,-9770.718434,383.047749
331.225121,-2220.617826,-9696.697840,76.609550
331.225446,-2442.679609,-9326.594869,0.000000
331.225770,-2294.638420,-9622.677246,76.609550
331.226094,-1924.535449,-9844.739029,306.438199
331.226418,-1850.514855,-9844.739029,383.047749
331.226742,-1850.514855,-9696.697840,153.219100
331.227066,-1480.411884,-9844.739029,76.609550
331.227391,-1480.411884,-9770.718434,-383.047749
331.227715,-1258.350101,-10066.800811,0.000000
331.228039,-1406.391290,-10066.800811,0.000000
331.228363,-1184.329507,-10288.862594,-766.095498
331.228687,-1406.391290,-10288.862594,-612.876398
331.229011,-1110.308913,-10362.883188,-766.095498
331.229336,-666.185348,-10214.842000,-842.705048
331.229660,-148.041188,-10214.842000,-689.485948
331.229984,296.082377,-10140.821405,-1225.752797
331.230308,666.185348,-10140.821405,-766.095498
331.230632,666.185348,-10066.800811,-1072.533697
331.230956,666.185348,-9844.739029,-842.705048
331.231281,666.185348,-9770.718434,-766.095498
331.231605,962.267725,-10066.800811,-1072.533697
331.231929,814.226536,-10066.800811,-1072.533697
331.232253,962.267725,-9770.718434,-612.876398
331.232577,1332.370696,-9474.636058,-766.095498
331.232901,1850.514855,-9770.718434,-153.219100
331.233226,1850.514855,-9844.739029,-995.924147
331.233550,1850.514855,-9696.697840,-766.095498
331.233874,2294.638420,-9844.739029,-766.095498
331.234198,2220.617826,-9696.697840,-459.657299
331.234522,1998.556043,-9548.656652,-383.047749
331.234846,2220.617826,-9474.636058,-306.438199
331.235171,2146.597232,-9474.636058,0.000000
331.235495,2072.576638,-9696.697840,-306.438199
331.235819,2220.617826,-9474.636058,-306.438199
331.236143,1702.473667,-9474.636058,-306.438199
331.236467,1332.370696,-9474.636058,0.000000
331.236792,888.247130,-9252.574275,0.000000
331.237116,666.185348,-9474.636058,0.000000
331.237440,74.020594,-9030.512492,689.485948
331.237764,0.000000,-8734.430116,383.047749
331.238088,444.123565,-9030.512492,766.095498
331.238412,370.102971,-9178.553681,612.876398
331.238737,74.020594,-9326.594869,612.876398
331.239061,0.000000,-9400.615463,766.095498
331.239385,-444.123565,-9104.533087,689.485948
331.239709,-888.247130,-9474.636058,76.609550
331.240033,-740.205942,-9474.636058,919.314598
331.240357,-740.205942,-9622.677246,919.314598
331.240682,-814.226536,-9770.718434,689.485948
331.241006,-1258.350101,-9770.718434,689.485948
331.241330,-1036.288319,-9770.718434,383.047749
331.241654,-1628.453072,-9548.656652,459.657299
331.241978,-1776.494261,-9548.656652,842.705048
331.242302,-2294.638420,-9474.636058,612.876398
331.242627,-2220.617826,-9622.677246,536.266849
331.242951,-2220.617826,-9770.718434,612.876398
331.243275,-2590.720797,-9252.574275,766.095498
331.243599,-2220.617826,-9474.636058,229.828649
331.243923,-2072.576638,-9770.718434,0.000000
331.244247,-1998.556043,-9622.677246,306.438199
331.244572,-1850.514855,-9548.656652,153.219100
331.244896,-1924.535449,-9844.739029,0.000000
331.245220,-1776.494261,-9770.718434,76.609550
331.245544,-1110.308913,-9844.739029,0.000000
331.245868,-592.164754,-9992.780217,0.000000
331.246192,-814.226536,-9992.780217,0.000000
331.246517,-1036.288319,-10066.800811,-306.438199
331.246841,-444.123565,-10066.800811,-536.266849
331.247165,0.000000,-10140.821405,-383.047749
331.247489,296.082377,-10214.842000,-383.047749
331.247813,592.164754,-10288.862594,0.000000
331.248137,740.205942,-10066.800811,-229.828649
331.248462,888.247130,-10288.862594,-766.095498
331.248786,592.164754,-9622.677246,-459.657299
331.249110,444.123565,-10066.800811,-612.876398
331.249434,518.144159,-9696.697840,-766.095498
331.249758,814.226536,-9770.718434,-919.314598
331.250082,888.247130,-9770.718434,-766.095498
331.250407,1554.432478,-9622.677246,-689.485948
331.250731,1776.494261,-9844.739029,-689.485948
331.251055,1924.535449,-9696.697840,-536.266849
331.251379,2072.576638,-9696.697840,-689.485948
331.251703,1776.494261,-9696.697840,-306.438199
331.252028,1998.556043,-9770.718434,-459.657299
331.252352,1776.494261,-9696.697840,-459.657299
331.252676,2072.576638,-9696.697840,-612.876398
331.253000,1776.494261,-9622.677246,-153.219100
331.253324,1628.453072,-9474.636058,-229.828649
331.253648,1332.370696,-9326.594869,-76.609550
331.253973,1036.288319,-9400.615463,-153.219100
331.254297,740.205942,-9178.553681,-229.828649
331.254621,592.164754,-9400.615463,-383.047749
331.254945,592.164754,-9104.533087,383.047749
331.255269,740.205942,-9326.594869,0.000000
331.255593,370.102971,-8734.430116,459.657299
331.255918,296.082377,-9252.574275,689.485948
331.256242,0.000000,-9326.594869,229.828649
331.256566,-370.102971,-9326.594869,306.438199
331.256890,-666.185348,-9252.574275,536.266849
331.257214,-740.205942,-9474.636058,306.438199
331.257538,-592.164754,-9400.615463,536.266849
331.257863,-592.164754,-9474.636058,536.266849
331.258187,-1036.288319,-9400.615463,383.047749
331.258511,-1776.494261,-9178.553681,229.828649
331.258835,-1850.514855,-9548.656652,153.219100
331.259159,-2072.576638,-9622.677246,0.000000
331.259483,-1998.556043,-9622.677246,306.438199
331.259808,-1924.535449,-9770.718434,459.657299
331.260132,-1628.453072,-9770.718434,459.657299
331.260456,-1998.556043,-9474.636058,229.828649
331.260780,-1702.473667,-9622.677246,0.000000
331.261104,-1924.535449,-9770.718434,229.828649
331.261428,-2072.576638,-9844.739029,0.000000
331.261753,-1628.453072,-9918.759623,0.000000
331.262077,-1480.411884,-9696.697840,0.000000
331.262401,-1406.391290,-9622.677246,-383.047749
331.262725,-1332.370696,-9770.718434,0.000000
331.263049,-1110.308913,-9992.780217,-306.438199
331.263373,-1480.411884,-9770.718434,-612.876398
331.263698,-1110.308913,-10288.862594,-459.657299
331.264022,-888.247130,-10288.862594,-459.657299
331.264346,-666.185348,-10214.842000,-766.095498
331.264670,-518.144159,-10288.862594,-459.657299
331.264994,0.000000,-9770.718434,-383.047749
331.265318,592.164754,-10066.800811,-612.876398
331.265643,74.020594,-9622.677246,-459.657299
331.265967,592.164754,-9844.739029,-766.095498
331.266291,666.185348,-10066.800811,-689.485948
331.266615,740.205942,-10066.800811,-459.657299
331.266939,962.267725,-10214.842000,-842.705048
331.267263,962.267725,-9992.780217,-689.485948
331.267588,1036.288319,-9918.759623,-153.219100
331.267912,814.226536,-9770.718434,-842.705048
331.268236,1332.370696,-9918.759623,-229.828649
331.268560,1406.391290,-9622.677246,-306.438199
331.268884,1258.350101,-9622.677246,-306.438199
331.269209,1628.453072,-9622.677246,-306.438199
331.269533,1850.514855,-9474.636058,229.828649
331.269857,1702.473667,-9178.553681,-153.219100
331.270181,2146.597232,-9178.553681,76.609550
331.270505,2072.576638,-9178.553681,153.219100
331.270829,1776.494261,-9400.615463,76.609550
331.271154,1628.453072,-9474.636058,306.438199
331.271478,1406.391290,-9474.636058,76.609550
331.271802,1110.308913,-9474.636058,76.609550
331.272126,962.267725,-9548.656652,76.609550
331.272450,1184.329507,-10066.800811,383.047749
331.272774,740.205942,-9474.636058,612.876398
331.273099,592.164754,-9400.615463,0.000000
331.273423,370.102971,-9252.574275,766.095498
331.273747,518.144159,-9178.553681,689.485948
331.274071,296.082377,-9252.574275,383.047749
331.274395,74.020594,-9104.533087,536.266849
331.274719,0.000000,-8956.491898,306.438199
331.275044,-444.123565,-9326.594869,766.095498
331.275368,-962.267725,-8956.491898,766.095498
331.275692,-888.247130,-9178.553681,383.047749
331.276016,-962.267725,-9696.697840,306.438199
331.276340,-1184.329507,-9548.656652,459.657299
331.276664,-1628.453072,-9770.718434,229.828649
331.276989,-1184.329507,-9622.677246,229.828649
331.277313,-1554.432478,-9992.780217,459.657299
331.277637,-1110.308913,-10214.842000,459.657299
331.277961,-1110.308913,-9844.739029,383.047749
331.278285,-1628.453072,-9696.697840,536.266849
331.278609,-1406.391290,-10066.800811,383.047749
331.278934,-1480.411884,-9622.677246,76.609550
331.279258,-1628.453072,-9770.718434,76.609550
331.279582,-1776.494261,-9844.739029,229.828649
331.279906,-1332.370696,-10066.800811,76.609550
331.280230,-1628.453072,-9992.780217,-306.438199
331.280554,-1258.350101,-10214.842000,-229.828649
331.280879,-1554.432478,-10214.842000,-536.266849
331.281203,-1480.411884,-10214.842000,-536.266849
331.281527,-1480.411884,-10140.821405,-383.047749
331.281851,-1036.288319,-10214.842000,-536.266849
331.282175,-962.267725,-9474.636058,0.000000
331.282499,-518.144159,-9918.759623,-766.095498
331.282824,-148.041188,-9844.739029,-459.657299
331.283148,444.123565,-9992.780217,-383.047749
331.283472,518.144159,-9844.739029,-536.266849
331.283796,444.123565,-9770.718434,-766.095498
331.284120,518.144159,-9918.759623,-766.095498
331.284444,962.267725,-10066.800811,-1225.752797
331.284769,814.226536,-9992.780217,-766.095498
331.285093,666.185348,-9844.739029,-306.438199
331.285417,814.226536,-9992.780217,-919.314598
331.285741,1480.411884,-10436.903782,-995.924147
331.286065,1258.350101,-9548.656652,-536.266849
331.286389,1628.453072,-9548.656652,-383.047749
331.286714,1628.453072,-9622.677246,-536.266849
331.287038,1480.411884,-9474.636058,-383.047749
331.287362,1628.453072,-9474.636058,0.000000
331.287686,1850.514855,-9326.594869,-76.609550
331.288010,1480.411884,-8956.491898,-229.828649
331.288334,1850.514855,-9548.656652,0.000000
331.288658,1924.535449,-9474.636058,0.000000
331.288983,1628.453072,-9622.677246,0.000000
331.289307,1406.391290,-9326.594869,0.000000
331.289631,1184.329507,-9400.615463,0.000000
331.289955,1258.350101,-9326.594869,0.000000
331.290279,1110.308913,-9252.574275,229.828649
331.290603,1036.288319,-9326.594869,153.219100
331.290928,1110.308913,-9178.553681,229.828649
331.291252,444.123565,-9326.594869,229.828649
331.291576,592.164754,-9474.636058,383.047749
331.291900,148.041188,-9400.615463,689.485948
331.292224,-148.041188,-9400.615463,229.828649
331.292548,-222.061783,-9474.636058,612.876398
331.292873,-740.205942,-9474.636058,459.657299
331.293197,-370.102971,-9400.615463,689.485948
331.293521,-888.247130,-9548.656652,612.876398
331.293845,-888.247130,-9548.656652,689.485948
331.294169,-814.226536,-9696.697840,612.876398
331.294493,-1184.329507,-9474.636058,459.657299
331.294817,-1184.329507,-9548.656652,229.828649
331.295142,-1776.494261,-9918.759623,459.657299
331.295466,-1776.494261,-9474.636058,153.219100
331.295790,-2294.638420,-9622.677246,229.828649
331.296114,-1998.556043,-9992.780217,153.219100
331.296438,-2072.576638,-9548.656652,459.657299
331.296762,-1924.535449,-9622.677246,229.828649
331.297087,-1850.514855,-9622.677246,0.000000
331.297411,-1702.473667,-9844.739029,229.828649
331.297735,-1998.556043,-9474.636058,229.828649
331.298059,-1702.473667,-9696.697840,0.000000
331.298383,-1554.432478,-9918.759623,-229.828649
331.298707,-1480.411884,-10140.821405,-383.047749
331.299032,-1258.350101,-10214.842000,-459.657299
331.299356,-1184.329507,-10140.821405,-383.047749
331.299680,-814.226536,-10066.800811,-766.095498
331.300004,-592.164754,-10214.842000,-306.438199
331.300328,0.000000,-10214.842000,-842.705048
331.300652,148.041188,-10288.862594,-383.047749
331.300976,222.061783,-10066.800811,-459.657299
331.301301,148.041188,-9844.739029,-842.705048
331.301625,296.082377,-9548.656652,-995.924147
331.301949,296.082377,-9548.656652,-459.657299
331.302273,888.247130,-9622.677246,-995.924147
331.302597,814.226536,-10066.800811,-919.314598
331.302921,888.247130,-9696.697840,-612.876398
331.303246,962.267725,-10066.800811,-995.924147
331.303570,1406.391290,-9918.759623,-612.876398
331.303894,1480.411884,-9696.697840,-689.485948
331.304218,1628.453072,-9844.739029,-229.828649
331.304542,1924.535449,-9770.718434,-459.657299
331.304866,2220.617826,-9178.553681,-306.438199
331.305190,1998.556043,-9104.533087,-306.438199
331.305515,1924.535449,-9178.553681,-842.705048
331.305839,2072.576638,-9474.636058,-229.828649
331.306163,1998.556043,-9400.615463,-306.438199
331.306487,1850.514855,-9474.636058,-76.609550
331.306811,1554.432478,-9474.636058,0.000000
331.307135,1628.453072,-9400.615463,0.000000
331.307460,1480.411884,-9474.636058,229.828649
331.307784,740.205942,-9400.615463,-229.828649
331.308108,444.123565,-9252.574275,0.000000
331.308432,518.144159,-9474.636058,153.219100
331.308756,296.082377,-9400.615463,229.828649
331.309080,444.123565,-9252.574275,459.657299
331.309405,296.082377,-9178.553681,383.047749
331.309729,148.041188,-9622.677246,612.876398
331.310053,0.000000,-9104.533087,76.609550
331.310377,-296.082377,-9030.512492,0.000000
331.310701,-444.123565,-9474.636058,536.266849
331.311025,-444.123565,-9474.636058,536.266849
331.311349,-592.164754,-9696.697840,689.485948
331.311674,-888.247130,-9400.615463,459.657299
331.311998,-1258.350101,-9474.636058,919.314598
331.312322,-1258.350101,-9770.718434,766.095498
331.312646,-1850.514855,-9622.677246,689.485948
331.312970,-2146.597232,-9770.718434,459.657299
331.313294,-1998.556043,-9844.739029,383.047749
331.313619,-1998.556043,-9622.677246,306.438199
331.313943,-2220.617826,-9770.718434,459.657299
331.314267,-2072.576638,-9474.636058,229.828649
331.314591,-1628.453072,-10214.842000,153.219100
331.314915,-2220.617826,-9474.636058,229.828649
331.315239,-1554.432478,-9622.677246,0.000000
331.315564,-1702.473667,-9548.656652,-153.219100
331.315888,-1628.453072,-10066.800811,0.000000
331.316212,-1406.391290,-9770.718434,-383.047749
331.316536,-1480.411884,-9548.656652,-306.438199
331.316860,-1110.308913,-10214.842000,-459.657299
331.317184,-1110.308913,-10066.800811,-306.438199
331.317508,-740.205942,-10066.800811,-153.219100
331.317833,-444.123565,-9992.780217,-383.047749
331.318157,-222.061783,-9992.780217,-306.438199
331.318481,74.020594,-9992.780217,-306.438199
331.318805,370.102971,-9770.718434,-229.828649
331.319129,592.164754,-9992.780217,0.000000
331.319453,962.267725,-9770.718434,-229.828649
331.319778,592.164754,-9696.697840,-766.095498
331.320102,518.144159,-9770.718434,-1302.362347
331.320426,814.226536,-9918.759623,-842.705048
331.320750,1406.391290,-10066.800811,-919.314598
331.321074,1628.453072,-9844.739029,-766.095498
331.321398,1776.494261,-9696.697840,-459.657299
331.321723,2368.659014,-9622.677246,-459.657299
331.322047,2072.576638,-9696.697840,-995.924147
331.322371,1850.514855,-9474.636058,-153.219100
331.322695,1628.453072,-9622.677246,-536.266849
331.323019,1554.432478,-9474.636058,-153.219100
331.323343,1702.473667,-9770.718434,-229.828649
331.323667,1628.453072,-9770.718434,0.000000
331.323992,1776.494261,-9548.656652,-229.828649
331.324316,2146.597232,-10066.800811,0.000000
331.324640,1628.453072,-9326.594869,0.000000
331.324964,1110.308913,-9474.636058,-153.219100
331.325288,1554.432478,-9696.697840,229.828649
331.325612,1258.350101,-9548.656652,383.047749
331.325937,740.205942,-9178.553681,0.000000
331.326261,444.123565,-9400.615463,76.609550
331.326585,296.082377,-9474.636058,0.000000
331.326909,0.000000,-9400.615463,76.609550
331.327233,-370.102971,-9252.574275,459.657299
331.327557,-1036.288319,-9104.533087,229.828649
331.327881,-148.041188,-9400.615463,612.876398
331.328206,-814.226536,-9326.594869,536.266849
331.328530,-666.185348,-9474.636058,459.657299
331.328854,-888.247130,-9474.636058,459.657299
331.329178,-1184.329507,-9474.636058,689.485948
331.329502,-1332.370696,-9178.553681,612.876398
331.329826,-1628.453072,-9474.636058,459.657299
331.330151,-1184.329507,-9696.697840,612.876398
331.330475,-1480.411884,-9326.594869,383.047749
331.330799,-1924.535449,-9696.697840,0.000000
331.331123,-1924.535449,-9770.718434,0.000000
331.331447,-1998.556043,-9844.739029,0.000000
331.331771,-1924.535449,-9622.677246,0.000000
331.332096,-1554.432478,-9474.636058,0.000000
331.332420,-2146.597232,-9400.615463,0.000000
331.332744,-1776.494261,-9622.677246,0.000000
331.333068,-1554.432478,-10214.842000,229.828649
331.333392,-1776.494261,-10066.800811,0.000000
331.333716,-1554.432478,-10214.842000,-306.438199
331.334040,-1480.411884,-10140.821405,-153.219100
331.334365,-1110.308913,-9918.759623,-689.485948
331.334689,-888.247130,-10362.883188,-536.266849
331.335013,74.020594,-10881.027347,-689.485948
331.335337,0.000000,-10066.800811,-612.876398
331.335661,0.000000,-10140.821405,-536.266849
331.335985,0.000000,-10288.862594,-842.705048
331.336310,148.041188,-10436.903782,-766.095498
331.336634,444.123565,-10436.903782,-766.095498
331.336958,592.164754,-10288.862594,-1225.752797
331.337282,444.123565,-10066.800811,-229.828649
331.337606,888.247130,-9770.718434,-689.485948
331.337930,962.267725,-9844.739029,-229.828649
331.338255,888.247130,-9844.739029,-689.485948
331.338579,740.205942,-9770.718434,-536.266849
331.338903,666.185348,-9474.636058,-459.657299
331.339227,1332.370696,-9548.656652,-766.095498
331.339551,1406.391290,-9474.636058,-306.438199
331.339875,2368.659014,-10214.842000,-229.828649
331.340199,1850.514855,-9104.533087,-536.266849
331.340524,1776.494261,-9400.615463,-459.657299
331.340848,1776.494261,-9400.615463,0.000000
331.341172,1776.494261,-9326.594869,0.000000
331.341496,1776.494261,-9400.615463,0.000000
331.341820,1628.453072,-9474.636058,153.219100
331.342144,1702.473667,-9474.636058,536.266849
331.342469,1332.370696,-9178.553681,0.000000
331.342793,1332.370696,-9696.697840,153.219100
331.343117,962.267725,-9474.636058,383.047749
331.343441,740.205942,-9326.594869,536.266849
331.343765,666.185348,-9474.636058,383.047749
331.344089,148.041188,-9030.512492,383.047749
331.344413,148.041188,-9030.512492,919.314598
331.344738,148.041188,-8586.388927,919.314598
331.345062,296.082377,-9252.574275,766.095498
331.345386,-148.041188,-9030.512492,536.266849
331.345710,-740.205942,-8956.491898,383.047749
331.346034,-740.205942,-9252.574275,459.657299
331.346358,-962.267725,-9474.636058,536.266849
331.346683,-740.205942,-9548.656652,766.095498
331.347007,-592.164754,-9548.656652,689.485948
331.347331,-1110.308913,-9178.553681,612.876398
331.347655,-1110.308913,-9844.739029,766.095498
331.347979,-1258.350101,-9844.739029,536.266849
331.348303,-1480.411884,-9844.739029,383.047749
331.348628,-1998.556043,-9548.656652,383.047749
331.348952,-1628.453072,-9770.718434,229.828649
331.349276,-1850.514855,-9696.697840,153.219100
331.349600,-1554.432478,-10214.842000,0.000000
331.349924,-1628.453072,-9770.718434,-383.047749
331.350248,-1480.411884,-9992.780217,0.000000
331.350572,-1628.453072,-9918.759623,-229.828649
331.350897,-1702.473667,-10066.800811,-229.828649
331.351221,-1554.432478,-10066.800811,-229.828649
331.351545,-1554.432478,-10140.821405,-383.047749
331.351869,-1110.308913,-10214.842000,0.000000
331.352193,-1258.350101,-10066.800811,-459.657299
331.352517,-1258.350101,-10658.965565,-306.438199
331.352842,-1184.329507,-10288.862594,0.000000
331.353166,-888.247130,-10140.821405,-536.266849
331.353490,-518.144159,-10140.821405,-76.609550
331.353814,0.000000,-9918.759623,-536.266849
331.354138,148.041188,-9696.697840,-383.047749
331.354462,370.102971,-9696.697840,-306.438199
331.354787,666.185348,-9918.759623,-612.876398
331.355111,814.226536,-10214.842000,-612.876398
331.355435,592.164754,-9918.759623,-919.314598
331.355759,666.185348,-9992.780217,-919.314598
331.356083,814.226536,-9992.780217,-689.485948
331.356407,1184.329507,-9918.759623,-689.485948
331.356731,1110.308913,-9622.677246,-689.485948
331.357056,1332.370696,-9770.718434,-612.876398
331.357380,1332.370696,-9844.739029,-229.828649
331.357704,1628.453072,-9474.636058,-306.438199
331.358028,1702.473667,-9474.636058,-229.828649
331.358352,1776.494261,-9474.636058,0.000000
331.358676,1924.535449,-9178.553681,0.000000
331.359001,2072.576638,-9104.533087,76.609550
331.359325,1850.514855,-9252.574275,0.000000
331.359649,1406.391290,-9104.533087,-229.828649
331.359973,1628.453072,-9326.594869,-153.219100
331.360297,1406.391290,-9400.615463,0.000000
331.360621,1332.370696,-9400.615463,0.000000
331.360945,1406.391290,-9400.615463,153.219100
331.361270,1258.350101,-9474.636058,383.047749
331.361594,888.247130,-9474.636058,383.047749
331.361918,1110.308913,-9252.574275,612.876398
331.362242,444.123565,-9030.512492,842.705048
331.362566,222.061783,-9104.533087,766.095498
331.362890,148.041188,-9474.636058,459.657299
331.363215,0.000000,-9474.636058,612.876398
331.363539,-296.082377,-9474.636058,612.876398
331.363863,-592.164754,-9252.574275,383.047749
331.364187,-740.205942,-9400.615463,689.485948
331.364511,-1036.288319,-9030.512492,919.314598
331.364835,-962.267725,-9474.636058,229.828649
331.365160,-1406.391290,-9696.697840,383.047749
331.365484,-1554.432478,-9770.718434,459.657299
331.365808,-1702.473667,-10066.800811,229.828649
331.366132,-2072.576638,-10066.800811,766.095498
331.366456,-1776.494261,-9918.759623,153.219100
331.366780,-1998.556043,-9622.677246,536.266849
331.367104,-1850.514855,-9918.759623,153.219100
331.367429,-2146.597232,-9992.780217,0.000000
331.367753,-1924.535449,-9770.718434,153.219100
331.368077,-1702.473667,-9696.697840,0.000000
331.368401,-1554.432478,-9696.697840,0.000000
331.368725,-1110.308913,-9992.780217,459.657299
331.369049,-1480.411884,-9992.780217,-995.924147
331.369374,-1776.494261,-9992.780217,-612.876398
331.369698,-1554.432478,-10436.903782,-459.657299
331.370022,-1850.514855,-10288.862594,-459.657299
331.370346,-1776.494261,-10362.883188,-689.485948
331.370670,-1332.370696,-10066.800811,-612.876398
331.370994,-370.102971,-9696.697840,-842.705048
331.371319,0.000000,-9992.780217,-306.438199
331.371643,74.020594,-9770.718434,-383.047749
331.371967,0.000000,-9400.615463,-383.047749
331.372291,518.144159,-9992.780217,-612.876398
331.372615,592.164754,-10066.800811,-689.485948
331.372939,444.123565,-9844.739029,-842.705048
331.373263,518.144159,-9992.780217,-1072.533697
331.373588,1036.288319,-10436.903782,-612.876398
331.373912,444.123565,-10214.842000,-995.924147
331.374236,1332.370696,-10214.842000,-995.924147
331.374560,1036.288319,-9770.718434,-766.095498
331.374884,1628.453072,-9622.677246,-612.876398
331.375208,2220.617826,-9696.697840,-383.047749
331.375533,2368.659014,-9548.656652,-153.219100
331.375857,2146.597232,-9252.574275,76.609550
331.376181,2368.659014,-9474.636058,153.219100
331.376505,2294.638420,-8956.491898,0.000000
331.376829,2072.576638,-9252.574275,0.000000
331.377153,1776.494261,-9400.615463,-229.828649
331.377478,1406.391290,-9474.636058,0.000000
331.377802,1332.370696,-9474.636058,0.000000
331.378126,1110.308913,-9326.594869,0.000000
331.378450,962.267725,-9030.512492,0.000000
331.378774,814.226536,-9030.512492,0.000000
331.379098,1332.370696,-9474.636058,306.438199
331.379422,1110.308913,-9104.533087,153.219100
331.379747,740.205942,-9030.512492,612.876398
331.380071,592.164754,-9252.574275,536.266849
331.380395,444.123565,-9474.636058,919.314598
331.380719,296.082377,-9400.615463,919.314598
331.381043,148.041188,-9474.636058,-229.828649
331.381367,-592.164754,-9104.533087,766.095498
331.381692,-518.144159,-9104.533087,536.266849
331.382016,-814.226536,-9622.677246,766.095498
331.382340,-814.226536,-9548.656652,306.438199
331.382664,-1258.350101,-9622.677246,536.266849
331.382988,-1702.473667,-9622.677246,229.828649
331.383312,-1480.411884,-9474.636058,76.609550
331.383637,-1924.535449,-9548.656652,612.876398
331.383961,-1924.535449,-9844.739029,229.828649
331.384285,-1776.494261,-9400.615463,383.047749
331.384609,-2294.638420,-9252.574275,612.876398
331.384933,-2294.638420,-9548.656652,229.828649
331.385257,-2072.576638,-9770.718434,459.657299
331.385582,-2072.576638,-9844.739029,229.828649
331.385906,-2294.638420,-9326.594869,153.219100
331.386230,-1702.473667,-9696.697840,0.000000
331.386554,-1924.535449,-10214.842000,0.000000
331.386878,-2072.576638,-9770.718434,-229.828649
331.387203,-1702.473667,-10214.842000,0.000000
331.387527,-1480.411884,-10362.883188,-383.047749
331.387851,-1332.370696,-10214.842000,-306.438199
331.388175,-962.267725,-9992.780217,0.000000
331.388499,-814.226536,-9770.718434,-612.876398
331.388824,-370.102971,-9992.780217,-229.828649
331.389148,0.000000,-9844.739029,-383.047749
331.389472,74.020594,-9918.759623,-459.657299
331.389796,444.123565,-9844.739029,-689.485948
331.390120,592.164754,-9918.759623,-306.438199
331.390445,962.267725,-9992.780217,-766.095498
331.390769,962.267725,-9992.780217,-1072.533697
331.391093,444.123565,-9844.739029,-383.047749
331.391417,1184.329507,-9918.759623,-842.705048
331.391741,1036.288319,-9474.636058,-1072.533697
331.392066,1332.370696,-9844.739029,-459.657299
331.392390,1110.308913,-9770.718434,-536.266849
331.392714,1480.411884,-9696.697840,-689.485948
331.393038,1924.535449,-9696.697840,-536.266849
331.393362,2368.659014,-9696.697840,0.000000
331.393686,2664.741391,-9474.636058,-153.219100
331.394011,2516.700203,-9326.594869,-536.266849
331.394335,2368.659014,-9770.718434,0.000000
331.394659,2146.597232,-9770.718434,0.000000
331.394983,1924.535449,-9770.718434,-459.657299
331.395307,1480.411884,-9770.718434,0.000000
331.395632,1332.370696,-9474.636058,-153.219100
331.395956,1184.329507,-9474.636058,229.828649
331.396280,1332.370696,-9474.636058,306.438199
331.396604,814.226536,-9474.636058,153.219100
331.396928,518.144159,-9178.553681,306.438199
331.397253,518.144159,-9178.553681,153.219100
331.397577,370.102971,-9252.574275,459.657299
331.397901,666.185348,-9252.574275,995.924147
331.398225,0.000000,-8956.491898,766.095498
331.398549,-148.041188,-9178.553681,536.266849
331.398874,-740.205942,-8438.347739,383.047749
331.399198,-888.247130,-9474.636058,459.657299
331.399522,-1258.350101,-9548.656652,306.438199
331.399846,-1184.329507,-9548.656652,306.438199
331.400170,-1332.370696,-9400.615463,153.219100
331.400495,-1628.453072,-9474.636058,229.828649
331.400819,-1036.288319,-9844.739029,536.266849
331.401143,-1554.432478,-9696.697840,919.314598
331.401467,-1776.494261,-9696.697840,536.266849
331.401791,-1776.494261,-9844.739029,76.609550
331.402116,-1850.514855,-9548.656652,153.219100
331.402440,-1850.514855,-9992.780217,229.828649
331.402764,-1924.535449,-9474.636058,153.219100
331.403088,-1924.535449,-9622.677246,153.219100
331.403412,-1702.473667,-9474.636058,0.000000
331.403736,-2220.617826,-9474.636058,-229.828649
331.404061,-1776.494261,-9992.780217,-306.438199
331.404385,-1628.453072,-10066.800811,-536.266849
331.404709,-1480.411884,-10066.800811,-612.876398
331.405033,-1406.391290,-10214.842000,-383.047749
331.405357,-1110.308913,-10066.800811,-459.657299
331.405682,-962.267725,-9918.759623,-766.095498
331.406006,-222.061783,-10436.903782,-459.657299
331.406330,-518.144159,-10066.800811,-383.047749
331.406654,-148.041188,-10066.800811,-536.266849
331.406978,74.020594,-10288.862594,-459.657299
331.407303,444.123565,-10140.821405,-459.657299
331.407627,888.247130,-9992.780217,-459.657299
331.407951,888.247130,-9844.739029,-766.095498
331.408275,1036.288319,-9622.677246,-612.876398
331.408599,814.226536,-9992.780217,-536.266849
331.408924,888.247130,-9992.780217,-995.924147
331.409248,592.164754,-9844.739029,-766.095498
331.409572,1110.308913,-10362.883188,-842.705048
331.409896,1110.308913,-9992.780217,-536.266849
331.410220,1110.308913,-9918.759623,-459.657299
331.410545,1332.370696,-9622.677246,-383.047749
331.410869,1628.453072,-9104.533087,-459.657299
331.411193,1406.391290,-9326.594869,0.000000
331.411517,1628.453072,-9252.574275,229.828649
331.411841,1776.494261,-9104.533087,-383.047749
331.412165,2072.576638,-9252.574275,0.000000
331.412490,1998.556043,-9400.615463,229.828649
331.412814,1776.494261,-9474.636058,0.000000
331.413138,1258.350101,-9474.636058,76.609550
331.413462,1184.329507,-9474.636058,229.828649
331.413786,592.164754,-9474.636058,842.705048
331.414111,888.247130,-9474.636058,229.828649
331.414435,888.247130,-9326.594869,229.828649
331.414759,814.226536,-9400.615463,612.876398
331.415083,444.123565,-9326.594869,459.657299
331.415407,296.082377,-9030.512492,536.266849
331.415732,74.020594,-8956.491898,459.657299
331.416056,-444.123565,-8882.471304,689.485948
331.416380,-814.226536,-8808.450710,689.485948
331.416704,-740.205942,-9400.615463,689.485948
331.417028,-666.185348,-9474.636058,306.438199
331.417353,-740.205942,-9326.594869,229.828649
331.417677,-962.267725,-9622.677246,459.657299
331.418001,-1036.288319,-9474.636058,383.047749
331.418325,-962.267725,-9622.677246,383.047749
331.418649,-962.267725,-10288.862594,306.438199
331.418974,-1554.432478,-9474.636058,612.876398
331.419298,-1480.411884,-9548.656652,459.657299
331.419622,-1702.473667,-9918.759623,306.438199
331.419946,-1702.473667,-9696.697840,306.438199
331.420270,-1702.473667,-9844.739029,306.438199
331.420594,-1332.370696,-9696.697840,229.828649
331.420919,-1554.432478,-9770.718434,383.047749
331.421243,-1184.329507,-9770.718434,229.828649
331.421567,-1628.453072,-9622.677246,76.609550
331.421891,-1332.370696,-10066.800811,-229.828649
331.422215,-1406.391290,-10214.842000,-459.657299
331.422540,-1184.329507,-10288.862594,-306.438199
331.422864,-1554.432478,-10140.821405,-229.828649
331.423188,-1332.370696,-10214.842000,-383.047749
331.423512,-1110.308913,-9918.759623,0.000000
331.423836,-592.164754,-10584.944971,-153.219100
331.424161,-518.144159,-9844.739029,0.000000
331.424485,0.000000,-9918.759623,-459.657299
331.424809,0.000000,-9918.759623,-459.657299
331.425133,74.020594,-9770.718434,-612.876398
331.425457,518.144159,-9844.739029,-306.438199
331.425782,666.185348,-9992.780217,-536.266849
331.426106,444.123565,-9326.594869,-1149.143247
331.426430,518.144159,-9548.656652,-536.266849
331.426754,888.247130,-10140.821405,-689.485948
331.427078,1036.288319,-9918.759623,-842.705048
331.427403,1184.329507,-9918.759623,-459.657299
331.427727,1258.350101,-9696.697840,-766.095498
331.428051,1628.453072,-9622.677246,0.000000
331.428375,1480.411884,-9400.615463,-766.095498
331.428699,1776.494261,-9622.677246,-153.219100
331.429023,1480.411884,-9474.636058,-229.828649
331.429348,1702.473667,-9548.656652,-383.047749
331.429672,1406.391290,-9326.594869,-153.219100
331.429996,1406.391290,-9474.636058,-153.219100
331.430320,1480.411884,-9030.512492,153.219100
331.430644,1628.453072,-9178.553681,-306.438199
331.430969,1850.514855,-9474.636058,-306.438199
331.431293,1554.432478,-9622.677246,-459.657299
331.431617,1036.288319,-9252.574275,-229.828649
331.431941,1258.350101,-9474.636058,153.219100
331.432265,962.267725,-9474.636058,229.828649
331.432590,740.205942,-9400.615463,383.047749
331.432914,814.226536,-9178.553681,612.876398
331.433238,666.185348,-9474.636058,383.047749
331.433562,370.102971,-9548.656652,459.657299
331.433886,148.041188,-9474.636058,383.047749
331.434211,-370.102971,-9548.656652,306.438199
331.434535,-222.061783,-9696.697840,689.485948
331.434859,-888.247130,-9474.636058,383.047749
331.435183,-1110.308913,-9474.636058,153.219100
331.435507,-1258.350101,-9104.533087,459.657299
331.435832,-1776.494261,-9622.677246,383.047749
331.436156,-1332.370696,-9548.656652,306.438199
331.436480,-1554.432478,-9474.636058,76.609550
331.436804,-1776.494261,-9548.656652,153.219100
331.437128,-2072.576638,-9622.677246,153.219100
331.437453,-2220.617826,-9622.677246,153.219100
331.437777,-1998.556043,-9696.697840,0.000000
331.438101,-2220.617826,-9770.718434,306.438199
331.438425,-1998.556043,-9992.780217,383.047749
331.438749,-1850.514855,-10066.800811,0.000000
331.439073,-1850.514855,-10066.800811,0.000000
331.439398,-1628.453072,-9992.780217,0.000000
331.439722,-1480.411884,-9696.697840,-153.219100
331.440046,-1480.411884,-9918.759623,0.000000
331.440370,-1332.370696,-9918.759623,0.000000
331.440694,-1332.370696,-9992.780217,76.609550
331.441019,-1184.329507,-9844.739029,-919.314598
331.441343,-888.247130,-9992.780217,-459.657299
331.441667,-740.205942,-9918.759623,-536.266849
331.441991,-296.082377,-9918.759623,-459.657299
331.442315,0.000000,-9770.718434,0.000000
331.442640,0.000000,-9326.594869,-842.705048
331.442964,-444.123565,-9696.697840,-153.219100
331.443288,74.020594,-9622.677246,-995.924147
331.443612,222.061783,-10066.800811,-766.095498
331.443936,518.144159,-10140.821405,-612.876398
331.444261,888.247130,-9918.759623,-766.095498
331.444585,1036.288319,-9844.739029,-536.266849
331.444909,1110.308913,-9622.677246,-842.705048
331.445233,1924.535449,-9844.739029,-383.047749
331.445557,2072.576638,-9622.677246,-306.438199
331.445882,2146.597232,-9548.656652,-306.438199
331.446206,2368.659014,-9844.739029,-306.438199
331.446530,2220.617826,-9548.656652,-229.828649
331.446854,1998.556043,-9474.636058,-153.219100
331.447178,1924.535449,-9252.574275,-459.657299
331.447502,1628.453072,-9474.636058,0.000000
331.447827,1702.473667,-9326.594869,0.000000
331.448151,1332.370696,-9252.574275,-766.095498
331.448475,1480.411884,-9548.656652,0.000000
331.448799,1406.391290,-9400.615463,0.000000
331.449123,1110.308913,-9474.636058,0.000000
331.449448,1036.288319,-9474.636058,536.266849
331.449772,1184.329507,-9400.615463,459.657299
331.450096,888.247130,-9178.553681,689.485948
331.450420,888.247130,-9400.615463,536.266849
331.450744,888.247130,-9326.594869,306.438199
331.451069,666.185348,-9474.636058,536.266849
331.451393,296.082377,-9474.636058,689.485948
331.451717,0.000000,-9474.636058,459.657299
331.452041,-444.123565,-9252.574275,153.219100
331.452365,-666.185348,-9326.594869,383.047749
331.452690,-740.205942,-9326.594869,536.266849
331.453014,-592.164754,-9400.615463,1072.533697
331.453338,-1406.391290,-9474.636058,306.438199
331.453662,-1480.411884,-9548.656652,383.047749
331.453986,-1628.453072,-9548.656652,766.095498
331.454311,-1924.535449,-9548.656652,536.266849
331.454635,-1924.535449,-9696.697840,689.485948
331.454959,-1628.453072,-9918.759623,459.657299
331.455283,-1998.556043,-9622.677246,153.219100
331.455607,-1850.514855,-9770.718434,306.438199
331.455931,-1850.514855,-9696.697840,229.828649
331.456256,-1776.494261,-9696.697840,153.219100
331.456580,-1702.473667,-9622.677246,76.609550
331.456904,-1702.473667,-9326.594869,383.047749
331.457228,-1850.514855,-9400.615463,0.000000
331.457552,-1776.494261,-9696.697840,-76.609550
331.457877,-1702.473667,-10140.821405,0.000000
331.458201,-1554.432478,-10066.800811,-689.485948
331.458525,-1628.453072,-10066.800811,-306.438199
331.458849,-1332.370696,-10214.842000,-612.876398
331.459173,-962.267725,-10066.800811,-306.438199
331.459498,-518.144159,-9696.697840,0.000000
331.459822,0.000000,-9696.697840,-383.047749
331.460146,370.102971,-9992.780217,0.000000
331.460470,518.144159,-10066.800811,-842.705048
331.460794,740.205942,-10140.821405,-842.705048
331.461119,740.205942,-9918.759623,-689.485948
331.461443,888.247130,-9992.780217,-919.314598
331.461767,888.247130,-9474.636058,-766.095498
331.462091,814.226536,-9696.697840,-1685.410096
331.462415,1258.350101,-9622.677246,-842.705048
331.462740,1776.494261,-9992.780217,-842.705048
331.463064,1850.514855,-10140.821405,-919.314598
331.463388,1850.514855,-9992.780217,-306.438199
331.463712,1924.535449,-10140.821405,-153.219100
331.464036,1480.411884,-9548.656652,-229.828649
331.464360,1776.494261,-9474.636058,0.000000
331.464685,1628.453072,-8882.471304,0.000000
331.465009,2220.617826,-9622.677246,-306.438199
331.465333,2072.576638,-9622.677246,0.000000
331.465657,1924.535449,-9474.636058,-153.219100
331.465981,1554.432478,-9474.636058,-153.219100
331.466306,1480.411884,-9548.656652,0.000000
331.466630,1406.391290,-9104.533087,0.000000
331.466954,1258.350101,-9252.574275,0.000000
331.467278,518.144159,-9474.636058,-306.438199
331.467602,888.247130,-9252.574275,229.828649
331.467927,666.185348,-9178.553681,306.438199
331.468251,370.102971,-9400.615463,229.828649
331.468575,0.000000,-9474.636058,612.876398
331.468899,-518.144159,-9178.553681,229.828649
331.469223,-518.144159,-9252.574275,842.705048
331.469548,-666.185348,-9252.574275,229.828649
331.469872,-592.164754,-9474.636058,1072.533697
331.470196,-666.185348,-9474.636058,383.047749
331.470520,-888.247130,-9474.636058,536.266849
331.470844,-962.267725,-9548.656652,536.266849
331.471169,-1184.329507,-9622.677246,459.657299
331.471493,-1554.432478,-9770.718434,153.219100
331.471817,-1776.494261,-9474.636058,459.657299
331.472141,-1924.535449,-9622.677246,459.657299
331.472465,-1998.556043,-9474.636058,76.609550
331.472789,-2146.597232,-9770.718434,76.609550
331.473114,-2220.617826,-9622.677246,0.000000
331.473438,-1998.556043,-9622.677246,0.000000
331.473762,-1850.514855,-9770.718434,0.000000
331.474086,-1702.473667,-9548.656652,229.828649
331.474410,-1850.514855,-9548.656652,76.609550
331.474735,-1776.494261,-9696.697840,306.438199
331.475059,-1480.411884,-10214.842000,-229.828649
331.475383,-1258.350101,-10288.862594,-306.438199
331.475707,-1110.308913,-10288.862594,-383.047749
331.476031,-962.267725,-10140.821405,-306.438199
331.476356,-1036.288319,-10066.800811,-536.266849
331.476680,-444.123565,-10214.842000,-612.876398
331.477004,-296.082377,-10214.842000,-612.876398
331.477328,0.000000,-10066.800811,-459.657299
331.477652,148.041188,-10066.800811,-536.266849
331.477977,296.082377,-10066.800811,-612.876398
331.478301,518.144159,-9770.718434,-383.047749
331.478625,666.185348,-9918.759623,-383.047749
331.478949,518.144159,-9622.677246,-612.876398
331.479273,592.164754,-9918.759623,-306.438199
331.479598,814.226536,-9844.739029,-229.828649
331.479922,666.185348,-9918.759623,-383.047749
331.480246,1184.329507,-9918.759623,-459.657299
331.480570,1554.432478,-9918.759623,-612.876398
331.480894,1776.494261,-9622.677246,-383.047749
331.481219,1628.453072,-9474.636058,-766.095498
331.481543,1850.514855,-9252.574275,-383.047749
331.481867,2294.638420,-9252.574275,-612.876398
331.482191,2220.617826,-9326.594869,0.000000
331.482515,2072.576638,-9474.636058,0.000000
331.482839,1924.535449,-9474.636058,0.000000
331.483164,1924.535449,-9770.718434,0.000000
331.483488,1628.453072,-8956.491898,0.000000
331.483812,1406.391290,-9252.574275,306.438199
331.484136,1036.288319,-9400.615463,-383.047749
331.484460,518.144159,-8956.491898,0.000000
331.484784,518.144159,-9400.615463,76.609550
331.485108,222.061783,-9104.533087,229.828649
331.485432,148.041188,-9326.594869,383.047749
331.485757,222.061783,-9030.512492,306.438199
331.486081,222.061783,-8808.450710,459.657299
331.486405,296.082377,-8882.471304,689.485948
331.486729,-296.082377,-8956.491898,766.095498
331.487053,-444.123565,-9474.636058,229.828649
331.487377,-518.144159,-9474.636058,459.657299
331.487701,-444.123565,-9548.656652,229.828649
331.488025,-666.185348,-9474.636058,459.657299
331.488349,-1332.370696,-9104.533087,383.047749
331.488673,-1110.308913,-9326.594869,459.657299
331.488997,-1332.370696,-9474.636058,383.047749
331.489321,-1554.432478,-9622.677246,612.876398
331.489646,-1702.473667,-9770.718434,383.047749
331.489970,-1554.432478,-9622.677246,229.828649
331.490294,-1554.432478,-9622.677246,383.047749
331.490618,-1628.453072,-9770.718434,0.000000
331.490942,-1628.453072,-9696.697840,-153.219100
331.491266,-1702.473667,-9918.759623,-612.876398
331.491590,-1110.308913,-10214.842000,-306.438199
331.491914,-814.226536,-9844.739029,-383.047749
331.492238,-1110.308913,-9992.780217,-459.657299
331.492562,-1184.329507,-10140.821405,-306.438199
331.492886,-962.267725,-10288.862594,-383.047749
331.493210,-1258.350101,-9918.759623,-383.047749
331.493534,-1258.350101,-10288.862594,-536.266849
331.493859,-1332.370696,-10140.821405,-689.485948
331.494183,-592.164754,-10214.842000,-459.657299
331.494507,-740.205942,-9844.739029,0.000000
331.494831,0.000000,-10140.821405,0.000000
331.495155,-148.041188,-9918.759623,-612.876398
331.495479,74.020594,-10066.800811,-459.657299
331.495803,222.061783,-9844.739029,-383.047749
331.496127,444.123565,-9770.718434,-383.047749
331.496451,666.185348,-9696.697840,0.000000
331.496775,814.226536,-9770.718434,-459.657299
331.497099,1110.308913,-9696.697840,-919.314598
331.497423,962.267725,-10066.800811,-306.438199
331.497748,888.247130,-9992.780217,-459.657299
331.498072,1036.288319,-9770.718434,-306.438199
331.498396,1184.329507,-9696.697840,-306.438199
331.498720,1332.370696,-9770.718434,-536.266849
331.499044,1628.453072,-9622.677246,0.000000
331.499368,1850.514855,-9548.656652,229.828649
331.499692,1776.494261,-9400.615463,229.828649
331.500016,2072.576638,-9474.636058,0.000000
331.500340,1702.473667,-9400.615463,-153.219100
331.500664,1406.391290,-9400.615463,0.000000
331.500988,1258.350101,-9326.594869,0.000000
331.501312,1184.329507,-9474.636058,-153.219100
331.501637,1480.411884,-9252.574275,0.000000
331.501961,666.185348,-9252.574275,229.828649
331.502285,1036.288319,-9252.574275,153.219100
331.502609,888.247130,-9400.615463,459.657299
331.502933,296.082377,-9178.553681,383.047749
331.503257,370.102971,-9400.615463,229.828649
331.503581,296.082377,-9104.533087,536.266849
331.503905,444.123565,-9030.512492,536.266849
331.504229,74.020594,-8956.491898,383.047749
331.504553,296.082377,-9400.615463,766.095498
331.504877,-592.164754,-9252.574275,766.095498
331.505201,-740.205942,-9474.636058,459.657299
331.505525,-962.267725,-9326.594869,306.438199
331.505850,-1184.329507,-9474.636058,383.047749
331.506174,-962.267725,-9696.697840,1225.752797
331.506498,-814.226536,-9622.677246,383.047749
331.506822,-1110.308913,-9844.739029,0.000000
331.507146,-1702.473667,-9622.677246,0.000000
331.507470,-1924.535449,-9770.718434,229.828649
331.507794,-2072.576638,-9770.718434,229.828649
331.508118,-1998.556043,-9992.780217,306.438199
331.508442,-1924.535449,-9844.739029,229.828649
331.508766,-1776.494261,-9918.759623,0.000000
331.509090,-2072.576638,-9696.697840,0.000000
331.509414,-1406.391290,-9548.656652,306.438199
331.509739,-1776.494261,-9696.697840,-153.219100
331.510063,-1628.453072,-9622.677246,-459.657299
331.510387,-1406.391290,-10066.800811,-383.047749
331.510711,-1480.411884,-9992.780217,-383.047749
331.511035,-1258.350101,-9844.739029,-689.485948
331.511359,-1258.350101,-10214.842000,-612.876398
331.511683,-1036.288319,-10140.821405,-306.438199
331.512007,-1258.350101,-10140.821405,0.000000
331.512331,-888.247130,-10066.800811,-459.657299
331.512655,-444.123565,-9918.759623,-459.657299
331.512979,0.000000,-10066.800811,-612.876398
331.513303,370.102971,-9844.739029,-766.095498
331.513628,518.144159,-9844.739029,-919.314598
331.513952,740.205942,-9844.739029,-612.876398
331.514276,518.144159,-9844.739029,-689.485948
331.514600,814.226536,-9992.780217,-766.095498
331.514924,814.226536,-9918.759623,-919.314598
331.515248,592.164754,-9918.759623,-689.485948
331.515572,1110.308913,-9918.759623,-766.095498
331.515896,1480.411884,-9992.780217,-689.485948
331.516220,1702.473667,-9622.677246,-229.828649
331.516544,1924.535449,-9622.677246,-459.657299
331.516868,2146.597232,-9770.718434,-229.828649
331.517192,1998.556043,-9548.656652,-153.219100
331.517517,1998.556043,-9548.656652,0.000000
331.517841,1850.514855,-9326.594869,-229.828649
331.518165,1850.514855,-9030.512492,-153.219100
331.518489,1998.556043,-9326.594869,0.000000
331.518813,1332.370696,-9104.533087,0.000000
331.519137,1924.535449,-9474.636058,0.000000
331.519461,1406.391290,-9474.636058,0.000000
331.519785,888.247130,-9474.636058,306.438199
331.520109,592.164754,-9400.615463,76.609550
331.520433,444.123565,-9400.615463,306.438199
331.520757,814.226536,-9474.636058,383.047749
331.521081,888.247130,-9252.574275,689.485948
331.521405,888.247130,-9252.574275,919.314598
331.521730,74.020594,-9326.594869,536.266849
331.522054,0.000000,-9252.574275,536.266849
331.522378,-518.144159,-9474.636058,459.657299
331.522702,-444.123565,-9548.656652,689.485948
331.523026,-740.205942,-9770.718434,383.047749
331.523350,-296.082377,-9622.677246,766.095498
331.523674,-814.226536,-9326.594869,842.705048
331.523998,-1184.329507,-9622.677246,919.314598
331.524322,-1554.432478,-9696.697840,689.485948
331.524646,-1702.473667,-9844.739029,459.657299
331.524970,-1924.535449,-9622.677246,229.828649
331.525294,-1924.535449,-9474.636058,536.266849
331.525619,-1850.514855,-9770.718434,306.438199
331.525943,-1776.494261,-9474.636058,612.876398
331.526267,-2146.597232,-9474.636058,536.266849
331.526591,-1924.535449,-9252.574275,536.266849
331.526915,-2072.576638,-9474.636058,76.609550
331.527239,-1998.556043,-9696.697840,0.000000
331.527563,-2220.617826,-9548.656652,-459.657299
331.527887,-1776.494261,-9844.739029,-612.876398
331.528211,-1480.411884,-9844.739029,-306.438199
331.528535,-1554.432478,-10066.800811,153.219100
331.528859,-1258.350101,-10214.842000,0.000000
331.529183,-1776.494261,-9844.739029,-383.047749
331.529508,-1036.288319,-9992.780217,-306.438199
331.529832,-666.185348,-10066.800811,-383.047749
331.530156,-444.123565,-10214.842000,-612.876398
331.530480,0.000000,-9844.739029,-229.828649
331.530804,148.041188,-9696.697840,-842.705048
331.531128,370.102971,-9474.636058,-229.828649
331.531452,148.041188,-9548.656652,-536.266849
331.531776,370.102971,-9770.718434,-766.095498
331.532100,740.205942,-9696.697840,-766.095498
331.532424,814.226536,-9770.718434,-842.705048
331.532748,1184.329507,-9992.780217,-766.095498
331.533072,1258.350101,-9622.677246,-383.047749
331.533396,1628.453072,-9622.677246,-689.485948
331.533721,1480.411884,-9770.718434,-536.266849
331.534045,2072.576638,-9474.636058,0.000000
331.534369,1776.494261,-9696.697840,-612.876398
331.534693,1924.535449,-9770.718434,-536.266849
331.535017,2146.597232,-9622.677246,-612.876398
331.535341,2294.638420,-9844.739029,-459.657299
331.535665,1850.514855,-9548.656652,-153.219100
331.535989,1480.411884,-9326.594869,-153.219100
331.536313,1702.473667,-9622.677246,76.609550
331.536637,1480.411884,-9696.697840,-306.438199
331.536961,1480.411884,-9326.594869,0.000000
331.537285,1184.329507,-9548.656652,-229.828649
331.537610,888.247130,-9400.615463,-153.219100
331.537934,962.267725,-9400.615463,76.609550
331.538258,444.123565,-9400.615463,0.000000
331.538582,0.000000,-9474.636058,-536.266849
331.538906,0.000000,-8734.430116,0.000000
331.539230,0.000000,-9326.594869,153.219100
331.539554,-222.061783,-9104.533087,612.876398
331.539878,-148.041188,-9400.615463,383.047749
331.540202,-222.061783,-9622.677246,536.266849
331.540526,-444.123565,-9400.615463,459.657299
331.540850,-814.226536,-9326.594869,306.438199
331.541174,-1184.329507,-9622.677246,536.266849
331.541499,-1110.308913,-9844.739029,383.047749
331.541823,-1332.370696,-9770.718434,-153.219100
331.542147,-1702.473667,-9622.677246,-229.828649
331.542471,-2072.576638,-9622.677246,0.000000
331.542795,-1776.494261,-9844.739029,536.266849
331.543119,-2146.597232,-9548.656652,229.828649
331.543443,-2220.617826,-9622.677246,76.609550
331.543767,-2072.576638,-9696.697840,153.219100
331.544091,-1998.556043,-9622.677246,229.828649
331.544415,-2072.576638,-9696.697840,76.609550
331.544739,-1776.494261,-9918.759623,0.000000
331.545063,-1924.535449,-9622.677246,76.609550
331.545388,-1850.514855,-9696.697840,-383.047749
331.545712,-1776.494261,-9992.780217,-229.828649
331.546036,-1480.411884,-10066.800811,-229.828649
331.546360,-1110.308913,-10066.800811,-459.657299
331.546684,-592.164754,-10214.842000,0.000000
331.547008,-518.144159,-10436.903782,0.000000
331.547332,0.000000,-10510.924376,-306.438199
331.547656,-296.082377,-10066.800811,-1072.533697
331.547980,0.000000,-10066.800811,-612.876398
331.548304,148.041188,-9992.780217,-536.266849
331.548628,296.082377,-9992.780217,-689.485948
331.548952,592.164754,-9844.739029,0.000000
331.549276,814.226536,-9992.780217,-766.095498
331.549601,740.205942,-9474.636058,-612.876398
331.549925,888.247130,-9622.677246,-306.438199
331.550249,888.247130,-9992.780217,-612.876398
331.550573,1036.288319,-9992.780217,-536.266849
331.550897,1184.329507,-9918.759623,-306.438199
331.551221,1258.350101,-9770.718434,-383.047749
331.551545,1480.411884,-9326.594869,-383.047749
331.551869,1628.453072,-9104.533087,-229.828649
331.552193,1480.411884,-9326.594869,-536.266849
331.552517,1628.453072,-9252.574275,0.000000
331.552841,1850.514855,-9400.615463,0.000000
331.553165,1776.494261,-9326.594869,-153.219100
331.553490,1924.535449,-9326.594869,0.000000
331.553814,1702.473667,-9474.636058,229.828649
331.554138,1850.514855,-9622.677246,0.000000
331.554462,1554.432478,-9474.636058,383.047749
331.554786,1184.329507,-9548.656652,383.047749
331.555110,888.247130,-9622.677246,153.219100
331.555434,666.185348,-9474.636058,383.047749
331.555758,444.123565,-9474.636058,383.047749
331.556082,666.185348,-9400.615463,459.657299
331.556406,296.082377,-9474.636058,383.047749
331.556730,666.185348,-9622.677246,766.095498
331.557054,222.061783,-9178.553681,612.876398
331.557379,-444.123565,-8734.430116,612.876398
331.557703,-370.102971,-9252.574275,536.266849
331.558027,-666.185348,-9178.553681,459.657299
331.558351,-888.247130,-9326.594869,306.438199
331.558675,-740.205942,-9400.615463,153.219100
331.558999,-592.164754,-9992.780217,536.266849
331.559323,-1332.370696,-9252.574275,459.657299
331.559647,-1332.370696,-9696.697840,383.047749
331.559971,-1776.494261,-9622.677246,383.047749
331.560295,-1628.453072,-9844.739029,229.828649
331.560619,-1554.432478,-9696.697840,229.828649
331.560943,-1406.391290,-9770.718434,306.438199
331.561267,-1406.391290,-9696.697840,536.266849
331.561592,-1258.350101,-9548.656652,383.047749
331.561916,-1184.329507,-9548.656652,536.266849
331.562240,-1702.473667,-9548.656652,76.609550
331.562564,-1332.370696,-9770.718434,-153.219100
331.562888,-1480.411884,-9696.697840,-306.438199
331.563212,-1332.370696,-9844.739029,-306.438199
331.563536,-1110.308913,-10066.800811,-229.828649
331.563860,-1110.308913,-10140.821405,-689.485948
331.564184,-1554.432478,-10140.821405,-459.657299
331.564508,-1332.370696,-10288.862594,-536.266849
331.564832,-814.226536,-10214.842000,-612.876398
331.565156,-666.185348,-10288.862594,-383.047749
331.565481,-222.061783,-10214.842000,-229.828649
331.565805,-148.041188,-9992.780217,-306.438199
331.566129,814.226536,-10436.903782,-459.657299
331.566453,370.102971,-9992.780217,-612.876398
331.566777,814.226536,-9918.759623,-612.876398
331.567101,370.102971,-9992.780217,-919.314598
331.567425,592.164754,-9844.739029,-842.705048
331.567749,444.123565,-9992.780217,-766.095498
331.568073,444.123565,-9918.759623,-1072.533697
331.568397,592.164754,-10140.821405,-459.657299
331.568721,962.267725,-9622.677246,-1225.752797
331.569045,1332.370696,-9918.759623,-612.876398
331.569370,1776.494261,-9548.656652,-153.219100
331.569694,1332.370696,-9400.615463,0.000000
