#time,accel_x,accel_y,accel_z
724.420089,-370.102971,-9030.512492,2374.896044
724.420413,4071.132681,-8734.430116,4596.572988
724.420737,5773.606348,-10955.047942,3983.696590
724.421060,4071.132681,-8142.265362,3447.429741
724.421384,1702.473667,-6439.791695,4290.134789
724.421708,0.000000,-9474.636058,2145.067394
724.422032,-1776.494261,-12287.418637,-842.705048
724.422356,-4515.256246,-10881.027347,-995.924147
724.422679,-5477.523971,-8216.285956,-3217.601092
724.423003,-6217.729913,-12731.542202,-689.485948
724.423327,-4441.235652,-16432.571912,-842.705048
724.423651,-3330.926739,-11399.171507,-1149.143247
724.423975,-3701.029710,-8512.368333,536.266849
724.424299,-2516.700203,-8364.327145,-459.657299
724.424622,740.205942,-7994.224174,-1455.581446
724.424946,2812.782580,-7920.203579,842.705048
724.425270,3849.070898,-6587.832884,3064.381992
724.425594,3923.091493,-8956.491898,3217.601092
724.425918,1332.370696,-9474.636058,0.000000
724.426241,-2294.638420,-8068.244768,-1072.533697
724.426565,-3108.864956,-10214.842000,-1225.752797
724.426889,-1702.473667,-12657.521608,-2298.286494
724.427213,-222.061783,-13027.624579,-2145.067394
724.427537,0.000000,-11177.109724,-383.047749
724.427861,148.041188,-9474.636058,-383.047749
724.428184,296.082377,-10584.944971,0.000000
724.428508,-222.061783,-9844.739029,76.609550
724.428832,0.000000,-9400.615463,842.705048
724.429156,0.000000,-10658.965565,76.609550
724.429480,-888.247130,-10288.862594,0.000000
724.429803,-2738.761985,-9770.718434,1608.800546
724.430127,-3552.988522,-11177.109724,-306.438199
724.430451,-3775.050304,-11399.171507,-995.924147
724.430775,-4885.359217,-11547.212695,-2374.896044
724.431099,-3478.967927,-10584.944971,-1455.581446
724.431423,-666.185348,-9326.594869,-459.657299
724.431746,962.267725,-9326.594869,229.828649
724.432070,1258.350101,-9178.553681,919.314598
724.432394,1332.370696,-9474.636058,842.705048
724.432718,592.164754,-9326.594869,1378.971896
724.433042,814.226536,-9400.615463,2451.505594
724.433365,296.082377,-9474.636058,2145.067394
724.433689,0.000000,-9326.594869,2451.505594
724.434013,148.041188,-9548.656652,2374.896044
724.434337,0.000000,-9178.553681,1302.362347
724.434661,-592.164754,-7624.121203,919.314598
724.434984,-1628.453072,-7402.059420,459.657299
724.435308,-1850.514855,-8142.265362,459.657299
724.435632,-1036.288319,-8290.306550,-383.047749
724.435956,-74.020594,-8068.244768,-229.828649
724.436280,0.000000,-8438.347739,76.609550
724.436604,740.205942,-9918.759623,306.438199
724.436927,1406.391290,-10584.944971,1072.533697
724.437251,2072.576638,-10140.821405,1991.848295
724.437575,1702.473667,-9696.697840,1762.019645
724.437899,1110.308913,-10140.821405,2145.067394
724.438223,1850.514855,-10140.821405,2451.505594
724.438546,2368.659014,-9548.656652,2528.115143
724.438870,1776.494261,-9474.636058,2068.457845
724.439194,1110.308913,-9548.656652,1302.362347
724.439518,814.226536,-8216.285956,1149.143247
724.439842,-222.061783,-7402.059420,0.000000
724.440166,-1406.391290,-7624.121203,-766.095498
724.440489,-2368.659014,-8734.430116,-919.314598
724.440813,-2294.638420,-9104.533087,-1225.752797
724.441137,-1332.370696,-9400.615463,-306.438199
724.441461,-592.164754,-10214.842000,-766.095498
724.441785,-444.123565,-10510.924376,0.000000
724.442108,-518.144159,-10807.006753,306.438199
724.442432,-296.082377,-10955.047942,1225.752797
724.442756,-370.102971,-10584.944971,1532.190996
724.443080,0.000000,-10510.924376,842.705048
724.443404,-444.123565,-10658.965565,919.314598
724.443728,148.041188,-10584.944971,1225.752797
724.444051,-370.102971,-10510.924376,76.609550
724.444375,-1258.350101,-10066.800811,-459.657299
724.444699,-2220.617826,-10362.883188,-1149.143247
724.445023,-2516.700203,-10362.883188,-1685.410096
724.445347,-1776.494261,-9844.739029,-2068.457845
724.445670,-814.226536,-9992.780217,-1915.238745
724.445994,-444.123565,-10066.800811,-2145.067394
724.446318,370.102971,-9844.739029,-1685.410096
724.446642,1406.391290,-9474.636058,-1302.362347
724.446966,1480.411884,-8956.491898,-1072.533697
724.447290,1702.473667,-9030.512492,-919.314598
724.447613,1998.556043,-8586.388927,0.000000
724.447937,2812.782580,-8882.471304,-383.047749
724.448261,2664.741391,-9178.553681,76.609550
724.448585,2368.659014,-8882.471304,0.000000
724.448909,814.226536,-9400.615463,-766.095498
724.449232,-222.061783,-9770.718434,-1072.533697
724.449556,-1258.350101,-9770.718434,-1608.800546
724.449880,-1924.535449,-9696.697840,-1991.848295
724.450204,-1850.514855,-9770.718434,-1915.238745
724.450528,-1258.350101,-10066.800811,-919.314598
724.450852,-592.164754,-9992.780217,-842.705048
724.451176,-296.082377,-9770.718434,-1532.190996
724.451500,-222.061783,-10066.800811,-689.485948
724.451824,0.000000,-9918.759623,-459.657299
724.452148,0.000000,-9696.697840,-153.219100
724.452472,0.000000,-9474.636058,-153.219100
724.452796,-444.123565,-10140.821405,-612.876398
724.453119,-814.226536,-9844.739029,-229.828649
724.453443,-1036.288319,-9992.780217,0.000000
724.453767,-1110.308913,-9844.739029,-766.095498
724.454091,-962.267725,-9918.759623,-229.828649
724.454415,-592.164754,-9548.656652,0.000000
724.454739,296.082377,-9548.656652,-229.828649
724.455063,740.205942,-9104.533087,-306.438199
724.455387,1258.350101,-9030.512492,-995.924147
724.455711,1628.453072,-8956.491898,536.266849
724.456035,2294.638420,-9548.656652,0.000000
724.456359,2886.803174,-9844.739029,0.000000
724.456683,2664.741391,-9548.656652,153.219100
724.457006,2146.597232,-9770.718434,0.000000
724.457330,1554.432478,-9918.759623,383.047749
724.457654,1184.329507,-9918.759623,0.000000
724.457978,962.267725,-10214.842000,76.609550
724.458302,0.000000,-9474.636058,383.047749
724.458626,-222.061783,-9622.677246,229.828649
724.458950,-222.061783,-9474.636058,536.266849
724.459274,-370.102971,-9548.656652,612.876398
724.459598,-740.205942,-9622.677246,536.266849
724.459922,-370.102971,-9622.677246,842.705048
724.460246,-370.102971,-9474.636058,1225.752797
724.460570,0.000000,-9474.636058,612.876398
724.460893,-592.164754,-9474.636058,689.485948
724.461217,-370.102971,-9696.697840,536.266849
724.461541,-518.144159,-9770.718434,842.705048
724.461865,-814.226536,-9622.677246,536.266849
724.462189,-1184.329507,-9918.759623,995.924147
724.462513,-1332.370696,-9696.697840,229.828649
724.462837,-1628.453072,-9252.574275,306.438199
724.463161,-2220.617826,-9474.636058,842.705048
724.463485,-2368.659014,-9696.697840,766.095498
724.463809,-2516.700203,-9622.677246,612.876398
724.464133,-2146.597232,-9474.636058,919.314598
724.464457,-1850.514855,-9252.574275,919.314598
724.464781,-1184.329507,-9030.512492,1072.533697
724.465104,-740.205942,-9252.574275,1149.143247
724.465428,-74.020594,-9400.615463,995.924147
724.465752,0.000000,-9548.656652,536.266849
724.466076,0.000000,-9696.697840,-306.438199
724.466400,74.020594,-9696.697840,-153.219100
724.466724,296.082377,-9770.718434,-153.219100
724.467048,666.185348,-10066.800811,-383.047749
724.467372,666.185348,-10214.842000,0.000000
724.467696,814.226536,-9696.697840,-536.266849
724.468020,1406.391290,-9696.697840,-689.485948
724.468344,1258.350101,-9548.656652,-306.438199
724.468668,1110.308913,-9696.697840,-306.438199
724.468991,888.247130,-9474.636058,0.000000
724.469315,1036.288319,-9326.594869,-229.828649
724.469639,1036.288319,-9178.553681,0.000000
724.469963,740.205942,-9474.636058,-153.219100
724.470287,814.226536,-9696.697840,0.000000
724.470611,518.144159,-9770.718434,-153.219100
724.470935,370.102971,-9474.636058,-612.876398
724.471259,518.144159,-9844.739029,-612.876398
724.471583,370.102971,-9918.759623,-383.047749
724.471907,222.061783,-9992.780217,-383.047749
724.472231,592.164754,-9992.780217,-842.705048
724.472555,518.144159,-9696.697840,-919.314598
724.472878,0.000000,-9844.739029,-1378.971896
724.473202,-814.226536,-9918.759623,-766.095498
724.473526,-1258.350101,-9992.780217,-612.876398
724.473850,-1332.370696,-9918.759623,-689.485948
724.474174,-1332.370696,-9770.718434,-842.705048
724.474498,-740.205942,-10436.903782,-459.657299
724.474822,-444.123565,-9474.636058,-689.485948
724.475146,814.226536,-9918.759623,-689.485948
724.475470,592.164754,-9548.656652,-383.047749
724.475794,666.185348,-9548.656652,-383.047749
724.476118,666.185348,-9622.677246,-536.266849
724.476442,1184.329507,-9474.636058,-383.047749
724.476765,1776.494261,-9622.677246,-766.095498
724.477089,1332.370696,-9474.636058,-919.314598
724.477413,1110.308913,-9622.677246,-995.924147
724.477737,592.164754,-9770.718434,-1149.143247
724.478061,222.061783,-9622.677246,-1072.533697
724.478385,0.000000,-9474.636058,-1149.143247
724.478709,-444.123565,-9770.718434,-1072.533697
724.479033,-518.144159,-9918.759623,-1225.752797
724.479357,-296.082377,-9696.697840,-536.266849
724.479681,-296.082377,-9178.553681,0.000000
724.480005,-444.123565,-9548.656652,-306.438199
724.480329,-666.185348,-9992.780217,0.000000
724.480653,-888.247130,-10066.800811,0.000000
724.480976,-592.164754,-9844.739029,0.000000
724.481300,-1036.288319,-10066.800811,0.000000
724.481624,-1110.308913,-9992.780217,-459.657299
724.481948,-1110.308913,-9918.759623,-536.266849
724.482272,-1110.308913,-9548.656652,153.219100
724.482596,-962.267725,-9844.739029,0.000000
724.482920,-1184.329507,-9770.718434,0.000000
724.483244,-1036.288319,-9548.656652,0.000000
724.483568,-1480.411884,-9622.677246,153.219100
724.483892,-1258.350101,-9770.718434,229.828649
724.484216,-962.267725,-9400.615463,612.876398
724.484540,-962.267725,-9178.553681,612.876398
724.484863,-740.205942,-9474.636058,919.314598
724.485187,-296.082377,-9548.656652,919.314598
724.485511,0.000000,-9622.677246,1225.752797
724.485835,222.061783,-9548.656652,919.314598
724.486159,518.144159,-9622.677246,612.876398
724.486483,814.226536,-9474.636058,459.657299
724.486807,1036.288319,-9178.553681,766.095498
724.487131,1258.350101,-9474.636058,383.047749
724.487455,1036.288319,-9548.656652,383.047749
724.487779,962.267725,-9474.636058,153.219100
724.488103,1184.329507,-9400.615463,153.219100
724.488427,1332.370696,-9474.636058,459.657299
724.488750,1554.432478,-9400.615463,919.314598
724.489074,1110.308913,-9252.574275,919.314598
724.489398,1110.308913,-9030.512492,1532.190996
724.489722,1036.288319,-9252.574275,1685.410096
724.490046,740.205942,-9178.553681,995.924147
724.490370,222.061783,-9326.594869,1149.143247
724.490694,-148.041188,-9178.553681,995.924147
724.491018,-444.123565,-9104.533087,766.095498
724.491342,-592.164754,-9178.553681,536.266849
724.491666,-740.205942,-9252.574275,383.047749
724.491990,-592.164754,-9622.677246,0.000000
724.492314,-814.226536,-9178.553681,153.219100
724.492637,-814.226536,-9548.656652,0.000000
724.492961,-888.247130,-9696.697840,229.828649
724.493285,-888.247130,-9696.697840,229.828649
724.493609,-666.185348,-10066.800811,153.219100
724.493933,-740.205942,-9770.718434,76.609550
724.494257,-592.164754,-9770.718434,0.000000
724.494581,-518.144159,-10066.800811,306.438199
724.494905,0.000000,-10140.821405,459.657299
724.495229,-222.061783,-9992.780217,0.000000
724.495553,0.000000,-10140.821405,-306.438199
724.495877,-296.082377,-9918.759623,-383.047749
724.496201,0.000000,-9918.759623,-1149.143247
724.496524,74.020594,-9844.739029,-1072.533697
724.496848,444.123565,-9400.615463,-1149.143247
724.497172,666.185348,-9918.759623,-1455.581446
724.497496,962.267725,-9696.697840,-1378.971896
724.497820,1258.350101,-9770.718434,-1532.190996
724.498144,1406.391290,-9622.677246,-1302.362347
724.498468,1628.453072,-10140.821405,-919.314598
724.498792,1184.329507,-10066.800811,-536.266849
724.499116,1036.288319,-10066.800811,-842.705048
724.499440,666.185348,-10140.821405,-689.485948
724.499764,518.144159,-9622.677246,-1072.533697
724.500088,148.041188,-9918.759623,-1225.752797
724.500412,-666.185348,-9770.718434,-1225.752797
724.500735,-666.185348,-9844.739029,-1149.143247
724.501059,-888.247130,-9918.759623,-1225.752797
724.501383,-962.267725,-9844.739029,-1225.752797
724.501707,-1332.370696,-10066.800811,-995.924147
724.502031,-1036.288319,-9992.780217,-1149.143247
724.502355,-1480.411884,-9770.718434,-1302.362347
724.502679,-1110.308913,-9696.697840,-459.657299
724.503003,-1036.288319,-10140.821405,-536.266849
724.503327,-592.164754,-9992.780217,-153.219100
724.503651,-148.041188,-9770.718434,0.000000
724.503975,-444.123565,-9844.739029,229.828649
724.504299,-740.205942,-9770.718434,229.828649
724.504622,-888.247130,-9992.780217,-919.314598
724.504946,-1110.308913,-9696.697840,0.000000
724.505270,-962.267725,-9918.759623,0.000000
724.505594,-962.267725,-9548.656652,0.000000
724.505918,-518.144159,-9474.636058,0.000000
724.506242,-296.082377,-9326.594869,0.000000
724.506566,370.102971,-9252.574275,0.000000
724.506890,666.185348,-8956.491898,0.000000
724.507214,1332.370696,-8882.471304,-229.828649
724.507538,1258.350101,-9030.512492,0.000000
724.507862,1480.411884,-9400.615463,153.219100
724.508186,1258.350101,-9326.594869,153.219100
724.508509,1332.370696,-9696.697840,229.828649
724.508833,1184.329507,-9400.615463,766.095498
724.509157,962.267725,-9622.677246,1302.362347
724.509481,1110.308913,-9770.718434,1072.533697
724.509805,222.061783,-9474.636058,536.266849
724.510129,296.082377,-9548.656652,536.266849
724.510453,0.000000,-9622.677246,536.266849
724.510777,-222.061783,-9474.636058,459.657299
724.511101,-370.102971,-9252.574275,459.657299
724.511425,148.041188,-9252.574275,1072.533697
724.511749,0.000000,-9030.512492,459.657299
724.512073,0.000000,-9548.656652,842.705048
724.512396,-222.061783,-9696.697840,689.485948
724.512720,-592.164754,-9770.718434,459.657299
724.513044,-666.185348,-9770.718434,536.266849
724.513368,-666.185348,-10214.842000,536.266849
724.513692,-962.267725,-9992.780217,459.657299
724.514016,-1036.288319,-9622.677246,766.095498
724.514340,-1110.308913,-9622.677246,995.924147
724.514664,-888.247130,-9548.656652,995.924147
724.514988,-814.226536,-9844.739029,842.705048
724.515312,-740.205942,-9770.718434,766.095498
724.515636,-222.061783,-9622.677246,459.657299
724.515960,0.000000,-9548.656652,383.047749
724.516283,222.061783,-9696.697840,229.828649
724.516607,0.000000,-9548.656652,459.657299
724.516931,148.041188,-9474.636058,76.609550
724.517255,592.164754,-9696.697840,-536.266849
724.517579,888.247130,-9844.739029,-459.657299
724.517903,740.205942,-9770.718434,-536.266849
724.518227,814.226536,-9696.697840,-306.438199
724.518551,666.185348,-9548.656652,-306.438199
724.518875,740.205942,-9326.594869,-612.876398
724.519199,1036.288319,-9474.636058,-153.219100
724.519523,592.164754,-8956.491898,229.828649
724.519847,222.061783,-9474.636058,76.609550
724.520171,296.082377,-9548.656652,0.000000
724.520494,-370.102971,-9696.697840,0.000000
724.520818,-740.205942,-9696.697840,-306.438199
724.521142,-518.144159,-9622.677246,0.000000
724.521466,-666.185348,-9474.636058,-383.047749
724.521790,-1184.329507,-9474.636058,-306.438199
724.522114,-1036.288319,-9474.636058,-1072.533697
724.522438,-814.226536,-9622.677246,-995.924147
724.522762,-962.267725,-9400.615463,-995.924147
724.523086,-1036.288319,-9918.759623,-766.095498
724.523410,-1184.329507,-10066.800811,-383.047749
724.523734,-814.226536,-9770.718434,-689.485948
724.524058,-1110.308913,-9770.718434,0.000000
724.524381,-1258.350101,-9918.759623,-153.219100
724.524705,-1184.329507,-10362.883188,0.000000
724.525029,-740.205942,-10214.842000,76.609550
724.525353,-370.102971,-9844.739029,153.219100
724.525677,-296.082377,-9992.780217,0.000000
724.526001,0.000000,-9622.677246,0.000000
724.526325,666.185348,-9622.677246,76.609550
724.526649,888.247130,-9992.780217,-995.924147
724.526973,1110.308913,-9770.718434,-536.266849
724.527297,1258.350101,-9770.718434,-842.705048
724.527621,1480.411884,-9770.718434,-1149.143247
724.527945,1406.391290,-9770.718434,-1225.752797
724.528268,1184.329507,-10066.800811,-995.924147
724.528592,1554.432478,-9992.780217,-995.924147
724.528916,1258.350101,-9474.636058,-995.924147
724.529240,1184.329507,-9918.759623,-536.266849
724.529564,1036.288319,-9474.636058,-383.047749
724.529888,1258.350101,-9770.718434,306.438199
724.530212,1110.308913,-9992.780217,306.438199
724.530536,592.164754,-9696.697840,0.000000
724.530860,296.082377,-9400.615463,153.219100
724.531184,-148.041188,-9770.718434,0.000000
724.531508,-814.226536,-9770.718434,0.000000
724.531832,-518.144159,-9622.677246,-842.705048
724.532155,-666.185348,-9696.697840,-306.438199
724.532479,-592.164754,-9770.718434,-536.266849
724.532803,-518.144159,-9696.697840,-459.657299
724.533127,-740.205942,-9696.697840,0.000000
724.533451,-962.267725,-9326.594869,-153.219100
724.533775,-1554.432478,-9252.574275,0.000000
724.534099,-1036.288319,-9474.636058,229.828649
724.534423,-1036.288319,-9474.636058,459.657299
724.534747,-1184.329507,-9770.718434,689.485948
724.535071,-888.247130,-9474.636058,612.876398
724.535395,-1036.288319,-9770.718434,919.314598
724.535719,-592.164754,-9622.677246,459.657299
724.536043,-518.144159,-9326.594869,536.266849
724.536366,-296.082377,-9400.615463,306.438199
724.536690,148.041188,-9326.594869,229.828649
724.537014,0.000000,-9474.636058,0.000000
724.537338,222.061783,-9326.594869,-229.828649
724.537662,740.205942,-9326.594869,0.000000
724.537986,1332.370696,-9474.636058,76.609550
724.538310,1480.411884,-9252.574275,0.000000
724.538634,1036.288319,-9548.656652,-536.266849
724.538958,666.185348,-9252.574275,0.000000
724.539282,666.185348,-9474.636058,383.047749
724.539606,962.267725,-9844.739029,0.000000
724.539930,814.226536,-9696.697840,229.828649
724.540253,444.123565,-9770.718434,306.438199
724.540577,74.020594,-10066.800811,-306.438199
724.540901,-370.102971,-9622.677246,0.000000
724.541225,-518.144159,-9548.656652,-76.609550
724.541549,-148.041188,-9696.697840,-306.438199
724.541873,-296.082377,-9548.656652,-229.828649
724.542197,-444.123565,-9548.656652,-383.047749
724.542521,-296.082377,-9622.677246,-153.219100
724.542845,-148.041188,-9474.636058,229.828649
724.543169,-148.041188,-9696.697840,76.609550
724.543493,-148.041188,-9622.677246,0.000000
724.543817,-296.082377,-9696.697840,0.000000
724.544140,-814.226536,-10288.862594,153.219100
724.544464,-888.247130,-10436.903782,76.609550
724.544788,-888.247130,-10214.842000,229.828649
724.545112,-962.267725,-9992.780217,229.828649
724.545436,-962.267725,-9696.697840,459.657299
724.545760,-592.164754,-9844.739029,766.095498
724.546084,0.000000,-9622.677246,0.000000
724.546408,-296.082377,-9474.636058,229.828649
724.546732,0.000000,-9474.636058,0.000000
724.547056,222.061783,-9400.615463,-153.219100
724.547380,444.123565,-9326.594869,0.000000
724.547704,740.205942,-9400.615463,-229.828649
724.548027,962.267725,-9252.574275,0.000000
724.548351,1332.370696,-9474.636058,0.000000
724.548675,1184.329507,-9548.656652,0.000000
724.548999,1184.329507,-9474.636058,-229.828649
724.549323,814.226536,-9696.697840,-153.219100
724.549647,370.102971,-9622.677246,0.000000
724.549967,148.041188,-9474.636058,0.000000
724.550291,370.102971,-9252.574275,76.609550
724.550615,0.000000,-9178.553681,306.438199
724.550939,370.102971,-9548.656652,0.000000
724.551263,-74.020594,-9474.636058,0.000000
724.551587,-222.061783,-9622.677246,-306.438199
724.551911,-592.164754,-9696.697840,-536.266849
724.552235,-814.226536,-9622.677246,-383.047749
724.552559,-222.061783,-9844.739029,229.828649
724.552883,-888.247130,-9622.677246,-153.219100
724.553207,-740.205942,-9992.780217,-153.219100
724.553531,-814.226536,-9844.739029,-306.438199
724.553855,-1036.288319,-9770.718434,-536.266849
724.554179,-666.185348,-9918.759623,0.000000
724.554503,-888.247130,-9918.759623,76.609550
724.554828,-814.226536,-9844.739029,0.000000
724.555152,-592.164754,-9474.636058,306.438199
724.555476,0.000000,-9918.759623,306.438199
724.555800,74.020594,-9622.677246,0.000000
724.556124,518.144159,-9622.677246,0.000000
724.556448,148.041188,-9770.718434,-383.047749
724.556772,370.102971,-9696.697840,-612.876398
724.557096,444.123565,-9474.636058,-612.876398
724.557420,814.226536,-9622.677246,0.000000
724.557744,962.267725,-9770.718434,-229.828649
724.558068,1332.370696,-9918.759623,-229.828649
724.558392,1332.370696,-9770.718434,-306.438199
724.558716,1554.432478,-9992.780217,-229.828649
724.559040,1406.391290,-9770.718434,-153.219100
724.559364,1332.370696,-9844.739029,0.000000
724.559688,1036.288319,-9474.636058,-153.219100
724.560012,1110.308913,-9548.656652,-383.047749
724.560336,592.164754,-9400.615463,0.000000
724.560660,444.123565,-9548.656652,0.000000
724.560984,-148.041188,-9474.636058,0.000000
724.561308,-740.205942,-9696.697840,-459.657299
724.561632,-1110.308913,-9548.656652,-459.657299
724.561956,-962.267725,-9474.636058,-229.828649
724.562280,-888.247130,-9326.594869,459.657299
724.562604,-592.164754,-9252.574275,0.000000
724.562928,-814.226536,-9474.636058,229.828649
724.563252,-1036.288319,-9030.512492,383.047749
724.563576,-1110.308913,-9474.636058,153.219100
724.563901,-1036.288319,-9770.718434,153.219100
724.564225,-888.247130,-9844.739029,612.876398
724.564549,-1258.350101,-9696.697840,689.485948
724.564873,-1036.288319,-9844.739029,766.095498
724.565197,-1406.391290,-9992.780217,536.266849
724.565521,-1184.329507,-9548.656652,612.876398
724.565845,-1628.453072,-9696.697840,76.609550
724.566169,-1184.329507,-9992.780217,0.000000
724.566493,-888.247130,-9918.759623,0.000000
724.566817,-518.144159,-9622.677246,0.000000
724.567141,74.020594,-9622.677246,0.000000
724.567465,518.144159,-9474.636058,-536.266849
724.567789,1036.288319,-9252.574275,0.000000
724.568113,1480.411884,-9104.533087,-306.438199
724.568437,1628.453072,-9696.697840,0.000000
724.568761,1554.432478,-9918.759623,0.000000
724.569085,1554.432478,-9622.677246,0.000000
724.569409,1480.411884,-9696.697840,76.609550
724.569733,1480.411884,-9696.697840,0.000000
724.570057,814.226536,-9622.677246,229.828649
724.570381,444.123565,-9474.636058,229.828649
724.570705,1184.329507,-9622.677246,153.219100
724.571029,592.164754,-9548.656652,76.609550
724.571353,74.020594,-9474.636058,0.000000
724.571677,-148.041188,-9474.636058,0.000000
724.572001,-148.041188,-9622.677246,229.828649
724.572325,0.000000,-9474.636058,76.609550
724.572650,0.000000,-9400.615463,153.219100
724.572974,-444.123565,-9770.718434,0.000000
724.573298,-518.144159,-9992.780217,-153.219100
724.573622,-888.247130,-9918.759623,0.000000
724.573946,-814.226536,-9770.718434,0.000000
724.574270,-1332.370696,-9844.739029,0.000000
724.574594,-1110.308913,-10214.842000,459.657299
724.574918,-814.226536,-9696.697840,612.876398
724.575242,-1110.308913,-9400.615463,0.000000
724.575566,-444.123565,-9474.636058,0.000000
724.575890,-444.123565,-9548.656652,229.828649
724.576214,-148.041188,-9400.615463,153.219100
724.576538,-148.041188,-9400.615463,153.219100
724.576862,0.000000,-9252.574275,76.609550
724.577186,222.061783,-9030.512492,0.000000
724.577510,370.102971,-9400.615463,-459.657299
724.577834,888.247130,-9474.636058,-229.828649
724.578158,1184.329507,-9252.574275,-536.266849
724.578482,1480.411884,-9400.615463,-766.095498
724.578806,1184.329507,-9474.636058,-612.876398
724.579130,1110.308913,-9770.718434,-536.266849
724.579454,962.267725,-9696.697840,-383.047749
724.579778,444.123565,-9696.697840,0.000000
724.580102,370.102971,-9696.697840,-306.438199
724.580426,74.020594,-9992.780217,-229.828649
724.580750,74.020594,-9918.759623,-689.485948
724.581074,-74.020594,-9844.739029,-766.095498
724.581398,0.000000,-10066.800811,-689.485948
724.581723,0.000000,-9844.739029,-612.876398
724.582047,-148.041188,-9992.780217,-383.047749
724.582371,-370.102971,-9696.697840,-1072.533697
724.582695,-370.102971,-9918.759623,-766.095498
724.583019,-592.164754,-10140.821405,-766.095498
724.583343,-296.082377,-10288.862594,-383.047749
724.583667,-592.164754,-10362.883188,-536.266849
724.583991,-740.205942,-10140.821405,-306.438199
724.584315,-740.205942,-10214.842000,0.000000
724.584639,-1480.411884,-10288.862594,76.609550
724.584963,-1184.329507,-9992.780217,0.000000
724.585287,-592.164754,-10214.842000,536.266849
724.585611,-666.185348,-10066.800811,459.657299
724.585935,-444.123565,-9770.718434,0.000000
724.586259,-296.082377,-9474.636058,0.000000
724.586583,-444.123565,-9622.677246,-153.219100
724.586907,-296.082377,-9844.739029,76.609550
724.587231,-148.041188,-9622.677246,-383.047749
724.587555,0.000000,-9696.697840,-383.047749
724.587879,74.020594,-9844.739029,-383.047749
724.588203,444.123565,-9474.636058,229.828649
724.588527,740.205942,-9474.636058,76.609550
724.588851,1110.308913,-9252.574275,612.876398
724.589175,1184.329507,-9474.636058,229.828649
724.589499,1036.288319,-9400.615463,0.000000
724.589823,962.267725,-9400.615463,76.609550
724.590147,444.123565,-9104.533087,0.000000
724.590472,296.082377,-9178.553681,229.828649
724.590796,370.102971,-8808.450710,0.000000
724.591120,296.082377,-9474.636058,689.485948
724.591444,-296.082377,-9474.636058,459.657299
724.591768,0.000000,-9104.533087,306.438199
724.592092,0.000000,-9252.574275,383.047749
724.592416,0.000000,-9548.656652,612.876398
724.592740,-222.061783,-9400.615463,306.438199
724.593064,-222.061783,-9474.636058,842.705048
724.593388,-518.144159,-9400.615463,766.095498
724.593712,0.000000,-9770.718434,1072.533697
724.594036,-370.102971,-9844.739029,612.876398
724.594360,-592.164754,-9918.759623,383.047749
724.594684,-1036.288319,-9770.718434,459.657299
724.595008,-1184.329507,-9844.739029,153.219100
724.595332,-1554.432478,-10288.862594,229.828649
724.595656,-2220.617826,-9548.656652,153.219100
724.595980,-1332.370696,-9622.677246,689.485948
724.596304,-222.061783,-9844.739029,536.266849
724.596628,0.000000,-9918.759623,153.219100
724.596952,370.102971,-9918.759623,306.438199
724.597276,444.123565,-9992.780217,306.438199
724.597600,740.205942,-9622.677246,0.000000
724.597924,1332.370696,-9770.718434,-153.219100
724.598248,1628.453072,-9696.697840,76.609550
724.598572,1110.308913,-9622.677246,-919.314598
724.598896,1036.288319,-9696.697840,-383.047749
724.599220,1184.329507,-9770.718434,-612.876398
724.599545,814.226536,-9696.697840,-536.266849
724.599869,666.185348,-9622.677246,-229.828649
724.600193,888.247130,-9400.615463,-383.047749
724.600517,962.267725,-8660.409521,0.000000
724.600841,592.164754,-9844.739029,-306.438199
724.601165,74.020594,-9770.718434,-306.438199
724.601489,0.000000,-9696.697840,-229.828649
724.601813,-148.041188,-9622.677246,0.000000
724.602137,0.000000,-9770.718434,-153.219100
724.602461,-518.144159,-9548.656652,-229.828649
724.602785,-962.267725,-9770.718434,-612.876398
724.603109,-1184.329507,-9696.697840,0.000000
724.603433,-1628.453072,-9622.677246,0.000000
724.603757,-1480.411884,-9696.697840,-536.266849
724.604081,-1480.411884,-9918.759623,-383.047749
724.604405,-1406.391290,-9622.677246,0.000000
724.604729,-1184.329507,-9622.677246,229.828649
724.605053,-1258.350101,-9548.656652,0.000000
724.605377,-1554.432478,-9622.677246,0.000000
724.605701,-1258.350101,-9622.677246,229.828649
724.606025,-1036.288319,-9622.677246,76.609550
724.606349,-962.267725,-9844.739029,0.000000
724.606673,-888.247130,-9770.718434,0.000000
724.606997,-222.061783,-9622.677246,0.000000
724.607321,444.123565,-9474.636058,-383.047749
724.607645,1036.288319,-9400.615463,-153.219100
724.607969,888.247130,-9326.594869,-306.438199
724.608294,740.205942,-9326.594869,-536.266849
724.608618,1332.370696,-9622.677246,-383.047749
724.608942,1258.350101,-9696.697840,-689.485948
724.609266,1036.288319,-9622.677246,-689.485948
724.609590,962.267725,-9770.718434,-995.924147
724.609914,962.267725,-9918.759623,-459.657299
724.610238,592.164754,-9326.594869,0.000000
724.610562,740.205942,-9548.656652,-383.047749
724.610886,518.144159,-9696.697840,76.609550
724.611210,592.164754,-9696.697840,229.828649
724.611534,592.164754,-9622.677246,153.219100
724.611858,148.041188,-9622.677246,76.609550
724.612182,0.000000,-9622.677246,0.000000
724.612506,0.000000,-9400.615463,306.438199
724.612830,222.061783,-9918.759623,383.047749
724.613154,-370.102971,-9622.677246,306.438199
724.613478,-296.082377,-9918.759623,0.000000
724.613802,-518.144159,-10066.800811,76.609550
724.614126,-592.164754,-9992.780217,0.000000
724.614450,-740.205942,-9770.718434,0.000000
724.614774,-740.205942,-9474.636058,153.219100
724.615098,-814.226536,-9474.636058,612.876398
724.615422,-666.185348,-9844.739029,689.485948
724.615746,-592.164754,-9770.718434,383.047749
724.616070,-740.205942,-9548.656652,612.876398
724.616394,-666.185348,-9770.718434,229.828649
724.616718,-148.041188,-9770.718434,229.828649
724.617043,0.000000,-9474.636058,536.266849
724.617367,-296.082377,-9326.594869,689.485948
724.617691,444.123565,-9400.615463,0.000000
724.618015,370.102971,-9400.615463,0.000000
724.618339,814.226536,-9400.615463,-306.438199
724.618663,888.247130,-9474.636058,-306.438199
724.618987,888.247130,-9622.677246,-459.657299
724.619311,888.247130,-9622.677246,-459.657299
724.619635,814.226536,-9326.594869,-153.219100
724.619959,666.185348,-9104.533087,-153.219100
724.620283,666.185348,-9326.594869,0.000000
724.620607,370.102971,-9474.636058,-153.219100
724.620931,444.123565,-9400.615463,0.000000
724.621255,148.041188,-9622.677246,76.609550
724.621579,0.000000,-9474.636058,0.000000
724.621903,-148.041188,-9548.656652,-153.219100
724.622227,-518.144159,-9326.594869,153.219100
724.622551,-814.226536,-9770.718434,-383.047749
724.622875,-1110.308913,-9844.739029,-306.438199
724.623199,-370.102971,-9622.677246,-306.438199
724.623523,-666.185348,-9770.718434,-612.876398
724.623847,-888.247130,-9844.739029,-459.657299
724.624171,-888.247130,-10140.821405,-383.047749
724.624495,-888.247130,-9844.739029,-229.828649
724.624819,-1036.288319,-9844.739029,0.000000
724.625143,-1110.308913,-9622.677246,-229.828649
724.625467,-1258.350101,-10214.842000,0.000000
724.625791,-962.267725,-9770.718434,76.609550
724.626116,-740.205942,-9992.780217,306.438199
724.626440,-888.247130,-9844.739029,0.000000
724.626764,-592.164754,-10066.800811,0.000000
724.627088,-222.061783,-9696.697840,0.000000
724.627412,0.000000,-9622.677246,0.000000
724.627736,444.123565,-9622.677246,0.000000
724.628060,592.164754,-9474.636058,76.609550
724.628384,666.185348,-9474.636058,-842.705048
724.628708,1184.329507,-9400.615463,-459.657299
724.629032,1406.391290,-9622.677246,-383.047749
724.629356,1332.370696,-9844.739029,-153.219100
724.629680,1258.350101,-9548.656652,-536.266849
724.630004,1110.308913,-9326.594869,-306.438199
724.630328,1184.329507,-9474.636058,229.828649
724.630652,1036.288319,-9400.615463,153.219100
724.630976,888.247130,-9178.553681,459.657299
724.631300,518.144159,-9252.574275,229.828649
724.631624,444.123565,-9400.615463,0.000000
724.631948,148.041188,-9474.636058,306.438199
724.632272,-296.082377,-9474.636058,229.828649
724.632596,-814.226536,-9474.636058,229.828649
724.632920,-666.185348,-9178.553681,0.000000
724.633244,-296.082377,-9400.615463,229.828649
724.633568,-518.144159,-9548.656652,76.609550
724.633892,-666.185348,-9474.636058,0.000000
724.634216,-444.123565,-9770.718434,0.000000
724.634540,-814.226536,-9622.677246,0.000000
724.634865,-1480.411884,-9844.739029,76.609550
724.635189,-1332.370696,-9844.739029,0.000000
724.635513,-1332.370696,-9622.677246,0.000000
724.635837,-1258.350101,-9696.697840,842.705048
724.636161,-962.267725,-9918.759623,306.438199
724.636485,-666.185348,-9770.718434,383.047749
724.636809,-370.102971,-9548.656652,153.219100
724.637133,-148.041188,-9548.656652,153.219100
724.637457,0.000000,-9474.636058,0.000000
724.637781,0.000000,-9844.739029,-1225.752797
724.638105,296.082377,-9696.697840,-612.876398
724.638429,740.205942,-9622.677246,-306.438199
724.638753,666.185348,-10066.800811,-842.705048
724.639077,1036.288319,-9992.780217,-995.924147
724.639401,1110.308913,-10066.800811,-536.266849
724.639725,1406.391290,-9326.594869,-459.657299
724.640049,1332.370696,-9474.636058,-536.266849
724.640373,1332.370696,-9548.656652,-153.219100
724.640697,1184.329507,-9992.780217,-459.657299
724.641021,1036.288319,-9844.739029,-229.828649
724.641345,962.267725,-9918.759623,0.000000
724.641669,74.020594,-9844.739029,-306.438199
724.641993,-148.041188,-9770.718434,-306.438199
724.642317,-444.123565,-9918.759623,-306.438199
724.642641,-296.082377,-9696.697840,-536.266849
724.642965,-814.226536,-9326.594869,0.000000
724.643289,-740.205942,-9770.718434,-459.657299
724.643613,-740.205942,-9548.656652,-383.047749
724.643938,-888.247130,-9474.636058,-306.438199
724.644262,-1036.288319,-9474.636058,-306.438199
724.644586,-1110.308913,-9326.594869,0.000000
724.644910,-1480.411884,-9474.636058,689.485948
724.645234,-1258.350101,-9622.677246,0.000000
724.645558,-1110.308913,-9770.718434,76.609550
724.645882,-1110.308913,-10140.821405,306.438199
724.646206,-1110.308913,-10140.821405,536.266849
724.646530,-1258.350101,-9770.718434,536.266849
724.646854,-962.267725,-9622.677246,536.266849
724.647178,-222.061783,-9326.594869,919.314598
724.647502,-148.041188,-9030.512492,306.438199
724.647826,-370.102971,-9252.574275,-229.828649
724.648150,444.123565,-9400.615463,-689.485948
724.648474,518.144159,-9474.636058,-383.047749
724.648798,666.185348,-9400.615463,-536.266849
724.649122,888.247130,-9326.594869,-383.047749
724.649446,888.247130,-9474.636058,-229.828649
724.649770,1406.391290,-9770.718434,0.000000
724.650094,1702.473667,-9474.636058,229.828649
724.650418,1702.473667,-9844.739029,76.609550
724.650742,1036.288319,-9770.718434,306.438199
724.651066,962.267725,-9992.780217,229.828649
724.651390,814.226536,-9918.759623,383.047749
724.651714,518.144159,-9770.718434,229.828649
724.652038,222.061783,-10140.821405,-229.828649
724.652362,-148.041188,-10066.800811,0.000000
724.652686,-518.144159,-9696.697840,-229.828649
724.653010,-370.102971,-9548.656652,-306.438199
724.653334,-888.247130,-9844.739029,-306.438199
724.653658,-222.061783,-9918.759623,-229.828649
724.653982,-296.082377,-10066.800811,0.000000
724.654306,-296.082377,-9844.739029,0.000000
724.654630,-370.102971,-9548.656652,76.609550
724.654954,-740.205942,-9696.697840,306.438199
724.655278,-444.123565,-9992.780217,612.876398
724.655602,-444.123565,-9918.759623,0.000000
724.655926,-666.185348,-9622.677246,229.828649
724.656250,-888.247130,-9696.697840,459.657299
724.656574,-740.205942,-9770.718434,306.438199
724.656898,-592.164754,-9622.677246,153.219100
724.657222,-518.144159,-9326.594869,306.438199
724.657546,74.020594,-8882.471304,0.000000
724.657870,148.041188,-9178.553681,-153.219100
724.658194,666.185348,-9474.636058,-536.266849
724.658518,740.205942,-9400.615463,-229.828649
724.658843,888.247130,-9252.574275,-229.828649
724.659167,888.247130,-9326.594869,-689.485948
724.659491,962.267725,-9326.594869,-383.047749
724.659815,1110.308913,-9178.553681,-306.438199
724.660139,1406.391290,-9548.656652,-689.485948
724.660463,740.205942,-9622.677246,-459.657299
724.660787,74.020594,-9474.636058,-383.047749
724.661111,0.000000,-9474.636058,-229.828649
724.661435,0.000000,-9696.697840,-229.828649
724.661759,0.000000,-9696.697840,-306.438199
724.662083,-444.123565,-9696.697840,-383.047749
724.662407,-518.144159,-9770.718434,-612.876398
724.662731,-740.205942,-9548.656652,-383.047749
724.663055,-148.041188,-9844.739029,-612.876398
724.663379,-370.102971,-9992.780217,-1072.533697
724.663703,-592.164754,-10066.800811,-459.657299
724.664027,-814.226536,-10140.821405,-383.047749
724.664351,-518.144159,-10140.821405,-383.047749
724.664675,-888.247130,-10140.821405,-536.266849
724.664999,-1110.308913,-10362.883188,-612.876398
724.665323,-1776.494261,-10140.821405,-1455.581446
724.665647,-1554.432478,-9918.759623,-153.219100
724.665971,-1110.308913,-10362.883188,-306.438199
724.666295,-962.267725,-10214.842000,0.000000
724.666619,-888.247130,-10140.821405,0.000000
724.666943,-740.205942,-9918.759623,153.219100
724.667267,-296.082377,-9770.718434,153.219100
724.667591,0.000000,-10066.800811,383.047749
724.667915,296.082377,-9548.656652,536.266849
724.668239,740.205942,-9696.697840,76.609550
724.668563,1036.288319,-9326.594869,76.609550
724.668887,1110.308913,-9696.697840,0.000000
724.669211,1258.350101,-10066.800811,-306.438199
724.669535,1036.288319,-9548.656652,0.000000
724.669859,1332.370696,-9252.574275,0.000000
724.670183,1110.308913,-8956.491898,0.000000
724.670507,1480.411884,-9622.677246,459.657299
724.670831,1406.391290,-9400.615463,306.438199
724.671155,1110.308913,-9030.512492,689.485948
724.671479,1036.288319,-9104.533087,766.095498
724.671803,888.247130,-9104.533087,612.876398
724.672127,370.102971,-9326.594869,689.485948
724.672451,148.041188,-8956.491898,383.047749
724.672775,0.000000,-9030.512492,306.438199
724.673099,-444.123565,-9030.512492,229.828649
724.673423,-740.205942,-9548.656652,0.000000
724.673747,-1036.288319,-9400.615463,153.219100
724.674071,-592.164754,-9400.615463,153.219100
724.674395,-518.144159,-9400.615463,306.438199
724.674719,-666.185348,-9474.636058,766.095498
724.675043,-962.267725,-9696.697840,153.219100
724.675367,-1258.350101,-9474.636058,842.705048
724.675691,-1332.370696,-9178.553681,612.876398
724.676015,-1036.288319,-9770.718434,229.828649
724.676339,-1258.350101,-9992.780217,76.609550
724.676663,-1258.350101,-10066.800811,459.657299
724.676987,-666.185348,-9992.780217,229.828649
724.677311,-592.164754,-10066.800811,153.219100
724.677635,-740.205942,-9844.739029,-842.705048
724.677959,-518.144159,-9474.636058,-689.485948
724.678283,74.020594,-9696.697840,-153.219100
724.678607,444.123565,-9696.697840,-153.219100
724.678931,370.102971,-9770.718434,-536.266849
724.679255,814.226536,-9696.697840,-766.095498
724.679579,1184.329507,-9548.656652,-689.485948
724.679903,1258.350101,-9696.697840,-919.314598
724.680227,1184.329507,-9844.739029,-459.657299
724.680551,814.226536,-9770.718434,-842.705048
724.680875,740.205942,-9918.759623,-612.876398
724.681199,814.226536,-10214.842000,0.000000
724.681523,666.185348,-10066.800811,-383.047749
724.681847,148.041188,-9844.739029,-536.266849
724.682171,0.000000,-9696.697840,0.000000
724.682495,-148.041188,-9696.697840,-689.485948
724.682819,0.000000,-9770.718434,-689.485948
724.683143,-148.041188,-9474.636058,-995.924147
724.683467,-444.123565,-9622.677246,-689.485948
724.683791,-814.226536,-9622.677246,-919.314598
724.684115,-814.226536,-9622.677246,-995.924147
724.684439,-1554.432478,-9548.656652,-459.657299
724.684763,-1184.329507,-9696.697840,-459.657299
724.685087,-740.205942,-10510.924376,-383.047749
724.685411,-740.205942,-9918.759623,536.266849
724.685735,-1184.329507,-9770.718434,0.000000
724.686059,-1258.350101,-9992.780217,229.828649
724.686383,-1036.288319,-10066.800811,0.000000
724.686707,-962.267725,-9770.718434,153.219100
724.687031,-518.144159,-9548.656652,76.609550
724.687355,-444.123565,-9178.553681,0.000000
724.687679,0.000000,-9622.677246,153.219100
724.688003,148.041188,-9696.697840,-153.219100
724.688327,74.020594,-9548.656652,-536.266849
724.688651,370.102971,-9400.615463,-612.876398
724.688975,888.247130,-9474.636058,-536.266849
724.689300,1184.329507,-9400.615463,-536.266849
724.689624,1036.288319,-9474.636058,-383.047749
724.689948,1184.329507,-9474.636058,0.000000
724.690272,888.247130,-9474.636058,0.000000
724.690596,1110.308913,-9474.636058,0.000000
724.690920,962.267725,-9548.656652,229.828649
724.691244,740.205942,-9474.636058,153.219100
724.691568,666.185348,-9770.718434,306.438199
724.691892,962.267725,-9622.677246,383.047749
724.692216,444.123565,-9326.594869,229.828649
724.692540,0.000000,-9548.656652,306.438199
724.692864,-370.102971,-9622.677246,0.000000
724.693188,-592.164754,-9844.739029,0.000000
724.693512,-296.082377,-9696.697840,76.609550
724.693836,-444.123565,-9696.697840,0.000000
724.694160,-814.226536,-9696.697840,229.828649
724.694484,-814.226536,-9474.636058,76.609550
724.694808,-296.082377,-9992.780217,153.219100
724.695132,-740.205942,-10066.800811,536.266849
724.695456,-444.123565,-9844.739029,919.314598
724.695780,-666.185348,-9770.718434,766.095498
724.696104,-592.164754,-9622.677246,689.485948
724.696428,-666.185348,-9770.718434,612.876398
724.696752,-444.123565,-9770.718434,1072.533697
724.697076,-444.123565,-9548.656652,459.657299
724.697400,0.000000,-9400.615463,459.657299
724.697724,0.000000,-9400.615463,0.000000
724.698048,0.000000,-9400.615463,0.000000
724.698372,74.020594,-9474.636058,-229.828649
724.698696,370.102971,-9548.656652,-459.657299
724.699020,740.205942,-9548.656652,0.000000
724.699344,962.267725,-9548.656652,-229.828649
724.699668,1628.453072,-9400.615463,-612.876398
724.699992,1110.308913,-9178.553681,0.000000
724.700316,1258.350101,-9548.656652,0.000000
724.700640,814.226536,-9622.677246,0.000000
724.700964,666.185348,-9770.718434,0.000000
724.701288,518.144159,-9696.697840,-153.219100
724.701612,222.061783,-8808.450710,-153.219100
724.701936,0.000000,-9474.636058,-153.219100
724.702260,-666.185348,-9474.636058,-766.095498
724.702584,-814.226536,-9252.574275,-919.314598
724.702908,-592.164754,-9474.636058,-766.095498
724.703232,-740.205942,-9548.656652,-459.657299
724.703556,-592.164754,-9696.697840,-536.266849
724.703880,-592.164754,-9696.697840,-612.876398
724.704204,-518.144159,-9548.656652,-536.266849
724.704528,-592.164754,-9844.739029,-306.438199
724.704852,-1258.350101,-9992.780217,0.000000
724.705176,-1258.350101,-10066.800811,-153.219100
724.705500,-1036.288319,-10288.862594,-153.219100
724.705824,-1036.288319,-10214.842000,-306.438199
724.706148,-1258.350101,-10140.821405,-153.219100
724.706472,-1258.350101,-9992.780217,459.657299
724.706796,-1406.391290,-9770.718434,-153.219100
724.707120,-1036.288319,-9770.718434,-383.047749
724.707444,-814.226536,-9474.636058,-229.828649
724.707768,-296.082377,-10066.800811,-612.876398
724.708092,-370.102971,-9548.656652,-306.438199
724.708416,0.000000,-9770.718434,-383.047749
724.708740,888.247130,-9844.739029,-612.876398
724.709064,1258.350101,-9622.677246,-536.266849
724.709388,1258.350101,-9770.718434,-383.047749
724.709712,1628.453072,-9622.677246,-229.828649
724.710036,1628.453072,-9474.636058,-383.047749
724.710360,1554.432478,-9474.636058,-306.438199
724.710684,1628.453072,-9844.739029,-383.047749
724.711008,1406.391290,-9622.677246,-153.219100
724.711332,1406.391290,-9252.574275,612.876398
724.711656,1110.308913,-9104.533087,229.828649
724.711980,888.247130,-9326.594869,306.438199
724.712304,592.164754,-9400.615463,766.095498
724.712628,74.020594,-9326.594869,0.000000
724.712952,0.000000,-9178.553681,0.000000
724.713276,74.020594,-9252.574275,0.000000
724.713600,0.000000,-9474.636058,306.438199
724.713924,0.000000,-9326.594869,229.828649
724.714248,-222.061783,-9696.697840,306.438199
724.714572,-518.144159,-9400.615463,536.266849
724.714896,-740.205942,-9474.636058,383.047749
724.715220,-888.247130,-9992.780217,76.609550
724.715544,-1110.308913,-9696.697840,229.828649
724.715868,-1332.370696,-9918.759623,0.000000
724.716192,-1480.411884,-9770.718434,76.609550
724.716516,-1258.350101,-9770.718434,0.000000
724.716840,-1554.432478,-9474.636058,306.438199
724.717164,-962.267725,-9400.615463,0.000000
724.717488,-444.123565,-9548.656652,0.000000
724.717812,-296.082377,-9844.739029,153.219100
724.718136,0.000000,-9622.677246,76.609550
724.718460,222.061783,-9696.697840,0.000000
724.718784,444.123565,-9696.697840,-153.219100
724.719108,370.102971,-9400.615463,0.000000
724.719432,370.102971,-9770.718434,-383.047749
724.719757,814.226536,-10066.800811,-306.438199
724.720081,296.082377,-9770.718434,-612.876398
724.720405,444.123565,-9622.677246,-689.485948
724.720729,444.123565,-9474.636058,-919.314598
724.721053,444.123565,-9992.780217,-995.924147
724.721377,666.185348,-10140.821405,-153.219100
724.721701,814.226536,-9622.677246,0.000000
724.722025,888.247130,-9844.739029,-306.438199
724.722349,370.102971,-10066.800811,0.000000
724.722673,296.082377,-9844.739029,-153.219100
724.722997,296.082377,-9844.739029,-153.219100
724.723321,74.020594,-9548.656652,-229.828649
724.723645,0.000000,-10066.800811,153.219100
724.723969,-1036.288319,-9696.697840,-306.438199
724.724293,-740.205942,-9770.718434,-536.266849
724.724617,-888.247130,-9696.697840,-306.438199
724.724941,-1184.329507,-9474.636058,-306.438199
724.725265,-1110.308913,-9548.656652,0.000000
724.725589,-1184.329507,-9622.677246,76.609550
724.725913,-666.185348,-9400.615463,383.047749
724.726237,-592.164754,-9696.697840,76.609550
724.726561,-592.164754,-9474.636058,842.705048
724.726885,-1184.329507,-9474.636058,919.314598
724.727209,-888.247130,-9548.656652,612.876398
724.727533,-592.164754,-9844.739029,612.876398
724.727857,-370.102971,-9918.759623,612.876398
724.728181,-148.041188,-9844.739029,536.266849
724.728505,148.041188,-9474.636058,306.438199
724.728829,444.123565,-9030.512492,459.657299
724.729153,222.061783,-9400.615463,0.000000
724.729477,222.061783,-9548.656652,76.609550
724.729801,592.164754,-9474.636058,-153.219100
724.730125,740.205942,-9474.636058,0.000000
724.730449,1110.308913,-9326.594869,0.000000
724.730773,1036.288319,-9400.615463,383.047749
724.731097,1184.329507,-9326.594869,536.266849
724.731421,666.185348,-9400.615463,459.657299
724.731745,1110.308913,-9326.594869,459.657299
724.732069,888.247130,-9474.636058,153.219100
724.732393,592.164754,-9548.656652,306.438199
724.732717,666.185348,-9918.759623,459.657299
724.733041,222.061783,-9696.697840,0.000000
724.733365,0.000000,-9474.636058,459.657299
724.733689,-74.020594,-9474.636058,0.000000
724.734013,-740.205942,-9400.615463,153.219100
724.734337,-518.144159,-9622.677246,-306.438199
724.734661,-814.226536,-9696.697840,-306.438199
724.734985,-814.226536,-9770.718434,-536.266849
724.735309,-1184.329507,-9770.718434,-536.266849
724.735633,-444.123565,-10140.821405,-612.876398
724.735957,-814.226536,-9918.759623,0.000000
724.736281,-814.226536,-9622.677246,-153.219100
724.736605,-444.123565,-10066.800811,-229.828649
724.736929,-222.061783,-10214.842000,-153.219100
724.737253,-148.041188,-9992.780217,76.609550
724.737577,0.000000,-10288.862594,0.000000
724.737901,-296.082377,-9918.759623,-153.219100
724.738225,0.000000,-10362.883188,-689.485948
724.738549,74.020594,-9474.636058,-919.314598
724.738873,1036.288319,-9770.718434,76.609550
724.739197,666.185348,-9622.677246,-919.314598
724.739521,814.226536,-9474.636058,-612.876398
724.739845,814.226536,-9622.677246,-766.095498
724.740169,888.247130,-9622.677246,-1149.143247
724.740493,814.226536,-9622.677246,-1149.143247
724.740817,814.226536,-9622.677246,-689.485948
724.741141,1036.288319,-9252.574275,-612.876398
724.741465,1110.308913,-9474.636058,-459.657299
724.741789,1184.329507,-10066.800811,-459.657299
724.742113,740.205942,-9844.739029,-306.438199
724.742437,518.144159,-9696.697840,-76.609550
724.742761,222.061783,-9696.697840,-153.219100
724.743085,0.000000,-9844.739029,-689.485948
724.743409,-592.164754,-9622.677246,459.657299
724.743733,-740.205942,-9548.656652,76.609550
724.744057,-814.226536,-9548.656652,-536.266849
724.744381,-740.205942,-9548.656652,-306.438199
724.744705,-888.247130,-9326.594869,-612.876398
724.745029,-1036.288319,-9474.636058,-383.047749
724.745353,-962.267725,-9400.615463,-306.438199
724.745677,-888.247130,-9844.739029,-612.876398
724.746001,-1110.308913,-9252.574275,-306.438199
724.746325,-1406.391290,-9770.718434,0.000000
724.746649,-1332.370696,-9696.697840,0.000000
724.746973,-1110.308913,-9918.759623,0.000000
724.747297,-814.226536,-9844.739029,306.438199
724.747621,-592.164754,-10214.842000,383.047749
724.747945,-296.082377,-9844.739029,383.047749
724.748269,-740.205942,-9548.656652,995.924147
724.748593,-370.102971,-9622.677246,153.219100
724.748917,-370.102971,-9400.615463,306.438199
724.749241,148.041188,-9770.718434,229.828649
724.749565,444.123565,-9696.697840,-153.219100
724.749889,666.185348,-9622.677246,-536.266849
724.750213,370.102971,-9696.697840,-153.219100
724.750538,592.164754,-9548.656652,0.000000
724.750862,962.267725,-9918.759623,-229.828649
724.751186,1332.370696,-9474.636058,229.828649
724.751510,1036.288319,-9770.718434,0.000000
724.751834,1332.370696,-9992.780217,153.219100
724.752158,1406.391290,-9474.636058,459.657299
724.752482,1184.329507,-9696.697840,459.657299
724.752806,1258.350101,-10066.800811,306.438199
724.753130,814.226536,-9992.780217,383.047749
724.753454,74.020594,-9696.697840,306.438199
724.753779,-296.082377,-9548.656652,-536.266849
724.754103,-740.205942,-9474.636058,-306.438199
724.754427,-444.123565,-9622.677246,153.219100
724.754751,-296.082377,-9400.615463,0.000000
724.755075,222.061783,-9474.636058,153.219100
724.755399,-222.061783,-9178.553681,0.000000
724.755723,-148.041188,-9326.594869,306.438199
724.756047,-814.226536,-9474.636058,459.657299
724.756371,-666.185348,-9696.697840,459.657299
724.756695,-888.247130,-9844.739029,459.657299
724.757020,-592.164754,-9844.739029,459.657299
724.757344,-518.144159,-9844.739029,689.485948
724.757668,-296.082377,-9770.718434,612.876398
724.757992,-666.185348,-9474.636058,459.657299
724.758316,-444.123565,-9474.636058,459.657299
724.758640,-296.082377,-9252.574275,153.219100
724.758964,0.000000,-9326.594869,-229.828649
724.759288,0.000000,-9030.512492,-459.657299
724.759612,370.102971,-9400.615463,-383.047749
724.759937,296.082377,-9696.697840,-229.828649
724.760261,518.144159,-9400.615463,-459.657299
724.760585,518.144159,-9474.636058,-689.485948
724.760909,592.164754,-9474.636058,-229.828649
724.761233,592.164754,-9770.718434,-306.438199
724.761557,666.185348,-9622.677246,-306.438199
724.761881,592.164754,-9770.718434,-229.828649
724.762205,740.205942,-9844.739029,-383.047749
724.762529,444.123565,-9844.739029,0.000000
724.762853,74.020594,-9844.739029,-689.485948
724.763178,-592.164754,-10140.821405,-306.438199
724.763502,-592.164754,-10140.821405,-842.705048
724.763826,-962.267725,-10140.821405,-536.266849
724.764150,-592.164754,-9992.780217,-919.314598
724.764474,-888.247130,-10066.800811,-766.095498
724.764798,-666.185348,-9844.739029,-689.485948
724.765122,-592.164754,-9770.718434,-766.095498
724.765446,-740.205942,-9474.636058,-306.438199
724.765770,-888.247130,-9844.739029,0.000000
724.766094,-1184.329507,-9918.759623,0.000000
724.766419,-1258.350101,-10140.821405,0.000000
724.766743,-1258.350101,-10288.862594,229.828649
724.767067,-1184.329507,-10066.800811,76.609550
724.767391,-814.226536,-9918.759623,306.438199
724.767715,-1184.329507,-9696.697840,383.047749
724.768039,-592.164754,-9844.739029,153.219100
724.768363,-666.185348,-9400.615463,0.000000
724.768687,0.000000,-9696.697840,-153.219100
724.769011,74.020594,-9770.718434,-383.047749
724.769336,518.144159,-9548.656652,-153.219100
724.769660,888.247130,-9400.615463,-229.828649
724.769984,1036.288319,-9474.636058,-383.047749
724.770308,1258.350101,-9548.656652,-306.438199
724.770632,1036.288319,-9400.615463,-995.924147
724.770956,1184.329507,-9474.636058,-306.438199
724.771280,1332.370696,-9474.636058,0.000000
724.771604,1258.350101,-9252.574275,0.000000
724.771928,1258.350101,-9474.636058,383.047749
724.772252,888.247130,-9252.574275,76.609550
724.772577,518.144159,-9030.512492,229.828649
724.772901,-148.041188,-8808.450710,229.828649
724.773225,148.041188,-9178.553681,536.266849
724.773549,0.000000,-9400.615463,306.438199
724.773873,-222.061783,-9548.656652,0.000000
724.774197,-370.102971,-9474.636058,153.219100
724.774521,0.000000,-9104.533087,76.609550
724.774845,0.000000,-9326.594869,229.828649
724.775169,-296.082377,-9326.594869,0.000000
724.775493,-592.164754,-9326.594869,-153.219100
724.775818,-740.205942,-9474.636058,153.219100
724.776142,-740.205942,-9992.780217,76.609550
724.776466,-1110.308913,-9844.739029,306.438199
724.776790,-1258.350101,-10066.800811,306.438199
724.777114,-740.205942,-10288.862594,383.047749
724.777438,-444.123565,-9622.677246,383.047749
724.777762,-666.185348,-9844.739029,766.095498
724.778086,-222.061783,-10214.842000,306.438199
724.778410,-296.082377,-9992.780217,153.219100
724.778735,-148.041188,-9770.718434,-229.828649
724.779059,148.041188,-9696.697840,0.000000
724.779383,222.061783,-9696.697840,-536.266849
724.779707,814.226536,-9474.636058,-459.657299
724.780031,740.205942,-9326.594869,-689.485948
724.780355,1110.308913,-9474.636058,-229.828649
724.780679,1184.329507,-9770.718434,-689.485948
724.781003,1036.288319,-9844.739029,-919.314598
724.781327,962.267725,-9696.697840,-689.485948
724.781651,814.226536,-9622.677246,-383.047749
724.781976,740.205942,-9696.697840,0.000000
724.782300,444.123565,-9696.697840,-766.095498
724.782624,296.082377,-9400.615463,0.000000
724.782948,444.123565,-9326.594869,76.609550
724.783272,296.082377,-9992.780217,0.000000
724.783596,0.000000,-9622.677246,-459.657299
724.783920,-370.102971,-9622.677246,-459.657299
724.784244,-740.205942,-9400.615463,-383.047749
724.784568,-962.267725,-9548.656652,0.000000
724.784893,-1258.350101,-9474.636058,-459.657299
724.785217,-1184.329507,-9844.739029,-612.876398
724.785541,-962.267725,-9548.656652,-153.219100
724.785865,-740.205942,-9474.636058,-306.438199
724.786189,-1036.288319,-9622.677246,-153.219100
724.786513,-1258.350101,-9770.718434,76.609550
724.786837,-1406.391290,-9696.697840,0.000000
724.787161,-1184.329507,-9622.677246,229.828649
724.787485,-1110.308913,-9622.677246,306.438199
724.787809,-740.205942,-9548.656652,153.219100
724.788134,-444.123565,-9844.739029,76.609550
724.788458,-296.082377,-9548.656652,689.485948
724.788782,-370.102971,-9252.574275,229.828649
724.789106,-296.082377,-9474.636058,0.000000
724.789430,-148.041188,-9548.656652,0.000000
724.789754,296.082377,-9696.697840,-383.047749
724.790078,740.205942,-9474.636058,-306.438199
724.790402,1258.350101,-9474.636058,-612.876398
724.790726,1332.370696,-9474.636058,0.000000
724.791050,1628.453072,-9548.656652,-306.438199
724.791375,1406.391290,-9844.739029,0.000000
724.791699,1036.288319,-9844.739029,0.000000
724.792023,962.267725,-10214.842000,76.609550
724.792347,666.185348,-9918.759623,-153.219100
724.792671,740.205942,-9844.739029,306.438199
724.792995,296.082377,-9474.636058,306.438199
724.793319,296.082377,-9622.677246,76.609550
724.793643,148.041188,-9770.718434,0.000000
724.793967,0.000000,-9474.636058,229.828649
724.794292,-148.041188,-9622.677246,76.609550
724.794616,-370.102971,-9400.615463,0.000000
724.794940,148.041188,-9400.615463,-229.828649
724.795264,0.000000,-9326.594869,-306.438199
724.795588,-296.082377,-9400.615463,306.438199
724.795912,0.000000,-9696.697840,76.609550
724.796236,-370.102971,-9844.739029,306.438199
724.796560,-814.226536,-9622.677246,229.828649
724.796884,-666.185348,-9622.677246,229.828649
724.797208,-740.205942,-9400.615463,536.266849
724.797533,-814.226536,-9474.636058,229.828649
724.797857,-666.185348,-9474.636058,842.705048
724.798181,-666.185348,-9178.553681,612.876398
724.798505,0.000000,-9474.636058,383.047749
724.798829,0.000000,-9622.677246,383.047749
724.799153,-148.041188,-9474.636058,229.828649
724.799477,0.000000,-9548.656652,-229.828649
724.799801,0.000000,-9474.636058,0.000000
724.800125,740.205942,-9474.636058,0.000000
724.800449,666.185348,-9696.697840,-383.047749
724.800774,740.205942,-9474.636058,-536.266849
724.801098,814.226536,-9696.697840,-306.438199
724.801422,1110.308913,-9548.656652,-612.876398
724.801746,1036.288319,-9474.636058,-383.047749
724.802070,814.226536,-9696.697840,-536.266849
724.802394,740.205942,-9474.636058,-153.219100
724.802718,370.102971,-9252.574275,76.609550
724.803042,518.144159,-9696.697840,153.219100
724.803366,-370.102971,-9548.656652,0.000000
724.803691,-518.144159,-10066.800811,-229.828649
724.804015,-740.205942,-9992.780217,-306.438199
724.804339,-814.226536,-9548.656652,-306.438199
724.804663,-814.226536,-9622.677246,0.000000
724.804987,-444.123565,-10066.800811,-689.485948
724.805311,-666.185348,-9992.780217,-229.828649
724.805635,-1036.288319,-9622.677246,-153.219100
724.805959,-1110.308913,-10066.800811,-383.047749
724.806283,-1184.329507,-10066.800811,-459.657299
724.806607,-1332.370696,-9918.759623,0.000000
724.806932,-1480.411884,-9992.780217,0.000000
724.807256,-1554.432478,-9844.739029,229.828649
724.807580,-1258.350101,-10066.800811,766.095498
724.807904,-1332.370696,-9770.718434,383.047749
724.808228,-1184.329507,-9992.780217,0.000000
724.808552,-962.267725,-9696.697840,153.219100
724.808876,-296.082377,-9696.697840,0.000000
724.809200,0.000000,-9474.636058,76.609550
724.809524,370.102971,-9252.574275,-306.438199
724.809848,740.205942,-9474.636058,-383.047749
724.810173,888.247130,-9548.656652,-536.266849
724.810497,1110.308913,-9252.574275,-459.657299
724.810821,814.226536,-9474.636058,-306.438199
724.811145,962.267725,-9992.780217,-459.657299
724.811469,1406.391290,-9474.636058,0.000000
724.811793,1628.453072,-9104.533087,229.828649
724.812117,1924.535449,-9252.574275,-153.219100
724.812441,1702.473667,-9326.594869,229.828649
724.812765,1110.308913,-8808.450710,0.000000
724.813090,740.205942,-9474.636058,383.047749
724.813414,222.061783,-9178.553681,306.438199
724.813738,0.000000,-9326.594869,229.828649
724.814062,-296.082377,-9400.615463,229.828649
724.814386,0.000000,-9326.594869,76.609550
724.814710,-296.082377,-9252.574275,0.000000
724.815034,-444.123565,-9474.636058,383.047749
724.815358,-444.123565,-9696.697840,153.219100
724.815682,-370.102971,-9622.677246,306.438199
724.816006,-740.205942,-9400.615463,153.219100
724.816331,-592.164754,-9622.677246,0.000000
724.816655,-370.102971,-9548.656652,153.219100
724.816979,-518.144159,-10066.800811,383.047749
724.817303,-888.247130,-9622.677246,306.438199
724.817627,-888.247130,-9474.636058,383.047749
724.817951,-592.164754,-9918.759623,153.219100
724.818275,-888.247130,-10140.821405,0.000000
724.818599,-740.205942,-10140.821405,0.000000
724.818923,-592.164754,-9770.718434,0.000000
724.819247,-444.123565,-9770.718434,-919.314598
724.819572,-296.082377,-9252.574275,-1225.752797
724.819896,666.185348,-9474.636058,-919.314598
724.820220,888.247130,-9474.636058,-459.657299
724.820544,740.205942,-9474.636058,-919.314598
724.820868,518.144159,-9474.636058,-1225.752797
724.821192,592.164754,-9696.697840,-1072.533697
724.821516,888.247130,-9844.739029,-995.924147
724.821840,888.247130,-9844.739029,-689.485948
724.822164,814.226536,-9622.677246,-229.828649
724.822489,814.226536,-9918.759623,-153.219100
724.822813,740.205942,-9992.780217,-153.219100
724.823137,518.144159,-9992.780217,-153.219100
724.823461,0.000000,-9844.739029,-229.828649
724.823785,-296.082377,-9918.759623,-153.219100
724.824109,-370.102971,-9918.759623,153.219100
724.824433,-444.123565,-9844.739029,-919.314598
724.824757,-518.144159,-9474.636058,-842.705048
724.825081,-444.123565,-9548.656652,-153.219100
724.825405,-296.082377,-9622.677246,-536.266849
724.825730,-296.082377,-9992.780217,-306.438199
724.826054,-444.123565,-9770.718434,0.000000
724.826378,-814.226536,-10066.800811,-306.438199
724.826702,-1110.308913,-9918.759623,-153.219100
724.827026,-1184.329507,-10066.800811,383.047749
724.827350,-1036.288319,-9622.677246,536.266849
724.827674,-1110.308913,-9474.636058,306.438199
724.827998,-1184.329507,-9548.656652,0.000000
724.828322,-666.185348,-9696.697840,306.438199
724.828647,-370.102971,-9622.677246,306.438199
724.828971,-370.102971,-9474.636058,76.609550
724.829295,-148.041188,-9474.636058,229.828649
724.829619,0.000000,-9622.677246,229.828649
724.829943,296.082377,-9474.636058,0.000000
724.830267,740.205942,-9474.636058,306.438199
724.830591,962.267725,-9326.594869,-306.438199
724.830915,1036.288319,-9104.533087,0.000000
724.831239,814.226536,-9474.636058,-536.266849
724.831563,1110.308913,-9696.697840,-153.219100
724.831888,962.267725,-9548.656652,0.000000
724.832212,814.226536,-9622.677246,0.000000
724.832536,1036.288319,-9474.636058,459.657299
724.832860,814.226536,-9104.533087,536.266849
724.833184,444.123565,-9104.533087,229.828649
724.833508,518.144159,-9252.574275,-229.828649
724.833832,148.041188,-9474.636058,459.657299
724.834156,0.000000,-9474.636058,306.438199
724.834480,0.000000,-9696.697840,76.609550
724.834804,-222.061783,-9622.677246,383.047749
724.835129,-222.061783,-9770.718434,0.000000
724.835453,-296.082377,-9696.697840,0.000000
724.835777,-148.041188,-9252.574275,76.609550
724.836101,-148.041188,-9696.697840,229.828649
724.836425,-518.144159,-9844.739029,0.000000
724.836749,-666.185348,-9696.697840,76.609550
724.837073,-740.205942,-9844.739029,0.000000
724.837397,-1184.329507,-9992.780217,153.219100
724.837721,-592.164754,-9992.780217,306.438199
724.838046,-222.061783,-10066.800811,-229.828649
724.838370,-148.041188,-10066.800811,536.266849
724.838694,0.000000,-9844.739029,383.047749
724.839018,0.000000,-9770.718434,229.828649
724.839342,-148.041188,-9918.759623,76.609550
724.839666,0.000000,-9696.697840,76.609550
724.839990,0.000000,-9326.594869,-153.219100
724.840314,518.144159,-9844.739029,0.000000
724.840638,666.185348,-10066.800811,-383.047749
724.840962,888.247130,-9696.697840,-766.095498
724.841287,888.247130,-9770.718434,-612.876398
724.841611,888.247130,-9696.697840,-919.314598
724.841935,666.185348,-9400.615463,-842.705048
724.842259,518.144159,-9474.636058,-459.657299
724.842583,740.205942,-9992.780217,-459.657299
724.842907,1036.288319,-9770.718434,0.000000
724.843231,444.123565,-9474.636058,-306.438199
724.843555,222.061783,-9548.656652,-383.047749
724.843879,444.123565,-9548.656652,0.000000
724.844203,74.020594,-9548.656652,76.609550
724.844528,0.000000,-10214.842000,0.000000
724.844852,-518.144159,-9770.718434,-459.657299
724.845176,-740.205942,-9696.697840,0.000000
724.845500,-1110.308913,-9770.718434,0.000000
724.845824,-1480.411884,-9696.697840,-689.485948
724.846148,-1258.350101,-9696.697840,-383.047749
724.846472,-1110.308913,-9696.697840,-459.657299
724.846796,-1184.329507,-9548.656652,-153.219100
724.847120,-1184.329507,-9474.636058,0.000000
724.847445,-1184.329507,-9992.780217,0.000000
724.847769,-1332.370696,-9992.780217,153.219100
724.848093,-1184.329507,-9696.697840,459.657299
724.848417,-1480.411884,-9844.739029,306.438199
724.848741,-888.247130,-10066.800811,229.828649
724.849065,-444.123565,-9992.780217,459.657299
724.849389,0.000000,-9844.739029,229.828649
724.849713,222.061783,-9844.739029,0.000000
724.850037,370.102971,-9992.780217,153.219100
724.850361,222.061783,-9474.636058,229.828649
724.850686,888.247130,-9548.656652,-229.828649
724.851010,962.267725,-9548.656652,-306.438199
724.851334,1184.329507,-9770.718434,-459.657299
724.851658,1110.308913,-9400.615463,-306.438199
724.851982,1406.391290,-9474.636058,383.047749
724.852306,1702.473667,-8956.491898,383.047749
724.852630,1628.453072,-9474.636058,536.266849
724.852954,1554.432478,-9696.697840,383.047749
724.853278,1110.308913,-9548.656652,306.438199
724.853602,740.205942,-9696.697840,229.828649
724.853927,518.144159,-9770.718434,459.657299
724.854251,444.123565,-9770.718434,76.609550
724.854575,-148.041188,-9400.615463,229.828649
724.854899,74.020594,-9400.615463,383.047749
724.855223,0.000000,-9252.574275,76.609550
724.855547,-444.123565,-9548.656652,0.000000
724.855871,-666.185348,-9770.718434,76.609550
724.856195,-444.123565,-9622.677246,153.219100
724.856519,-518.144159,-9622.677246,0.000000
724.856843,-518.144159,-9770.718434,306.438199
724.857167,-1406.391290,-9770.718434,612.876398
724.857492,-888.247130,-9548.656652,383.047749
724.857816,-1036.288319,-9548.656652,229.828649
724.858140,-444.123565,-9770.718434,306.438199
724.858464,-740.205942,-9770.718434,306.438199
724.858788,-444.123565,-9770.718434,153.219100
724.859112,-222.061783,-9548.656652,229.828649
724.859436,-222.061783,-9622.677246,-459.657299
724.859760,-444.123565,-9696.697840,-842.705048
724.860084,-296.082377,-9400.615463,-612.876398
724.860408,0.000000,-9400.615463,-383.047749
724.860732,592.164754,-9474.636058,-383.047749
724.861056,1036.288319,-9622.677246,-689.485948
724.861381,1258.350101,-9474.636058,-459.657299
724.861705,1036.288319,-9844.739029,-306.438199
724.862029,888.247130,-9400.615463,-459.657299
724.862353,740.205942,-9992.780217,-383.047749
724.862677,592.164754,-9622.677246,-919.314598
724.863001,592.164754,-9844.739029,-612.876398
724.863325,370.102971,-9918.759623,-536.266849
724.863649,0.000000,-9548.656652,-842.705048
724.863973,-222.061783,-9992.780217,-459.657299
724.864297,-444.123565,-10140.821405,-153.219100
724.864621,-666.185348,-9622.677246,-766.095498
724.864945,-222.061783,-9548.656652,-766.095498
724.865270,-296.082377,-9696.697840,-383.047749
724.865594,0.000000,-9992.780217,-153.219100
724.865918,0.000000,-10066.800811,-153.219100
724.866242,-222.061783,-9844.739029,-306.438199
724.866566,-592.164754,-9474.636058,306.438199
724.866890,-962.267725,-9696.697840,0.000000
724.867214,-1110.308913,-9918.759623,0.000000
724.867538,-1036.288319,-9918.759623,0.000000
724.867862,-1110.308913,-10066.800811,-229.828649
724.868186,-1258.350101,-10066.800811,0.000000
724.868510,-962.267725,-9918.759623,76.609550
724.868834,-1036.288319,-9622.677246,459.657299
724.869159,-814.226536,-9326.594869,612.876398
724.869483,-74.020594,-9326.594869,536.266849
724.869807,148.041188,-9326.594869,383.047749
724.870131,370.102971,-9474.636058,229.828649
724.870455,740.205942,-9474.636058,76.609550
724.870779,1036.288319,-9400.615463,76.609550
724.871103,888.247130,-9474.636058,0.000000
724.871427,1184.329507,-9548.656652,-459.657299
724.871751,962.267725,-9400.615463,0.000000
724.872075,1110.308913,-9770.718434,-153.219100
724.872399,592.164754,-9400.615463,0.000000
724.872723,592.164754,-9548.656652,0.000000
724.873048,444.123565,-9474.636058,76.609550
724.873372,370.102971,-9326.594869,76.609550
724.873696,296.082377,-8956.491898,306.438199
724.874020,592.164754,-8956.491898,306.438199
724.874344,592.164754,-9030.512492,229.828649
724.874668,222.061783,-9400.615463,-229.828649
724.874992,-222.061783,-9474.636058,0.000000
724.875316,-444.123565,-9548.656652,0.000000
724.875640,-296.082377,-9918.759623,0.000000
724.875964,-740.205942,-9992.780217,0.000000
724.876288,-666.185348,-9844.739029,0.000000
724.876612,-370.102971,-9918.759623,0.000000
724.876937,-148.041188,-10214.842000,229.828649
724.877261,-888.247130,-9844.739029,0.000000
724.877585,-1110.308913,-9844.739029,0.000000
724.877909,-1184.329507,-9844.739029,76.609550
724.878233,-1036.288319,-9918.759623,229.828649
724.878557,-444.123565,-9918.759623,306.438199
724.878881,-888.247130,-9622.677246,459.657299
724.879205,-222.061783,-9992.780217,383.047749
724.879529,148.041188,-9696.697840,229.828649
724.879853,0.000000,-9844.739029,0.000000
724.880177,222.061783,-10214.842000,0.000000
724.880501,0.000000,-9918.759623,0.000000
724.880826,148.041188,-9844.739029,-459.657299
724.881150,592.164754,-9770.718434,-153.219100
724.881474,888.247130,-9548.656652,-612.876398
724.881798,814.226536,-9178.553681,-612.876398
724.882122,1258.350101,-9474.636058,-612.876398
724.882446,1110.308913,-9400.615463,-306.438199
724.882770,962.267725,-9474.636058,-153.219100
724.883094,888.247130,-9474.636058,-76.609550
724.883418,666.185348,-9770.718434,0.000000
724.883742,666.185348,-9474.636058,766.095498
724.884066,592.164754,-9770.718434,459.657299
724.884390,370.102971,-9622.677246,459.657299
724.884715,-148.041188,-9770.718434,0.000000
724.885039,-740.205942,-9474.636058,-306.438199
724.885363,-1184.329507,-9548.656652,-306.438199
724.885687,-1332.370696,-9474.636058,-536.266849
724.886011,-814.226536,-9548.656652,-383.047749
724.886335,-1184.329507,-8956.491898,-306.438199
724.886659,-740.205942,-9474.636058,-153.219100
724.886983,-1406.391290,-9474.636058,-459.657299
724.887307,-888.247130,-9770.718434,-153.219100
724.887631,-962.267725,-9696.697840,76.609550
724.887955,-1184.329507,-9992.780217,306.438199
724.888279,-1110.308913,-9696.697840,689.485948
724.888604,-1036.288319,-9696.697840,766.095498
724.888928,-592.164754,-10807.006753,919.314598
724.889252,-814.226536,-9918.759623,459.657299
724.889576,-1036.288319,-9918.759623,383.047749
724.889900,-962.267725,-9844.739029,76.609550
724.890224,-518.144159,-9844.739029,-153.219100
724.890548,0.000000,-9918.759623,-459.657299
724.890872,222.061783,-9474.636058,-229.828649
724.891196,444.123565,-9104.533087,-1072.533697
724.891520,1110.308913,-9104.533087,-459.657299
724.891844,1776.494261,-9474.636058,-536.266849
724.892168,1554.432478,-9474.636058,-689.485948
724.892493,1628.453072,-9770.718434,-229.828649
724.892817,1776.494261,-9844.739029,153.219100
724.893141,1480.411884,-9696.697840,689.485948
724.893465,1258.350101,-9918.759623,306.438199
724.893789,518.144159,-9844.739029,383.047749
724.894113,888.247130,-9696.697840,76.609550
724.894437,592.164754,-9548.656652,76.609550
724.894761,296.082377,-9622.677246,0.000000
724.895085,0.000000,-9400.615463,-229.828649
724.895409,-148.041188,-9252.574275,0.000000
724.895733,-148.041188,-9326.594869,306.438199
724.896058,-814.226536,-9622.677246,-842.705048
724.896382,-740.205942,-9474.636058,0.000000
724.896706,-518.144159,-9696.697840,76.609550
724.897030,-444.123565,-9622.677246,-153.219100
724.897354,-518.144159,-9918.759623,0.000000
724.897678,-1184.329507,-9992.780217,459.657299
724.898002,-370.102971,-9918.759623,459.657299
724.898326,-296.082377,-9548.656652,-153.219100
724.898650,-222.061783,-9548.656652,459.657299
724.898974,-592.164754,-9770.718434,383.047749
724.899298,-518.144159,-9770.718434,229.828649
724.899622,-222.061783,-9326.594869,0.000000
724.899947,-148.041188,-9252.574275,0.000000
724.900271,-296.082377,-8808.450710,-153.219100
724.900595,-222.061783,-9326.594869,-229.828649
724.900919,518.144159,-9326.594869,-306.438199
724.901243,518.144159,-9770.718434,-1378.971896
724.901567,592.164754,-9770.718434,-536.266849
724.901891,814.226536,-9770.718434,-612.876398
724.902215,1110.308913,-9622.677246,-459.657299
724.902539,1110.308913,-9770.718434,0.000000
724.902863,962.267725,-9844.739029,76.609550
724.903187,518.144159,-9548.656652,-383.047749
724.903511,444.123565,-10066.800811,-229.828649
724.903836,0.000000,-9918.759623,0.000000
724.904160,-296.082377,-9770.718434,-459.657299
724.904484,-592.164754,-9770.718434,-612.876398
724.904808,-962.267725,-9696.697840,-306.438199
724.905132,-740.205942,-9992.780217,-766.095498
724.905456,-740.205942,-9474.636058,-306.438199
724.905780,-518.144159,-9548.656652,-459.657299
724.906104,-888.247130,-9844.739029,-536.266849
724.906428,-666.185348,-9992.780217,-306.438199
724.906752,-444.123565,-10140.821405,-153.219100
724.907076,-962.267725,-9844.739029,-306.438199
724.907400,-888.247130,-10066.800811,-229.828649
724.907725,-1110.308913,-9992.780217,76.609550
724.908049,-888.247130,-10066.800811,459.657299
724.908373,-1110.308913,-9400.615463,383.047749
724.908697,-814.226536,-9770.718434,0.000000
724.909021,-962.267725,-9696.697840,153.219100
724.909345,-370.102971,-9548.656652,229.828649
724.909669,-222.061783,-9474.636058,229.828649
724.909993,222.061783,-9474.636058,76.609550
724.910317,222.061783,-9400.615463,229.828649
724.910641,370.102971,-9252.574275,0.000000
724.910965,1036.288319,-9622.677246,76.609550
724.911289,1406.391290,-9474.636058,0.000000
724.911614,1480.411884,-9474.636058,76.609550
724.911938,1036.288319,-9474.636058,0.000000
724.912262,1258.350101,-9548.656652,76.609550
724.912586,1406.391290,-9252.574275,76.609550
724.912910,1628.453072,-9474.636058,153.219100
724.913234,2072.576638,-9696.697840,459.657299
724.913558,1406.391290,-9400.615463,306.438199
724.913882,1036.288319,-9104.533087,459.657299
724.914206,296.082377,-9030.512492,0.000000
724.914530,0.000000,-9326.594869,0.000000
724.914854,-296.082377,-9548.656652,0.000000
724.915178,-296.082377,-9696.697840,-306.438199
724.915503,-444.123565,-9696.697840,153.219100
724.915827,-222.061783,-9696.697840,0.000000
724.916151,-444.123565,-9992.780217,536.266849
724.916475,-148.041188,-9770.718434,76.609550
724.916799,-518.144159,-9622.677246,229.828649
724.917123,-592.164754,-9770.718434,0.000000
724.917447,-740.205942,-9844.739029,76.609550
724.917771,-1110.308913,-10066.800811,153.219100
724.918095,-740.205942,-10066.800811,306.438199
724.918419,-1036.288319,-9622.677246,459.657299
724.918743,-1184.329507,-10140.821405,-306.438199
724.919067,-814.226536,-10140.821405,0.000000
724.919392,-888.247130,-10140.821405,0.000000
724.919716,-740.205942,-9918.759623,-153.219100
724.920040,-296.082377,-10140.821405,0.000000
724.920364,148.041188,-9770.718434,-229.828649
724.920688,592.164754,-9622.677246,0.000000
724.921012,1036.288319,-9548.656652,-612.876398
724.921336,1258.350101,-9474.636058,76.609550
724.921660,1036.288319,-9918.759623,-689.485948
724.921984,1184.329507,-9992.780217,-459.657299
724.922308,1110.308913,-10140.821405,-383.047749
724.922632,814.226536,-9622.677246,-689.485948
724.922956,814.226536,-9474.636058,-612.876398
724.923281,888.247130,-9992.780217,-229.828649
724.923605,444.123565,-9400.615463,-229.828649
724.923929,592.164754,-9474.636058,0.000000
724.924253,592.164754,-9474.636058,0.000000
724.924577,444.123565,-9326.594869,-153.219100
724.924901,74.020594,-9474.636058,-306.438199
724.925225,0.000000,-9400.615463,-383.047749
724.925549,296.082377,-9474.636058,-995.924147
724.925873,-148.041188,-9474.636058,0.000000
724.926197,-592.164754,-9770.718434,-612.876398
724.926521,-888.247130,-9770.718434,-229.828649
724.926845,-888.247130,-9622.677246,0.000000
724.927170,-1110.308913,-9474.636058,76.609550
724.927494,-1184.329507,-9622.677246,153.219100
724.927818,-962.267725,-9252.574275,229.828649
724.928142,-1184.329507,-9474.636058,0.000000
724.928466,-888.247130,-9474.636058,766.095498
724.928790,-962.267725,-9252.574275,612.876398
724.929114,-1406.391290,-9400.615463,536.266849
724.929438,-1332.370696,-9918.759623,459.657299
724.929762,-1406.391290,-9770.718434,76.609550
724.930086,-1702.473667,-9770.718434,229.828649
724.930410,-1036.288319,-9400.615463,-306.438199
724.930734,-222.061783,-9696.697840,383.047749
724.931059,518.144159,-9400.615463,0.000000
724.931383,740.205942,-9622.677246,-306.438199
724.931707,888.247130,-9696.697840,-383.047749
724.932031,814.226536,-9548.656652,-383.047749
724.932355,1036.288319,-9696.697840,-306.438199
724.932679,1110.308913,-9474.636058,153.219100
724.933003,1628.453072,-9696.697840,76.609550
724.933327,1406.391290,-9474.636058,459.657299
724.933651,1406.391290,-9770.718434,153.219100
724.933975,814.226536,-9770.718434,0.000000
724.934299,666.185348,-9770.718434,0.000000
724.934623,370.102971,-9770.718434,76.609550
724.934948,0.000000,-9770.718434,153.219100
724.935272,-222.061783,-9326.594869,0.000000
724.935596,-222.061783,-9326.594869,0.000000
724.935920,-518.144159,-9326.594869,-536.266849
724.936244,-370.102971,-9474.636058,-306.438199
724.936568,-296.082377,-9548.656652,0.000000
724.936892,0.000000,-9770.718434,-229.828649
724.937216,-370.102971,-9696.697840,0.000000
724.937540,-222.061783,-10140.821405,-306.438199
724.937864,-148.041188,-9918.759623,76.609550
724.938188,-518.144159,-9844.739029,76.609550
724.938512,-444.123565,-9770.718434,459.657299
724.938837,-370.102971,-10066.800811,459.657299
724.939161,-370.102971,-9992.780217,459.657299
724.939485,-370.102971,-9548.656652,76.609550
724.939809,-296.082377,-9178.553681,842.705048
724.940133,0.000000,-9400.615463,0.000000
724.940457,0.000000,-9474.636058,-306.438199
724.940781,148.041188,-9548.656652,-536.266849
724.941105,74.020594,-9178.553681,-612.876398
724.941429,296.082377,-9400.615463,-842.705048
724.941753,370.102971,-9252.574275,-995.924147
724.942077,740.205942,-9548.656652,-612.876398
724.942401,888.247130,-9622.677246,-536.266849
724.942726,1110.308913,-9474.636058,-153.219100
724.943050,1184.329507,-10066.800811,-153.219100
724.943374,1184.329507,-9844.739029,-306.438199
724.943698,592.164754,-10288.862594,0.000000
724.944022,370.102971,-9918.759623,0.000000
724.944346,370.102971,-9918.759623,0.000000
724.944670,222.061783,-10288.862594,-383.047749
724.944994,-518.144159,-9770.718434,-536.266849
724.945318,-370.102971,-9992.780217,-383.047749
724.945642,-1036.288319,-9474.636058,-536.266849
724.945966,-888.247130,-9770.718434,-689.485948
724.946290,-1036.288319,-9696.697840,-919.314598
724.946615,-962.267725,-10066.800811,-459.657299
724.946939,-888.247130,-9918.759623,-306.438199
724.947263,-518.144159,-9622.677246,-153.219100
724.947587,-888.247130,-9770.718434,459.657299
724.947911,-444.123565,-9992.780217,766.095498
724.948235,-1036.288319,-9992.780217,229.828649
724.948559,-1184.329507,-10140.821405,459.657299
724.948883,-888.247130,-9844.739029,536.266849
724.949207,-1110.308913,-9770.718434,459.657299
724.949531,-444.123565,-10066.800811,612.876398
724.949855,-518.144159,-9696.697840,383.047749
724.950179,0.000000,-9548.656652,459.657299
724.950504,0.000000,-9252.574275,306.438199
724.950828,74.020594,-9474.636058,0.000000
724.951152,296.082377,-9400.615463,-306.438199
724.951476,740.205942,-9252.574275,0.000000
724.951800,1110.308913,-9474.636058,-383.047749
724.952124,1480.411884,-9548.656652,-383.047749
724.952448,1036.288319,-9178.553681,306.438199
724.952772,1184.329507,-9474.636058,-383.047749
724.953096,1406.391290,-9548.656652,0.000000
724.953420,1332.370696,-9992.780217,306.438199
724.953744,888.247130,-9548.656652,612.876398
724.954068,740.205942,-9622.677246,306.438199
724.954392,666.185348,-9400.615463,76.609550
724.954716,444.123565,-9400.615463,76.609550
724.955041,74.020594,-9252.574275,76.609550
724.955365,0.000000,-9104.533087,153.219100
724.955689,0.000000,-9548.656652,229.828649
724.956013,0.000000,-9474.636058,-229.828649
724.956337,-296.082377,-9474.636058,306.438199
724.956661,-666.185348,-9548.656652,0.000000
724.956985,0.000000,-9844.739029,76.609550
724.957309,0.000000,-9918.759623,153.219100
724.957633,-592.164754,-10288.862594,76.609550
724.957957,-1036.288319,-9844.739029,76.609550
724.958281,-1332.370696,-9548.656652,459.657299
724.958605,-1258.350101,-9918.759623,-229.828649
724.958929,-1480.411884,-9770.718434,76.609550
724.959253,-1258.350101,-9918.759623,0.000000
724.959577,-888.247130,-9918.759623,0.000000
724.959901,-444.123565,-10066.800811,-229.828649
724.960226,-370.102971,-9622.677246,-229.828649
724.960550,0.000000,-9992.780217,0.000000
724.960874,0.000000,-9992.780217,-459.657299
724.961198,444.123565,-9696.697840,-536.266849
724.961522,888.247130,-9844.739029,-612.876398
724.961846,740.205942,-9844.739029,-689.485948
724.962170,962.267725,-9992.780217,-766.095498
724.962494,888.247130,-9770.718434,-612.876398
724.962818,1332.370696,-9474.636058,-612.876398
724.963142,1480.411884,-9696.697840,-536.266849
724.963466,888.247130,-9474.636058,-459.657299
724.963790,1184.329507,-9770.718434,-383.047749
724.964114,1258.350101,-9696.697840,-383.047749
724.964438,1184.329507,-9770.718434,-612.876398
724.964762,592.164754,-9622.677246,-459.657299
724.965087,592.164754,-9548.656652,-383.047749
724.965411,296.082377,-8956.491898,0.000000
724.965735,222.061783,-9252.574275,-153.219100
724.966059,-148.041188,-9696.697840,-383.047749
724.966383,-888.247130,-9474.636058,-612.876398
724.966707,-666.185348,-9844.739029,-306.438199
724.967031,-814.226536,-9696.697840,-306.438199
724.967355,-592.164754,-9548.656652,-153.219100
724.967679,-888.247130,-9400.615463,153.219100
724.968003,-1332.370696,-9326.594869,0.000000
724.968327,-1480.411884,-9400.615463,0.000000
724.968651,-1406.391290,-9696.697840,153.219100
724.968975,-1628.453072,-9770.718434,919.314598
724.969299,-1480.411884,-9844.739029,612.876398
724.969623,-1258.350101,-9918.759623,919.314598
724.969947,-1184.329507,-10066.800811,842.705048
724.970272,-666.185348,-9770.718434,612.876398
724.970596,-888.247130,-9622.677246,383.047749
724.970920,-592.164754,-9696.697840,383.047749
724.971244,-296.082377,-9474.636058,153.219100
724.971568,0.000000,-9474.636058,0.000000
724.971892,518.144159,-9622.677246,-229.828649
724.972216,666.185348,-9696.697840,76.609550
724.972540,740.205942,-9326.594869,0.000000
724.972864,296.082377,-9104.533087,0.000000
724.973188,518.144159,-9548.656652,0.000000
724.973512,518.144159,-9252.574275,229.828649
724.973836,740.205942,-9844.739029,306.438199
724.974160,740.205942,-9844.739029,306.438199
724.974484,962.267725,-9844.739029,383.047749
724.974808,1036.288319,-9474.636058,995.924147
724.975133,592.164754,-9474.636058,459.657299
724.975457,370.102971,-9770.718434,612.876398
724.975781,222.061783,-9844.739029,383.047749
724.976105,0.000000,-9696.697840,0.000000
724.976429,0.000000,-9474.636058,153.219100
724.976753,-370.102971,-9474.636058,0.000000
724.977077,-370.102971,-9770.718434,153.219100
724.977401,-74.020594,-9844.739029,-306.438199
724.977725,-296.082377,-9622.677246,306.438199
724.978049,-370.102971,-9622.677246,0.000000
724.978373,-740.205942,-9548.656652,229.828649
724.978697,-740.205942,-9696.697840,383.047749
724.979021,-666.185348,-9770.718434,306.438199
724.979345,-444.123565,-9992.780217,383.047749
724.979669,-222.061783,-9474.636058,459.657299
724.979993,0.000000,-9252.574275,612.876398
724.980318,-148.041188,-9326.594869,76.609550
724.980642,74.020594,-9548.656652,76.609550
724.980966,222.061783,-9696.697840,0.000000
724.981290,518.144159,-9548.656652,-306.438199
724.981614,444.123565,-9400.615463,-612.876398
724.981938,518.144159,-9326.594869,-383.047749
724.982262,1036.288319,-9326.594869,-612.876398
724.982586,1332.370696,-9326.594869,76.609550
724.982910,814.226536,-9548.656652,-612.876398
724.983234,740.205942,-9622.677246,-842.705048
724.983558,740.205942,-9622.677246,-612.876398
724.983882,888.247130,-9622.677246,-459.657299
724.984206,666.185348,-9696.697840,-536.266849
724.984530,518.144159,-9622.677246,76.609550
724.984854,444.123565,-9696.697840,-1378.971896
724.985179,0.000000,-9770.718434,-612.876398
724.985503,0.000000,-9474.636058,-229.828649
724.985827,-370.102971,-9622.677246,-536.266849
724.986151,-592.164754,-9770.718434,-766.095498
724.986475,-592.164754,-10066.800811,-842.705048
724.986799,-1110.308913,-9844.739029,-536.266849
724.987123,-740.205942,-9992.780217,-612.876398
724.987447,-888.247130,-9622.677246,-612.876398
724.987771,-962.267725,-10140.821405,-766.095498
724.988095,-1110.308913,-9992.780217,-536.266849
724.988419,-1184.329507,-9992.780217,-383.047749
724.988743,-1702.473667,-10214.842000,-229.828649
724.989067,-1554.432478,-10140.821405,-383.047749
724.989391,-1332.370696,-9918.759623,229.828649
724.989715,-1554.432478,-9844.739029,306.438199
724.990039,-740.205942,-9474.636058,459.657299
724.990364,-370.102971,-9770.718434,766.095498
724.990688,-296.082377,-10140.821405,383.047749
724.991012,0.000000,-9696.697840,306.438199
724.991336,74.020594,-9918.759623,0.000000
724.991660,296.082377,-9474.636058,-306.438199
724.991984,740.205942,-9474.636058,-536.266849
724.992308,592.164754,-9178.553681,0.000000
724.992632,666.185348,-9326.594869,0.000000
724.992956,814.226536,-9548.656652,-229.828649
724.993280,1036.288319,-9474.636058,-229.828649
724.993604,1258.350101,-9474.636058,0.000000
724.993928,1110.308913,-9474.636058,153.219100
724.994252,1184.329507,-9326.594869,766.095498
724.994576,1480.411884,-9400.615463,612.876398
724.994900,1036.288319,-9474.636058,536.266849
724.995225,444.123565,-9030.512492,919.314598
724.995549,592.164754,-9474.636058,766.095498
724.995873,444.123565,-9400.615463,612.876398
724.996197,148.041188,-9474.636058,536.266849
724.996521,0.000000,-9548.656652,919.314598
724.996845,-370.102971,-9474.636058,306.438199
724.997169,-370.102971,-9400.615463,306.438199
724.997493,-666.185348,-9474.636058,76.609550
724.997817,-740.205942,-9474.636058,0.000000
724.998141,-888.247130,-9548.656652,0.000000
724.998465,-666.185348,-9474.636058,229.828649
724.998789,-1110.308913,-9474.636058,153.219100
724.999113,-1480.411884,-9770.718434,0.000000
724.999437,-962.267725,-9770.718434,1225.752797
724.999761,-888.247130,-9326.594869,842.705048
725.000085,-370.102971,-9992.780217,536.266849
725.000410,-518.144159,-9696.697840,459.657299
725.000734,-370.102971,-10066.800811,536.266849
725.001058,0.000000,-10288.862594,306.438199
725.001382,518.144159,-9918.759623,76.609550
725.001706,222.061783,-9844.739029,76.609550
725.002030,444.123565,-9400.615463,-153.219100
725.002354,888.247130,-9622.677246,-1149.143247
725.002678,666.185348,-9474.636058,-612.876398
725.003002,666.185348,-9770.718434,-995.924147
725.003326,518.144159,-9474.636058,-995.924147
725.003650,666.185348,-9474.636058,-766.095498
725.003974,740.205942,-9548.656652,-766.095498
725.004298,518.144159,-9696.697840,-536.266849
725.004622,962.267725,-9918.759623,-306.438199
725.004946,518.144159,-10140.821405,-306.438199
725.005270,370.102971,-10140.821405,-383.047749
725.005595,0.000000,-10066.800811,-229.828649
725.005919,-222.061783,-10214.842000,0.000000
725.006243,-370.102971,-9992.780217,76.609550
725.006567,-296.082377,-9844.739029,0.000000
725.006891,0.000000,-9474.636058,-76.609550
725.007215,-444.123565,-9474.636058,-306.438199
725.007539,-740.205942,-9696.697840,-383.047749
725.007863,-888.247130,-9474.636058,-459.657299
725.008187,-1184.329507,-9548.656652,-306.438199
725.008511,-1554.432478,-9770.718434,0.000000
725.008835,-1406.391290,-10066.800811,-229.828649
725.009159,-1480.411884,-9770.718434,0.000000
725.009483,-888.247130,-9918.759623,153.219100
725.009807,-1036.288319,-9992.780217,153.219100
725.010131,-888.247130,-9918.759623,689.485948
725.010456,-740.205942,-9622.677246,612.876398
725.010780,-296.082377,-9326.594869,689.485948
725.011104,-148.041188,-9400.615463,612.876398
725.011428,296.082377,-9400.615463,383.047749
725.011752,592.164754,-9400.615463,-229.828649
725.012076,962.267725,-9474.636058,0.000000
725.012400,1110.308913,-9474.636058,0.000000
725.012724,888.247130,-9326.594869,-383.047749
725.013048,518.144159,-9326.594869,-459.657299
725.013372,592.164754,-9400.615463,-459.657299
725.013696,1332.370696,-9474.636058,-306.438199
725.014020,888.247130,-9622.677246,153.219100
725.014344,1184.329507,-9548.656652,76.609550
725.014668,666.185348,-9400.615463,612.876398
725.014992,740.205942,-9252.574275,383.047749
725.015316,444.123565,-9326.594869,229.828649
725.015641,296.082377,-9474.636058,536.266849
725.015965,222.061783,-9770.718434,383.047749
725.016289,0.000000,-9844.739029,536.266849
725.016613,-444.123565,-9474.636058,76.609550
725.016937,0.000000,-9770.718434,-229.828649
725.017261,-814.226536,-9918.759623,-383.047749
725.017585,-666.185348,-10066.800811,-306.438199
725.017909,-814.226536,-9918.759623,-229.828649
725.018233,-666.185348,-9992.780217,-153.219100
725.018557,-962.267725,-10140.821405,0.000000
725.018881,-444.123565,-10066.800811,-536.266849
725.019205,0.000000,-10436.903782,153.219100
725.019529,-518.144159,-9844.739029,0.000000
725.019853,-814.226536,-9918.759623,0.000000
725.020177,-592.164754,-10288.862594,76.609550
725.020502,-370.102971,-10066.800811,76.609550
725.020826,-444.123565,-9844.739029,76.609550
725.021150,-222.061783,-9474.636058,-153.219100
725.021474,0.000000,-9696.697840,-1072.533697
725.021798,592.164754,-9474.636058,-842.705048
725.022122,888.247130,-9844.739029,-689.485948
725.022446,1036.288319,-9548.656652,-766.095498
725.022770,1184.329507,-9474.636058,-766.095498
725.023094,1480.411884,-9474.636058,-766.095498
725.023418,1036.288319,-9252.574275,-536.266849
725.023742,1036.288319,-10066.800811,-536.266849
725.024066,1184.329507,-9474.636058,-689.485948
725.024390,1184.329507,-9696.697840,-612.876398
725.024714,1036.288319,-9770.718434,-383.047749
725.025038,666.185348,-9844.739029,-229.828649
725.025362,0.000000,-9696.697840,0.000000
725.025687,-296.082377,-9474.636058,-689.485948
725.026011,-444.123565,-9400.615463,0.000000
725.026335,-592.164754,-9400.615463,-153.219100
725.026659,-888.247130,-9178.553681,-995.924147
725.026983,-740.205942,-9474.636058,-306.438199
725.027307,-740.205942,-9474.636058,-229.828649
725.027631,-444.123565,-9474.636058,0.000000
725.027955,-740.205942,-9622.677246,0.000000
725.028279,-592.164754,-9548.656652,76.609550
725.028603,-666.185348,-9770.718434,229.828649
725.028927,-1480.411884,-9844.739029,383.047749
725.029251,-1628.453072,-10214.842000,0.000000
725.029575,-2146.597232,-10214.842000,0.000000
725.029899,-1850.514855,-9770.718434,229.828649
725.030223,-1036.288319,-9696.697840,459.657299
725.030548,-814.226536,-9844.739029,229.828649
725.030872,-592.164754,-9474.636058,0.000000
725.031196,-296.082377,-9104.533087,536.266849
725.031520,-148.041188,-9474.636058,0.000000
725.031844,0.000000,-9622.677246,-153.219100
725.032168,222.061783,-9696.697840,0.000000
725.032492,666.185348,-9770.718434,0.000000
725.032816,814.226536,-9844.739029,-229.828649
725.033140,1332.370696,-9918.759623,76.609550
725.033464,1702.473667,-10362.883188,229.828649
725.033788,1776.494261,-10214.842000,0.000000
725.034112,1554.432478,-9548.656652,229.828649
725.034436,1406.391290,-9696.697840,153.219100
725.034760,1332.370696,-9548.656652,229.828649
725.035084,1184.329507,-9474.636058,459.657299
725.035408,666.185348,-9178.553681,153.219100
725.035733,518.144159,-9104.533087,76.609550
725.036057,222.061783,-9474.636058,-153.219100
725.036381,74.020594,-9918.759623,229.828649
725.036705,0.000000,-9548.656652,0.000000
725.037029,0.000000,-9622.677246,229.828649
725.037353,0.000000,-9622.677246,76.609550
725.037677,0.000000,-9696.697840,229.828649
725.038001,222.061783,-9548.656652,306.438199
725.038325,0.000000,-9474.636058,842.705048
725.038649,-592.164754,-9474.636058,383.047749
725.038973,-888.247130,-9622.677246,459.657299
725.039297,-1036.288319,-9400.615463,919.314598
725.039621,-962.267725,-9252.574275,306.438199
725.039945,-1184.329507,-9770.718434,229.828649
725.040269,-1110.308913,-9770.718434,229.828649
725.040593,-888.247130,-9548.656652,153.219100
725.040918,-444.123565,-9400.615463,76.609550
725.041242,0.000000,-9326.594869,0.000000
725.041566,0.000000,-9548.656652,-306.438199
725.041890,0.000000,-9622.677246,0.000000
725.042214,74.020594,-9696.697840,-306.438199
725.042538,444.123565,-9770.718434,-383.047749
725.042862,296.082377,-9548.656652,-536.266849
725.043186,444.123565,-9622.677246,-689.485948
725.043510,296.082377,-9548.656652,-995.924147
725.043834,592.164754,-9474.636058,-995.924147
725.044158,666.185348,-9770.718434,-153.219100
725.044482,666.185348,-9696.697840,0.000000
725.044806,592.164754,-9622.677246,-229.828649
725.045130,444.123565,-9770.718434,-306.438199
725.045454,370.102971,-9770.718434,-383.047749
725.045779,0.000000,-9992.780217,-459.657299
725.046103,0.000000,-10214.842000,0.000000
725.046427,148.041188,-10066.800811,-153.219100
725.046751,-444.123565,-9696.697840,-229.828649
725.047075,-518.144159,-9844.739029,-842.705048
725.047399,-1036.288319,-9918.759623,-536.266849
725.047723,-962.267725,-9918.759623,-612.876398
725.048047,-814.226536,-9770.718434,-536.266849
725.048371,-666.185348,-9770.718434,-459.657299
725.048695,-444.123565,-9400.615463,-229.828649
725.049019,-518.144159,-9696.697840,-459.657299
725.049343,-888.247130,-9770.718434,76.609550
725.049667,-814.226536,-9992.780217,153.219100
725.049991,-1036.288319,-9844.739029,306.438199
725.050315,-888.247130,-9844.739029,153.219100
725.050639,-740.205942,-9770.718434,153.219100
725.050964,-370.102971,-9548.656652,153.219100
725.051288,-222.061783,-9770.718434,0.000000
725.051612,-148.041188,-9252.574275,306.438199
725.051936,0.000000,-9474.636058,0.000000
725.052260,370.102971,-9474.636058,-383.047749
725.052584,814.226536,-9548.656652,-536.266849
725.052908,740.205942,-9474.636058,-383.047749
725.053232,814.226536,-9326.594869,-153.219100
725.053557,1258.350101,-9252.574275,229.828649
725.053881,1480.411884,-9326.594869,-536.266849
725.054205,1628.453072,-9622.677246,766.095498
725.054529,1702.473667,-9548.656652,76.609550
725.054853,1184.329507,-9622.677246,383.047749
725.055177,888.247130,-9622.677246,306.438199
725.055502,592.164754,-9548.656652,153.219100
725.055826,74.020594,-9178.553681,229.828649
725.056150,0.000000,-9400.615463,76.609550
725.056474,0.000000,-9474.636058,0.000000
725.056798,0.000000,-9548.656652,229.828649
725.057122,-444.123565,-9622.677246,0.000000
725.057446,-666.185348,-9326.594869,0.000000
725.057771,-666.185348,-9548.656652,0.000000
725.058095,-444.123565,-9918.759623,0.000000
725.058419,-888.247130,-9770.718434,0.000000
725.058743,-1184.329507,-9548.656652,153.219100
725.059067,-1036.288319,-9918.759623,766.095498
725.059391,-1258.350101,-9992.780217,612.876398
725.059716,-740.205942,-10214.842000,612.876398
725.060040,-740.205942,-10288.862594,612.876398
725.060364,-592.164754,-10066.800811,536.266849
725.060688,-666.185348,-9844.739029,306.438199
725.061012,-518.144159,-9992.780217,76.609550
725.061336,-370.102971,-9992.780217,-306.438199
725.061661,-444.123565,-9474.636058,-612.876398
725.061985,0.000000,-9992.780217,-536.266849
725.062309,296.082377,-9770.718434,-536.266849
725.062633,518.144159,-9622.677246,-689.485948
725.062957,518.144159,-9696.697840,-383.047749
725.063281,888.247130,-9474.636058,-383.047749
725.063606,962.267725,-9622.677246,76.609550
725.063930,1480.411884,-9696.697840,-153.219100
725.064254,1850.514855,-9548.656652,0.000000
725.064578,1628.453072,-9474.636058,-153.219100
725.064902,1110.308913,-9696.697840,76.609550
725.065226,888.247130,-9770.718434,0.000000
725.065550,370.102971,-9622.677246,-153.219100
725.065875,74.020594,-9622.677246,-306.438199
725.066199,-592.164754,-9474.636058,-1225.752797
725.066523,-592.164754,-9252.574275,-919.314598
725.066847,-888.247130,-9400.615463,-459.657299
725.067171,-518.144159,-9400.615463,-306.438199
725.067495,-222.061783,-9326.594869,0.000000
725.067820,-148.041188,-8956.491898,0.000000
725.068144,-222.061783,-8882.471304,0.000000
725.068468,0.000000,-9474.636058,306.438199
725.068792,0.000000,-9770.718434,0.000000
725.069116,-888.247130,-9844.739029,153.219100
725.069440,-1332.370696,-10066.800811,0.000000
725.069765,-1628.453072,-9992.780217,229.828649
725.070089,-1480.411884,-10066.800811,0.000000
725.070413,-1480.411884,-9844.739029,0.000000
725.070737,-962.267725,-10066.800811,153.219100
725.071061,-740.205942,-9622.677246,0.000000
725.071385,-518.144159,-9622.677246,-153.219100
725.071710,0.000000,-9548.656652,0.000000
725.072034,148.041188,-9474.636058,0.000000
725.072358,740.205942,-9622.677246,-229.828649
725.072682,888.247130,-9548.656652,-153.219100
725.073006,1480.411884,-9844.739029,-153.219100
725.073330,1702.473667,-9696.697840,0.000000
725.073655,740.205942,-10066.800811,-306.438199
725.073979,666.185348,-10066.800811,-459.657299
725.074303,814.226536,-10214.842000,-383.047749
725.074627,592.164754,-10214.842000,0.000000
725.074951,444.123565,-10066.800811,-153.219100
725.075275,370.102971,-9696.697840,153.219100
725.075599,592.164754,-9992.780217,229.828649
725.075924,888.247130,-9770.718434,0.000000
725.076248,370.102971,-9252.574275,306.438199
725.076572,-222.061783,-9548.656652,0.000000
725.076896,0.000000,-9844.739029,0.000000
725.077220,0.000000,-9770.718434,0.000000
725.077544,0.000000,-9992.780217,76.609550
725.077869,0.000000,-9844.739029,0.000000
725.078193,-592.164754,-9844.739029,-153.219100
725.078517,-444.123565,-9400.615463,0.000000
725.078841,-518.144159,-9622.677246,0.000000
725.079165,-962.267725,-9400.615463,153.219100
725.079489,-814.226536,-9474.636058,76.609550
725.079814,-888.247130,-9474.636058,229.828649
725.080138,-666.185348,-9474.636058,0.000000
725.080462,-444.123565,-9474.636058,0.000000
725.080786,-740.205942,-9400.615463,153.219100
725.081110,-666.185348,-9474.636058,536.266849
725.081434,-370.102971,-9400.615463,459.657299
725.081759,222.061783,-9474.636058,153.219100
725.082083,148.041188,-9844.739029,306.438199
725.082407,518.144159,-9622.677246,0.000000
725.082731,666.185348,-9474.636058,383.047749
725.083055,962.267725,-9622.677246,0.000000
725.083379,962.267725,-9400.615463,-383.047749
725.083703,814.226536,-9548.656652,153.219100
725.084028,592.164754,-9770.718434,-459.657299
725.084352,592.164754,-9252.574275,-229.828649
725.084676,444.123565,-9474.636058,-459.657299
725.085000,592.164754,-9844.739029,-459.657299
725.085324,592.164754,-9696.697840,-153.219100
725.085648,370.102971,-9696.697840,-229.828649
725.085973,296.082377,-9548.656652,153.219100
725.086297,148.041188,-9844.739029,76.609550
725.086621,-296.082377,-9918.759623,76.609550
725.086945,-296.082377,-9918.759623,0.000000
725.087269,-222.061783,-9918.759623,-229.828649
725.087593,-222.061783,-9992.780217,-383.047749
725.087918,-444.123565,-9770.718434,-459.657299
725.088242,-740.205942,-9622.677246,-383.047749
725.088566,-740.205942,-9992.780217,0.000000
725.088890,-962.267725,-9918.759623,-306.438199
725.089214,-1258.350101,-9992.780217,-1072.533697
725.089538,-1332.370696,-10140.821405,-383.047749
725.089863,-1184.329507,-10214.842000,0.000000
725.090187,-1184.329507,-10214.842000,153.219100
725.090511,-1036.288319,-9992.780217,153.219100
725.090835,-814.226536,-9918.759623,0.000000
725.091159,-740.205942,-9770.718434,306.438199
725.091483,-370.102971,-9844.739029,153.219100
725.091808,-592.164754,-9992.780217,76.609550
725.092132,-222.061783,-10140.821405,0.000000
725.092456,0.000000,-9770.718434,0.000000
725.092780,666.185348,-9474.636058,76.609550
725.093104,1332.370696,-9326.594869,-306.438199
725.093428,1258.350101,-9178.553681,-229.828649
725.093752,1036.288319,-9326.594869,0.000000
725.094077,1184.329507,-9326.594869,-612.876398
725.094401,1258.350101,-9252.574275,0.000000
725.094725,1332.370696,-9400.615463,0.000000
725.095049,962.267725,-9326.594869,0.000000
725.095373,1036.288319,-9770.718434,306.438199
725.095697,518.144159,-9474.636058,306.438199
725.096022,740.205942,-9474.636058,383.047749
725.096346,296.082377,-8734.430116,689.485948
725.096670,0.000000,-9178.553681,459.657299
725.096994,-222.061783,-9548.656652,612.876398
725.097318,-222.061783,-9400.615463,383.047749
725.097642,-370.102971,-9400.615463,306.438199
725.097967,-518.144159,-9104.533087,306.438199
725.098291,-370.102971,-9252.574275,612.876398
725.098615,-370.102971,-9474.636058,0.000000
725.098939,-370.102971,-9474.636058,76.609550
725.099263,-814.226536,-9992.780217,0.000000
725.099587,-1258.350101,-9770.718434,0.000000
725.099912,-1332.370696,-9696.697840,0.000000
725.100236,-1480.411884,-9696.697840,0.000000
725.100560,-740.205942,-9992.780217,306.438199
725.100884,-962.267725,-9770.718434,383.047749
725.101208,-518.144159,-9548.656652,306.438199
725.101532,-444.123565,-9770.718434,153.219100
725.101856,-444.123565,-9622.677246,76.609550
725.102181,148.041188,-9770.718434,0.000000
725.102505,74.020594,-9992.780217,0.000000
725.102829,592.164754,-10066.800811,-459.657299
725.103153,740.205942,-9918.759623,-306.438199
725.103477,740.205942,-10140.821405,-383.047749
725.103801,370.102971,-9844.739029,-919.314598
725.104126,518.144159,-9844.739029,-766.095498
725.104450,518.144159,-9770.718434,-689.485948
725.104774,666.185348,-9770.718434,-766.095498
725.105098,666.185348,-9622.677246,76.609550
725.105422,1036.288319,-9844.739029,-536.266849
725.105746,592.164754,-9474.636058,153.219100
725.106071,592.164754,-9326.594869,0.000000
725.106395,74.020594,-9548.656652,-383.047749
725.106719,0.000000,-9844.739029,-306.438199
725.107043,0.000000,-10214.842000,-153.219100
725.107367,0.000000,-10140.821405,-153.219100
725.107691,0.000000,-9622.677246,0.000000
725.108016,-296.082377,-9474.636058,0.000000
725.108340,-1036.288319,-9252.574275,0.000000
725.108664,74.020594,-9622.677246,76.609550
725.108988,-444.123565,-9770.718434,0.000000
725.109312,-518.144159,-9548.656652,0.000000
725.109636,-1036.288319,-9770.718434,0.000000
725.109961,-1480.411884,-9918.759623,306.438199
725.110285,-962.267725,-9326.594869,0.000000
725.110609,-1332.370696,-9474.636058,153.219100
725.110933,-1332.370696,-9696.697840,0.000000
725.111257,-962.267725,-9696.697840,153.219100
725.111581,-296.082377,-9474.636058,229.828649
725.111905,-222.061783,-9474.636058,306.438199
725.112230,0.000000,-9474.636058,459.657299
725.112554,370.102971,-9474.636058,76.609550
725.112878,0.000000,-9104.533087,-153.219100
725.113202,370.102971,-9622.677246,306.438199
725.113526,666.185348,-9474.636058,-612.876398
725.113850,444.123565,-9548.656652,-383.047749
725.114175,518.144159,-9474.636058,-229.828649
725.114499,666.185348,-9474.636058,-306.438199
725.114823,666.185348,-9474.636058,76.609550
725.115147,740.205942,-9326.594869,153.219100
725.115471,740.205942,-9178.553681,0.000000
725.115795,962.267725,-9548.656652,-306.438199
725.116120,444.123565,-9622.677246,153.219100
725.116444,370.102971,-9992.780217,153.219100
725.116768,222.061783,-9770.718434,0.000000
725.117092,0.000000,-9696.697840,153.219100
725.117416,-518.144159,-9992.780217,229.828649
725.117740,-296.082377,-10214.842000,0.000000
725.118065,-148.041188,-9992.780217,0.000000
725.118389,-296.082377,-9844.739029,229.828649
725.118713,-222.061783,-10140.821405,153.219100
725.119037,-370.102971,-9992.780217,76.609550
725.119361,-518.144159,-10140.821405,76.609550
725.119685,-962.267725,-9696.697840,0.000000
725.120009,-1332.370696,-9696.697840,76.609550
725.120334,-1184.329507,-9548.656652,76.609550
725.120658,-814.226536,-9696.697840,459.657299
725.120982,-518.144159,-9622.677246,153.219100
725.121306,-222.061783,-9770.718434,306.438199
725.121630,0.000000,-9844.739029,306.438199
725.121954,148.041188,-9548.656652,306.438199
725.122279,296.082377,-9770.718434,306.438199
725.122603,444.123565,-9992.780217,0.000000
725.122927,740.205942,-9474.636058,0.000000
725.123251,518.144159,-9622.677246,-229.828649
725.123575,962.267725,-9474.636058,-383.047749
725.123899,1406.391290,-9474.636058,-383.047749
725.124224,888.247130,-9400.615463,-153.219100
725.124548,666.185348,-9474.636058,-383.047749
725.124872,666.185348,-9104.533087,-306.438199
725.125196,888.247130,-9326.594869,-153.219100
725.125520,814.226536,-9178.553681,0.000000
725.125844,814.226536,-9326.594869,306.438199
725.126169,592.164754,-9474.636058,0.000000
725.126493,0.000000,-9474.636058,0.000000
725.126817,-296.082377,-9548.656652,0.000000
725.127141,-666.185348,-9770.718434,-306.438199
725.127465,-814.226536,-9548.656652,-153.219100
725.127789,-666.185348,-9474.636058,-842.705048
725.128114,-666.185348,-9326.594869,-459.657299
725.128438,-888.247130,-9326.594869,-459.657299
725.128762,-592.164754,-9474.636058,-306.438199
725.129086,-1110.308913,-9770.718434,-383.047749
725.129410,-1184.329507,-9992.780217,-153.219100
725.129734,-1258.350101,-9844.739029,0.000000
725.130058,-1332.370696,-10288.862594,76.609550
725.130383,-1554.432478,-10140.821405,0.000000
725.130707,-1258.350101,-10510.924376,-536.266849
725.131031,-1332.370696,-10066.800811,0.000000
725.131355,-1036.288319,-10288.862594,0.000000
725.131679,-888.247130,-10140.821405,76.609550
725.132003,-592.164754,-10066.800811,0.000000
725.132328,-370.102971,-10140.821405,-383.047749
725.132652,-296.082377,-9696.697840,0.000000
725.132976,370.102971,-9622.677246,-383.047749
725.133300,740.205942,-9696.697840,-536.266849
725.133624,1036.288319,-9474.636058,-612.876398
725.133948,1036.288319,-10066.800811,-612.876398
725.134273,962.267725,-9844.739029,-536.266849
725.134597,1110.308913,-9844.739029,-612.876398
725.134921,1110.308913,-9696.697840,-383.047749
725.135245,1628.453072,-9622.677246,153.219100
725.135569,1702.473667,-9474.636058,459.657299
725.135893,1628.453072,-9474.636058,229.828649
725.136218,1036.288319,-9474.636058,153.219100
725.136542,888.247130,-9548.656652,0.000000
725.136866,444.123565,-9400.615463,153.219100
725.137190,0.000000,-9474.636058,76.609550
725.137514,74.020594,-9474.636058,536.266849
725.137838,-370.102971,-9252.574275,0.000000
725.138162,-592.164754,-9104.533087,306.438199
725.138487,-592.164754,-9030.512492,0.000000
725.138811,-370.102971,-8956.491898,0.000000
725.139135,-444.123565,-9178.553681,0.000000
725.139459,-740.205942,-9474.636058,0.000000
725.139783,-814.226536,-9400.615463,306.438199
725.140107,-444.123565,-9548.656652,383.047749
725.140432,-888.247130,-9696.697840,842.705048
725.140756,-888.247130,-9622.677246,536.266849
725.141080,-518.144159,-9844.739029,536.266849
725.141404,-444.123565,-9696.697840,612.876398
725.141728,0.000000,-9622.677246,459.657299
725.142052,-370.102971,-9696.697840,459.657299
725.142377,-592.164754,-9400.615463,76.609550
725.142701,-148.041188,-9252.574275,153.219100
725.143025,0.000000,-9474.636058,-153.219100
725.143349,148.041188,-9474.636058,-153.219100
725.143673,74.020594,-9622.677246,-536.266849
725.143997,444.123565,-9622.677246,-536.266849
725.144322,592.164754,-9918.759623,-536.266849
725.144646,444.123565,-9918.759623,-306.438199
725.144970,296.082377,-10066.800811,-766.095498
725.145294,444.123565,-10288.862594,-153.219100
725.145618,592.164754,-9992.780217,-459.657299
725.145942,740.205942,-9770.718434,0.000000
725.146267,666.185348,-9844.739029,0.000000
725.146591,444.123565,-9844.739029,76.609550
725.146915,148.041188,-9844.739029,-306.438199
725.147239,-296.082377,-9992.780217,536.266849
725.147563,0.000000,-10066.800811,0.000000
725.147887,0.000000,-10288.862594,-383.047749
725.148211,-740.205942,-9992.780217,-689.485948
725.148536,-666.185348,-9844.739029,0.000000
725.148860,-814.226536,-9770.718434,-383.047749
725.149184,-1110.308913,-9548.656652,-383.047749
725.149508,-888.247130,-9770.718434,-306.438199
725.149832,-444.123565,-9474.636058,0.000000
725.150156,-666.185348,-9548.656652,153.219100
725.150481,-814.226536,-9548.656652,76.609550
725.150805,-740.205942,-9992.780217,0.000000
725.151129,-740.205942,-9622.677246,0.000000
725.151453,-888.247130,-9474.636058,76.609550
725.151777,-518.144159,-9918.759623,229.828649
725.152101,-444.123565,-9474.636058,229.828649
725.152426,0.000000,-9030.512492,536.266849
725.152750,74.020594,-9400.615463,0.000000
725.153074,370.102971,-9400.615463,153.219100
725.153398,666.185348,-9474.636058,0.000000
725.153722,518.144159,-9474.636058,-306.438199
725.154047,444.123565,-9474.636058,-153.219100
725.154371,518.144159,-9178.553681,-306.438199
725.154695,814.226536,-9326.594869,-383.047749
725.155019,740.205942,-9252.574275,-306.438199
725.155343,1036.288319,-9400.615463,-536.266849
725.155667,1258.350101,-9696.697840,-76.609550
725.155992,666.185348,-9548.656652,-306.438199
725.156316,814.226536,-9622.677246,0.000000
725.156640,592.164754,-9696.697840,0.000000
725.156964,518.144159,-9844.739029,0.000000
725.157288,0.000000,-9844.739029,-459.657299
725.157613,0.000000,-10732.986159,-459.657299
725.157937,-296.082377,-9918.759623,76.609550
725.158261,-740.205942,-9844.739029,0.000000
725.158585,-740.205942,-9918.759623,0.000000
725.158909,-740.205942,-9770.718434,-153.219100
725.159234,-370.102971,-9770.718434,-306.438199
725.159558,-518.144159,-9918.759623,0.000000
725.159882,-1110.308913,-9696.697840,0.000000
725.160206,-814.226536,-9770.718434,-459.657299
725.160530,-740.205942,-9622.677246,0.000000
725.160855,-888.247130,-9844.739029,-306.438199
725.161179,-1036.288319,-9918.759623,0.000000
725.161503,-740.205942,-9918.759623,0.000000
725.161827,-592.164754,-9918.759623,459.657299
725.162151,-74.020594,-9918.759623,-153.219100
725.162476,148.041188,-9844.739029,153.219100
725.162800,518.144159,-9696.697840,459.657299
725.163124,740.205942,-9548.656652,-306.438199
725.163448,740.205942,-9474.636058,0.000000
725.163772,740.205942,-9474.636058,-153.219100
725.164097,814.226536,-9548.656652,-536.266849
725.164421,1110.308913,-9178.553681,-766.095498
725.164745,740.205942,-9326.594869,-1532.190996
725.165069,814.226536,-8956.491898,-689.485948
725.165393,592.164754,-9474.636058,-766.095498
725.165717,518.144159,-9474.636058,-536.266849
725.166042,518.144159,-9548.656652,-383.047749
725.166366,444.123565,-9548.656652,-229.828649
725.166690,518.144159,-9474.636058,153.219100
725.167014,296.082377,-9622.677246,153.219100
725.167338,0.000000,-9548.656652,-229.828649
725.167663,0.000000,-9252.574275,-306.438199
725.167987,-592.164754,-9770.718434,-153.219100
725.168311,-370.102971,-9770.718434,-153.219100
725.168635,-592.164754,-9844.739029,-383.047749
725.168959,-666.185348,-9992.780217,-383.047749
725.169284,-1036.288319,-9696.697840,-306.438199
725.169608,-1110.308913,-9992.780217,-153.219100
725.169932,-1110.308913,-10584.944971,-153.219100
725.170256,-1406.391290,-9844.739029,0.000000
725.170580,-1628.453072,-9844.739029,153.219100
725.170905,-1628.453072,-9844.739029,229.828649
725.171229,-1332.370696,-9918.759623,383.047749
725.171553,-962.267725,-9992.780217,229.828649
725.171877,-666.185348,-9770.718434,612.876398
725.172201,-1184.329507,-9252.574275,229.828649
725.172526,-666.185348,-10066.800811,0.000000
725.172850,-370.102971,-10066.800811,0.000000
725.173174,-370.102971,-9844.739029,-306.438199
725.173498,-148.041188,-9622.677246,-306.438199
725.173822,296.082377,-9770.718434,-383.047749
725.174146,962.267725,-9770.718434,-536.266849
725.174471,1036.288319,-9696.697840,-459.657299
725.174795,1406.391290,-9844.739029,-229.828649
725.175119,1332.370696,-9326.594869,229.828649
725.175443,1776.494261,-9252.574275,306.438199
725.175767,1850.514855,-9474.636058,306.438199
725.176092,1628.453072,-9474.636058,0.000000
725.176416,1480.411884,-9622.677246,1149.143247
725.176740,1036.288319,-9326.594869,306.438199
725.177064,814.226536,-9770.718434,459.657299
725.177388,444.123565,-9400.615463,306.438199
725.177713,148.041188,-9400.615463,229.828649
725.178037,-222.061783,-9696.697840,-229.828649
725.178361,-370.102971,-9400.615463,153.219100
725.178685,-148.041188,-9326.594869,153.219100
725.179009,222.061783,-9474.636058,153.219100
725.179334,444.123565,-9400.615463,459.657299
725.179658,-148.041188,-9474.636058,383.047749
725.179982,-296.082377,-9622.677246,229.828649
725.180306,-592.164754,-9326.594869,536.266849
725.180630,-814.226536,-9474.636058,842.705048
725.180955,-888.247130,-10066.800811,306.438199
725.181279,-814.226536,-9770.718434,459.657299
725.181603,-814.226536,-9918.759623,383.047749
725.181927,-888.247130,-9770.718434,153.219100
725.182251,-740.205942,-9474.636058,459.657299
725.182575,-444.123565,-9474.636058,0.000000
725.182900,-592.164754,-9252.574275,-229.828649
725.183224,-148.041188,-8808.450710,-306.438199
725.183548,0.000000,-9474.636058,-612.876398
725.183872,296.082377,-9548.656652,-459.657299
725.184196,592.164754,-9474.636058,-612.876398
725.184521,518.144159,-9030.512492,-306.438199
725.184845,444.123565,-9252.574275,-383.047749
725.185169,666.185348,-9622.677246,-536.266849
725.185493,518.144159,-9622.677246,-689.485948
725.185817,518.144159,-9622.677246,-459.657299
725.186142,370.102971,-9918.759623,-689.485948
725.186466,296.082377,-9770.718434,-383.047749
725.186790,74.020594,-10066.800811,-766.095498
725.187114,-222.061783,-10066.800811,-306.438199
725.187438,-518.144159,-10214.842000,-459.657299
725.187763,-444.123565,-9696.697840,-229.828649
725.188087,-518.144159,-10288.862594,-383.047749
725.188411,-666.185348,-10140.821405,-612.876398
725.188735,-740.205942,-9992.780217,-612.876398
725.189059,-444.123565,-9918.759623,-919.314598
725.189384,-518.144159,-9622.677246,-612.876398
725.189708,-296.082377,-9918.759623,-76.609550
725.190032,-962.267725,-9770.718434,229.828649
725.190356,-296.082377,-10140.821405,0.000000
725.190680,-888.247130,-9992.780217,0.000000
725.191004,-1036.288319,-10066.800811,0.000000
725.191329,-740.205942,-9918.759623,0.000000
725.191653,-592.164754,-9622.677246,153.219100
725.191977,-444.123565,-9696.697840,383.047749
725.192301,-296.082377,-9400.615463,153.219100
725.192625,-148.041188,-9696.697840,0.000000
725.192950,-296.082377,-9696.697840,0.000000
725.193274,0.000000,-9474.636058,0.000000
725.193598,370.102971,-9252.574275,-229.828649
725.193922,814.226536,-9622.677246,0.000000
725.194246,814.226536,-9400.615463,0.000000
725.194571,740.205942,-9252.574275,153.219100
725.194895,1036.288319,-9326.594869,383.047749
725.195219,1332.370696,-9400.615463,0.000000
725.195543,1258.350101,-9474.636058,0.000000
725.195867,1110.308913,-9326.594869,153.219100
725.196192,888.247130,-9474.636058,306.438199
725.196516,962.267725,-9474.636058,612.876398
725.196840,666.185348,-9326.594869,766.095498
725.197164,370.102971,-9252.574275,459.657299
725.197488,148.041188,-8882.471304,0.000000
725.197813,0.000000,-9474.636058,0.000000
725.198137,-296.082377,-9400.615463,0.000000
725.198461,-592.164754,-9474.636058,0.000000
725.198785,-888.247130,-9474.636058,229.828649
725.199109,-666.185348,-9400.615463,76.609550
725.199434,-592.164754,-9474.636058,229.828649
725.199758,-370.102971,-10214.842000,842.705048
725.200082,-962.267725,-10066.800811,229.828649
725.200406,-1184.329507,-9918.759623,612.876398
725.200730,-1036.288319,-10066.800811,306.438199
725.201054,-1110.308913,-10140.821405,0.000000
725.201379,-1332.370696,-10214.842000,153.219100
725.201703,-1258.350101,-9844.739029,0.000000
725.202027,-1036.288319,-9696.697840,306.438199
725.202351,-296.082377,-10066.800811,-306.438199
725.202675,-222.061783,-10140.821405,0.000000
725.203000,-222.061783,-9918.759623,0.000000
725.203324,222.061783,-9770.718434,-306.438199
725.203648,518.144159,-9770.718434,-383.047749
725.203972,888.247130,-9474.636058,0.000000
725.204296,1110.308913,-9622.677246,0.000000
725.204621,1332.370696,-9474.636058,-229.828649
725.204945,1480.411884,-9548.656652,0.000000
725.205269,1258.350101,-9770.718434,-306.438199
725.205593,962.267725,-9918.759623,-536.266849
725.205917,962.267725,-9622.677246,-383.047749
725.206242,1110.308913,-9252.574275,-306.438199
725.206566,1036.288319,-9252.574275,-383.047749
725.206890,814.226536,-9844.739029,-306.438199
725.207214,148.041188,-9326.594869,0.000000
725.207538,74.020594,-9326.594869,-383.047749
725.207863,148.041188,-9400.615463,-689.485948
725.208187,0.000000,-9696.697840,-536.266849
725.208511,-666.185348,-9844.739029,-229.828649
725.208835,-888.247130,-9844.739029,-306.438199
725.209159,-592.164754,-9844.739029,-153.219100
725.209483,-1184.329507,-9696.697840,0.000000
725.209808,-814.226536,-9400.615463,0.000000
725.210132,-1184.329507,-9918.759623,0.000000
725.210456,-1258.350101,-9622.677246,153.219100
725.210780,-1332.370696,-9622.677246,153.219100
725.211104,-1332.370696,-9622.677246,536.266849
725.211429,-1480.411884,-9696.697840,0.000000
725.211753,-1480.411884,-9992.780217,612.876398
725.212077,-1406.391290,-9992.780217,-383.047749
725.212401,-1480.411884,-9548.656652,0.000000
725.212725,-962.267725,-9918.759623,0.000000
725.213050,-740.205942,-9770.718434,-306.438199
725.213374,-148.041188,-9918.759623,-229.828649
725.213698,148.041188,-9770.718434,0.000000
725.214022,962.267725,-9696.697840,0.000000
725.214346,1184.329507,-9474.636058,0.000000
725.214671,1406.391290,-9622.677246,-229.828649
725.214995,1184.329507,-9696.697840,0.000000
725.215319,1184.329507,-9918.759623,-383.047749
725.215643,1110.308913,-9844.739029,0.000000
725.215967,888.247130,-9844.739029,0.000000
725.216292,1628.453072,-9770.718434,306.438199
725.216616,814.226536,-9400.615463,153.219100
725.216940,962.267725,-9474.636058,153.219100
725.217264,592.164754,-9548.656652,0.000000
725.217588,444.123565,-9844.739029,0.000000
725.217912,148.041188,-9474.636058,153.219100
725.218237,74.020594,-9622.677246,0.000000
725.218561,296.082377,-9696.697840,76.609550
725.218885,296.082377,-9548.656652,153.219100
725.219209,296.082377,-9474.636058,0.000000
725.219533,0.000000,-9104.533087,306.438199
725.219858,-296.082377,-9770.718434,0.000000
725.220182,-444.123565,-9770.718434,0.000000
725.220506,-592.164754,-9770.718434,0.000000
725.220830,-888.247130,-9770.718434,306.438199
725.221154,-888.247130,-10066.800811,0.000000
725.221479,-888.247130,-9548.656652,536.266849
725.221803,-888.247130,-9696.697840,153.219100
725.222127,-518.144159,-9474.636058,306.438199
725.222451,-740.205942,-9622.677246,229.828649
725.222775,-222.061783,-9548.656652,0.000000
725.223100,0.000000,-9474.636058,76.609550
725.223424,0.000000,-9252.574275,76.609550
725.223748,296.082377,-9696.697840,229.828649
725.224072,518.144159,-9548.656652,-153.219100
725.224396,888.247130,-9548.656652,76.609550
725.224721,666.185348,-9474.636058,-459.657299
725.225045,592.164754,-9474.636058,-536.266849
725.225369,592.164754,-9696.697840,-536.266849
725.225693,592.164754,-9400.615463,-536.266849
725.226017,592.164754,-9400.615463,0.000000
725.226342,666.185348,-9918.759623,-766.095498
725.226666,296.082377,-9474.636058,-153.219100
725.226990,592.164754,-9696.697840,0.000000
725.227314,148.041188,-9770.718434,0.000000
725.227638,0.000000,-9696.697840,0.000000
725.227962,74.020594,-9918.759623,-459.657299
725.228287,-518.144159,-9474.636058,-229.828649
725.228611,-296.082377,-9548.656652,-612.876398
725.228935,-1036.288319,-9474.636058,-842.705048
725.229259,-1184.329507,-9622.677246,-459.657299
725.229583,-1184.329507,-9918.759623,-689.485948
725.229908,-962.267725,-9992.780217,-459.657299
725.230232,-1184.329507,-9992.780217,0.000000
725.230556,-1406.391290,-10288.862594,-383.047749
725.230880,-888.247130,-10288.862594,153.219100
725.231204,-1110.308913,-9696.697840,229.828649
725.231529,-1184.329507,-10140.821405,383.047749
725.231853,-518.144159,-10066.800811,-306.438199
725.232177,-666.185348,-9548.656652,0.000000
725.232501,-74.020594,-9918.759623,459.657299
725.232825,0.000000,-9770.718434,229.828649
725.233150,148.041188,-9548.656652,383.047749
725.233474,0.000000,-9400.615463,-153.219100
725.233798,-296.082377,-9474.636058,-306.438199
725.234122,666.185348,-9844.739029,-306.438199
725.234446,518.144159,-9992.780217,-459.657299
725.234771,666.185348,-9844.739029,-383.047749
725.235095,1036.288319,-9696.697840,-229.828649
725.235419,1110.308913,-9548.656652,229.828649
725.235743,1332.370696,-9252.574275,76.609550
725.236067,1406.391290,-9326.594869,766.095498
725.236391,1332.370696,-9326.594869,459.657299
725.236716,1406.391290,-9548.656652,536.266849
725.237040,1332.370696,-9622.677246,459.657299
725.237364,888.247130,-9696.697840,459.657299
725.237688,518.144159,-9696.697840,153.219100
725.238012,222.061783,-9474.636058,383.047749
725.238337,-592.164754,-8882.471304,229.828649
725.238661,-962.267725,-9252.574275,0.000000
725.238985,-888.247130,-9252.574275,0.000000
725.239309,-740.205942,-9474.636058,0.000000
725.239633,-444.123565,-9548.656652,0.000000
725.239958,-518.144159,-9696.697840,153.219100
725.240282,-814.226536,-9400.615463,153.219100
725.240606,-888.247130,-9252.574275,76.609550
725.240930,-740.205942,-9622.677246,229.828649
725.241254,-1036.288319,-9844.739029,0.000000
725.241579,-666.185348,-10140.821405,-459.657299
725.241903,-962.267725,-10066.800811,0.000000
725.242227,-814.226536,-9844.739029,0.000000
725.242551,-592.164754,-9844.739029,306.438199
725.242875,-296.082377,-10066.800811,0.000000
725.243200,-370.102971,-9770.718434,229.828649
725.243524,-222.061783,-9622.677246,0.000000
725.243848,296.082377,-9252.574275,0.000000
725.244172,444.123565,-9696.697840,-383.047749
725.244496,148.041188,-9696.697840,-612.876398
725.244820,518.144159,-9696.697840,-919.314598
725.245145,888.247130,-9548.656652,-919.314598
725.245469,888.247130,-9696.697840,-842.705048
725.245793,1258.350101,-9918.759623,-842.705048
725.246117,740.205942,-9770.718434,-1225.752797
725.246441,814.226536,-9918.759623,-919.314598
725.246766,888.247130,-10066.800811,-689.485948
725.247090,888.247130,-10066.800811,-383.047749
725.247414,888.247130,-10066.800811,0.000000
725.247738,1110.308913,-10214.842000,229.828649
725.248062,592.164754,-9770.718434,-459.657299
725.248387,518.144159,-9770.718434,76.609550
725.248711,222.061783,-9548.656652,0.000000
725.249035,-148.041188,-10066.800811,-306.438199
725.249359,-518.144159,-9844.739029,-612.876398
725.249683,-888.247130,-9770.718434,-612.876398
725.250008,-1258.350101,-10066.800811,-689.485948
725.250332,-1258.350101,-9474.636058,-766.095498
725.250656,-1332.370696,-9474.636058,-1072.533697
725.250980,-1184.329507,-9548.656652,-536.266849
725.251304,-1332.370696,-9844.739029,383.047749
725.251629,-1332.370696,-9844.739029,306.438199
725.251953,-1184.329507,-9622.677246,689.485948
725.252277,-740.205942,-9474.636058,842.705048
725.252601,-666.185348,-9696.697840,1072.533697
725.252925,-518.144159,-9622.677246,229.828649
