#time,accel_x,accel_y,accel_z
430.347448,-1702.473667,-11621.233289,2145.067394
430.347772,-888.247130,-13323.706956,2757.943793
430.348096,-1036.288319,-12805.562797,459.657299
430.348420,-1924.535449,-10288.862594,1455.581446
430.348744,-1850.514855,-7624.121203,0.000000
430.349068,1036.288319,-7179.997637,-766.095498
430.349392,2886.803174,-7328.038826,612.876398
430.349717,4885.359217,-7105.977043,1915.238745
430.350041,6735.874072,-8512.368333,2987.772442
430.350365,6809.894666,-11029.068536,2834.553343
430.350689,4737.318029,-12731.542202,2374.896044
430.351013,1776.494261,-12657.521608,1225.752797
430.351337,0.000000,-11991.336260,-1302.362347
430.351661,-1924.535449,-11473.192101,-3064.381992
430.351985,-3256.906145,-10732.986159,-3753.867940
430.352310,-2146.597232,-10658.965565,-2374.896044
430.352634,0.000000,-11399.171507,-612.876398
430.352958,1850.514855,-10066.800811,0.000000
430.353282,3256.906145,-8512.368333,689.485948
430.353606,4145.153275,-7994.224174,842.705048
430.353930,4367.215058,-9326.594869,612.876398
430.354254,4663.297435,-10584.944971,1072.533697
430.354579,5329.482782,-10658.965565,2451.505594
430.354903,5477.523971,-11103.089130,2528.115143
430.355227,4441.235652,-12065.356855,689.485948
430.355551,2738.761985,-11177.109724,-612.876398
430.355875,1628.453072,-10732.986159,-689.485948
430.356199,370.102971,-11621.233289,-995.924147
430.356523,-592.164754,-11547.212695,-995.924147
430.356847,-296.082377,-9326.594869,536.266849
430.357172,222.061783,-7550.100608,1302.362347
430.357496,888.247130,-7105.977043,1685.410096
430.357820,2146.597232,-7920.203579,1762.019645
430.358144,2960.823768,-7994.224174,2987.772442
430.358468,4145.153275,-8438.347739,3524.039291
430.358792,4293.194464,-8808.450710,3524.039291
430.359116,3923.091493,-8438.347739,3753.867940
430.359441,3923.091493,-8956.491898,3600.648841
430.359765,3182.885551,-10510.924376,3447.429741
430.360089,2738.761985,-11621.233289,2911.162892
430.360413,2368.659014,-11177.109724,2911.162892
430.360737,2812.782580,-10881.027347,3140.991542
430.361061,2368.659014,-11029.068536,4443.353888
430.361385,2220.617826,-10510.924376,4519.963438
430.361709,1554.432478,-9104.533087,4213.525239
430.362034,1184.329507,-8142.265362,4290.134789
430.362358,1628.453072,-7254.018232,4519.963438
430.362682,3330.926739,-6143.709319,4903.011187
430.363006,4367.215058,-5477.523971,5056.230287
430.363330,4663.297435,-6143.709319,4903.011187
430.363654,3997.112087,-6143.709319,4136.915689
430.363978,2590.720797,-6513.812290,3907.087040
430.364303,518.144159,-7772.162391,2834.553343
430.364627,-962.267725,-9548.656652,2757.943793
430.364951,-1702.473667,-11103.089130,2911.162892
430.365275,-2146.597232,-11695.253884,2987.772442
430.365599,-1924.535449,-11695.253884,3677.258390
430.365923,-296.082377,-11251.130318,4136.915689
430.366247,1850.514855,-10807.006753,3983.696590
430.366571,3775.050304,-9548.656652,4060.306139
430.366896,3701.029710,-8512.368333,4290.134789
430.367220,3108.864956,-8808.450710,2987.772442
430.367544,1924.535449,-8808.450710,1455.581446
430.367868,-148.041188,-8512.368333,536.266849
430.368192,-2294.638420,-9178.553681,-229.828649
430.368516,-3849.070898,-9474.636058,-1225.752797
430.368840,-4219.173869,-8956.491898,-2068.457845
430.369165,-3330.926739,-9326.594869,-995.924147
430.369489,-1332.370696,-10362.883188,0.000000
430.369813,666.185348,-11695.253884,612.876398
430.370137,2146.597232,-12287.418637,1378.971896
430.370461,2072.576638,-11473.192101,383.047749
430.370785,444.123565,-10510.924376,-536.266849
430.371109,-2368.659014,-10732.986159,-1302.362347
430.371434,-3330.926739,-10658.965565,-2145.067394
430.371758,-3330.926739,-8512.368333,-2528.115143
430.372082,-962.267725,-7698.141797,-2987.772442
430.372406,1258.350101,-7920.203579,-3370.820191
430.372730,3108.864956,-8586.388927,-3753.867940
430.373054,5033.400406,-9104.533087,-2451.505594
430.373378,5773.606348,-10140.821405,-2451.505594
430.373702,5625.565159,-11473.192101,-2145.067394
430.374027,2886.803174,-11695.253884,-1685.410096
430.374351,592.164754,-12065.356855,-1991.848295
430.374675,-962.267725,-11843.295072,-2834.553343
430.374999,-1998.556043,-12139.377449,-2987.772442
430.375323,-2294.638420,-12287.418637,-3064.381992
430.375647,-2146.597232,-11843.295072,-2911.162892
430.375971,-2960.823768,-10584.944971,-3294.210641
430.376295,-3552.988522,-9548.656652,-3830.477490
430.376620,-3923.091493,-8660.409521,-3907.087040
430.376944,-3330.926739,-8734.430116,-3753.867940
430.377268,-592.164754,-8216.285956,-2987.772442
430.377592,2664.741391,-7402.059420,-2221.676944
430.377916,5773.606348,-7105.977043,-229.828649
430.378240,7105.977043,-8512.368333,0.000000
430.378564,6291.750507,-10214.842000,-842.705048
430.378888,3108.864956,-10881.027347,-919.314598
430.379213,0.000000,-11695.253884,-1378.971896
430.379537,-2960.823768,-11621.233289,-2068.457845
430.379861,-4737.318029,-11399.171507,-1915.238745
430.380185,-4737.318029,-10066.800811,-1378.971896
430.380509,-3552.988522,-8734.430116,-612.876398
430.380833,-2220.617826,-9178.553681,153.219100
430.381157,-1480.411884,-8586.388927,459.657299
430.381481,-1554.432478,-7994.224174,842.705048
430.381806,-1480.411884,-8068.244768,995.924147
430.382130,-1332.370696,-8290.306550,1225.752797
430.382454,-518.144159,-8586.388927,842.705048
430.382778,444.123565,-8512.368333,1302.362347
430.383102,1776.494261,-8808.450710,1225.752797
430.383426,1924.535449,-9252.574275,306.438199
430.383750,1184.329507,-9326.594869,766.095498
430.384074,-296.082377,-9992.780217,766.095498
430.384399,-1850.514855,-10807.006753,842.705048
430.384723,-3108.864956,-10658.965565,1072.533697
430.385047,-3701.029710,-10362.883188,1608.800546
430.385371,-2072.576638,-10214.842000,2221.676944
430.385695,592.164754,-9400.615463,3140.991542
430.386019,2960.823768,-8660.409521,3907.087040
430.386343,3923.091493,-8734.430116,3447.429741
430.386667,2220.617826,-9696.697840,2528.115143
430.386992,0.000000,-10140.821405,1455.581446
430.387316,-1332.370696,-10584.944971,383.047749
430.387640,-1628.453072,-10732.986159,0.000000
430.387964,-296.082377,-10584.944971,306.438199
430.388288,1776.494261,-9548.656652,536.266849
430.388612,3552.988522,-8660.409521,842.705048
430.388936,4145.153275,-9104.533087,1532.190996
430.389260,3182.885551,-9844.739029,1838.629195
430.389585,1332.370696,-10362.883188,1915.238745
430.389909,-740.205942,-10584.944971,2451.505594
430.390233,-1184.329507,-10140.821405,2681.334243
430.390557,-740.205942,-10510.924376,2604.724693
430.390881,740.205942,-10510.924376,2374.896044
430.391205,1554.432478,-9696.697840,1838.629195
430.391529,1628.453072,-9770.718434,1532.190996
430.391853,148.041188,-10436.903782,689.485948
430.392178,-1850.514855,-10584.944971,459.657299
430.392502,-3182.885551,-9252.574275,0.000000
430.392826,-3775.050304,-8216.285956,-842.705048
430.393150,-1924.535449,-7105.977043,-1455.581446
430.393474,1036.288319,-6587.832884,-842.705048
430.393798,3849.070898,-6513.812290,306.438199
430.394122,6143.709319,-7105.977043,1455.581446
430.394446,5921.647536,-7476.080014,1762.019645
430.394771,2812.782580,-7920.203579,1685.410096
430.395095,-1332.370696,-8068.244768,536.266849
430.395419,-4737.318029,-9104.533087,0.000000
430.395743,-5773.606348,-9622.677246,-536.266849
430.396067,-4145.153275,-9770.718434,-459.657299
430.396391,-1332.370696,-9918.759623,0.000000
430.396715,1184.329507,-9844.739029,-153.219100
430.397039,1628.453072,-9918.759623,-689.485948
430.397363,-518.144159,-10362.883188,-1838.629195
430.397688,-3627.009116,-9992.780217,-2451.505594
430.398012,-4589.276840,-9992.780217,-2374.896044
430.398336,-3404.947333,-10214.842000,-2604.724693
430.398660,0.000000,-10140.821405,-2145.067394
430.398984,4071.132681,-9918.759623,-1608.800546
430.399308,6513.812290,-10362.883188,-1532.190996
430.399632,5995.668130,-11029.068536,-1455.581446
430.399956,2812.782580,-10881.027347,-1225.752797
430.400281,-444.123565,-10732.986159,-1838.629195
430.400605,-3182.885551,-10584.944971,-1915.238745
430.400929,-3701.029710,-11325.150913,-1762.019645
430.401253,-2220.617826,-11621.233289,-1762.019645
430.401577,222.061783,-11399.171507,-1762.019645
430.401901,1998.556043,-11177.109724,-1608.800546
430.402225,1998.556043,-11177.109724,-1685.410096
430.402549,0.000000,-11103.089130,-1838.629195
430.402874,-2886.803174,-11177.109724,-2374.896044
430.403198,-5033.400406,-10288.862594,-3524.039291
430.403522,-4515.256246,-10362.883188,-3140.991542
430.403846,-1776.494261,-10214.842000,-2681.334243
430.404170,2072.576638,-9696.697840,-1838.629195
430.404494,4737.318029,-8882.471304,-1072.533697
430.404818,5181.441594,-8438.347739,-383.047749
430.405142,3108.864956,-8808.450710,-306.438199
430.405467,0.000000,-9548.656652,-153.219100
430.405791,-3627.009116,-9992.780217,-459.657299
430.406115,-4737.318029,-10362.883188,-612.876398
430.406439,-3775.050304,-10214.842000,-459.657299
430.406763,-1480.411884,-9918.759623,0.000000
430.407087,370.102971,-9326.594869,0.000000
430.407411,962.267725,-8882.471304,0.000000
430.407735,-444.123565,-9178.553681,153.219100
430.408060,-3034.844362,-8660.409521,-383.047749
430.408384,-4811.338623,-8068.244768,-612.876398
430.408708,-3404.947333,-8216.285956,-306.438199
430.409032,-296.082377,-8068.244768,76.609550
430.409356,3997.112087,-7920.203579,536.266849
430.409680,6661.853478,-7476.080014,1685.410096
430.410004,7031.956449,-8364.327145,1838.629195
430.410328,4737.318029,-9326.594869,1378.971896
430.410653,1184.329507,-9696.697840,1378.971896
430.410977,-2220.617826,-10436.903782,919.314598
430.411301,-3627.009116,-10881.027347,766.095498
430.411625,-2664.741391,-10955.047942,919.314598
430.411949,-592.164754,-10214.842000,1149.143247
430.412273,1036.288319,-9474.636058,2068.457845
430.412597,1702.473667,-9770.718434,2221.676944
430.412921,518.144159,-10584.944971,2068.457845
430.413246,-1554.432478,-10436.903782,995.924147
430.413570,-3330.926739,-9992.780217,536.266849
430.413894,-2886.803174,-9992.780217,842.705048
430.414218,-1036.288319,-9770.718434,995.924147
430.414542,2368.659014,-9178.553681,1455.581446
430.414866,5033.400406,-8882.471304,2068.457845
430.415190,6143.709319,-9178.553681,1838.629195
430.415514,4959.379811,-9252.574275,2374.896044
430.415839,1332.370696,-9474.636058,1685.410096
430.416163,-2442.679609,-9548.656652,1149.143247
430.416487,-4737.318029,-9770.718434,842.705048
430.416811,-4219.173869,-9918.759623,1072.533697
430.417135,-1628.453072,-9400.615463,1838.629195
430.417459,814.226536,-8882.471304,2145.067394
430.417783,2886.803174,-9474.636058,2145.067394
430.418107,2146.597232,-9696.697840,1915.238745
430.418432,-518.144159,-9844.739029,1532.190996
430.418756,-3552.988522,-9548.656652,766.095498
430.419080,-4441.235652,-9474.636058,229.828649
430.419404,-2146.597232,-9548.656652,76.609550
430.419728,1036.288319,-8438.347739,229.828649
430.420052,3701.029710,-8068.244768,919.314598
430.420376,5329.482782,-8142.265362,766.095498
430.420700,4219.173869,-8660.409521,383.047749
430.421025,1332.370696,-9252.574275,0.000000
430.421349,-2146.597232,-9252.574275,-536.266849
430.421673,-3997.112087,-9400.615463,-229.828649
430.421997,-3997.112087,-9770.718434,229.828649
430.422321,-1480.411884,-10436.903782,0.000000
430.422645,1480.411884,-9918.759623,229.828649
430.422969,2886.803174,-10288.862594,306.438199
430.423293,2368.659014,-10584.944971,306.438199
430.423618,-592.164754,-10584.944971,-306.438199
430.423942,-3849.070898,-9992.780217,-1532.190996
430.424266,-4959.379811,-9622.677246,-1762.019645
430.424590,-3849.070898,-9622.677246,-2145.067394
430.424914,-370.102971,-9770.718434,-2221.676944
430.425238,3923.091493,-8956.491898,-1608.800546
430.425562,6439.791695,-9252.574275,-1455.581446
430.425886,6217.729913,-9252.574275,-1225.752797
430.426210,3627.009116,-9770.718434,-1762.019645
430.426535,-740.205942,-9992.780217,-2221.676944
430.426859,-4071.132681,-10066.800811,-2221.676944
430.427183,-4441.235652,-11251.130318,-1838.629195
430.427507,-2516.700203,-11547.212695,-1072.533697
430.427831,-296.082377,-10881.027347,-995.924147
430.428155,1258.350101,-10436.903782,-1149.143247
430.428479,1110.308913,-10140.821405,-1532.190996
430.428803,-1480.411884,-10140.821405,-2221.676944
430.429128,-4737.318029,-9770.718434,-2757.943793
430.429452,-6365.771101,-9622.677246,-2834.553343
430.429776,-4737.318029,-9844.739029,-2757.943793
430.430100,-1480.411884,-10066.800811,-2834.553343
430.430424,2294.638420,-8956.491898,-2145.067394
430.430748,5033.400406,-8660.409521,-1762.019645
430.431072,5625.565159,-9326.594869,-1225.752797
430.431396,3552.988522,-10288.862594,-919.314598
430.431721,518.144159,-10510.924376,-919.314598
430.432045,-2368.659014,-10510.924376,-306.438199
430.432369,-2368.659014,-11251.130318,-306.438199
430.432693,-1480.411884,-11547.212695,-306.438199
430.433017,888.247130,-10732.986159,536.266849
430.433341,2590.720797,-10436.903782,459.657299
430.433665,2146.597232,-10436.903782,766.095498
430.433989,148.041188,-9622.677246,842.705048
430.434314,-2294.638420,-9400.615463,-229.828649
430.434638,-3775.050304,-8660.409521,0.000000
430.434962,-3182.885551,-8512.368333,-689.485948
430.435286,-814.226536,-8364.327145,-383.047749
430.435610,2368.659014,-8068.244768,0.000000
430.435934,4515.256246,-7920.203579,842.705048
430.436258,4811.338623,-7920.203579,1455.581446
430.436582,2812.782580,-8586.388927,1915.238745
430.436907,-1036.288319,-8882.471304,612.876398
430.437231,-3849.070898,-9178.553681,229.828649
430.437555,-4885.359217,-9770.718434,229.828649
430.437879,-3775.050304,-10288.862594,919.314598
430.438203,-1036.288319,-10288.862594,1685.410096
430.438527,1628.453072,-10066.800811,2528.115143
430.438851,2442.679609,-10214.842000,3217.601092
430.439175,1406.391290,-10066.800811,2221.676944
430.439500,-1110.308913,-9474.636058,1225.752797
430.439824,-3256.906145,-9326.594869,76.609550
430.440148,-3404.947333,-9770.718434,229.828649
430.440472,-814.226536,-9622.677246,459.657299
430.440796,2590.720797,-9252.574275,766.095498
430.441120,4959.379811,-8734.430116,766.095498
430.441444,5255.462188,-8882.471304,1378.971896
430.441768,3330.926739,-8142.265362,1149.143247
430.442093,296.082377,-9104.533087,459.657299
430.442417,-2738.761985,-9030.512492,153.219100
430.442741,-3997.112087,-9252.574275,306.438199
430.443065,-2442.679609,-9844.739029,1149.143247
430.443389,444.123565,-10066.800811,1608.800546
430.443713,2590.720797,-9696.697840,2068.457845
430.444037,3552.988522,-10066.800811,1762.019645
430.444361,1628.453072,-10436.903782,995.924147
430.444686,-1258.350101,-10584.944971,459.657299
430.445010,-3701.029710,-10288.862594,-229.828649
430.445334,-4441.235652,-10955.047942,-689.485948
430.445658,-1924.535449,-10510.924376,-383.047749
430.445982,1924.535449,-9844.739029,0.000000
430.446306,4959.379811,-9252.574275,0.000000
430.446630,5847.626942,-9030.512492,-383.047749
430.446954,4589.276840,-9326.594869,0.000000
430.447279,1184.329507,-9696.697840,-612.876398
430.447603,-2072.576638,-9770.718434,-383.047749
430.447927,-4515.256246,-9770.718434,0.000000
430.448251,-3997.112087,-10140.821405,0.000000
430.448575,-1184.329507,-9844.739029,229.828649
430.448899,1480.411884,-9400.615463,612.876398
430.449223,2590.720797,-9178.553681,689.485948
430.449547,1924.535449,-10140.821405,459.657299
430.449872,-888.247130,-9474.636058,0.000000
430.450196,-3627.009116,-9326.594869,-459.657299
430.450520,-5329.482782,-8808.450710,-1378.971896
430.450844,-3552.988522,-9178.553681,-1685.410096
430.451168,0.000000,-8734.430116,-1532.190996
430.451492,3182.885551,-8216.285956,-1149.143247
430.451816,5255.462188,-8068.244768,-459.657299
430.452140,4737.318029,-8808.450710,-229.828649
430.452465,2368.659014,-9252.574275,-536.266849
430.452789,-888.247130,-9474.636058,-766.095498
430.453113,-3404.947333,-9844.739029,0.000000
430.453437,-3478.967927,-10436.903782,-919.314598
430.453761,-1998.556043,-10955.047942,-383.047749
430.454085,74.020594,-10732.986159,0.000000
430.454409,1406.391290,-10510.924376,-153.219100
430.454733,814.226536,-10288.862594,-536.266849
430.455057,-2146.597232,-10140.821405,-995.924147
430.455382,-5033.400406,-10140.821405,-1991.848295
430.455706,-5921.647536,-10066.800811,-2451.505594
430.456030,-4515.256246,-9622.677246,-1991.848295
430.456354,-592.164754,-9474.636058,-1762.019645
430.456678,3701.029710,-9252.574275,-1685.410096
430.457002,6365.771101,-8882.471304,-1225.752797
430.457326,6513.812290,-8660.409521,-612.876398
430.457650,3923.091493,-9770.718434,-919.314598
430.457975,148.041188,-10658.965565,-995.924147
430.458299,-3108.864956,-10881.027347,-459.657299
430.458623,-3627.009116,-10732.986159,-689.485948
430.458947,-1776.494261,-11325.150913,-689.485948
430.459271,370.102971,-11029.068536,-306.438199
430.459595,2146.597232,-10584.944971,-153.219100
430.459919,1998.556043,-10288.862594,0.000000
430.460243,-370.102971,-10140.821405,-536.266849
430.460568,-3701.029710,-9696.697840,-1072.533697
430.460892,-5255.462188,-9474.636058,-766.095498
430.461216,-3775.050304,-9770.718434,-1378.971896
430.461540,-74.020594,-10066.800811,-995.924147
430.461864,3775.050304,-9030.512492,-383.047749
430.462188,6291.750507,-8808.450710,229.828649
430.462512,6143.709319,-8734.430116,689.485948
430.462836,3552.988522,-10288.862594,153.219100
430.463161,74.020594,-10066.800811,536.266849
430.463485,-3627.009116,-9770.718434,229.828649
430.463809,-4293.194464,-10584.944971,459.657299
430.464133,-1776.494261,-10436.903782,919.314598
430.464457,1258.350101,-9918.759623,1838.629195
430.464781,3108.864956,-9548.656652,2221.676944
430.465105,2812.782580,-9474.636058,2451.505594
430.465429,296.082377,-9030.512492,1915.238745
430.465754,-3330.926739,-8882.471304,919.314598
430.466078,-4737.318029,-8808.450710,153.219100
430.466402,-3997.112087,-8956.491898,229.828649
430.466726,-740.205942,-8660.409521,612.876398
430.467050,2590.720797,-8142.265362,995.924147
430.467374,4959.379811,-7994.224174,1378.971896
430.467698,5921.647536,-8216.285956,1225.752797
430.468022,3330.926739,-8660.409521,919.314598
430.468347,444.123565,-9030.512492,1455.581446
430.468671,-3108.864956,-9252.574275,1072.533697
430.468995,-3997.112087,-9992.780217,1149.143247
430.469319,-2590.720797,-9918.759623,1532.190996
430.469643,0.000000,-9696.697840,2068.457845
430.469967,2294.638420,-9548.656652,2374.896044
430.470291,2368.659014,-9992.780217,2374.896044
430.470615,888.247130,-9992.780217,1991.848295
430.470940,-1998.556043,-9770.718434,766.095498
430.471264,-4293.194464,-9548.656652,153.219100
430.471588,-4293.194464,-9696.697840,-306.438199
430.471912,-2146.597232,-9548.656652,-383.047749
430.472236,1480.411884,-9030.512492,229.828649
430.472560,4219.173869,-8734.430116,0.000000
430.472884,5181.441594,-9178.553681,76.609550
430.473208,3330.926739,-9252.574275,-306.438199
430.473533,222.061783,-9622.677246,-612.876398
430.473857,-2812.782580,-9696.697840,-842.705048
430.474181,-3775.050304,-10214.842000,-459.657299
430.474505,-2294.638420,-10807.006753,0.000000
430.474829,666.185348,-10140.821405,153.219100
430.475153,3256.906145,-9992.780217,842.705048
430.475477,4071.132681,-10658.965565,919.314598
430.475802,2368.659014,-11103.089130,0.000000
430.476126,-1628.453072,-10881.027347,-842.705048
430.476450,-4885.359217,-10214.842000,-1685.410096
430.476774,-5255.462188,-10140.821405,-2068.457845
430.477098,-3182.885551,-9918.759623,-2221.676944
430.477423,814.226536,-9326.594869,-2221.676944
430.477747,3478.967927,-8660.409521,-1378.971896
430.478071,4737.318029,-8512.368333,-1149.143247
430.478395,3330.926739,-9252.574275,-1302.362347
430.478719,74.020594,-9474.636058,-1532.190996
430.479043,-3034.844362,-9474.636058,-1838.629195
430.479368,-4663.297435,-9992.780217,-1378.971896
430.479692,-3701.029710,-10140.821405,-842.705048
430.480016,-1332.370696,-9474.636058,-536.266849
430.480340,1554.432478,-9622.677246,76.609550
430.480664,2442.679609,-9548.656652,153.219100
430.480989,1628.453072,-10362.883188,0.000000
430.481313,-1036.288319,-10066.800811,-612.876398
430.481637,-4145.153275,-9474.636058,-1378.971896
430.481961,-5181.441594,-9252.574275,-1762.019645
430.482285,-2960.823768,-9326.594869,-2145.067394
430.482610,518.144159,-9030.512492,-1915.238745
430.482934,3552.988522,-8808.450710,-995.924147
430.483258,5181.441594,-8586.388927,-383.047749
430.483582,4589.276840,-8734.430116,-306.438199
430.483906,1406.391290,-8956.491898,-766.095498
430.484230,-2072.576638,-9252.574275,-766.095498
430.484555,-3923.091493,-9474.636058,-766.095498
430.484879,-3478.967927,-9844.739029,0.000000
430.485203,370.102971,-10362.883188,842.705048
430.485527,2516.700203,-10214.842000,1378.971896
430.485851,3701.029710,-10436.903782,1225.752797
430.486176,1998.556043,-10881.027347,919.314598
430.486500,-1258.350101,-10732.986159,0.000000
430.486824,-4071.132681,-10658.965565,-919.314598
430.487148,-5625.565159,-9918.759623,-995.924147
430.487472,-3775.050304,-9474.636058,-919.314598
430.487797,222.061783,-9548.656652,-153.219100
430.488121,3997.112087,-9474.636058,76.609550
430.488445,5625.565159,-9030.512492,842.705048
430.488769,5107.421000,-9326.594869,459.657299
430.489093,1850.514855,-9474.636058,76.609550
430.489417,-2072.576638,-9474.636058,229.828649
430.489742,-4219.173869,-9474.636058,0.000000
430.490066,-3627.009116,-10510.924376,995.924147
430.490390,-1110.308913,-10288.862594,1225.752797
430.490714,1850.514855,-10214.842000,1608.800546
430.491038,3034.844362,-10214.842000,1991.848295
430.491363,2368.659014,-10288.862594,1608.800546
430.491687,-444.123565,-10066.800811,612.876398
430.492011,-3627.009116,-9400.615463,76.609550
430.492335,-4959.379811,-9252.574275,0.000000
430.492659,-3256.906145,-9770.718434,0.000000
430.492984,148.041188,-9252.574275,306.438199
430.493308,3034.844362,-8586.388927,689.485948
430.493632,4959.379811,-8660.409521,766.095498
430.493956,4589.276840,-8808.450710,612.876398
430.494280,1998.556043,-9104.533087,229.828649
430.494604,-1406.391290,-9030.512492,0.000000
430.494929,-3627.009116,-9474.636058,-229.828649
430.495253,-3256.906145,-9918.759623,383.047749
430.495577,-814.226536,-10362.883188,1149.143247
430.495901,2368.659014,-9992.780217,1608.800546
430.496225,3849.070898,-9992.780217,1838.629195
430.496550,3256.906145,-10288.862594,1838.629195
430.496874,666.185348,-10288.862594,1149.143247
430.497198,-2664.741391,-9474.636058,536.266849
430.497522,-5033.400406,-9474.636058,0.000000
430.497846,-3627.009116,-9696.697840,-459.657299
430.498171,-888.247130,-9030.512492,-459.657299
430.498495,2590.720797,-8216.285956,-153.219100
430.498819,4811.338623,-7772.162391,-229.828649
430.499143,4959.379811,-8290.306550,0.000000
430.499467,2664.741391,-9030.512492,229.828649
430.499791,-444.123565,-8660.409521,-306.438199
430.500116,-3552.988522,-9400.615463,-306.438199
430.500440,-3997.112087,-9992.780217,0.000000
430.500764,-1998.556043,-10955.047942,1072.533697
430.501088,740.205942,-9770.718434,995.924147
430.501412,2738.761985,-9474.636058,1072.533697
430.501737,2664.741391,-9548.656652,1072.533697
430.502061,814.226536,-9992.780217,306.438199
430.502385,-2220.617826,-9918.759623,-536.266849
430.502709,-4737.318029,-9178.553681,-1225.752797
430.503033,-4737.318029,-9030.512492,-1532.190996
430.503358,-2886.803174,-9104.533087,-1225.752797
430.503682,1110.308913,-8808.450710,-1225.752797
430.504006,3404.947333,-8512.368333,-689.485948
430.504330,4145.153275,-8660.409521,-689.485948
430.504654,2442.679609,-9400.615463,-689.485948
430.504978,-518.144159,-9696.697840,-689.485948
430.505303,-3552.988522,-9622.677246,-919.314598
430.505627,-4145.153275,-10362.883188,-766.095498
430.505951,-2072.576638,-10807.006753,153.219100
430.506275,814.226536,-11029.068536,153.219100
430.506599,2442.679609,-10584.944971,0.000000
430.506924,2516.700203,-10658.965565,0.000000
430.507248,592.164754,-11177.109724,-689.485948
430.507572,-2812.782580,-11103.089130,-1608.800546
430.507896,-4811.338623,-10955.047942,-2374.896044
430.508220,-4441.235652,-10436.903782,-2298.286494
430.508545,-1998.556043,-10140.821405,-1685.410096
430.508869,2220.617826,-9474.636058,-1378.971896
430.509193,4959.379811,-8882.471304,-1072.533697
430.509517,6069.688724,-9030.512492,-995.924147
430.509841,3997.112087,-9400.615463,-995.924147
430.510165,518.144159,-9918.759623,-612.876398
430.510490,-2442.679609,-9696.697840,-612.876398
430.510814,-3404.947333,-10436.903782,-842.705048
430.511138,-2368.659014,-10881.027347,-459.657299
430.511462,370.102971,-10881.027347,0.000000
430.511786,2590.720797,-10362.883188,536.266849
430.512111,3182.885551,-10066.800811,536.266849
430.512435,1702.473667,-10214.842000,536.266849
430.512759,-1776.494261,-10066.800811,0.000000
430.513083,-4293.194464,-9770.718434,-919.314598
430.513407,-4885.359217,-9474.636058,-1378.971896
430.513732,-2960.823768,-9252.574275,-1378.971896
430.514056,740.205942,-8660.409521,-842.705048
430.514380,3849.070898,-8142.265362,-229.828649
430.514704,5181.441594,-8216.285956,306.438199
430.515028,3775.050304,-8512.368333,689.485948
430.515352,1332.370696,-8660.409521,459.657299
430.515677,-2294.638420,-8956.491898,0.000000
430.516001,-3923.091493,-9770.718434,76.609550
430.516325,-3108.864956,-9770.718434,76.609550
430.516649,-444.123565,-9770.718434,766.095498
430.516973,2220.617826,-9622.677246,1225.752797
430.517298,3256.906145,-9622.677246,1302.362347
430.517622,2072.576638,-10362.883188,1225.752797
430.517946,-1258.350101,-10288.862594,612.876398
430.518270,-4293.194464,-9770.718434,-306.438199
430.518594,-5181.441594,-10066.800811,-383.047749
430.518919,-3256.906145,-10066.800811,-229.828649
430.519243,666.185348,-9474.636058,306.438199
430.519567,4293.194464,-8808.450710,689.485948
430.519891,6439.791695,-8808.450710,1532.190996
430.520215,5181.441594,-9030.512492,1149.143247
430.520539,1998.556043,-9548.656652,1455.581446
430.520864,-1554.432478,-9696.697840,689.485948
430.521188,-3997.112087,-10214.842000,306.438199
430.521512,-3701.029710,-10584.944971,536.266849
430.521836,-1110.308913,-10807.006753,1149.143247
430.522160,1776.494261,-9992.780217,1991.848295
430.522485,3404.947333,-9918.759623,2068.457845
430.522809,2516.700203,-10288.862594,2451.505594
430.523133,-370.102971,-10214.842000,1455.581446
430.523457,-3478.967927,-9844.739029,306.438199
430.523781,-5181.441594,-9474.636058,0.000000
430.524106,-4071.132681,-9474.636058,0.000000
430.524430,-814.226536,-8882.471304,383.047749
430.524754,2960.823768,-7920.203579,0.000000
430.525078,5255.462188,-7476.080014,689.485948
430.525402,5033.400406,-7772.162391,1302.362347
430.525726,2516.700203,-8660.409521,842.705048
430.526051,-1184.329507,-9178.553681,76.609550
430.526375,-3627.009116,-9104.533087,-383.047749
430.526699,-3849.070898,-9622.677246,306.438199
430.527023,-1998.556043,-10140.821405,383.047749
430.527347,962.267725,-10140.821405,459.657299
430.527672,2812.782580,-10140.821405,995.924147
430.527996,1924.535449,-10214.842000,1378.971896
430.528320,-592.164754,-10658.965565,229.828649
430.528644,-3627.009116,-9844.739029,-612.876398
430.528968,-5329.482782,-9474.636058,-1225.752797
430.529293,-4367.215058,-9622.677246,-1378.971896
430.529617,-592.164754,-9474.636058,-1915.238745
430.529941,3849.070898,-9178.553681,-995.924147
430.530265,6883.915261,-8438.347739,-153.219100
430.530589,6883.915261,-9104.533087,-383.047749
430.530913,4663.297435,-9400.615463,-842.705048
430.531238,444.123565,-9844.739029,-919.314598
430.531562,-2960.823768,-10510.924376,-1378.971896
430.531886,-4071.132681,-11473.192101,-1608.800546
430.532210,-2812.782580,-11103.089130,-1149.143247
430.532534,0.000000,-10881.027347,0.000000
430.532859,1924.535449,-10214.842000,-306.438199
430.533183,1998.556043,-10288.862594,0.000000
430.533507,-222.061783,-10288.862594,-459.657299
430.533831,-3552.988522,-10288.862594,-1302.362347
430.534155,-5847.626942,-10510.924376,-2145.067394
430.534480,-5995.668130,-9918.759623,-1915.238745
430.534804,-2960.823768,-9622.677246,-1685.410096
430.535128,1258.350101,-9400.615463,-1225.752797
430.535452,4663.297435,-9030.512492,-842.705048
430.535776,5625.565159,-9252.574275,-612.876398
430.536100,3849.070898,-9622.677246,-306.438199
430.536425,444.123565,-9992.780217,-536.266849
430.536749,-2960.823768,-9770.718434,-612.876398
430.537073,-3923.091493,-9548.656652,-536.266849
430.537397,-2368.659014,-10214.842000,76.609550
430.537721,-296.082377,-9918.759623,383.047749
430.538046,1998.556043,-9474.636058,1149.143247
430.538370,1850.514855,-9622.677246,995.924147
430.538694,148.041188,-9696.697840,76.609550
430.539018,-3478.967927,-9326.594869,-689.485948
430.539342,-6143.709319,-8882.471304,-1072.533697
430.539667,-5477.523971,-8290.306550,-995.924147
430.539991,-2368.659014,-8660.409521,-1302.362347
430.540315,1924.535449,-8364.327145,-612.876398
430.540639,5551.544565,-8068.244768,-383.047749
430.540963,7105.977043,-8290.306550,229.828649
430.541287,5699.585753,-9252.574275,383.047749
430.541612,2294.638420,-9696.697840,0.000000
430.541936,-1628.453072,-9918.759623,306.438199
430.542260,-3849.070898,-10658.965565,153.219100
430.542584,-2812.782580,-11251.130318,-153.219100
430.542908,-888.247130,-11177.109724,766.095498
430.543233,1628.453072,-10881.027347,1302.362347
430.543557,2664.741391,-10584.944971,1378.971896
430.543881,1776.494261,-10584.944971,1225.752797
430.544205,-962.267725,-9992.780217,306.438199
430.544529,-3552.988522,-10214.842000,-919.314598
430.544854,-4811.338623,-9178.553681,-612.876398
430.545178,-2368.659014,-9548.656652,-1149.143247
430.545502,962.267725,-9252.574275,-766.095498
430.545826,4441.235652,-8956.491898,-306.438199
430.546150,6143.709319,-9030.512492,153.219100
430.546474,5477.523971,-9696.697840,383.047749
430.546799,2664.741391,-9770.718434,306.438199
430.547123,-888.247130,-9474.636058,383.047749
430.547447,-3182.885551,-10214.842000,995.924147
430.547771,-3034.844362,-10658.965565,766.095498
430.548095,-1184.329507,-10584.944971,1149.143247
430.548420,1110.308913,-9992.780217,1838.629195
430.548744,1924.535449,-9548.656652,2221.676944
430.549068,1036.288319,-10214.842000,1532.190996
430.549392,-1850.514855,-9474.636058,1072.533697
430.549716,-4737.318029,-9104.533087,76.609550
430.550041,-6143.709319,-8734.430116,-919.314598
430.550365,-3775.050304,-9030.512492,-689.485948
430.550689,222.061783,-8808.450710,0.000000
430.551013,4219.173869,-8364.327145,306.438199
430.551337,6587.832884,-7920.203579,1149.143247
430.551661,6143.709319,-8142.265362,1378.971896
430.551986,2960.823768,-9030.512492,1072.533697
430.552310,-740.205942,-9104.533087,766.095498
430.552634,-4145.153275,-9548.656652,766.095498
430.552958,-4367.215058,-9918.759623,766.095498
430.553282,-2368.659014,-10362.883188,1378.971896
430.553607,296.082377,-10140.821405,1225.752797
430.553931,2294.638420,-9030.512492,1225.752797
430.554255,1332.370696,-9104.533087,766.095498
430.554579,-962.267725,-9326.594869,229.828649
430.554903,-3849.070898,-9400.615463,-383.047749
430.555228,-5551.544565,-9400.615463,-1149.143247
430.555552,-4737.318029,-9474.636058,-1225.752797
430.555876,-1480.411884,-9400.615463,-1149.143247
430.556200,2812.782580,-8882.471304,-689.485948
430.556524,5477.523971,-8512.368333,306.438199
430.556848,5477.523971,-9030.512492,306.438199
430.557173,3034.844362,-8956.491898,-229.828649
430.557497,0.000000,-9548.656652,-612.876398
430.557821,-2738.761985,-9992.780217,-306.438199
430.558145,-3404.947333,-10584.944971,-383.047749
430.558469,-1702.473667,-11103.089130,-919.314598
430.558794,888.247130,-10436.903782,76.609550
430.559118,2516.700203,-9696.697840,153.219100
430.559442,1850.514855,-10362.883188,-766.095498
430.559766,-814.226536,-10362.883188,-842.705048
430.560090,-4293.194464,-10288.862594,-1838.629195
430.560415,-5699.585753,-10066.800811,-2528.115143
430.560739,-4663.297435,-10066.800811,-2911.162892
430.561063,-592.164754,-10436.903782,-2451.505594
430.561387,3034.844362,-9474.636058,-1685.410096
430.561711,5921.647536,-8734.430116,-842.705048
430.562035,6439.791695,-9326.594869,-1378.971896
430.562360,4293.194464,-10140.821405,-995.924147
430.562684,370.102971,-10881.027347,-842.705048
430.563008,-2886.803174,-11177.109724,-1378.971896
430.563332,-4071.132681,-10955.047942,-1149.143247
430.563656,-2368.659014,-11547.212695,-306.438199
430.563981,-296.082377,-11399.171507,-76.609550
430.564305,2072.576638,-10732.986159,766.095498
430.564629,2146.597232,-10510.924376,0.000000
430.564953,74.020594,-9992.780217,-919.314598
430.565277,-3108.864956,-9844.739029,-1532.190996
430.565602,-5403.503377,-9622.677246,-1838.629195
430.565926,-5033.400406,-9474.636058,-2221.676944
430.566250,-1998.556043,-9252.574275,-1915.238745
430.566574,1554.432478,-8586.388927,-1762.019645
430.566898,4737.318029,-7624.121203,-229.828649
430.567222,5773.606348,-8290.306550,0.000000
430.567547,4367.215058,-8882.471304,306.438199
430.567871,1258.350101,-8882.471304,383.047749
430.568195,-2294.638420,-9104.533087,-306.438199
430.568519,-3997.112087,-9622.677246,383.047749
430.568843,-2738.761985,-9622.677246,766.095498
430.569168,-518.144159,-9326.594869,1378.971896
430.569492,1110.308913,-9474.636058,1378.971896
430.569816,1480.411884,-9548.656652,1302.362347
430.570140,0.000000,-9622.677246,1072.533697
430.570464,-2738.761985,-9696.697840,536.266849
430.570789,-4515.256246,-9548.656652,0.000000
430.571113,-4959.379811,-9474.636058,-153.219100
430.571437,-1850.514855,-9622.677246,153.219100
430.571761,2294.638420,-9030.512492,0.000000
430.572085,5477.523971,-8438.347739,612.876398
430.572409,7105.977043,-8808.450710,1149.143247
430.572734,5847.626942,-9326.594869,1378.971896
430.573058,2220.617826,-9844.739029,766.095498
430.573382,-1406.391290,-9844.739029,766.095498
430.573706,-3552.988522,-10288.862594,612.876398
430.574030,-2960.823768,-10658.965565,919.314598
430.574355,-740.205942,-10214.842000,1608.800546
430.574679,1628.453072,-9770.718434,1838.629195
430.575003,2960.823768,-9844.739029,1838.629195
430.575327,1850.514855,-10214.842000,1532.190996
430.575652,-962.267725,-10288.862594,842.705048
430.575976,-3997.112087,-9918.759623,-229.828649
430.576300,-5181.441594,-10140.821405,-536.266849
430.576625,-3182.885551,-9992.780217,-536.266849
430.576949,518.144159,-9474.636058,-153.219100
430.577273,4515.256246,-9474.636058,766.095498
430.577598,6143.709319,-9474.636058,919.314598
430.577922,5551.544565,-9696.697840,1072.533697
430.578246,2442.679609,-9992.780217,1072.533697
430.578571,-1554.432478,-9622.677246,766.095498
430.578895,-3849.070898,-9992.780217,919.314598
430.579219,-3923.091493,-9918.759623,612.876398
430.579544,-1702.473667,-9918.759623,1072.533697
430.579868,814.226536,-9474.636058,1225.752797
430.580192,2146.597232,-9326.594869,1302.362347
430.580517,1110.308913,-9622.677246,766.095498
430.580841,-1850.514855,-9474.636058,0.000000
430.581165,-4885.359217,-8734.430116,-1378.971896
430.581490,-5625.565159,-8438.347739,-1455.581446
430.581814,-3849.070898,-8364.327145,-1225.752797
430.582138,148.041188,-8364.327145,-995.924147
430.582463,4293.194464,-7994.224174,-306.438199
430.582787,6439.791695,-7994.224174,0.000000
430.583111,5625.565159,-8438.347739,0.000000
430.583436,2664.741391,-8586.388927,-689.485948
430.583760,-962.267725,-9400.615463,-995.924147
430.584084,-3701.029710,-9622.677246,-995.924147
430.584409,-4145.153275,-10140.821405,-766.095498
430.584733,-1776.494261,-10658.965565,-766.095498
430.585058,1036.288319,-10658.965565,0.000000
430.585382,2442.679609,-10658.965565,0.000000
430.585706,1776.494261,-10362.883188,-229.828649
430.586031,-1184.329507,-10362.883188,-1149.143247
430.586355,-4219.173869,-10362.883188,-2145.067394
430.586679,-5551.544565,-9992.780217,-2681.334243
430.587004,-3775.050304,-9622.677246,-2221.676944
430.587328,0.000000,-10140.821405,-2374.896044
430.587652,3478.967927,-9770.718434,-1838.629195
430.587977,5921.647536,-9474.636058,-1302.362347
430.588301,5699.585753,-9696.697840,-1072.533697
430.588625,3256.906145,-9770.718434,-842.705048
430.588950,-148.041188,-10362.883188,-1532.190996
430.589274,-2812.782580,-10436.903782,-306.438199
430.589598,-3256.906145,-11103.089130,-153.219100
430.589923,-1776.494261,-11103.089130,-306.438199
430.590247,888.247130,-10807.006753,0.000000
430.590571,2220.617826,-10584.944971,536.266849
430.590896,1258.350101,-10658.965565,153.219100
430.591220,-740.205942,-10436.903782,0.000000
430.591544,-4663.297435,-9992.780217,-919.314598
430.591869,-5773.606348,-9844.739029,-1149.143247
430.592193,-3997.112087,-10066.800811,-1378.971896
430.592517,-592.164754,-10140.821405,-1072.533697
430.592842,3404.947333,-8956.491898,-459.657299
430.593166,5699.585753,-8734.430116,0.000000
430.593490,5847.626942,-9178.553681,0.000000
430.593815,3108.864956,-9178.553681,459.657299
430.594139,-296.082377,-9548.656652,766.095498
430.594463,-3627.009116,-9178.553681,0.000000
430.594788,-4737.318029,-9696.697840,153.219100
430.595112,-2886.803174,-10066.800811,842.705048
430.595437,0.000000,-9474.636058,1149.143247
430.595761,2072.576638,-9178.553681,1838.629195
430.596085,2220.617826,-9030.512492,1991.848295
430.596410,296.082377,-9178.553681,1455.581446
430.596734,-2516.700203,-8882.471304,229.828649
430.597058,-4737.318029,-9252.574275,0.000000
430.597383,-4145.153275,-9252.574275,-383.047749
430.597707,-518.144159,-9030.512492,0.000000
430.598031,3552.988522,-8586.388927,229.828649
430.598356,6291.750507,-8068.244768,842.705048
430.598680,6809.894666,-8142.265362,1072.533697
430.599004,4737.318029,-9104.533087,1225.752797
430.599329,814.226536,-9474.636058,229.828649
430.599653,-2368.659014,-9770.718434,459.657299
430.599977,-3404.947333,-10140.821405,919.314598
430.600302,-2368.659014,-10362.883188,1608.800546
430.600626,0.000000,-9992.780217,1532.190996
430.600950,1702.473667,-9104.533087,1915.238745
430.601275,2146.597232,-9252.574275,2145.067394
430.601599,148.041188,-9992.780217,1302.362347
430.601923,-2516.700203,-10214.842000,383.047749
430.602248,-4441.235652,-9918.759623,0.000000
430.602572,-4071.132681,-9696.697840,-459.657299
430.602896,-1332.370696,-9548.656652,-459.657299
430.603221,2442.679609,-9252.574275,-383.047749
430.603545,4959.379811,-8882.471304,-153.219100
430.603869,5773.606348,-8808.450710,459.657299
430.604194,3997.112087,-9548.656652,306.438199
430.604518,444.123565,-10362.883188,-153.219100
430.604843,-3256.906145,-10214.842000,-612.876398
430.605167,-4737.318029,-10436.903782,-459.657299
430.605491,-3701.029710,-10584.944971,-229.828649
430.605816,-1110.308913,-10214.842000,-153.219100
430.606140,1406.391290,-10362.883188,689.485948
430.606464,2664.741391,-9548.656652,1225.752797
430.606789,1184.329507,-9770.718434,1072.533697
430.607113,-1776.494261,-10288.862594,0.000000
430.607437,-4737.318029,-10066.800811,-1072.533697
430.607762,-5255.462188,-10140.821405,-1991.848295
430.608086,-2812.782580,-9770.718434,-1838.629195
430.608410,1480.411884,-9178.553681,-1455.581446
430.608735,4663.297435,-8882.471304,-842.705048
430.609059,5921.647536,-8956.491898,-766.095498
430.609383,4737.318029,-9548.656652,-383.047749
430.609708,1110.308913,-9474.636058,-1302.362347
430.610032,-2590.720797,-9474.636058,-1378.971896
430.610356,-4145.153275,-9474.636058,-842.705048
430.610681,-3256.906145,-9622.677246,459.657299
430.611005,-740.205942,-9918.759623,153.219100
430.611329,1776.494261,-9474.636058,1532.190996
430.611654,2516.700203,-9622.677246,766.095498
430.611978,814.226536,-9622.677246,229.828649
430.612302,-2442.679609,-9696.697840,-612.876398
430.612627,-5181.441594,-9474.636058,-1685.410096
430.612951,-5403.503377,-9696.697840,-1455.581446
430.613275,-2368.659014,-9844.739029,-1455.581446
430.613600,1998.556043,-9400.615463,-1302.362347
430.613924,5255.462188,-8882.471304,-1149.143247
430.614249,6661.853478,-8438.347739,-536.266849
430.614573,4885.359217,-9178.553681,-153.219100
430.614897,1332.370696,-9400.615463,-766.095498
430.615222,-2590.720797,-9918.759623,-1072.533697
430.615546,-4885.359217,-10066.800811,-1149.143247
430.615870,-4219.173869,-10510.924376,-995.924147
430.616195,-1554.432478,-10510.924376,-306.438199
430.616519,1776.494261,-10288.862594,229.828649
430.616843,3108.864956,-10807.006753,536.266849
430.617168,1702.473667,-10510.924376,766.095498
430.617492,-1628.453072,-10732.986159,-383.047749
430.617816,-4219.173869,-10288.862594,-1225.752797
430.618141,-4811.338623,-10140.821405,-1455.581446
430.618465,-2516.700203,-10066.800811,-1302.362347
430.618789,1332.370696,-9992.780217,-766.095498
430.619114,5477.523971,-10066.800811,-536.266849
430.619438,6587.832884,-9326.594869,306.438199
430.619762,5773.606348,-9400.615463,383.047749
430.620087,2294.638420,-9622.677246,0.000000
430.620411,-1628.453072,-9696.697840,-536.266849
430.620735,-4441.235652,-9696.697840,-689.485948
430.621060,-3923.091493,-9918.759623,0.000000
430.621384,-1258.350101,-10436.903782,1149.143247
430.621708,1406.391290,-9992.780217,2145.067394
430.622033,2146.597232,-9696.697840,1838.629195
430.622357,1406.391290,-9548.656652,2145.067394
430.622681,-1258.350101,-9844.739029,1072.533697
430.623006,-4293.194464,-9400.615463,229.828649
430.623330,-5255.462188,-9252.574275,-306.438199
430.623654,-3849.070898,-9178.553681,-459.657299
430.623979,0.000000,-8364.327145,0.000000
430.624303,3627.009116,-7920.203579,536.266849
430.624628,5847.626942,-8068.244768,766.095498
430.624952,5033.400406,-8290.306550,766.095498
430.625276,2442.679609,-9030.512492,612.876398
430.625601,-1184.329507,-9622.677246,689.485948
430.625925,-3701.029710,-9622.677246,842.705048
430.626249,-4219.173869,-9548.656652,536.266849
430.626574,-1924.535449,-9474.636058,1225.752797
430.626898,1184.329507,-9622.677246,1149.143247
430.627222,3108.864956,-9548.656652,1762.019645
430.627547,3034.844362,-9770.718434,2145.067394
430.627871,962.267725,-10362.883188,1302.362347
430.628195,-2146.597232,-10288.862594,306.438199
430.628520,-4663.297435,-9696.697840,-612.876398
430.628844,-4071.132681,-9918.759623,-995.924147
430.629168,-814.226536,-9992.780217,-689.485948
430.629493,2886.803174,-9030.512492,-306.438199
430.629817,5181.441594,-9030.512492,306.438199
430.630141,5625.565159,-9178.553681,306.438199
430.630466,3182.885551,-9770.718434,0.000000
430.630790,-740.205942,-9696.697840,-536.266849
430.631114,-3923.091493,-9696.697840,-995.924147
430.631439,-4811.338623,-9992.780217,-612.876398
430.631763,-2442.679609,-10510.924376,76.609550
430.632087,814.226536,-11103.089130,1225.752797
430.632412,2886.803174,-10140.821405,1685.410096
430.632736,2960.823768,-10362.883188,1685.410096
430.633060,518.144159,-10732.986159,459.657299
430.633385,-3108.864956,-9992.780217,0.000000
430.633709,-5403.503377,-9770.718434,-995.924147
430.634034,-4737.318029,-9844.739029,-1762.019645
430.634358,-1554.432478,-9548.656652,-1149.143247
430.634682,2146.597232,-8882.471304,-766.095498
430.635007,4885.359217,-7994.224174,-306.438199
430.635331,5329.482782,-8216.285956,-153.219100
430.635655,3034.844362,-8734.430116,-229.828649
430.635980,-518.144159,-9178.553681,-383.047749
430.636304,-3552.988522,-9474.636058,-689.485948
430.636628,-4515.256246,-9474.636058,0.000000
430.636953,-3404.947333,-9548.656652,-153.219100
430.637277,-444.123565,-10288.862594,459.657299
430.637601,1776.494261,-10362.883188,536.266849
430.637926,2664.741391,-10214.842000,766.095498
430.638250,888.247130,-9992.780217,766.095498
430.638574,-1850.514855,-9992.780217,-842.705048
430.638899,-4589.276840,-9992.780217,-2221.676944
430.639223,-4441.235652,-9844.739029,-1838.629195
430.639547,-1480.411884,-9844.739029,-1455.581446
430.639872,2664.741391,-9252.574275,-1532.190996
430.640196,5995.668130,-8882.471304,-612.876398
430.640520,7105.977043,-8882.471304,-383.047749
430.640845,5329.482782,-9252.574275,-306.438199
430.641169,1258.350101,-9696.697840,-995.924147
430.641493,-2368.659014,-9622.677246,-842.705048
430.641818,-4663.297435,-9696.697840,-689.485948
430.642142,-3849.070898,-10140.821405,-306.438199
430.642466,-1110.308913,-10066.800811,0.000000
430.642791,1480.411884,-9918.759623,459.657299
430.643115,1998.556043,-10140.821405,383.047749
430.643440,740.205942,-10807.006753,0.000000
430.643764,-2812.782580,-10881.027347,-1149.143247
430.644088,-5551.544565,-9844.739029,-1532.190996
430.644413,-5995.668130,-9474.636058,-1685.410096
430.644737,-2812.782580,-9918.759623,-1608.800546
430.645061,1480.411884,-9992.780217,-1225.752797
430.645386,4811.338623,-9474.636058,-306.438199
430.645710,6735.874072,-9548.656652,-153.219100
430.646034,5625.565159,-9992.780217,536.266849
430.646359,2220.617826,-10362.883188,229.828649
430.646683,-1998.556043,-10658.965565,-306.438199
430.647007,-4441.235652,-10881.027347,-229.828649
430.647332,-4145.153275,-10881.027347,0.000000
430.647656,-1554.432478,-10732.986159,459.657299
430.647980,1480.411884,-9992.780217,1455.581446
430.648305,3478.967927,-9696.697840,1455.581446
430.648629,2590.720797,-9992.780217,1455.581446
430.648953,-518.144159,-9622.677246,536.266849
430.649278,-3404.947333,-9474.636058,-536.266849
430.649602,-4811.338623,-9474.636058,-1072.533697
430.649926,-2442.679609,-9474.636058,-995.924147
430.650251,1258.350101,-9030.512492,-383.047749
430.650575,4959.379811,-8142.265362,76.609550
430.650899,6883.915261,-8512.368333,1762.019645
430.651224,6069.688724,-9252.574275,612.876398
430.651548,2738.761985,-9178.553681,1072.533697
430.651872,-1628.453072,-9252.574275,842.705048
430.652197,-4293.194464,-9548.656652,536.266849
430.652521,-4219.173869,-10066.800811,1302.362347
430.652846,-1924.535449,-10066.800811,1225.752797
430.653170,370.102971,-9474.636058,2068.457845
430.653494,2442.679609,-8660.409521,2221.676944
430.653819,1554.432478,-9178.553681,1762.019645
430.654143,-1184.329507,-9548.656652,1072.533697
430.654467,-3775.050304,-9548.656652,-76.609550
430.654792,-5181.441594,-9030.512492,-383.047749
430.655116,-3701.029710,-8956.491898,-766.095498
430.655440,0.000000,-8660.409521,0.000000
430.655765,3627.009116,-7476.080014,459.657299
430.656089,5329.482782,-7179.997637,919.314598
430.656413,4885.359217,-8290.306550,229.828649
430.656738,2442.679609,-9030.512492,612.876398
430.657062,-1332.370696,-9400.615463,153.219100
430.657386,-4293.194464,-9622.677246,0.000000
430.657711,-4663.297435,-9992.780217,766.095498
430.658035,-2738.761985,-10066.800811,229.828649
430.658359,592.164754,-10955.047942,766.095498
430.658684,2368.659014,-10658.965565,995.924147
430.659008,2664.741391,-10362.883188,612.876398
430.659332,814.226536,-10510.924376,0.000000
430.659657,-2590.720797,-10510.924376,-842.705048
430.659981,-4293.194464,-10288.862594,-1378.971896
430.660305,-3330.926739,-10584.944971,-1685.410096
430.660630,-148.041188,-10510.924376,-1225.752797
430.660954,3478.967927,-9770.718434,-995.924147
430.661278,5847.626942,-9178.553681,-689.485948
430.661603,6513.812290,-9326.594869,-383.047749
430.661927,4293.194464,-10288.862594,-383.047749
430.662251,0.000000,-10362.883188,-995.924147
430.662576,-3552.988522,-10362.883188,-995.924147
430.662900,-4737.318029,-10436.903782,-842.705048
430.663225,-2886.803174,-10584.944971,-842.705048
430.663549,-370.102971,-10510.924376,-153.219100
430.663873,2294.638420,-10066.800811,76.609550
430.664198,2368.659014,-10362.883188,0.000000
430.664522,370.102971,-10140.821405,153.219100
430.664846,-3108.864956,-9696.697840,-842.705048
430.665171,-5255.462188,-9326.594869,-1838.629195
430.665495,-4515.256246,-9474.636058,-2374.896044
430.665819,-1258.350101,-9548.656652,-1838.629195
430.666144,2590.720797,-8734.430116,-1225.752797
430.666468,5181.441594,-7994.224174,-919.314598
430.666792,5699.585753,-8512.368333,-766.095498
430.667117,3182.885551,-8956.491898,-612.876398
430.667441,-370.102971,-9474.636058,-383.047749
430.667765,-4293.194464,-9622.677246,-995.924147
430.668090,-5329.482782,-9770.718434,-1072.533697
430.668414,-4145.153275,-9696.697840,-842.705048
430.668738,-1332.370696,-9918.759623,-306.438199
430.669063,1406.391290,-9326.594869,229.828649
430.669387,1554.432478,-9400.615463,-153.219100
430.669711,0.000000,-9474.636058,-383.047749
430.670036,-2960.823768,-9696.697840,-919.314598
430.670360,-5107.421000,-9400.615463,-1225.752797
430.670684,-4589.276840,-9474.636058,-1762.019645
430.671009,-1480.411884,-9474.636058,-1532.190996
430.671333,2442.679609,-9474.636058,-842.705048
430.671657,5773.606348,-8734.430116,-229.828649
430.671982,7179.997637,-9474.636058,459.657299
430.672306,5477.523971,-10288.862594,306.438199
430.672631,1776.494261,-10288.862594,0.000000
430.672955,-2220.617826,-10288.862594,0.000000
430.673279,-3849.070898,-10955.047942,-153.219100
430.673604,-2886.803174,-11547.212695,0.000000
430.673928,-222.061783,-10955.047942,612.876398
430.674252,2516.700203,-10436.903782,1838.629195
430.674577,3478.967927,-10140.821405,1532.190996
430.674901,1850.514855,-10362.883188,1302.362347
430.675225,-1406.391290,-10066.800811,459.657299
430.675550,-4219.173869,-10584.944971,-229.828649
430.675874,-4737.318029,-10436.903782,-306.438199
430.676198,-2072.576638,-9844.739029,-153.219100
430.676523,1332.370696,-9104.533087,766.095498
430.676847,4663.297435,-8586.388927,383.047749
430.677171,5773.606348,-8216.285956,1455.581446
430.677495,4293.194464,-9178.553681,1225.752797
430.677820,518.144159,-9400.615463,766.095498
430.678144,-3404.947333,-9326.594869,612.876398
430.678468,-5255.462188,-9548.656652,995.924147
430.678793,-4293.194464,-9844.739029,919.314598
430.679117,-1406.391290,-9770.718434,1685.410096
430.679441,1184.329507,-9326.594869,2987.772442
430.679765,2590.720797,-9548.656652,2911.162892
430.680090,1702.473667,-9474.636058,2374.896044
430.680414,-962.267725,-9400.615463,1455.581446
430.680738,-3775.050304,-9252.574275,153.219100
430.681063,-4885.359217,-9104.533087,-459.657299
430.681387,-2738.761985,-9252.574275,-229.828649
430.681711,666.185348,-8660.409521,-76.609550
430.682035,4441.235652,-8364.327145,459.657299
430.682360,5921.647536,-8216.285956,842.705048
430.682684,5107.421000,-8364.327145,995.924147
430.683008,2442.679609,-9104.533087,536.266849
430.683333,-1258.350101,-9104.533087,0.000000
430.683657,-3552.988522,-9844.739029,0.000000
430.683981,-3627.009116,-10288.862594,383.047749
430.684306,-1628.453072,-10362.883188,689.485948
430.684630,1184.329507,-9696.697840,1225.752797
430.684954,2590.720797,-9696.697840,1149.143247
430.685278,2368.659014,-10288.862594,536.266849
430.685603,-444.123565,-10584.944971,-612.876398
430.685927,-3849.070898,-10436.903782,-1072.533697
430.686251,-5033.400406,-9696.697840,-1378.971896
430.686576,-3034.844362,-10140.821405,-1762.019645
430.686900,666.185348,-9770.718434,-1608.800546
430.687224,4367.215058,-9548.656652,-995.924147
430.687548,6439.791695,-9400.615463,-766.095498
430.687873,5625.565159,-9400.615463,-766.095498
430.688197,2590.720797,-9770.718434,-536.266849
430.688521,-1110.308913,-9696.697840,-612.876398
430.688846,-3849.070898,-9992.780217,-1149.143247
430.689170,-3997.112087,-10436.903782,-459.657299
430.689494,-1776.494261,-10510.924376,-459.657299
430.689818,444.123565,-10584.944971,0.000000
430.690143,2220.617826,-10066.800811,0.000000
430.690467,1702.473667,-10140.821405,0.000000
430.690791,-518.144159,-10510.924376,-536.266849
430.691116,-3478.967927,-10066.800811,-1302.362347
430.691440,-5403.503377,-9622.677246,-2068.457845
430.691764,-3997.112087,-9844.739029,-1991.848295
430.692088,-814.226536,-9770.718434,-1991.848295
430.692413,3034.844362,-9474.636058,-1225.752797
430.692737,5477.523971,-9104.533087,-689.485948
430.693061,5329.482782,-9400.615463,-536.266849
430.693386,2886.803174,-9622.677246,-383.047749
430.693710,-962.267725,-9844.739029,-995.924147
430.694034,-4293.194464,-10140.821405,-1762.019645
430.694359,-4441.235652,-10584.944971,-536.266849
430.694683,-2812.782580,-10658.965565,-153.219100
430.695007,0.000000,-10140.821405,536.266849
430.695331,1924.535449,-9770.718434,689.485948
430.695656,1702.473667,-9474.636058,1072.533697
430.695980,-592.164754,-9326.594869,-229.828649
430.696304,-3256.906145,-9326.594869,-689.485948
430.696629,-5033.400406,-8956.491898,-1149.143247
430.696953,-4219.173869,-9326.594869,-1149.143247
430.697277,-888.247130,-9178.553681,-1149.143247
430.697601,2960.823768,-8586.388927,-536.266849
430.697926,5255.462188,-8068.244768,-153.219100
430.698250,5921.647536,-8512.368333,612.876398
430.698574,3701.029710,-9326.594869,229.828649
430.698899,0.000000,-9252.574275,229.828649
430.699223,-3034.844362,-9474.636058,229.828649
430.699547,-4367.215058,-10066.800811,229.828649
430.699871,-2664.741391,-10584.944971,383.047749
430.700196,0.000000,-10288.862594,995.924147
430.700520,1850.514855,-9548.656652,1838.629195
430.700844,3182.885551,-10288.862594,1072.533697
430.701169,1554.432478,-10362.883188,1149.143247
430.701493,-1776.494261,-9918.759623,306.438199
430.701817,-3256.906145,-10066.800811,0.000000
430.702142,-3034.844362,-10362.883188,-612.876398
430.702466,-222.061783,-10362.883188,-842.705048
430.702790,3256.906145,-9548.656652,-306.438199
430.703114,5773.606348,-9474.636058,536.266849
430.703439,6513.812290,-9400.615463,1225.752797
430.703763,4441.235652,-9474.636058,459.657299
430.704087,296.082377,-9326.594869,0.000000
430.704412,-3775.050304,-9474.636058,-153.219100
430.704736,-4885.359217,-9696.697840,0.000000
430.705060,-3849.070898,-10066.800811,612.876398
430.705384,-370.102971,-10436.903782,1302.362347
430.705709,2072.576638,-9474.636058,1991.848295
430.706033,3330.926739,-9844.739029,2221.676944
430.706357,1332.370696,-9918.759623,1762.019645
430.706682,-1776.494261,-10436.903782,536.266849
430.707006,-4367.215058,-9770.718434,-689.485948
430.707330,-4515.256246,-9548.656652,-306.438199
430.707654,-1850.514855,-9474.636058,-229.828649
430.707979,1998.556043,-8734.430116,76.609550
430.708303,4737.318029,-8364.327145,766.095498
430.708627,5773.606348,-8438.347739,1455.581446
430.708952,3775.050304,-8956.491898,766.095498
430.709276,-148.041188,-9474.636058,76.609550
430.709600,-4515.256246,-9030.512492,76.609550
430.709924,-6217.729913,-8956.491898,-306.438199
430.710249,-4811.338623,-9400.615463,0.000000
430.710573,-1850.514855,-9474.636058,842.705048
430.710897,1406.391290,-9548.656652,1455.581446
430.711222,2960.823768,-9252.574275,1685.410096
430.711546,2146.597232,-9696.697840,842.705048
430.711870,-592.164754,-9474.636058,0.000000
430.712195,-3552.988522,-9474.636058,-1072.533697
430.712519,-4145.153275,-9844.739029,-1455.581446
430.712843,-1924.535449,-9992.780217,-1378.971896
430.713167,2072.576638,-9622.677246,-1149.143247
430.713492,5773.606348,-9400.615463,-536.266849
430.713816,6439.791695,-9030.512492,-612.876398
430.714140,5403.503377,-9548.656652,-536.266849
430.714465,2146.597232,-10214.842000,-1072.533697
430.714789,-2146.597232,-10436.903782,-1225.752797
430.715113,-4515.256246,-10955.047942,-1378.971896
430.715437,-4071.132681,-11177.109724,-842.705048
430.715762,-1480.411884,-10807.006753,-153.219100
430.716086,1554.432478,-10584.944971,153.219100
430.716410,2368.659014,-10732.986159,0.000000
430.716735,1702.473667,-10807.006753,0.000000
430.717059,-1776.494261,-10288.862594,-1532.190996
430.717383,-4441.235652,-10066.800811,-1915.238745
430.717707,-5033.400406,-10066.800811,-1991.848295
430.718032,-2516.700203,-10066.800811,-1991.848295
430.718356,1332.370696,-9400.615463,-1302.362347
430.718680,4737.318029,-8808.450710,-766.095498
430.719005,6587.832884,-8216.285956,-842.705048
430.719329,5625.565159,-9400.615463,0.000000
430.719653,1998.556043,-9622.677246,-306.438199
430.719978,-2146.597232,-9696.697840,-536.266849
430.720302,-4811.338623,-9918.759623,-612.876398
430.720626,-4959.379811,-9992.780217,-459.657299
430.720950,-3108.864956,-9844.739029,76.609550
430.721275,296.082377,-9992.780217,612.876398
430.721599,2368.659014,-9696.697840,1302.362347
430.721923,1702.473667,-9474.636058,842.705048
430.722248,-740.205942,-9548.656652,-153.219100
430.722572,-3552.988522,-9474.636058,-766.095498
430.722896,-4515.256246,-9474.636058,-1225.752797
430.723220,-2442.679609,-9696.697840,-1225.752797
430.723545,740.205942,-9326.594869,-383.047749
430.723869,3997.112087,-8512.368333,-229.828649
430.724193,6217.729913,-8586.388927,229.828649
430.724518,5625.565159,-9326.594869,459.657299
430.724842,2738.761985,-9474.636058,153.219100
430.725166,-1480.411884,-9474.636058,-306.438199
430.725490,-4589.276840,-9474.636058,-153.219100
430.725815,-4885.359217,-9474.636058,0.000000
430.726139,-2516.700203,-9696.697840,76.609550
430.726463,962.267725,-9770.718434,1532.190996
430.726788,2664.741391,-9548.656652,1762.019645
430.727112,2886.803174,-9992.780217,1532.190996
430.727436,592.164754,-10436.903782,919.314598
430.727760,-2590.720797,-10066.800811,0.000000
430.728085,-4367.215058,-9992.780217,-383.047749
430.728409,-3034.844362,-10362.883188,-306.438199
430.728733,666.185348,-9696.697840,229.828649
430.729058,4367.215058,-9104.533087,995.924147
430.729382,6883.915261,-9326.594869,1149.143247
430.729706,5995.668130,-9326.594869,1072.533697
430.730031,2960.823768,-9770.718434,766.095498
430.730355,-1184.329507,-10066.800811,689.485948
430.730679,-4367.215058,-9696.697840,153.219100
430.731003,-5477.523971,-9770.718434,536.266849
430.731328,-3478.967927,-9770.718434,1072.533697
430.731652,-444.123565,-9696.697840,1302.362347
430.731976,2146.597232,-9548.656652,1762.019645
430.732301,2516.700203,-9252.574275,1608.800546
430.732625,814.226536,-9622.677246,1072.533697
430.732949,-2072.576638,-9252.574275,689.485948
430.733273,-3997.112087,-9548.656652,-153.219100
430.733598,-3552.988522,-9474.636058,-536.266849
430.733922,296.082377,-9770.718434,76.609550
430.734246,3849.070898,-9178.553681,153.219100
430.734571,6439.791695,-8882.471304,766.095498
430.734895,6587.832884,-9252.574275,919.314598
430.735219,3849.070898,-9474.636058,689.485948
430.735543,-148.041188,-9474.636058,459.657299
430.735868,-4663.297435,-9326.594869,-612.876398
430.736192,-5699.585753,-9474.636058,-306.438199
430.736516,-4219.173869,-9844.739029,306.438199
430.736841,-592.164754,-10140.821405,842.705048
430.737165,2146.597232,-9696.697840,1149.143247
430.737489,2516.700203,-9844.739029,1225.752797
430.737813,592.164754,-10214.842000,76.609550
430.738138,-2812.782580,-10066.800811,-536.266849
430.738462,-4811.338623,-9992.780217,-1302.362347
430.738786,-4885.359217,-9400.615463,-1915.238745
430.739111,-1628.453072,-9696.697840,-1225.752797
430.739435,2590.720797,-9474.636058,-459.657299
430.739759,5699.585753,-8956.491898,0.000000
430.740084,6735.874072,-8512.368333,0.000000
430.740408,4737.318029,-8956.491898,0.000000
430.740732,888.247130,-9474.636058,-612.876398
430.741056,-2886.803174,-9548.656652,-995.924147
430.741381,-4811.338623,-9548.656652,-689.485948
430.741705,-3775.050304,-10066.800811,-612.876398
430.742029,-1332.370696,-9770.718434,76.609550
430.742354,1406.391290,-10066.800811,229.828649
430.742678,2368.659014,-10140.821405,689.485948
430.743002,666.185348,-10066.800811,229.828649
430.743326,-2146.597232,-9918.759623,-612.876398
430.743651,-4663.297435,-9548.656652,-1608.800546
430.743975,-4737.318029,-9696.697840,-1608.800546
430.744299,-2294.638420,-9918.759623,-2221.676944
430.744624,1406.391290,-9474.636058,-995.924147
430.744948,4737.318029,-9178.553681,-689.485948
430.745272,5847.626942,-9252.574275,-306.438199
430.745596,4737.318029,-9992.780217,0.000000
430.745921,518.144159,-10362.883188,-383.047749
430.746245,-2960.823768,-10140.821405,-1378.971896
430.746569,-4885.359217,-9622.677246,-459.657299
430.746894,-3923.091493,-10214.842000,-306.438199
430.747218,-740.205942,-10140.821405,76.609550
430.747542,1924.535449,-9992.780217,536.266849
430.747867,2516.700203,-9622.677246,1072.533697
430.748191,1332.370696,-9918.759623,76.609550
430.748515,-1702.473667,-9918.759623,-306.438199
430.748839,-4589.276840,-9770.718434,-2145.067394
430.749164,-5329.482782,-9622.677246,-1455.581446
430.749488,-3034.844362,-9400.615463,-1838.629195
430.749812,1258.350101,-9622.677246,-1149.143247
430.750137,5033.400406,-9104.533087,0.000000
430.750461,6735.874072,-9030.512492,229.828649
430.750785,5403.503377,-9178.553681,306.438199
430.751109,2072.576638,-10214.842000,-153.219100
430.751434,-2368.659014,-9918.759623,-612.876398
430.751758,-4811.338623,-9992.780217,-612.876398
430.752082,-4293.194464,-10066.800811,0.000000
430.752407,-1924.535449,-10510.924376,383.047749
430.752731,1036.288319,-10436.903782,1149.143247
430.753055,2368.659014,-10288.862594,1225.752797
430.753379,1628.453072,-9992.780217,766.095498
430.753704,-962.267725,-9622.677246,76.609550
430.754028,-3552.988522,-9252.574275,-689.485948
430.754352,-5033.400406,-9474.636058,-995.924147
430.754677,-3034.844362,-9622.677246,-1149.143247
430.755001,518.144159,-9400.615463,-766.095498
430.755325,4145.153275,-8512.368333,0.000000
430.755649,6143.709319,-8068.244768,536.266849
430.755974,5625.565159,-8808.450710,229.828649
430.756298,2886.803174,-9622.677246,0.000000
430.756622,-888.247130,-9992.780217,536.266849
430.756947,-3627.009116,-9918.759623,306.438199
430.757271,-3923.091493,-10066.800811,766.095498
430.757595,-1850.514855,-10140.821405,1072.533697
430.757920,1258.350101,-9844.739029,1608.800546
430.758244,3478.967927,-9400.615463,1685.410096
430.758568,2738.761985,-9474.636058,383.047749
430.758892,444.123565,-9400.615463,919.314598
430.759217,-2516.700203,-10288.862594,0.000000
430.759541,-4367.215058,-10214.842000,-536.266849
430.759865,-3034.844362,-10140.821405,-612.876398
430.760190,370.102971,-9400.615463,-229.828649
430.760514,4367.215058,-8512.368333,76.609550
430.760838,6513.812290,-8438.347739,612.876398
430.761162,6661.853478,-8956.491898,1685.410096
430.761487,3627.009116,-9326.594869,459.657299
430.761811,-814.226536,-9178.553681,536.266849
430.762135,-4663.297435,-9548.656652,153.219100
430.762460,-5773.606348,-9770.718434,383.047749
430.762784,-3997.112087,-10066.800811,612.876398
430.763108,-592.164754,-9992.780217,1455.581446
430.763432,1702.473667,-9622.677246,1455.581446
430.763757,1776.494261,-9104.533087,1225.752797
430.764081,370.102971,-9548.656652,612.876398
430.764405,-2590.720797,-9474.636058,0.000000
430.764730,-4663.297435,-9844.739029,-612.876398
430.765054,-4145.153275,-9992.780217,-1302.362347
430.765378,-1258.350101,-9696.697840,-919.314598
430.765702,2368.659014,-8734.430116,-766.095498
430.766027,5699.585753,-9030.512492,0.000000
430.766351,5995.668130,-9548.656652,0.000000
430.766675,3627.009116,-9918.759623,153.219100
430.767000,0.000000,-9992.780217,-153.219100
430.767324,-3923.091493,-9844.739029,-766.095498
430.767648,-5107.421000,-10066.800811,-1072.533697
430.767973,-3330.926739,-10288.862594,-459.657299
430.768297,-222.061783,-10584.944971,0.000000
430.768621,1998.556043,-9622.677246,76.609550
430.768945,2368.659014,-10436.903782,383.047749
430.769270,222.061783,-10288.862594,-306.438199
430.769594,-2664.741391,-10288.862594,-1149.143247
430.769918,-5107.421000,-10214.842000,-1838.629195
430.770243,-4663.297435,-10362.883188,-1915.238745
430.770567,-1332.370696,-10436.903782,-1608.800546
430.770891,3256.906145,-9918.759623,-536.266849
430.771215,6513.812290,-9252.574275,-689.485948
430.771540,6883.915261,-9030.512492,-1072.533697
430.771864,4811.338623,-9622.677246,-306.438199
430.772188,962.267725,-9992.780217,-689.485948
430.772513,-2590.720797,-10362.883188,-842.705048
430.772837,-4219.173869,-10436.903782,-383.047749
430.773161,-3034.844362,-9770.718434,-383.047749
430.773485,-148.041188,-9622.677246,0.000000
430.773810,2516.700203,-9548.656652,612.876398
430.774134,3256.906145,-9844.739029,766.095498
430.774458,1702.473667,-9918.759623,229.828649
430.774783,-1776.494261,-9474.636058,-306.438199
430.775107,-4515.256246,-8882.471304,-1149.143247
430.775431,-4737.318029,-8956.491898,-1378.971896
430.775756,-2220.617826,-9252.574275,-459.657299
430.776080,1480.411884,-9104.533087,-689.485948
430.776404,4737.318029,-8216.285956,76.609550
430.776728,5699.585753,-8364.327145,76.609550
430.777052,3997.112087,-8808.450710,153.219100
430.777377,518.144159,-9474.636058,229.828649
430.777701,-3108.864956,-9918.759623,0.000000
430.778025,-5255.462188,-9844.739029,0.000000
430.778349,-4367.215058,-10214.842000,76.609550
430.778673,-1184.329507,-10584.944971,1225.752797
430.778998,1850.514855,-10436.903782,995.924147
430.779322,2738.761985,-10362.883188,1455.581446
430.779646,1480.411884,-10807.006753,689.485948
430.779970,-1628.453072,-10658.965565,0.000000
430.780294,-4293.194464,-10214.842000,-689.485948
430.780619,-4737.318029,-10584.944971,-689.485948
430.780943,-2072.576638,-9918.759623,-689.485948
430.781267,1850.514855,-9326.594869,-76.609550
430.781591,4737.318029,-8956.491898,0.000000
430.781915,5699.585753,-8808.450710,306.438199
430.782239,4515.256246,-9326.594869,306.438199
430.782564,1480.411884,-9696.697840,306.438199
430.782888,-1850.514855,-9474.636058,229.828649
430.783212,-4589.276840,-9178.553681,0.000000
430.783536,-4515.256246,-9622.677246,-536.266849
430.783860,-1924.535449,-10066.800811,459.657299
430.784185,1702.473667,-10584.944971,1149.143247
430.784509,3478.967927,-10658.965565,2068.457845
430.784833,3108.864956,-10510.924376,2068.457845
430.785157,888.247130,-9844.739029,1072.533697
430.785481,-1776.494261,-9918.759623,459.657299
430.785806,-3256.906145,-10214.842000,-306.438199
430.786130,-2146.597232,-9992.780217,-689.485948
430.786454,1332.370696,-9474.636058,76.609550
430.786778,4515.256246,-8438.347739,536.266849
430.787102,5847.626942,-8216.285956,766.095498
430.787426,4441.235652,-8438.347739,153.219100
430.787751,1184.329507,-8882.471304,153.219100
430.788075,-2590.720797,-8586.388927,-383.047749
430.788399,-4885.359217,-8586.388927,-383.047749
430.788723,-4885.359217,-9178.553681,383.047749
430.789047,-2220.617826,-9252.574275,766.095498
430.789372,1184.329507,-9400.615463,1225.752797
430.789696,2664.741391,-9252.574275,1532.190996
430.790020,2368.659014,-9992.780217,1149.143247
430.790344,-592.164754,-10214.842000,536.266849
430.790668,-3775.050304,-10066.800811,153.219100
430.790993,-5477.523971,-9918.759623,-612.876398
430.791317,-4515.256246,-9770.718434,-842.705048
430.791641,-444.123565,-9770.718434,-1149.143247
430.791965,3404.947333,-9104.533087,-766.095498
430.792289,5699.585753,-8068.244768,-306.438199
430.792613,5477.523971,-8586.388927,0.000000
430.792938,2442.679609,-9178.553681,-229.828649
430.793262,-1258.350101,-9844.739029,-383.047749
430.793586,-4737.318029,-9770.718434,-1072.533697
430.793910,-4737.318029,-10214.842000,-766.095498
430.794234,-2960.823768,-10066.800811,0.000000
430.794559,74.020594,-10584.944971,153.219100
430.794883,2072.576638,-10807.006753,536.266849
430.795207,1850.514855,-10658.965565,306.438199
430.795531,0.000000,-10362.883188,0.000000
430.795855,-3034.844362,-10362.883188,-842.705048
430.796180,-4737.318029,-10510.924376,-995.924147
430.796504,-3404.947333,-9992.780217,-1608.800546
430.796828,74.020594,-9770.718434,-1532.190996
430.797152,3775.050304,-9474.636058,-1072.533697
430.797476,6365.771101,-9104.533087,-689.485948
430.797800,6143.709319,-9400.615463,-612.876398
430.798125,3552.988522,-9696.697840,-383.047749
430.798449,-518.144159,-9474.636058,-1072.533697
430.798773,-3923.091493,-9622.677246,-919.314598
430.799097,-5181.441594,-9918.759623,-1072.533697
430.799421,-2812.782580,-10436.903782,-459.657299
430.799746,370.102971,-10140.821405,76.609550
430.800070,2368.659014,-9696.697840,612.876398
430.800394,2590.720797,-9770.718434,689.485948
430.800718,-296.082377,-9548.656652,153.219100
430.801042,-2812.782580,-9696.697840,-1378.971896
430.801367,-4959.379811,-9474.636058,-1225.752797
430.801691,-4293.194464,-9622.677246,-1915.238745
430.802015,-888.247130,-9696.697840,-1685.410096
430.802339,3552.988522,-9400.615463,-995.924147
430.802663,6513.812290,-9030.512492,-612.876398
430.802987,6513.812290,-8586.388927,-689.485948
430.803312,3849.070898,-9326.594869,-612.876398
430.803636,-518.144159,-9844.739029,-995.924147
430.803960,-3923.091493,-10436.903782,-766.095498
430.804284,-5107.421000,-10362.883188,-459.657299
430.804608,-3775.050304,-10362.883188,-229.828649
430.804933,-592.164754,-10288.862594,459.657299
430.805257,1998.556043,-9696.697840,1762.019645
430.805581,3330.926739,-9844.739029,919.314598
430.805905,1480.411884,-9844.739029,1072.533697
430.806229,-2220.617826,-10140.821405,383.047749
430.806554,-4441.235652,-9696.697840,-842.705048
430.806878,-4515.256246,-9770.718434,-995.924147
430.807202,-1332.370696,-9474.636058,-995.924147
430.807526,2664.741391,-9252.574275,-306.438199
430.807850,5625.565159,-8438.347739,306.438199
430.808174,6291.750507,-8512.368333,842.705048
430.808499,3997.112087,-8882.471304,383.047749
430.808823,74.020594,-9696.697840,536.266849
430.809147,-3478.967927,-9622.677246,0.000000
430.809471,-5255.462188,-9844.739029,76.609550
430.809795,-3923.091493,-10140.821405,383.047749
430.810120,-592.164754,-9696.697840,1302.362347
430.810444,2294.638420,-10066.800811,2374.896044
430.810768,3256.906145,-10066.800811,2681.334243
430.811092,1850.514855,-10066.800811,2068.457845
430.811416,-1258.350101,-9992.780217,919.314598
430.811741,-3923.091493,-9992.780217,-153.219100
430.812065,-4515.256246,-10066.800811,-459.657299
430.812389,-1924.535449,-9770.718434,-459.657299
430.812713,2368.659014,-9178.553681,-306.438199
430.813037,5403.503377,-8586.388927,995.924147
430.813361,6365.771101,-8068.244768,306.438199
430.813686,4737.318029,-8808.450710,689.485948
430.814010,1110.308913,-9474.636058,536.266849
430.814334,-2738.761985,-9474.636058,153.219100
430.814658,-5181.441594,-9770.718434,229.828649
430.814982,-4737.318029,-9474.636058,842.705048
430.815307,-1850.514855,-9696.697840,1685.410096
430.815631,1406.391290,-9844.739029,1991.848295
430.815955,2960.823768,-9844.739029,2145.067394
430.816279,2442.679609,-9992.780217,2145.067394
430.816603,0.000000,-9622.677246,842.705048
430.816928,-2516.700203,-9770.718434,-536.266849
430.817252,-3775.050304,-9696.697840,-1072.533697
430.817576,-2294.638420,-10066.800811,-1225.752797
430.817900,1332.370696,-9770.718434,-995.924147
430.818224,4441.235652,-9178.553681,-536.266849
430.818548,5773.606348,-8586.388927,0.000000
430.818873,4515.256246,-8808.450710,0.000000
430.819197,888.247130,-9622.677246,-306.438199
430.819521,-3108.864956,-9548.656652,-689.485948
430.819845,-5699.585753,-9474.636058,-919.314598
430.820169,-5255.462188,-9474.636058,-612.876398
430.820494,-2368.659014,-9844.739029,306.438199
430.820818,592.164754,-10066.800811,612.876398
430.821142,2442.679609,-10288.862594,766.095498
430.821466,1628.453072,-10436.903782,689.485948
430.821790,-666.185348,-10807.006753,-383.047749
430.822115,-3701.029710,-9770.718434,-1608.800546
430.822439,-4367.215058,-9622.677246,-1991.848295
430.822763,-2368.659014,-10140.821405,-2145.067394
430.823087,1554.432478,-9918.759623,-1685.410096
430.823411,5033.400406,-9474.636058,-1072.533697
430.823735,6661.853478,-8808.450710,-1072.533697
430.824060,5403.503377,-8956.491898,-995.924147
430.824384,2072.576638,-9918.759623,-612.876398
430.824708,-2146.597232,-10066.800811,-1225.752797
430.825032,-5551.544565,-10066.800811,-1072.533697
430.825356,-5255.462188,-10510.924376,-919.314598
430.825681,-3182.885551,-10658.965565,-306.438199
430.826005,296.082377,-10732.986159,153.219100
430.826329,3404.947333,-10584.944971,919.314598
430.826653,2738.761985,-10288.862594,689.485948
430.826977,444.123565,-9918.759623,-459.657299
430.827302,-2220.617826,-9918.759623,-995.924147
430.827626,-3849.070898,-10066.800811,-1532.190996
430.827950,-2368.659014,-10140.821405,-1455.581446
430.828274,666.185348,-9696.697840,-1302.362347
430.828598,3849.070898,-9104.533087,-1149.143247
430.828922,5773.606348,-9030.512492,-306.438199
430.829247,5551.544565,-9252.574275,842.705048
430.829571,2368.659014,-9474.636058,689.485948
430.829895,-1850.514855,-8882.471304,0.000000
430.830219,-5033.400406,-9178.553681,-153.219100
430.830543,-5847.626942,-9548.656652,0.000000
430.830868,-3627.009116,-9548.656652,306.438199
430.831192,-740.205942,-9104.533087,919.314598
430.831516,2368.659014,-9400.615463,1762.019645
430.831840,2368.659014,-9400.615463,995.924147
430.832164,444.123565,-9474.636058,612.876398
430.832489,-2146.597232,-9622.677246,0.000000
430.832813,-3775.050304,-9844.739029,-612.876398
430.833137,-2664.741391,-10066.800811,-919.314598
430.833461,444.123565,-9474.636058,-536.266849
430.833785,4515.256246,-9252.574275,-383.047749
430.834109,5773.606348,-8512.368333,689.485948
430.834434,5181.441594,-8956.491898,306.438199
430.834758,3034.844362,-9770.718434,153.219100
430.835082,-1110.308913,-9844.739029,76.609550
430.835406,-4515.256246,-9622.677246,-229.828649
430.835730,-5403.503377,-10140.821405,-229.828649
430.836055,-3775.050304,-10066.800811,306.438199
430.836379,0.000000,-10436.903782,1225.752797
430.836703,2590.720797,-10214.842000,1838.629195
430.837027,3478.967927,-10288.862594,2145.067394
430.837351,1924.535449,-10436.903782,1072.533697
430.837676,-740.205942,-10436.903782,306.438199
430.838000,-2960.823768,-10362.883188,-536.266849
430.838324,-2664.741391,-10584.944971,-919.314598
430.838648,74.020594,-9844.739029,-536.266849
430.838972,3552.988522,-9030.512492,-153.219100
430.839296,5699.585753,-8290.306550,459.657299
430.839621,5921.647536,-8660.409521,689.485948
430.839945,3256.906145,-9178.553681,919.314598
430.840269,-814.226536,-9400.615463,229.828649
430.840593,-4589.276840,-8882.471304,0.000000
430.840917,-6143.709319,-8586.388927,383.047749
430.841242,-4959.379811,-8882.471304,306.438199
430.841566,-1332.370696,-9252.574275,1302.362347
430.841890,1258.350101,-9178.553681,1225.752797
430.842214,1998.556043,-9474.636058,1378.971896
430.842538,1110.308913,-9696.697840,1072.533697
430.842863,-1554.432478,-9844.739029,459.657299
430.843187,-3182.885551,-10140.821405,76.609550
430.843511,-3552.988522,-9770.718434,-229.828649
430.843835,-888.247130,-9326.594869,229.828649
430.844159,2442.679609,-8660.409521,153.219100
430.844483,5255.462188,-8512.368333,153.219100
430.844808,5403.503377,-8586.388927,76.609550
430.845132,3404.947333,-8734.430116,76.609550
430.845456,-222.061783,-9178.553681,0.000000
430.845780,-3849.070898,-9326.594869,-995.924147
430.846104,-5995.668130,-9178.553681,-766.095498
430.846429,-4737.318029,-9474.636058,0.000000
430.846753,-2294.638420,-9696.697840,306.438199
430.847077,518.144159,-10140.821405,383.047749
430.847401,2072.576638,-10436.903782,689.485948
430.847725,1628.453072,-10436.903782,459.657299
430.848050,-518.144159,-10510.924376,-459.657299
430.848374,-2590.720797,-10214.842000,-689.485948
430.848698,-2738.761985,-9770.718434,-1455.581446
430.849022,-666.185348,-10436.903782,-1072.533697
430.849346,2960.823768,-10436.903782,-1149.143247
430.849670,5625.565159,-9770.718434,-766.095498
430.849995,6143.709319,-9474.636058,-766.095498
430.850319,4441.235652,-9770.718434,-689.485948
430.850643,888.247130,-9770.718434,-842.705048
430.850967,-2886.803174,-9622.677246,-766.095498
430.851291,-5699.585753,-10362.883188,-1608.800546
430.851616,-4885.359217,-10288.862594,-536.266849
430.851940,-2294.638420,-10066.800811,-612.876398
430.852264,666.185348,-10066.800811,76.609550
430.852588,2072.576638,-9992.780217,229.828649
430.852912,1406.391290,-10066.800811,153.219100
430.853237,-1184.329507,-10066.800811,-842.705048
430.853561,-3701.029710,-9622.677246,-689.485948
430.853885,-3775.050304,-10140.821405,-1378.971896
430.854209,-1776.494261,-9696.697840,-1685.410096
430.854533,2368.659014,-9400.615463,-1072.533697
430.854857,5625.565159,-8956.491898,-612.876398
430.855182,6809.894666,-8512.368333,-536.266849
430.855506,5181.441594,-8438.347739,-383.047749
430.855830,1702.473667,-9030.512492,0.000000
430.856154,-2664.741391,-9326.594869,-766.095498
430.856478,-5773.606348,-9400.615463,-919.314598
430.856803,-5847.626942,-9474.636058,-689.485948
430.857127,-3330.926739,-9770.718434,-306.438199
430.857451,0.000000,-10066.800811,383.047749
430.857775,2442.679609,-9992.780217,766.095498
430.858099,2368.659014,-9770.718434,1072.533697
430.858424,0.000000,-9844.739029,0.000000
430.858748,-2664.741391,-9992.780217,-612.876398
430.859072,-3256.906145,-10140.821405,-766.095498
430.859396,-1702.473667,-10288.862594,-995.924147
430.859720,1554.432478,-10066.800811,-383.047749
430.860044,4885.359217,-9622.677246,0.000000
430.860369,6587.832884,-9252.574275,153.219100
430.860693,5625.565159,-9400.615463,689.485948
430.861017,2664.741391,-9548.656652,536.266849
430.861341,-1776.494261,-9770.718434,153.219100
430.861665,-5403.503377,-9696.697840,-153.219100
430.861990,-5921.647536,-9622.677246,229.828649
430.862314,-3627.009116,-9770.718434,536.266849
430.862638,-296.082377,-9178.553681,1149.143247
430.862962,2072.576638,-9326.594869,2145.067394
430.863286,1776.494261,-9474.636058,1532.190996
430.863611,-296.082377,-9918.759623,1225.752797
430.863935,-2590.720797,-9622.677246,153.219100
430.864259,-3849.070898,-9474.636058,153.219100
430.864583,-2664.741391,-9696.697840,-459.657299
430.864907,370.102971,-9474.636058,0.000000
430.865231,4145.153275,-8956.491898,229.828649
430.865556,5921.647536,-8586.388927,536.266849
430.865880,5403.503377,-8734.430116,1149.143247
430.866204,2812.782580,-9326.594869,612.876398
430.866528,-1110.308913,-10066.800811,612.876398
430.866852,-4737.318029,-9844.739029,0.000000
430.867177,-5773.606348,-9548.656652,229.828649
430.867501,-3775.050304,-10214.842000,459.657299
430.867825,-592.164754,-9992.780217,1225.752797
430.868149,2294.638420,-9770.718434,1685.410096
430.868473,3330.926739,-9696.697840,1455.581446
430.868798,1628.453072,-9474.636058,1225.752797
430.869122,-888.247130,-9622.677246,76.609550
430.869446,-2960.823768,-9844.739029,-689.485948
430.869770,-2516.700203,-9918.759623,-919.314598
430.870094,-444.123565,-9696.697840,-995.924147
430.870418,2960.823768,-9030.512492,-536.266849
430.870743,5403.503377,-8660.409521,0.000000
430.871067,5773.606348,-8586.388927,229.828649
430.871391,3404.947333,-9178.553681,0.000000
430.871715,-592.164754,-9474.636058,-153.219100
430.872039,-4071.132681,-9326.594869,-306.438199
430.872364,-5699.585753,-9326.594869,-612.876398
430.872688,-4219.173869,-9548.656652,0.000000
430.873012,-1110.308913,-10140.821405,459.657299
430.873336,1850.514855,-9992.780217,842.705048
430.873660,2590.720797,-9918.759623,1149.143247
430.873985,1036.288319,-10066.800811,229.828649
430.874309,-1702.473667,-10140.821405,-842.705048
430.874633,-3849.070898,-9992.780217,-1455.581446
430.874957,-3478.967927,-9770.718434,-1762.019645
430.875281,-592.164754,-9918.759623,-1532.190996
430.875605,2812.782580,-9178.553681,-459.657299
430.875930,5773.606348,-8216.285956,-612.876398
430.876254,5699.585753,-8068.244768,-689.485948
430.876578,3256.906145,-9030.512492,-1225.752797
430.876902,-444.123565,-9474.636058,-842.705048
430.877226,-4293.194464,-9918.759623,-1378.971896
430.877551,-5921.647536,-9622.677246,-1225.752797
430.877875,-4811.338623,-10214.842000,-612.876398
430.878199,-2072.576638,-10066.800811,-459.657299
430.878523,1332.370696,-10510.924376,0.000000
430.878847,2812.782580,-10066.800811,459.657299
430.879172,1628.453072,-10362.883188,0.000000
430.879496,-740.205942,-10881.027347,-842.705048
430.879820,-3256.906145,-11103.089130,-1608.800546
430.880144,-3552.988522,-10881.027347,-1991.848295
430.880468,-1110.308913,-10436.903782,-1915.238745
430.880793,2516.700203,-9918.759623,-1378.971896
430.881117,5329.482782,-9030.512492,-689.485948
430.881441,6587.832884,-9696.697840,229.828649
430.881765,4737.318029,-9474.636058,153.219100
430.882089,1110.308913,-9918.759623,0.000000
430.882413,-3182.885551,-9918.759623,-536.266849
430.882738,-5699.585753,-9696.697840,-689.485948
430.883062,-4737.318029,-9696.697840,76.609550
430.883386,-2220.617826,-9474.636058,459.657299
430.883710,592.164754,-9474.636058,459.657299
430.884034,2368.659014,-9400.615463,1302.362347
430.884359,1628.453072,-9696.697840,766.095498
430.884683,-814.226536,-9622.677246,153.219100
430.885007,-3404.947333,-9400.615463,-459.657299
430.885331,-4145.153275,-9326.594869,-306.438199
430.885655,-1702.473667,-9104.533087,-842.705048
430.885980,1850.514855,-8364.327145,0.000000
430.886304,5107.421000,-8660.409521,229.828649
430.886628,6513.812290,-8364.327145,689.485948
430.886952,4959.379811,-9252.574275,1072.533697
430.887276,1184.329507,-9548.656652,919.314598
430.887601,-3108.864956,-9548.656652,229.828649
430.887925,-5773.606348,-9622.677246,-153.219100
430.888249,-5181.441594,-9844.739029,689.485948
430.888573,-2590.720797,-9770.718434,1455.581446
430.888897,740.205942,-9474.636058,1838.629195
430.889222,3108.864956,-9400.615463,1762.019645
430.889546,3701.029710,-9548.656652,1762.019645
430.889870,1850.514855,-9548.656652,1072.533697
430.890194,-888.247130,-9696.697840,306.438199
430.890518,-2368.659014,-9918.759623,-536.266849
430.890842,-962.267725,-9622.677246,0.000000
430.891167,1850.514855,-9400.615463,76.609550
430.891491,4515.256246,-9104.533087,383.047749
430.891815,5847.626942,-9326.594869,842.705048
430.892139,4441.235652,-9474.636058,1149.143247
430.892463,962.267725,-9474.636058,536.266849
430.892788,-2886.803174,-9104.533087,153.219100
430.893112,-5847.626942,-9030.512492,-536.266849
430.893436,-5403.503377,-10066.800811,-306.438199
430.893760,-3330.926739,-9992.780217,612.876398
430.894084,-148.041188,-10066.800811,1455.581446
430.894409,1850.514855,-10066.800811,1838.629195
430.894733,1850.514855,-10584.944971,1302.362347
430.895057,0.000000,-10362.883188,153.219100
430.895381,-3034.844362,-9696.697840,-1149.143247
430.895705,-4293.194464,-9770.718434,-689.485948
430.896030,-3256.906145,-9548.656652,-1072.533697
430.896354,148.041188,-9326.594869,-383.047749
430.896678,3330.926739,-8438.347739,0.000000
430.897002,4885.359217,-7624.121203,76.609550
430.897326,4145.153275,-7994.224174,229.828649
430.897651,1702.473667,-8586.388927,-306.438199
430.897975,-2442.679609,-8438.347739,0.000000
430.898299,-5181.441594,-8882.471304,-766.095498
430.898623,-5625.565159,-9030.512492,-842.705048
430.898947,-3775.050304,-9844.739029,-536.266849
430.899271,0.000000,-10214.842000,0.000000
430.899596,2738.761985,-10140.821405,536.266849
430.899920,3627.009116,-10732.986159,459.657299
430.900244,2220.617826,-11251.130318,383.047749
430.900568,-666.185348,-10658.965565,-842.705048
430.900892,-2294.638420,-10436.903782,-1915.238745
430.901217,-1554.432478,-11029.068536,-2451.505594
430.901541,740.205942,-11029.068536,-1915.238745
430.901865,3923.091493,-10510.924376,-1072.533697
430.902189,5847.626942,-10362.883188,-689.485948
430.902513,5329.482782,-9918.759623,-536.266849
430.902838,2368.659014,-9548.656652,-995.924147
430.903162,-1924.535449,-9474.636058,-1225.752797
430.903486,-5403.503377,-9474.636058,-1991.848295
430.903810,-6291.750507,-9918.759623,-1762.019645
430.904134,-4367.215058,-9992.780217,-919.314598
430.904459,-740.205942,-9918.759623,0.000000
430.904783,2368.659014,-9770.718434,919.314598
430.905107,3256.906145,-10436.903782,919.314598
430.905431,2072.576638,-10732.986159,0.000000
430.905755,-1480.411884,-10140.821405,-536.266849
430.906079,-2812.782580,-10140.821405,-1455.581446
430.906404,-2516.700203,-9178.553681,-1378.971896
430.906728,148.041188,-9474.636058,-919.314598
430.907052,3108.864956,-9326.594869,-766.095498
430.907376,5033.400406,-8734.430116,-153.219100
430.907700,4885.359217,-8364.327145,-153.219100
430.908025,2072.576638,-8660.409521,-612.876398
430.908349,-1924.535449,-8956.491898,-306.438199
430.908673,-5699.585753,-8734.430116,-1225.752797
430.908997,-6957.935855,-9326.594869,-842.705048
430.909321,-5699.585753,-9548.656652,-306.438199
430.909646,-2368.659014,-9622.677246,536.266849
430.909970,888.247130,-9844.739029,1532.190996
430.910294,2960.823768,-10140.821405,1532.190996
430.910618,2738.761985,-10436.903782,1072.533697
430.910942,148.041188,-10510.924376,842.705048
430.911267,-1998.556043,-10436.903782,0.000000
430.911591,-2072.576638,-10510.924376,-459.657299
430.911915,370.102971,-10510.924376,-229.828649
430.912239,3923.091493,-9770.718434,76.609550
430.912563,5995.668130,-8586.388927,306.438199
430.912888,6143.709319,-8808.450710,766.095498
430.913212,4441.235652,-9252.574275,995.924147
430.913536,222.061783,-8808.450710,383.047749
430.913860,-3997.112087,-8734.430116,0.000000
430.914184,-6217.729913,-8956.491898,0.000000
430.914508,-5107.421000,-9474.636058,383.047749
430.914833,-1480.411884,-9622.677246,1225.752797
430.915157,1924.535449,-10140.821405,2068.457845
430.915481,3775.050304,-10658.965565,2681.334243
430.915805,2590.720797,-10658.965565,1762.019645
430.916129,0.000000,-10362.883188,1072.533697
430.916454,-2664.741391,-10658.965565,306.438199
430.916778,-2886.803174,-10807.006753,-153.219100
430.917102,-1332.370696,-10510.924376,76.609550
430.917426,2368.659014,-9992.780217,306.438199
430.917750,5329.482782,-8882.471304,0.000000
430.918075,5625.565159,-8512.368333,612.876398
430.918399,3997.112087,-8512.368333,536.266849
430.918723,0.000000,-9178.553681,536.266849
430.919047,-4663.297435,-9252.574275,229.828649
430.919371,-7179.997637,-8956.491898,-153.219100
430.919696,-6809.894666,-8956.491898,0.000000
430.920020,-3182.885551,-9474.636058,689.485948
430.920344,222.061783,-9474.636058,1991.848295
430.920668,2960.823768,-9400.615463,2298.286494
430.920992,3108.864956,-9474.636058,1991.848295
430.921316,740.205942,-10066.800811,842.705048
430.921641,-1998.556043,-9770.718434,-306.438199
430.921965,-3034.844362,-9844.739029,-995.924147
430.922289,-1554.432478,-9844.739029,-1455.581446
430.922613,1776.494261,-9696.697840,-842.705048
430.922937,4515.256246,-9252.574275,0.000000
430.923262,6143.709319,-9104.533087,-76.609550
430.923586,4441.235652,-9030.512492,-766.095498
430.923910,666.185348,-9474.636058,-995.924147
430.924234,-3552.988522,-9474.636058,-1608.800546
430.924558,-6439.791695,-9104.533087,-1915.238745
430.924883,-5773.606348,-9548.656652,-1532.190996
430.925207,-2368.659014,-10066.800811,-229.828649
430.925531,222.061783,-10066.800811,536.266849
430.925855,3182.885551,-10584.944971,919.314598
430.926179,2590.720797,-10732.986159,689.485948
430.926504,666.185348,-10807.006753,-459.657299
430.926828,-2220.617826,-10362.883188,-1608.800546
430.927152,-3404.947333,-10288.862594,-2298.286494
430.927476,-1702.473667,-10510.924376,-2221.676944
430.927800,2368.659014,-10436.903782,-1532.190996
430.928125,4959.379811,-9252.574275,-1225.752797
430.928449,6069.688724,-8734.430116,-689.485948
430.928773,4737.318029,-8956.491898,-1225.752797
430.929097,1332.370696,-9474.636058,-1225.752797
430.929421,-3108.864956,-9696.697840,-1532.190996
430.929745,-6365.771101,-9326.594869,-1838.629195
430.930070,-6735.874072,-9252.574275,-1608.800546
430.930394,-4219.173869,-9770.718434,-536.266849
430.930718,-222.061783,-9770.718434,153.219100
430.931042,2960.823768,-9844.739029,1072.533697
430.931366,3182.885551,-9992.780217,919.314598
430.931691,1036.288319,-10140.821405,153.219100
430.932015,-1480.411884,-10066.800811,-536.266849
430.932339,-3330.926739,-10140.821405,-1532.190996
430.932663,-2368.659014,-10140.821405,-1455.581446
430.932987,740.205942,-9992.780217,-1149.143247
430.933312,4293.194464,-9696.697840,-459.657299
430.933636,6217.729913,-9474.636058,-153.219100
430.933960,5403.503377,-9178.553681,229.828649
430.934284,2294.638420,-9400.615463,0.000000
430.934608,-2072.576638,-9474.636058,-689.485948
430.934933,-5625.565159,-9474.636058,-689.485948
430.935257,-6513.812290,-9474.636058,-306.438199
430.935581,-4293.194464,-9992.780217,383.047749
430.935905,-962.267725,-10140.821405,1532.190996
430.936229,2146.597232,-9918.759623,1838.629195
430.936554,2738.761985,-9696.697840,1762.019645
430.936878,1332.370696,-9696.697840,1225.752797
430.937202,-1184.329507,-9770.718434,536.266849
430.937526,-2812.782580,-9696.697840,229.828649
430.937850,-2442.679609,-9844.739029,-536.266849
430.938174,222.061783,-9400.615463,-536.266849
430.938499,2960.823768,-9104.533087,-229.828649
430.938823,4959.379811,-8586.388927,0.000000
430.939147,5107.421000,-8734.430116,383.047749
430.939471,3034.844362,-8956.491898,612.876398
430.939795,-888.247130,-9104.533087,0.000000
430.940120,-4737.318029,-9252.574275,-153.219100
430.940444,-5699.585753,-9030.512492,383.047749
430.940768,-4145.153275,-9696.697840,919.314598
430.941092,-888.247130,-10066.800811,1455.581446
430.941416,2368.659014,-10288.862594,1991.848295
430.941741,3923.091493,-10140.821405,2145.067394
430.942065,3108.864956,-10362.883188,1532.190996
430.942389,444.123565,-10140.821405,919.314598
430.942713,-2146.597232,-10362.883188,-153.219100
430.943037,-2812.782580,-10362.883188,-689.485948
430.943362,-518.144159,-10288.862594,-536.266849
430.943686,2960.823768,-9548.656652,-459.657299
430.944010,5033.400406,-8586.388927,-383.047749
430.944334,5625.565159,-9030.512492,612.876398
430.944658,3552.988522,-9474.636058,383.047749
430.944982,-296.082377,-9696.697840,306.438199
430.945307,-4071.132681,-9474.636058,229.828649
430.945631,-5995.668130,-9252.574275,-306.438199
430.945955,-4367.215058,-9770.718434,229.828649
430.946279,-962.267725,-10140.821405,1072.533697
430.946603,2072.576638,-10436.903782,1991.848295
430.946928,3256.906145,-10140.821405,1838.629195
430.947252,2368.659014,-10066.800811,995.924147
430.947576,-518.144159,-9844.739029,153.219100
430.947900,-3034.844362,-9622.677246,-689.485948
430.948224,-4367.215058,-9474.636058,-919.314598
430.948549,-1702.473667,-9770.718434,-995.924147
430.948873,1258.350101,-8808.450710,-612.876398
430.949197,3775.050304,-8364.327145,-229.828649
430.949521,4441.235652,-7846.182985,0.000000
430.949845,2886.803174,-8290.306550,-306.438199
430.950170,-740.205942,-8586.388927,0.000000
430.950494,-4589.276840,-8438.347739,-766.095498
430.950818,-6809.894666,-8808.450710,-612.876398
430.951142,-5921.647536,-9326.594869,-153.219100
430.951466,-2886.803174,-9770.718434,0.000000
430.951791,444.123565,-9918.759623,689.485948
430.952115,2516.700203,-10436.903782,919.314598
430.952439,2516.700203,-10732.986159,766.095498
430.952763,518.144159,-10288.862594,0.000000
430.953087,-1554.432478,-11325.150913,-1225.752797
430.953411,-2812.782580,-10510.924376,-1225.752797
430.953736,-814.226536,-10955.047942,-1685.410096
430.954060,2072.576638,-10140.821405,-1378.971896
430.954384,4885.359217,-9474.636058,-1072.533697
430.954708,5847.626942,-9548.656652,-919.314598
430.955032,4071.132681,-9474.636058,-1302.362347
430.955357,666.185348,-9622.677246,-1225.752797
430.955681,-3034.844362,-9326.594869,-1608.800546
430.956005,-5329.482782,-9474.636058,-1762.019645
430.956329,-5255.462188,-9918.759623,-1225.752797
430.956653,-2516.700203,-10066.800811,-306.438199
430.956978,888.247130,-10436.903782,0.000000
430.957302,2960.823768,-10732.986159,842.705048
430.957626,2738.761985,-11103.089130,689.485948
430.957950,592.164754,-10807.006753,0.000000
430.958274,-2146.597232,-10881.027347,-1072.533697
430.958599,-3256.906145,-11103.089130,-1685.410096
430.958923,-1332.370696,-10807.006753,-1378.971896
430.959247,2072.576638,-10288.862594,-995.924147
430.959571,4885.359217,-9474.636058,-689.485948
430.959895,6439.791695,-8882.471304,-612.876398
430.960220,5181.441594,-8290.306550,153.219100
430.960544,1850.514855,-9030.512492,153.219100
430.960868,-2738.761985,-8882.471304,-459.657299
430.961192,-6365.771101,-8586.388927,-842.705048
430.961516,-7105.977043,-8586.388927,-995.924147
430.961840,-4885.359217,-8882.471304,-536.266849
430.962165,-1554.432478,-8586.388927,383.047749
430.962489,1184.329507,-9178.553681,1149.143247
430.962813,1406.391290,-9178.553681,1378.971896
430.963137,-222.061783,-9030.512492,536.266849
430.963461,-2516.700203,-9252.574275,306.438199
430.963786,-3330.926739,-9696.697840,-459.657299
430.964110,-1702.473667,-9992.780217,-689.485948
430.964434,2294.638420,-9844.739029,0.000000
430.964758,5921.647536,-9474.636058,459.657299
430.965082,7624.121203,-8956.491898,919.314598
430.965407,6957.935855,-9474.636058,689.485948
430.965731,3404.947333,-9548.656652,459.657299
430.966055,-1184.329507,-10140.821405,-229.828649
430.966379,-5033.400406,-9992.780217,-306.438199
430.966703,-6291.750507,-9992.780217,0.000000
430.967028,-4219.173869,-9844.739029,0.000000
430.967352,-962.267725,-9844.739029,1378.971896
430.967676,1924.535449,-9770.718434,1991.848295
430.968000,2812.782580,-9770.718434,1991.848295
430.968324,1110.308913,-10362.883188,1532.190996
430.968648,-1332.370696,-10214.842000,689.485948
430.968973,-3034.844362,-9992.780217,76.609550
430.969297,-2442.679609,-10362.883188,0.000000
430.969621,444.123565,-9844.739029,0.000000
430.969945,4071.132681,-8956.491898,612.876398
430.970269,6143.709319,-8586.388927,536.266849
430.970594,5773.606348,-9252.574275,459.657299
430.970918,2960.823768,-9252.574275,689.485948
430.971242,-1036.288319,-9548.656652,689.485948
430.971566,-4885.359217,-9770.718434,0.000000
430.971890,-6957.935855,-9326.594869,306.438199
430.972215,-5551.544565,-9252.574275,153.219100
430.972539,-1998.556043,-9474.636058,1378.971896
430.972863,1480.411884,-9696.697840,2298.286494
430.973187,2664.741391,-9770.718434,2068.457845
430.973511,1480.411884,-10066.800811,1608.800546
430.973836,-1036.288319,-9918.759623,459.657299
430.974160,-3034.844362,-9992.780217,-229.828649
430.974484,-3404.947333,-9474.636058,-612.876398
430.974808,-592.164754,-9474.636058,-995.924147
430.975132,2664.741391,-9030.512492,-995.924147
430.975457,5477.523971,-8808.450710,-229.828649
430.975781,5699.585753,-8956.491898,0.000000
430.976105,3256.906145,-9326.594869,306.438199
430.976429,-370.102971,-9770.718434,0.000000
430.976753,-4219.173869,-9252.574275,-689.485948
430.977077,-6291.750507,-8882.471304,-383.047749
430.977402,-5181.441594,-9030.512492,-612.876398
430.977726,-1850.514855,-9474.636058,229.828649
430.978050,1406.391290,-9548.656652,459.657299
430.978375,2664.741391,-9326.594869,689.485948
430.978699,1628.453072,-9474.636058,612.876398
430.979023,-592.164754,-9918.759623,-306.438199
430.979347,-2886.803174,-9918.759623,-1302.362347
430.979672,-3034.844362,-9474.636058,-1915.238745
430.979996,-592.164754,-9400.615463,-1608.800546
430.980320,3997.112087,-9770.718434,-1378.971896
430.980645,6587.832884,-9326.594869,-459.657299
430.980969,7105.977043,-9178.553681,0.000000
430.981293,4589.276840,-9474.636058,-689.485948
430.981617,296.082377,-10214.842000,-995.924147
430.981942,-3849.070898,-10140.821405,-1762.019645
430.982266,-6587.832884,-10066.800811,-1302.362347
430.982590,-5699.585753,-10362.883188,-766.095498
430.982915,-2886.803174,-10658.965565,-612.876398
430.983239,222.061783,-10436.903782,-383.047749
430.983563,2072.576638,-10436.903782,153.219100
430.983887,1628.453072,-10658.965565,536.266849
430.984212,-814.226536,-10362.883188,0.000000
430.984536,-3256.906145,-10140.821405,-1915.238745
430.984860,-4145.153275,-10066.800811,-1072.533697
430.985185,-1554.432478,-10510.924376,-1455.581446
430.985509,2072.576638,-10066.800811,-1072.533697
430.985833,5625.565159,-9252.574275,-383.047749
430.986157,7254.018232,-9178.553681,229.828649
430.986482,6217.729913,-9770.718434,383.047749
430.986806,2368.659014,-9400.615463,0.000000
430.987130,-2294.638420,-8956.491898,-229.828649
430.987455,-5107.421000,-9252.574275,-689.485948
430.987779,-5033.400406,-9400.615463,-306.438199
430.988103,-2442.679609,-9030.512492,383.047749
430.988427,1258.350101,-9030.512492,919.314598
430.988752,2664.741391,-9400.615463,1455.581446
430.989076,1850.514855,-9474.636058,1225.752797
430.989400,-666.185348,-9844.739029,919.314598
430.989725,-3478.967927,-9696.697840,0.000000
430.990049,-4737.318029,-9844.739029,-229.828649
430.990373,-2442.679609,-9918.759623,-229.828649
430.990697,1036.288319,-9030.512492,153.219100
430.991022,4589.276840,-9030.512492,306.438199
430.991346,6217.729913,-8586.388927,612.876398
430.991670,5329.482782,-8956.491898,612.876398
430.991995,2072.576638,-9326.594869,536.266849
430.992319,-2368.659014,-9252.574275,0.000000
430.992643,-5329.482782,-9844.739029,0.000000
430.992967,-5699.585753,-9770.718434,76.609550
430.993292,-3849.070898,-9844.739029,459.657299
430.993616,-518.144159,-10214.842000,1149.143247
430.993940,2072.576638,-9918.759623,1762.019645
430.994265,2368.659014,-9844.739029,1685.410096
430.994589,518.144159,-9844.739029,1455.581446
430.994913,-1258.350101,-10140.821405,383.047749
430.995237,-2886.803174,-9770.718434,0.000000
430.995562,-2220.617826,-9622.677246,-306.438199
430.995886,444.123565,-9252.574275,-689.485948
430.996210,3775.050304,-8734.430116,-306.438199
430.996535,5995.668130,-8808.450710,0.000000
430.996859,5477.523971,-9178.553681,76.609550
430.997183,2590.720797,-9178.553681,0.000000
430.997507,-1480.411884,-9474.636058,-766.095498
430.997832,-4737.318029,-9844.739029,-459.657299
430.998156,-5477.523971,-9844.739029,0.000000
430.998480,-3330.926739,-10066.800811,76.609550
430.998805,0.000000,-10140.821405,919.314598
430.999129,2294.638420,-10436.903782,1532.190996
430.999453,3256.906145,-10214.842000,1762.019645
430.999777,1628.453072,-10807.006753,1608.800546
431.000102,-962.267725,-10807.006753,1455.581446
431.000426,-3701.029710,-10584.944971,-306.438199
431.000750,-3330.926739,-10288.862594,-919.314598
431.001075,-222.061783,-10140.821405,-766.095498
431.001399,3404.947333,-9474.636058,-612.876398
431.001723,5551.544565,-8882.471304,0.000000
431.002047,5181.441594,-8364.327145,-306.438199
431.002372,2516.700203,-8364.327145,-612.876398
431.002696,-1628.453072,-8438.347739,-766.095498
431.003020,-5329.482782,-8586.388927,-1302.362347
431.003345,-6291.750507,-9326.594869,-612.876398
431.003669,-4515.256246,-9474.636058,306.438199
431.003993,-1110.308913,-9252.574275,766.095498
431.004317,1554.432478,-9104.533087,1225.752797
431.004642,2516.700203,-8956.491898,919.314598
431.004966,1554.432478,-9844.739029,689.485948
431.005290,-1184.329507,-9622.677246,612.876398
431.005615,-2738.761985,-10214.842000,-459.657299
431.005939,-2442.679609,-10140.821405,-689.485948
431.006263,-148.041188,-9992.780217,-919.314598
431.006587,3034.844362,-9622.677246,-1302.362347
431.006912,5033.400406,-8956.491898,-1302.362347
431.007236,4737.318029,-9474.636058,-1915.238745
431.007560,2664.741391,-9548.656652,-1225.752797
431.007885,-1184.329507,-9474.636058,-1302.362347
431.008209,-4515.256246,-9622.677246,-1149.143247
431.008533,-5773.606348,-9992.780217,-1302.362347
431.008857,-4589.276840,-10214.842000,-1455.581446
431.009182,-1480.411884,-10140.821405,-229.828649
431.009506,1924.535449,-10436.903782,229.828649
431.009830,3404.947333,-10807.006753,459.657299
431.010155,1924.535449,-10584.944971,0.000000
431.010479,-1258.350101,-10955.047942,0.000000
431.010803,-3330.926739,-10955.047942,-1378.971896
431.011127,-3404.947333,-10881.027347,-1762.019645
431.011452,-1110.308913,-10066.800811,-1838.629195
431.011776,3478.967927,-9252.574275,-995.924147
431.012100,6957.935855,-9474.636058,-919.314598
431.012425,7179.997637,-9104.533087,-766.095498
431.012749,4811.338623,-9030.512492,-383.047749
431.013073,592.164754,-9326.594869,-1225.752797
431.013397,-3701.029710,-9178.553681,-1302.362347
431.013722,-5625.565159,-9474.636058,-1149.143247
431.014046,-4737.318029,-9696.697840,0.000000
431.014370,-1628.453072,-9844.739029,689.485948
431.014695,1184.329507,-10140.821405,1149.143247
431.015019,2220.617826,-9696.697840,1455.581446
431.015343,1184.329507,-9770.718434,766.095498
431.015667,-1184.329507,-10140.821405,306.438199
431.015992,-3552.988522,-10214.842000,0.000000
431.016316,-4219.173869,-9918.759623,-612.876398
431.016640,-2146.597232,-9844.739029,-536.266849
431.016965,1480.411884,-9400.615463,-306.438199
431.017289,4663.297435,-8882.471304,153.219100
431.017613,5699.585753,-8586.388927,459.657299
431.017937,4441.235652,-9104.533087,842.705048
431.018262,962.267725,-9400.615463,612.876398
431.018586,-2886.803174,-9326.594869,0.000000
431.018910,-5181.441594,-8882.471304,153.219100
431.019235,-4737.318029,-9252.574275,306.438199
431.019559,-1924.535449,-8956.491898,842.705048
431.019883,1480.411884,-9252.574275,1991.848295
431.020207,3256.906145,-9474.636058,2528.115143
431.020532,2886.803174,-9918.759623,2757.943793
431.020856,888.247130,-10214.842000,2221.676944
431.021180,-2146.597232,-9770.718434,995.924147
431.021505,-3108.864956,-9770.718434,0.000000
431.021829,-1702.473667,-9474.636058,0.000000
431.022153,1850.514855,-9178.553681,383.047749
431.022477,5107.421000,-8882.471304,766.095498
431.022802,6069.688724,-8882.471304,766.095498
431.023126,4589.276840,-9252.574275,383.047749
431.023450,1036.288319,-9474.636058,0.000000
431.023775,-3182.885551,-9474.636058,-229.828649
431.024099,-6069.688724,-9696.697840,-1149.143247
431.024423,-5921.647536,-9844.739029,306.438199
431.024747,-3330.926739,-10140.821405,766.095498
431.025072,0.000000,-10362.883188,1225.752797
431.025396,2442.679609,-10362.883188,2221.676944
431.025720,2886.803174,-10436.903782,2145.067394
431.026045,814.226536,-10140.821405,1225.752797
431.026369,-1850.514855,-10288.862594,689.485948
431.026693,-3478.967927,-9696.697840,-1302.362347
431.027017,-2590.720797,-9696.697840,-1149.143247
431.027342,296.082377,-9474.636058,-1149.143247
431.027666,3701.029710,-9104.533087,-612.876398
431.027990,5551.544565,-8438.347739,-919.314598
431.028315,4737.318029,-8364.327145,-689.485948
431.028639,2146.597232,-9178.553681,-766.095498
431.028963,-2220.617826,-8734.430116,-1608.800546
431.029287,-4959.379811,-8882.471304,-1455.581446
431.029612,-5699.585753,-8882.471304,-1149.143247
431.029936,-3478.967927,-9326.594869,-612.876398
431.030260,-370.102971,-9326.594869,229.828649
431.030585,2664.741391,-9992.780217,842.705048
431.030909,2812.782580,-10584.944971,766.095498
431.031233,814.226536,-10955.047942,306.438199
431.031557,-2220.617826,-10732.986159,-612.876398
431.031882,-4219.173869,-10584.944971,-1378.971896
431.032206,-2812.782580,-10510.924376,-1608.800546
431.032530,740.205942,-10288.862594,-1685.410096
431.032855,4589.276840,-10214.842000,-1225.752797
431.033179,6513.812290,-9696.697840,-1149.143247
431.033503,5773.606348,-9474.636058,-1302.362347
431.033827,2516.700203,-9622.677246,-1149.143247
431.034152,-1776.494261,-9548.656652,-1838.629195
431.034476,-5773.606348,-9548.656652,-1991.848295
431.034800,-6957.935855,-9474.636058,-2145.067394
431.035125,-4589.276840,-9326.594869,-612.876398
431.035449,-888.247130,-9474.636058,-459.657299
431.035773,2368.659014,-9918.759623,766.095498
431.036097,3256.906145,-9992.780217,1225.752797
431.036422,1776.494261,-9844.739029,536.266849
431.036746,-1036.288319,-9770.718434,0.000000
431.037070,-3108.864956,-10140.821405,-383.047749
431.037395,-2960.823768,-9918.759623,-919.314598
431.037719,-148.041188,-9844.739029,-536.266849
431.038043,3108.864956,-9770.718434,-766.095498
431.038367,5477.523971,-9474.636058,-919.314598
431.038692,5255.462188,-9252.574275,-459.657299
431.039016,2590.720797,-9548.656652,-383.047749
431.039340,-1628.453072,-9104.533087,-919.314598
431.039665,-5181.441594,-9252.574275,-1225.752797
431.039989,-6661.853478,-9474.636058,-995.924147
431.040313,-4959.379811,-9696.697840,-536.266849
431.040637,-1184.329507,-9844.739029,612.876398
431.040962,1924.535449,-10214.842000,1685.410096
431.041286,3404.947333,-10510.924376,2298.286494
431.041610,2368.659014,-10436.903782,2298.286494
431.041935,-222.061783,-10066.800811,1072.533697
431.042259,-2442.679609,-10066.800811,76.609550
431.042583,-2886.803174,-9992.780217,-306.438199
431.042907,-888.247130,-10066.800811,-459.657299
431.043232,2812.782580,-9548.656652,-306.438199
431.043556,5625.565159,-8734.430116,0.000000
431.043880,6143.709319,-8512.368333,306.438199
431.044205,3923.091493,-8586.388927,153.219100
431.044529,0.000000,-8882.471304,459.657299
431.044853,-3997.112087,-9474.636058,76.609550
431.045177,-5995.668130,-9400.615463,0.000000
431.045502,-4959.379811,-9400.615463,842.705048
431.045826,-1480.411884,-9696.697840,1455.581446
431.046150,2072.576638,-10066.800811,2528.115143
431.046475,3404.947333,-9918.759623,3064.381992
431.046799,2664.741391,-10288.862594,2298.286494
431.047123,0.000000,-10140.821405,1608.800546
431.047447,-2368.659014,-10066.800811,1072.533697
431.047772,-3552.988522,-10066.800811,0.000000
431.048096,-1776.494261,-10066.800811,-229.828649
431.048420,1776.494261,-9474.636058,0.000000
431.048745,4663.297435,-9030.512492,459.657299
431.049069,5181.441594,-8290.306550,459.657299
431.049393,3478.967927,-8068.244768,229.828649
431.049717,0.000000,-8808.450710,0.000000
431.050042,-3404.947333,-9548.656652,-153.219100
431.050366,-5921.647536,-9400.615463,-153.219100
431.050690,-4885.359217,-9252.574275,306.438199
431.051015,-1924.535449,-9326.594869,1072.533697
431.051339,1702.473667,-9474.636058,1532.190996
431.051663,3330.926739,-9622.677246,2145.067394
431.051987,3404.947333,-10362.883188,2068.457845
431.052312,592.164754,-10584.944971,1302.362347
431.052636,-2368.659014,-10288.862594,0.000000
431.052960,-3256.906145,-10214.842000,-689.485948
431.053285,-1850.514855,-9844.739029,-1072.533697
431.053609,1184.329507,-9400.615463,-1149.143247
431.053933,4663.297435,-8808.450710,-1072.533697
431.054257,5773.606348,-8586.388927,-306.438199
431.054582,4515.256246,-8808.450710,-842.705048
431.054906,814.226536,-9178.553681,-689.485948
431.055230,-3552.988522,-9178.553681,-1149.143247
431.055555,-6513.812290,-9622.677246,-1532.190996
431.055879,-6291.750507,-9844.739029,-995.924147
431.056203,-3108.864956,-10066.800811,0.000000
431.056527,962.267725,-10066.800811,459.657299
431.056852,3478.967927,-10955.047942,1838.629195
431.057176,3330.926739,-10881.027347,1225.752797
431.057500,962.267725,-10510.924376,76.609550
431.057824,-1924.535449,-10732.986159,-842.705048
431.058149,-3849.070898,-10658.965565,-1762.019645
431.058473,-2664.741391,-10658.965565,-1762.019645
431.058797,222.061783,-9992.780217,-1685.410096
431.059122,4367.215058,-9918.759623,-1532.190996
431.059446,5477.523971,-9178.553681,-1225.752797
431.059770,4441.235652,-8882.471304,-842.705048
431.060094,1110.308913,-8956.491898,-919.314598
431.060419,-3034.844362,-9252.574275,-1532.190996
431.060743,-5773.606348,-9104.533087,-1762.019645
431.061067,-6365.771101,-8956.491898,-1225.752797
431.061392,-3552.988522,-9400.615463,-766.095498
431.061716,518.144159,-9918.759623,306.438199
431.062040,2738.761985,-10362.883188,76.609550
431.062364,2664.741391,-10436.903782,766.095498
431.062689,740.205942,-10584.944971,459.657299
431.063013,-2072.576638,-10436.903782,-766.095498
431.063337,-3404.947333,-10881.027347,-1072.533697
431.063662,-2368.659014,-10214.842000,-1302.362347
431.063986,888.247130,-9844.739029,-1915.238745
431.064310,3775.050304,-8734.430116,-1225.752797
431.064634,6069.688724,-8956.491898,-919.314598
431.064959,5107.421000,-8660.409521,-766.095498
431.065283,1998.556043,-9252.574275,-612.876398
431.065607,-2294.638420,-9622.677246,-995.924147
431.065932,-5625.565159,-9622.677246,-1532.190996
431.066256,-6217.729913,-9474.636058,-1072.533697
431.066580,-3701.029710,-10214.842000,0.000000
431.066904,-222.061783,-10214.842000,1302.362347
431.067229,2812.782580,-10436.903782,1532.190996
431.067553,3627.009116,-10362.883188,1991.848295
431.067877,2368.659014,-10584.944971,1532.190996
431.068202,-148.041188,-10288.862594,842.705048
431.068526,-2220.617826,-10214.842000,153.219100
431.068850,-1776.494261,-10955.047942,-612.876398
431.069174,148.041188,-9918.759623,-995.924147
431.069499,3182.885551,-9400.615463,-766.095498
431.069823,5033.400406,-8660.409521,-459.657299
431.070147,4811.338623,-8364.327145,0.000000
431.070472,2220.617826,-8660.409521,153.219100
431.070796,-1036.288319,-9104.533087,76.609550
431.071120,-4367.215058,-9104.533087,0.000000
431.071444,-5699.585753,-9030.512492,383.047749
431.071769,-4293.194464,-9548.656652,689.485948
431.072093,-888.247130,-9622.677246,1838.629195
431.072417,2146.597232,-9992.780217,2145.067394
431.072742,3034.844362,-10066.800811,2451.505594
431.073066,1924.535449,-10288.862594,1915.238745
431.073390,-814.226536,-10214.842000,536.266849
431.073714,-3330.926739,-9844.739029,0.000000
431.074039,-3108.864956,-9844.739029,-612.876398
431.074363,-962.267725,-9326.594869,-766.095498
431.074687,2664.741391,-8808.450710,-153.219100
431.075012,5403.503377,-8142.265362,306.438199
431.075336,5699.585753,-7994.224174,76.609550
431.075660,3478.967927,-8364.327145,153.219100
431.075984,-370.102971,-9326.594869,229.828649
431.076309,-4071.132681,-9918.759623,0.000000
431.076633,-5847.626942,-10066.800811,459.657299
431.076957,-4737.318029,-9918.759623,306.438199
431.077282,-1110.308913,-10584.944971,1762.019645
431.077606,2368.659014,-10436.903782,1532.190996
431.077930,4441.235652,-10881.027347,2757.943793
431.078254,3552.988522,-10881.027347,2145.067394
431.078579,962.267725,-10658.965565,919.314598
431.078903,-2146.597232,-10288.862594,0.000000
431.079227,-3330.926739,-10436.903782,-1302.362347
431.079551,-2368.659014,-9992.780217,-1072.533697
431.079875,1036.288319,-9770.718434,-1225.752797
431.080199,4219.173869,-9400.615463,-536.266849
431.080524,4737.318029,-8808.450710,-383.047749
431.080848,2812.782580,-8586.388927,-536.266849
431.081172,-740.205942,-9400.615463,-459.657299
431.081496,-3627.009116,-9844.739029,-536.266849
431.081820,-6143.709319,-9474.636058,229.828649
431.082144,-5921.647536,-8882.471304,229.828649
431.082469,-2812.782580,-9178.553681,229.828649
431.082793,592.164754,-9844.739029,1302.362347
431.083117,2812.782580,-10658.965565,1608.800546
431.083441,2516.700203,-10584.944971,1532.190996
431.083765,74.020594,-10436.903782,689.485948
431.084089,-2590.720797,-9548.656652,76.609550
431.084414,-3182.885551,-9622.677246,-1532.190996
431.084738,-1480.411884,-9622.677246,-1762.019645
431.085062,1850.514855,-9252.574275,-1302.362347
431.085386,5107.421000,-8808.450710,-995.924147
431.085710,5921.647536,-7772.162391,-612.876398
431.086035,4515.256246,-7846.182985,-766.095498
431.086359,1332.370696,-8734.430116,-383.047749
431.086683,-2960.823768,-9178.553681,-995.924147
431.087007,-5477.523971,-9918.759623,-383.047749
431.087331,-5477.523971,-9474.636058,76.609550
431.087655,-2442.679609,-9326.594869,536.266849
431.087980,1776.494261,-9770.718434,612.876398
431.088304,4145.153275,-9696.697840,1072.533697
431.088628,3552.988522,-10066.800811,1378.971896
431.088952,1480.411884,-10214.842000,229.828649
431.089276,-1554.432478,-9918.759623,-919.314598
431.089600,-3404.947333,-9252.574275,-2221.676944
431.089925,-2664.741391,-9474.636058,-2298.286494
431.090249,518.144159,-9770.718434,-2068.457845
431.090573,3997.112087,-9696.697840,-1532.190996
431.090897,5255.462188,-9400.615463,-612.876398
431.091221,4663.297435,-9326.594869,-306.438199
431.091545,1628.453072,-9400.615463,-306.438199
431.091870,-2442.679609,-9770.718434,-689.485948
431.092194,-6291.750507,-9918.759623,-1378.971896
431.092518,-6439.791695,-10658.965565,-842.705048
431.092842,-4071.132681,-10881.027347,-229.828649
431.093166,-740.205942,-10807.006753,229.828649
431.093491,1184.329507,-11029.068536,766.095498
431.093815,1924.535449,-11325.150913,229.828649
431.094139,74.020594,-11103.089130,153.219100
431.094463,-2146.597232,-11547.212695,-612.876398
431.094787,-3627.009116,-11029.068536,-1302.362347
431.095111,-2664.741391,-10658.965565,-1378.971896
431.095436,814.226536,-10288.862594,-1072.533697
431.095760,4367.215058,-9474.636058,-459.657299
431.096084,6365.771101,-9030.512492,0.000000
431.096408,5625.565159,-8512.368333,383.047749
431.096732,2294.638420,-8586.388927,76.609550
431.097056,-1554.432478,-9252.574275,0.000000
431.097381,-4811.338623,-9252.574275,-306.438199
431.097705,-5699.585753,-9696.697840,76.609550
431.098029,-3478.967927,-9548.656652,536.266849
431.098353,0.000000,-9474.636058,1378.971896
431.098677,2664.741391,-9474.636058,2221.676944
431.099001,4071.132681,-9696.697840,2298.286494
431.099326,2368.659014,-9548.656652,1991.848295
431.099650,-296.082377,-9844.739029,1149.143247
431.099974,-2442.679609,-9992.780217,459.657299
431.100298,-2072.576638,-9770.718434,76.609550
431.100622,296.082377,-9474.636058,153.219100
431.100947,3478.967927,-8808.450710,612.876398
431.101271,5625.565159,-8068.244768,689.485948
431.101595,5477.523971,-7698.141797,1532.190996
431.101919,2812.782580,-8808.450710,1455.581446
431.102243,-740.205942,-8882.471304,1072.533697
431.102567,-4663.297435,-9252.574275,995.924147
431.102892,-6069.688724,-9252.574275,689.485948
431.103216,-4885.359217,-8808.450710,1072.533697
431.103540,-1628.453072,-9474.636058,1991.848295
431.103864,1702.473667,-9474.636058,2757.943793
431.104188,2886.803174,-9844.739029,2604.724693
431.104512,1406.391290,-9918.759623,1838.629195
431.104837,-1110.308913,-9696.697840,612.876398
431.105161,-3034.844362,-9474.636058,0.000000
431.105485,-3478.967927,-9474.636058,-536.266849
431.105809,-1258.350101,-9326.594869,-1072.533697
431.106133,2294.638420,-8956.491898,-153.219100
431.106457,4663.297435,-8512.368333,76.609550
431.106782,4959.379811,-8734.430116,0.000000
431.107106,2516.700203,-9030.512492,-153.219100
431.107430,-1406.391290,-9696.697840,-612.876398
431.107754,-4737.318029,-10362.883188,-612.876398
431.108078,-6143.709319,-10584.944971,-1072.533697
431.108403,-5181.441594,-10584.944971,-153.219100
431.108727,-2072.576638,-10584.944971,0.000000
431.109051,1850.514855,-10436.903782,536.266849
431.109375,3478.967927,-11103.089130,766.095498
431.109699,2886.803174,-11399.171507,459.657299
431.110023,518.144159,-11621.233289,-306.438199
431.110348,-2072.576638,-10807.006753,-1225.752797
431.110672,-2738.761985,-9992.780217,-2145.067394
431.110996,-592.164754,-10584.944971,-2298.286494
431.111320,2368.659014,-9992.780217,-2068.457845
431.111644,4959.379811,-9400.615463,-1838.629195
431.111968,5847.626942,-8956.491898,-1302.362347
431.112293,3997.112087,-8956.491898,-1455.581446
431.112617,444.123565,-9474.636058,-1608.800546
431.112941,-3478.967927,-9400.615463,-1455.581446
431.113265,-5477.523971,-9252.574275,-1302.362347
431.113589,-4959.379811,-9474.636058,-1149.143247
431.113913,-1850.514855,-10214.842000,-689.485948
431.114238,1184.329507,-10214.842000,0.000000
431.114562,2664.741391,-10140.821405,383.047749
431.114886,2294.638420,-10436.903782,306.438199
431.115210,0.000000,-10658.965565,-766.095498
431.115534,-2368.659014,-10436.903782,-1225.752797
431.115858,-3182.885551,-9474.636058,-1455.581446
431.116183,-1850.514855,-9252.574275,-1838.629195
431.116507,1184.329507,-9104.533087,-1838.629195
431.116831,3923.091493,-8882.471304,-1608.800546
431.117155,4737.318029,-8512.368333,-1072.533697
431.117479,3256.906145,-8660.409521,-842.705048
431.117804,0.000000,-8956.491898,-1149.143247
431.118128,-4145.153275,-8808.450710,-1378.971896
431.118452,-6661.853478,-8956.491898,-1149.143247
431.118776,-5921.647536,-9326.594869,0.000000
431.119100,-2812.782580,-9770.718434,229.828649
431.119424,814.226536,-9548.656652,995.924147
431.119749,3404.947333,-9992.780217,1685.410096
431.120073,3404.947333,-10214.842000,1302.362347
431.120397,888.247130,-9918.759623,153.219100
431.120721,-1924.535449,-10066.800811,0.000000
431.121045,-3330.926739,-10362.883188,-459.657299
431.121369,-1924.535449,-10658.965565,-1532.190996
431.121694,1036.288319,-10066.800811,-842.705048
431.122018,4071.132681,-9770.718434,-383.047749
431.122342,5255.462188,-9474.636058,153.219100
431.122666,4367.215058,-9252.574275,306.438199
431.122990,1776.494261,-9992.780217,383.047749
431.123314,-2146.597232,-10066.800811,459.657299
431.123639,-4663.297435,-10140.821405,383.047749
431.123963,-4441.235652,-10510.924376,766.095498
431.124287,-2072.576638,-10362.883188,1302.362347
431.124611,1258.350101,-10436.903782,1838.629195
431.124935,3182.885551,-10436.903782,2374.896044
431.125260,3478.967927,-11251.130318,2221.676944
431.125584,1480.411884,-10881.027347,1838.629195
431.125908,-1184.329507,-10140.821405,842.705048
431.126232,-2886.803174,-9474.636058,153.219100
431.126556,-2146.597232,-9474.636058,-229.828649
431.126880,814.226536,-9178.553681,-383.047749
431.127205,3775.050304,-8216.285956,0.000000
431.127529,5625.565159,-7846.182985,612.876398
431.127853,4959.379811,-7846.182985,995.924147
431.128177,2220.617826,-8290.306550,1378.971896
431.128501,-1554.432478,-8216.285956,612.876398
431.128825,-5033.400406,-8660.409521,229.828649
431.129150,-5847.626942,-8882.471304,306.438199
431.129474,-3701.029710,-9474.636058,1149.143247
431.129798,0.000000,-9474.636058,1991.848295
431.130122,3478.967927,-9474.636058,2528.115143
431.130446,3849.070898,-9326.594869,2528.115143
431.130770,1702.473667,-9770.718434,1378.971896
431.131095,-1258.350101,-9622.677246,536.266849
431.131419,-3997.112087,-9844.739029,-383.047749
431.131743,-3997.112087,-9844.739029,-995.924147
431.132067,-1184.329507,-9622.677246,-919.314598
431.132391,1776.494261,-9030.512492,-383.047749
431.132716,4737.318029,-8290.306550,0.000000
431.133040,4737.318029,-8364.327145,229.828649
431.133364,1998.556043,-8956.491898,-612.876398
431.133688,-1554.432478,-9326.594869,-766.095498
431.134012,-4737.318029,-9474.636058,-766.095498
431.134336,-5329.482782,-9844.739029,-612.876398
431.134661,-3627.009116,-10066.800811,-229.828649
431.134985,0.000000,-10510.924376,536.266849
431.135309,2368.659014,-10362.883188,995.924147
431.135633,2960.823768,-11103.089130,1149.143247
431.135957,1258.350101,-10807.006753,229.828649
431.136281,-1628.453072,-10807.006753,-459.657299
431.136606,-3775.050304,-10732.986159,-1378.971896
431.136930,-3330.926739,-10732.986159,-2374.896044
431.137254,-962.267725,-9918.759623,-2221.676944
431.137578,2294.638420,-9252.574275,-2374.896044
431.137902,4811.338623,-9104.533087,-1302.362347
431.138226,5033.400406,-8882.471304,-1685.410096
431.138551,3182.885551,-9400.615463,-1378.971896
431.138875,-592.164754,-10214.842000,-1608.800546
431.139199,-3849.070898,-10510.924376,-1915.238745
431.139523,-5033.400406,-10658.965565,-1685.410096
431.139847,-3256.906145,-10510.924376,-995.924147
431.140171,-222.061783,-10807.006753,0.000000
431.140496,2664.741391,-10732.986159,306.438199
431.140820,4367.215058,-11177.109724,306.438199
431.141144,2812.782580,-10584.944971,306.438199
431.141468,0.000000,-10436.903782,-536.266849
431.141792,-2886.803174,-10140.821405,-1532.190996
431.142117,-3775.050304,-9696.697840,-2298.286494
431.142441,-1554.432478,-9326.594869,-1838.629195
431.142765,1850.514855,-8512.368333,-1685.410096
431.143089,4663.297435,-8956.491898,-1685.410096
431.143413,4959.379811,-8586.388927,-919.314598
431.143737,3552.988522,-8956.491898,-919.314598
431.144062,74.020594,-9030.512492,-689.485948
431.144386,-3404.947333,-9178.553681,-1225.752797
431.144710,-5255.462188,-9548.656652,-459.657299
431.145034,-4737.318029,-9400.615463,-229.828649
431.145358,-1332.370696,-9770.718434,1149.143247
431.145682,1998.556043,-10214.842000,1762.019645
431.146007,2886.803174,-10066.800811,1991.848295
431.146331,1776.494261,-10066.800811,1762.019645
431.146655,-1036.288319,-9844.739029,995.924147
431.146979,-3627.009116,-9400.615463,0.000000
431.147303,-4441.235652,-9030.512492,-459.657299
431.147627,-2220.617826,-9178.553681,-919.314598
431.147952,962.267725,-8438.347739,0.000000
431.148276,3627.009116,-7920.203579,-229.828649
431.148600,4737.318029,-7698.141797,-153.219100
431.148924,3108.864956,-8660.409521,0.000000
431.149248,0.000000,-9474.636058,0.000000
431.149573,-3552.988522,-9770.718434,0.000000
431.149897,-5625.565159,-9622.677246,383.047749
431.150221,-4219.173869,-10436.903782,1072.533697
431.150545,-1480.411884,-10658.965565,1608.800546
431.150869,2220.617826,-10732.986159,2374.896044
431.151193,4293.194464,-10658.965565,2911.162892
431.151518,4367.215058,-10732.986159,2451.505594
431.151842,2294.638420,-10658.965565,1532.190996
431.152166,-962.267725,-10214.842000,1072.533697
431.152490,-3182.885551,-9844.739029,-306.438199
431.152814,-2072.576638,-9918.759623,-612.876398
431.153138,814.226536,-10066.800811,-842.705048
431.153463,3627.009116,-9104.533087,-459.657299
431.153787,4959.379811,-8808.450710,0.000000
