#time,accel_x,accel_y,accel_z
356.259912,5255.462188,-7402.059420,2221.676944
356.260236,6439.791695,-7402.059420,3677.258390
356.260560,7105.977043,-9622.677246,4136.915689
356.260884,6143.709319,-11177.109724,1915.238745
356.261208,3108.864956,-10807.006753,-229.828649
356.261532,222.061783,-10658.965565,-2068.457845
356.261856,-370.102971,-12731.542202,-766.095498
356.262180,-740.205942,-14211.954086,-766.095498
356.262504,-1554.432478,-13693.809927,536.266849
356.262828,-1776.494261,-10436.903782,153.219100
356.263152,-2220.617826,-8290.306550,-919.314598
356.263476,-1924.535449,-7624.121203,-1225.752797
356.263800,-814.226536,-7328.038826,-612.876398
356.264124,444.123565,-7772.162391,-919.314598
356.264448,0.000000,-7031.956449,536.266849
356.264772,1258.350101,-7402.059420,919.314598
356.265096,3701.029710,-9178.553681,1149.143247
356.265420,4663.297435,-11399.171507,1302.362347
356.265744,4737.318029,-12657.521608,153.219100
356.266068,3997.112087,-12583.501014,-536.266849
356.266392,2590.720797,-12213.398043,-2068.457845
356.266716,814.226536,-11769.274478,-1991.848295
356.267040,-1480.411884,-11621.233289,-1991.848295
356.267364,-2146.597232,-11695.253884,-2374.896044
356.267688,-2664.741391,-10955.047942,-1762.019645
356.268011,-2664.741391,-10066.800811,-1532.190996
356.268335,-1998.556043,-8882.471304,-689.485948
356.268659,-222.061783,-8142.265362,229.828649
356.268983,444.123565,-8068.244768,306.438199
356.269307,962.267725,-8808.450710,1915.238745
356.269631,814.226536,-8882.471304,1225.752797
356.269955,1554.432478,-8734.430116,1149.143247
356.270279,2812.782580,-9400.615463,612.876398
356.270603,3256.906145,-9992.780217,-689.485948
356.270927,2294.638420,-10436.903782,-919.314598
356.271251,666.185348,-11399.171507,-1149.143247
356.271575,-370.102971,-11251.130318,-919.314598
356.271899,74.020594,-10066.800811,-383.047749
356.272223,-370.102971,-9178.553681,0.000000
356.272547,296.082377,-9178.553681,459.657299
356.272871,1702.473667,-9252.574275,1608.800546
356.273195,3256.906145,-9104.533087,2834.553343
356.273519,4145.153275,-9030.512492,3600.648841
356.273843,3701.029710,-9030.512492,3677.258390
356.274167,2664.741391,-9030.512492,2911.162892
356.274491,1036.288319,-9252.574275,2145.067394
356.274815,-740.205942,-9474.636058,1225.752797
356.275139,-2516.700203,-10658.965565,459.657299
356.275463,-3108.864956,-11177.109724,-229.828649
356.275787,-2960.823768,-10140.821405,0.000000
356.276111,-2516.700203,-8882.471304,383.047749
356.276435,-1628.453072,-8808.450710,919.314598
356.276759,-740.205942,-9030.512492,1608.800546
356.277083,444.123565,-8216.285956,3064.381992
356.277407,962.267725,-8290.306550,3907.087040
356.277731,1998.556043,-7994.224174,3907.087040
356.278055,2220.617826,-8512.368333,4213.525239
356.278379,2072.576638,-9104.533087,4596.572988
356.278703,1258.350101,-8956.491898,3370.820191
356.279027,-222.061783,-8586.388927,2145.067394
356.279351,-1998.556043,-8364.327145,1378.971896
356.279675,-3552.988522,-7846.182985,-229.828649
356.279998,-4219.173869,-9252.574275,-766.095498
356.280322,-3627.009116,-10066.800811,-1149.143247
356.280646,-3552.988522,-9696.697840,-919.314598
356.280970,-2368.659014,-9474.636058,76.609550
356.281294,-592.164754,-9770.718434,1608.800546
356.281618,222.061783,-9474.636058,612.876398
356.281942,1850.514855,-9992.780217,1072.533697
356.282266,2516.700203,-10436.903782,1915.238745
356.282590,2812.782580,-11473.192101,1532.190996
356.282914,2442.679609,-11473.192101,995.924147
356.283238,1554.432478,-11399.171507,612.876398
356.283562,814.226536,-11473.192101,-383.047749
356.283886,0.000000,-11251.130318,-1685.410096
356.284210,-888.247130,-11399.171507,-2221.676944
356.284534,-666.185348,-11029.068536,-2145.067394
356.284858,222.061783,-10510.924376,-2221.676944
356.285182,1036.288319,-10436.903782,-1685.410096
356.285506,1258.350101,-10066.800811,-1072.533697
356.285830,1480.411884,-9030.512492,-842.705048
356.286154,1332.370696,-9400.615463,-842.705048
356.286478,1110.308913,-9030.512492,-1072.533697
356.286802,666.185348,-9326.594869,-1685.410096
356.287126,592.164754,-8956.491898,-1225.752797
356.287450,-296.082377,-8586.388927,-1762.019645
356.287774,-1406.391290,-8660.409521,-2451.505594
356.288098,-1776.494261,-9178.553681,-2451.505594
356.288422,-1776.494261,-9548.656652,-2528.115143
356.288746,-1628.453072,-9992.780217,-3140.991542
356.289070,-740.205942,-9548.656652,-2528.115143
356.289394,444.123565,-9844.739029,-1991.848295
356.289718,1184.329507,-10140.821405,-1762.019645
356.290042,1480.411884,-10658.965565,-1608.800546
356.290366,1480.411884,-10955.047942,-1302.362347
356.290690,1406.391290,-10955.047942,-689.485948
356.291014,962.267725,-10510.924376,-1532.190996
356.291338,666.185348,-10584.944971,-1685.410096
356.291662,296.082377,-9844.739029,-1302.362347
356.291986,74.020594,-10288.862594,-1762.019645
356.292310,0.000000,-10066.800811,-1608.800546
356.292634,0.000000,-9696.697840,-1455.581446
356.292958,0.000000,-9252.574275,-1149.143247
356.293282,74.020594,-8734.430116,-995.924147
356.293606,592.164754,-9252.574275,-612.876398
356.293930,740.205942,-9178.553681,-229.828649
356.294254,370.102971,-9474.636058,-383.047749
356.294578,0.000000,-9696.697840,0.000000
356.294902,-518.144159,-9474.636058,0.000000
356.295226,-1332.370696,-9252.574275,0.000000
356.295551,-1998.556043,-9474.636058,153.219100
356.295875,-2442.679609,-9548.656652,0.000000
356.296199,-2960.823768,-9030.512492,-153.219100
356.296523,-2516.700203,-8882.471304,76.609550
356.296847,-2368.659014,-9252.574275,306.438199
356.297171,-2294.638420,-9178.553681,306.438199
356.297495,-1850.514855,-9400.615463,766.095498
356.297819,-1628.453072,-10066.800811,766.095498
356.298143,-962.267725,-9844.739029,1225.752797
356.298467,-592.164754,-9992.780217,995.924147
356.298791,-148.041188,-9918.759623,1685.410096
356.299115,666.185348,-9992.780217,1455.581446
356.299439,740.205942,-10658.965565,1149.143247
356.299763,592.164754,-10510.924376,1455.581446
356.300087,814.226536,-10362.883188,1072.533697
356.300411,814.226536,-9770.718434,1302.362347
356.300735,1406.391290,-9400.615463,689.485948
356.301059,1776.494261,-9918.759623,1532.190996
356.301383,1332.370696,-9104.533087,1532.190996
356.301707,1184.329507,-9252.574275,1608.800546
356.302031,1184.329507,-9770.718434,1302.362347
356.302355,962.267725,-9696.697840,1302.362347
356.302679,740.205942,-9474.636058,1225.752797
356.303004,962.267725,-9622.677246,1455.581446
356.303328,296.082377,-9474.636058,1455.581446
356.303652,0.000000,-9178.553681,919.314598
356.303976,-222.061783,-9104.533087,1225.752797
356.304300,-444.123565,-9030.512492,689.485948
356.304624,-222.061783,-8882.471304,995.924147
356.304948,-296.082377,-8882.471304,842.705048
356.305272,-296.082377,-9104.533087,919.314598
356.305596,74.020594,-8882.471304,306.438199
356.305920,-222.061783,-8438.347739,459.657299
356.306244,0.000000,-9178.553681,76.609550
356.306568,-222.061783,-9400.615463,306.438199
356.306892,0.000000,-9548.656652,383.047749
356.307216,444.123565,-9548.656652,229.828649
356.307540,666.185348,-9622.677246,153.219100
356.307864,814.226536,-9474.636058,229.828649
356.308188,1036.288319,-8956.491898,-306.438199
356.308512,1332.370696,-9400.615463,0.000000
356.308836,1184.329507,-9696.697840,0.000000
356.309160,1332.370696,-9770.718434,-229.828649
356.309484,1258.350101,-9844.739029,-229.828649
356.309808,1110.308913,-10066.800811,-383.047749
356.310132,888.247130,-9918.759623,-229.828649
356.310456,518.144159,-9992.780217,-383.047749
356.310781,148.041188,-9918.759623,-306.438199
356.311105,-222.061783,-10288.862594,-383.047749
356.311429,-814.226536,-10214.842000,-766.095498
356.311753,-962.267725,-9992.780217,-766.095498
356.312077,-1036.288319,-9696.697840,-842.705048
356.312401,-1258.350101,-9548.656652,-766.095498
356.312725,-1480.411884,-8956.491898,-766.095498
356.313049,-1110.308913,-9104.533087,-459.657299
356.313373,-1702.473667,-8882.471304,-1378.971896
356.313697,-1776.494261,-9474.636058,-1762.019645
356.314021,-1850.514855,-9622.677246,-1225.752797
356.314345,-2220.617826,-9622.677246,-1532.190996
356.314669,-2590.720797,-9770.718434,-1838.629195
356.314993,-2886.803174,-9992.780217,-1608.800546
356.315317,-2368.659014,-10214.842000,-1608.800546
356.315641,-2146.597232,-10066.800811,-1685.410096
356.315965,-1332.370696,-9696.697840,-766.095498
356.316289,-814.226536,-9918.759623,-1149.143247
356.316613,-296.082377,-10066.800811,-1149.143247
356.316937,296.082377,-10214.842000,-1302.362347
356.317261,740.205942,-10362.883188,-1072.533697
356.317585,1480.411884,-10658.965565,-612.876398
356.317909,1406.391290,-10584.944971,-536.266849
356.318234,1480.411884,-10807.006753,-1532.190996
356.318558,1406.391290,-10955.047942,-919.314598
356.318882,1184.329507,-11177.109724,-1072.533697
356.319206,1036.288319,-11325.150913,-842.705048
356.319530,814.226536,-10658.965565,-766.095498
356.319854,666.185348,-10658.965565,-306.438199
356.320178,1110.308913,-9770.718434,-229.828649
356.320502,1110.308913,-9178.553681,0.000000
356.320826,1258.350101,-9474.636058,306.438199
356.321150,740.205942,-8882.471304,153.219100
356.321474,592.164754,-8808.450710,153.219100
356.321798,74.020594,-8512.368333,153.219100
356.322122,0.000000,-8586.388927,76.609550
356.322446,0.000000,-8734.430116,0.000000
356.322770,-444.123565,-8882.471304,-612.876398
356.323094,-296.082377,-9252.574275,153.219100
356.323418,-592.164754,-9030.512492,229.828649
356.323742,-740.205942,-9178.553681,536.266849
356.324066,-592.164754,-9030.512492,612.876398
356.324390,-148.041188,-9178.553681,766.095498
356.324714,0.000000,-8734.430116,1455.581446
356.325038,222.061783,-9178.553681,1225.752797
356.325362,740.205942,-9548.656652,1378.971896
356.325687,592.164754,-9326.594869,995.924147
356.326011,740.205942,-9474.636058,1225.752797
356.326335,888.247130,-9474.636058,1225.752797
356.326659,444.123565,-9918.759623,1149.143247
356.326983,370.102971,-10066.800811,919.314598
356.327307,592.164754,-9918.759623,1455.581446
356.327631,592.164754,-9770.718434,1072.533697
356.327955,888.247130,-9548.656652,1225.752797
356.328279,370.102971,-9992.780217,1378.971896
356.328603,370.102971,-9474.636058,1149.143247
356.328927,296.082377,-9474.636058,1302.362347
356.329251,0.000000,-9548.656652,1302.362347
356.329575,-148.041188,-9474.636058,1991.848295
356.329899,-222.061783,-9622.677246,1225.752797
356.330223,-888.247130,-9178.553681,1302.362347
356.330547,-888.247130,-9178.553681,1072.533697
356.330871,-962.267725,-9474.636058,536.266849
356.331195,-1406.391290,-9400.615463,306.438199
356.331519,-1628.453072,-9474.636058,306.438199
356.331843,-1628.453072,-9548.656652,0.000000
356.332167,-1628.453072,-9326.594869,229.828649
356.332491,-1480.411884,-9030.512492,-459.657299
356.332815,-1554.432478,-9622.677246,0.000000
356.333140,-1258.350101,-9548.656652,153.219100
356.333464,-1628.453072,-9696.697840,0.000000
356.333788,-1110.308913,-9770.718434,0.000000
356.334112,-518.144159,-9696.697840,0.000000
356.334436,148.041188,-9548.656652,0.000000
356.334760,814.226536,-9992.780217,-536.266849
356.335084,1110.308913,-10066.800811,-612.876398
356.335408,1184.329507,-10140.821405,-612.876398
356.335732,1406.391290,-10140.821405,-842.705048
356.336056,1184.329507,-10140.821405,-766.095498
356.336380,1110.308913,-10140.821405,-919.314598
356.336704,1406.391290,-10288.862594,-536.266849
356.337028,1628.453072,-10214.842000,-842.705048
356.337352,1924.535449,-11177.109724,-689.485948
356.337676,1406.391290,-9844.739029,-229.828649
356.338000,962.267725,-9548.656652,-536.266849
356.338324,740.205942,-9770.718434,-612.876398
356.338648,296.082377,-9622.677246,-919.314598
356.338972,74.020594,-9400.615463,-842.705048
356.339296,0.000000,-9030.512492,-995.924147
356.339620,74.020594,-9104.533087,-1072.533697
356.339944,-518.144159,-8586.388927,-1072.533697
356.340268,0.000000,-9326.594869,-1072.533697
356.340593,-592.164754,-9252.574275,-1225.752797
356.340917,-740.205942,-9474.636058,-1532.190996
356.341241,-1184.329507,-9326.594869,-1455.581446
356.341565,-1184.329507,-9474.636058,-1149.143247
356.341889,-888.247130,-9474.636058,-1378.971896
356.342213,-740.205942,-9770.718434,-919.314598
356.342537,-222.061783,-9696.697840,-995.924147
356.342861,370.102971,-9992.780217,-689.485948
356.343185,444.123565,-10214.842000,-612.876398
356.343509,666.185348,-10214.842000,-459.657299
356.343833,888.247130,-10362.883188,-383.047749
356.344157,1036.288319,-9992.780217,0.000000
356.344481,666.185348,-10362.883188,76.609550
356.344805,1110.308913,-10288.862594,153.219100
356.345129,1036.288319,-10584.944971,-306.438199
356.345453,666.185348,-10436.903782,0.000000
356.345777,148.041188,-10436.903782,0.000000
356.346101,0.000000,-10214.842000,0.000000
356.346425,-296.082377,-10066.800811,689.485948
356.346749,-518.144159,-9474.636058,383.047749
356.347073,-444.123565,-9474.636058,153.219100
356.347397,-962.267725,-9252.574275,689.485948
356.347721,-814.226536,-9400.615463,689.485948
356.348046,-1332.370696,-9104.533087,306.438199
356.348370,-1480.411884,-8808.450710,459.657299
356.348694,-1702.473667,-8734.430116,689.485948
356.349018,-1480.411884,-8808.450710,689.485948
356.349342,-1554.432478,-8882.471304,766.095498
356.349666,-1110.308913,-9326.594869,995.924147
356.349990,-1776.494261,-8808.450710,383.047749
356.350314,-1850.514855,-9178.553681,612.876398
356.350638,-1628.453072,-9474.636058,536.266849
356.350962,-1258.350101,-9548.656652,612.876398
356.351286,-888.247130,-9548.656652,689.485948
356.351610,-666.185348,-9400.615463,536.266849
356.351934,0.000000,-9400.615463,1072.533697
356.352258,592.164754,-9770.718434,919.314598
356.352582,814.226536,-9844.739029,842.705048
356.352906,1036.288319,-9474.636058,689.485948
356.353230,1332.370696,-9474.636058,689.485948
356.353554,1480.411884,-9770.718434,766.095498
356.353878,1258.350101,-9770.718434,306.438199
356.354202,1110.308913,-9844.739029,153.219100
356.354526,1406.391290,-9696.697840,766.095498
356.354850,1332.370696,-10066.800811,383.047749
356.355174,1036.288319,-10066.800811,459.657299
356.355498,1406.391290,-10288.862594,306.438199
356.355823,1184.329507,-10066.800811,383.047749
356.356147,1110.308913,-9844.739029,689.485948
356.356471,666.185348,-9918.759623,153.219100
356.356795,814.226536,-9326.594869,229.828649
356.357119,296.082377,-9326.594869,459.657299
356.357443,370.102971,-9474.636058,0.000000
356.357767,296.082377,-9474.636058,0.000000
356.358091,148.041188,-9252.574275,-153.219100
356.358415,0.000000,-9326.594869,-229.828649
356.358739,0.000000,-9178.553681,-612.876398
356.359063,0.000000,-9548.656652,-153.219100
356.359387,-296.082377,-9622.677246,0.000000
356.359711,-1036.288319,-9622.677246,-612.876398
356.360035,-666.185348,-9400.615463,-766.095498
356.360359,-740.205942,-9548.656652,-383.047749
356.360683,-740.205942,-9696.697840,-383.047749
356.361007,0.000000,-9696.697840,-383.047749
356.361331,444.123565,-9400.615463,229.828649
356.361655,666.185348,-9474.636058,536.266849
356.361979,666.185348,-9622.677246,0.000000
356.362303,1110.308913,-9844.739029,0.000000
356.362627,518.144159,-9918.759623,-383.047749
356.362951,592.164754,-9992.780217,-306.438199
356.363276,222.061783,-10140.821405,-536.266849
356.363600,370.102971,-10288.862594,-536.266849
356.363924,444.123565,-10510.924376,0.000000
356.364248,148.041188,-10214.842000,383.047749
356.364572,-518.144159,-9844.739029,-689.485948
356.364896,-814.226536,-9844.739029,-383.047749
356.365220,-1258.350101,-9622.677246,-306.438199
356.365544,-1258.350101,-9178.553681,-459.657299
356.365868,-1258.350101,-9104.533087,-383.047749
356.366192,-1258.350101,-8882.471304,0.000000
356.366516,-1036.288319,-8882.471304,-306.438199
356.366840,-962.267725,-9474.636058,-383.047749
356.367164,-1332.370696,-8734.430116,0.000000
356.367488,-1628.453072,-9104.533087,-536.266849
356.367812,-1628.453072,-9326.594869,-766.095498
356.368136,-1628.453072,-9474.636058,-612.876398
356.368460,-1702.473667,-9770.718434,-689.485948
356.368784,-1480.411884,-9400.615463,-766.095498
356.369108,-1184.329507,-9770.718434,-1302.362347
356.369432,-444.123565,-9992.780217,-1225.752797
356.369756,518.144159,-10066.800811,-153.219100
356.370080,740.205942,-9844.739029,0.000000
356.370404,740.205942,-10288.862594,-229.828649
356.370729,814.226536,-10436.903782,-229.828649
356.371053,1184.329507,-10510.924376,0.000000
356.371377,1406.391290,-10658.965565,0.000000
356.371701,1480.411884,-10436.903782,459.657299
356.372025,1702.473667,-11029.068536,0.000000
356.372349,1702.473667,-10436.903782,0.000000
356.372673,1406.391290,-10584.944971,-459.657299
356.372997,962.267725,-10214.842000,0.000000
356.373321,814.226536,-10140.821405,0.000000
356.373645,592.164754,-9918.759623,0.000000
356.373969,592.164754,-9844.739029,459.657299
356.374293,666.185348,-9400.615463,229.828649
356.374617,296.082377,-9252.574275,0.000000
356.374941,0.000000,-8290.306550,306.438199
356.375265,0.000000,-8956.491898,76.609550
356.375589,0.000000,-8882.471304,229.828649
356.375913,-296.082377,-9030.512492,229.828649
356.376237,-296.082377,-9030.512492,459.657299
356.376561,-814.226536,-8882.471304,153.219100
356.376885,-296.082377,-9474.636058,153.219100
356.377209,-296.082377,-9326.594869,612.876398
356.377533,-666.185348,-9178.553681,536.266849
356.377857,0.000000,-9474.636058,536.266849
356.378182,370.102971,-9474.636058,536.266849
356.378506,444.123565,-9474.636058,689.485948
356.378830,444.123565,-9474.636058,919.314598
356.379154,666.185348,-10066.800811,766.095498
356.379478,740.205942,-9696.697840,766.095498
356.379802,740.205942,-9844.739029,612.876398
356.380126,444.123565,-9474.636058,612.876398
356.380450,444.123565,-9696.697840,306.438199
356.380774,370.102971,-9622.677246,612.876398
356.381098,296.082377,-9770.718434,612.876398
356.381422,0.000000,-9474.636058,612.876398
356.381746,0.000000,-9474.636058,0.000000
356.382070,-296.082377,-9400.615463,383.047749
356.382394,-296.082377,-9474.636058,229.828649
356.382718,-444.123565,-9622.677246,306.438199
356.383042,-888.247130,-9548.656652,306.438199
356.383366,-1036.288319,-9400.615463,76.609550
356.383690,-1258.350101,-9252.574275,306.438199
356.384014,-1184.329507,-9030.512492,-306.438199
356.384338,-1110.308913,-9252.574275,0.000000
356.384662,-1110.308913,-9400.615463,0.000000
356.384986,-1184.329507,-9252.574275,-229.828649
356.385310,-1184.329507,-9252.574275,-306.438199
356.385635,-1258.350101,-9474.636058,-306.438199
356.385959,-1258.350101,-9770.718434,-153.219100
356.386283,-1110.308913,-9474.636058,-76.609550
356.386607,-888.247130,-9548.656652,0.000000
356.386931,-814.226536,-9474.636058,-153.219100
356.387255,-518.144159,-10066.800811,-459.657299
356.387579,-222.061783,-10066.800811,-612.876398
356.387903,0.000000,-10066.800811,-612.876398
356.388227,148.041188,-10140.821405,-842.705048
356.388551,518.144159,-10066.800811,-612.876398
356.388875,1036.288319,-10436.903782,-766.095498
356.389199,1332.370696,-10140.821405,-612.876398
356.389523,1332.370696,-9992.780217,-766.095498
356.389847,1258.350101,-9992.780217,-842.705048
356.390171,1406.391290,-10436.903782,-612.876398
356.390495,1110.308913,-10066.800811,-689.485948
356.390819,1110.308913,-10140.821405,-612.876398
356.391143,1332.370696,-9992.780217,-153.219100
356.391467,592.164754,-9622.677246,-842.705048
356.391791,296.082377,-9918.759623,-459.657299
356.392115,222.061783,-9474.636058,-842.705048
356.392439,0.000000,-9178.553681,-612.876398
356.392763,-222.061783,-9178.553681,-612.876398
356.393088,0.000000,-9326.594869,-536.266849
356.393412,0.000000,-9178.553681,-612.876398
356.393736,0.000000,-9178.553681,-1302.362347
356.394060,-888.247130,-8660.409521,-383.047749
356.394385,-666.185348,-8734.430116,-995.924147
356.394709,-814.226536,-9252.574275,-689.485948
356.395033,-666.185348,-9252.574275,-612.876398
356.395358,-592.164754,-9474.636058,-459.657299
356.395682,-222.061783,-9622.677246,-229.828649
356.396006,370.102971,-9844.739029,-612.876398
356.396330,888.247130,-10066.800811,0.000000
356.396655,888.247130,-9770.718434,0.000000
356.396979,1036.288319,-10510.924376,0.000000
356.397303,740.205942,-10584.944971,76.609550
356.397628,518.144159,-10362.883188,76.609550
356.397952,518.144159,-10288.862594,153.219100
356.398276,592.164754,-10140.821405,76.609550
356.398600,740.205942,-10436.903782,383.047749
356.398925,444.123565,-10362.883188,229.828649
356.399249,592.164754,-9918.759623,536.266849
356.399573,370.102971,-10066.800811,383.047749
356.399897,0.000000,-9770.718434,229.828649
356.400222,-370.102971,-9622.677246,383.047749
356.400546,-962.267725,-9400.615463,612.876398
356.400870,-740.205942,-9474.636058,689.485948
356.401195,-1258.350101,-9178.553681,76.609550
356.401519,-1332.370696,-8956.491898,536.266849
356.401843,-1850.514855,-8660.409521,459.657299
356.402167,-1628.453072,-9104.533087,153.219100
356.402492,-1628.453072,-9252.574275,0.000000
356.402816,-1998.556043,-9178.553681,229.828649
356.403140,-2220.617826,-9104.533087,229.828649
356.403465,-1480.411884,-9474.636058,229.828649
356.403789,-1110.308913,-9474.636058,766.095498
356.404113,-1258.350101,-9770.718434,306.438199
356.404437,-814.226536,-9844.739029,153.219100
356.404762,-296.082377,-9696.697840,229.828649
356.405086,0.000000,-9844.739029,229.828649
356.405410,222.061783,-10140.821405,0.000000
356.405735,370.102971,-9992.780217,0.000000
356.406059,1036.288319,-9918.759623,76.609550
356.406383,1406.391290,-9918.759623,229.828649
356.406707,1110.308913,-10066.800811,153.219100
356.407032,1258.350101,-10288.862594,0.000000
356.407356,1184.329507,-10288.862594,76.609550
356.407680,1406.391290,-10140.821405,76.609550
356.408005,1480.411884,-9918.759623,459.657299
356.408329,1184.329507,-9770.718434,306.438199
356.408653,1258.350101,-9992.780217,153.219100
356.408977,1184.329507,-9844.739029,76.609550
356.409302,962.267725,-9548.656652,76.609550
356.409626,592.164754,-9474.636058,0.000000
356.409950,444.123565,-9178.553681,-153.219100
356.410275,444.123565,-9104.533087,-306.438199
356.410599,444.123565,-9178.553681,76.609550
356.410923,222.061783,-9178.553681,0.000000
356.411247,-222.061783,-9252.574275,0.000000
356.411572,-148.041188,-9474.636058,0.000000
356.411896,-296.082377,-9474.636058,-153.219100
356.412220,-370.102971,-9548.656652,0.000000
356.412545,-518.144159,-9548.656652,-229.828649
356.412869,-444.123565,-9326.594869,-229.828649
356.413193,-592.164754,-9474.636058,153.219100
356.413517,-296.082377,-9474.636058,0.000000
356.413842,0.000000,-9326.594869,-76.609550
356.414166,444.123565,-9474.636058,0.000000
356.414490,592.164754,-9622.677246,0.000000
356.414815,740.205942,-9622.677246,-306.438199
356.415139,444.123565,-9770.718434,-153.219100
356.415463,518.144159,-9696.697840,-306.438199
356.415787,740.205942,-9918.759623,-612.876398
356.416112,740.205942,-10066.800811,-383.047749
356.416436,740.205942,-10288.862594,-153.219100
356.416760,518.144159,-10214.842000,-306.438199
356.417085,222.061783,-10066.800811,-229.828649
356.417409,0.000000,-10214.842000,0.000000
356.417733,-222.061783,-9844.739029,0.000000
356.418057,-962.267725,-9548.656652,76.609550
356.418382,-1332.370696,-9104.533087,306.438199
356.418706,-962.267725,-9474.636058,0.000000
356.419030,-1554.432478,-9252.574275,-459.657299
356.419355,-1258.350101,-9326.594869,-612.876398
356.419679,-1258.350101,-9474.636058,-536.266849
356.420003,-1628.453072,-9548.656652,0.000000
356.420327,-1850.514855,-9178.553681,-612.876398
356.420652,-2146.597232,-9252.574275,-459.657299
356.420976,-2146.597232,-9474.636058,-459.657299
356.421300,-1998.556043,-9622.677246,-383.047749
356.421625,-2072.576638,-9770.718434,-842.705048
356.421949,-1776.494261,-9696.697840,-612.876398
356.422273,-1184.329507,-9770.718434,-383.047749
356.422597,-1036.288319,-9844.739029,0.000000
356.422922,-518.144159,-9992.780217,-229.828649
356.423246,148.041188,-10066.800811,0.000000
356.423570,296.082377,-9992.780217,0.000000
356.423895,814.226536,-10362.883188,-459.657299
356.424219,1258.350101,-10807.006753,-459.657299
356.424543,1628.453072,-10658.965565,-306.438199
356.424867,1628.453072,-10584.944971,-306.438199
356.425192,1702.473667,-10658.965565,-536.266849
356.425516,1480.411884,-10584.944971,-766.095498
356.425840,1480.411884,-10510.924376,76.609550
356.426165,1554.432478,-10510.924376,-229.828649
356.426489,1554.432478,-10066.800811,0.000000
356.426813,1110.308913,-9770.718434,153.219100
356.427137,740.205942,-9770.718434,153.219100
356.427462,592.164754,-8882.471304,612.876398
356.427786,370.102971,-8660.409521,383.047749
356.428110,222.061783,-8660.409521,536.266849
356.428435,0.000000,-8734.430116,536.266849
356.428759,-222.061783,-8808.450710,229.828649
356.429083,74.020594,-9030.512492,0.000000
356.429407,0.000000,-9104.533087,76.609550
356.429732,-74.020594,-9252.574275,153.219100
356.430056,-296.082377,-9326.594869,0.000000
356.430380,-444.123565,-9326.594869,306.438199
356.430705,-222.061783,-9252.574275,76.609550
356.431029,-370.102971,-9030.512492,229.828649
356.431353,0.000000,-9622.677246,459.657299
356.431677,222.061783,-9622.677246,536.266849
356.432002,740.205942,-9400.615463,919.314598
356.432326,962.267725,-9548.656652,1225.752797
356.432650,962.267725,-9844.739029,766.095498
356.432975,518.144159,-9770.718434,919.314598
356.433299,296.082377,-9622.677246,536.266849
356.433623,148.041188,-10066.800811,306.438199
356.433947,148.041188,-10066.800811,459.657299
356.434272,74.020594,-10140.821405,306.438199
356.434596,74.020594,-9992.780217,536.266849
356.434920,0.000000,-9400.615463,459.657299
356.435245,-148.041188,-9474.636058,459.657299
356.435569,-740.205942,-9696.697840,306.438199
356.435893,-1036.288319,-9696.697840,0.000000
356.436217,-962.267725,-9696.697840,0.000000
356.436542,-1036.288319,-9474.636058,153.219100
356.436866,-1184.329507,-9474.636058,229.828649
356.437190,-1184.329507,-9326.594869,-229.828649
356.437515,-740.205942,-9844.739029,0.000000
356.437839,-1480.411884,-9474.636058,-229.828649
356.438163,-1480.411884,-9770.718434,-383.047749
356.438487,-1628.453072,-9622.677246,-459.657299
356.438812,-1702.473667,-9770.718434,-459.657299
356.439136,-1628.453072,-9770.718434,-536.266849
356.439460,-1406.391290,-9844.739029,-383.047749
356.439785,-1258.350101,-9548.656652,-459.657299
356.440109,-666.185348,-9696.697840,-153.219100
356.440433,0.000000,-9474.636058,-383.047749
356.440757,296.082377,-9622.677246,-995.924147
356.441082,740.205942,-9918.759623,-306.438199
356.441406,740.205942,-10214.842000,-536.266849
356.441730,1184.329507,-10436.903782,-612.876398
356.442055,1480.411884,-10510.924376,-612.876398
356.442379,1332.370696,-9992.780217,-919.314598
356.442703,1776.494261,-10362.883188,-536.266849
356.443027,1554.432478,-10140.821405,-383.047749
356.443352,1406.391290,-10214.842000,-536.266849
356.443676,1406.391290,-10288.862594,-536.266849
356.444000,1332.370696,-10362.883188,-306.438199
356.444325,1110.308913,-9992.780217,229.828649
356.444649,962.267725,-9474.636058,-153.219100
356.444973,814.226536,-9474.636058,-306.438199
356.445297,518.144159,-9104.533087,229.828649
356.445622,222.061783,-9326.594869,-689.485948
356.445946,148.041188,-9030.512492,0.000000
356.446270,0.000000,-9178.553681,-383.047749
356.446595,-444.123565,-9030.512492,-229.828649
356.446919,-740.205942,-9030.512492,0.000000
356.447243,-1036.288319,-8956.491898,-689.485948
356.447567,-740.205942,-9326.594869,-995.924147
356.447892,-962.267725,-8882.471304,-153.219100
356.448216,-592.164754,-9104.533087,0.000000
356.448540,-148.041188,-9252.574275,0.000000
356.448865,74.020594,-9474.636058,0.000000
356.449189,-222.061783,-9400.615463,459.657299
356.449513,444.123565,-9622.677246,229.828649
356.449837,222.061783,-9696.697840,0.000000
356.450162,222.061783,-9474.636058,536.266849
356.450486,518.144159,-10362.883188,0.000000
356.450810,518.144159,-10288.862594,76.609550
356.451135,592.164754,-10362.883188,76.609550
356.451459,592.164754,-10436.903782,153.219100
356.451783,444.123565,-10362.883188,306.438199
356.452107,148.041188,-10214.842000,383.047749
356.452432,74.020594,-10214.842000,536.266849
356.452756,0.000000,-10214.842000,-766.095498
356.453080,-148.041188,-10066.800811,383.047749
356.453405,-666.185348,-9770.718434,383.047749
356.453729,-814.226536,-9622.677246,306.438199
356.454053,-1184.329507,-9400.615463,153.219100
356.454377,-1258.350101,-9030.512492,459.657299
356.454702,-1554.432478,-8734.430116,76.609550
356.455026,-1480.411884,-8882.471304,76.609550
356.455350,-1184.329507,-9252.574275,-153.219100
356.455675,-1554.432478,-9400.615463,-306.438199
356.455999,-1850.514855,-9474.636058,-383.047749
356.456323,-1924.535449,-9622.677246,-459.657299
356.456647,-1554.432478,-9622.677246,0.000000
356.456972,-1628.453072,-9474.636058,306.438199
356.457296,-1036.288319,-9844.739029,-229.828649
356.457620,-592.164754,-10436.903782,0.000000
356.457945,-444.123565,-10066.800811,-153.219100
356.458269,74.020594,-9844.739029,0.000000
356.458593,518.144159,-9844.739029,-229.828649
356.458917,1110.308913,-9548.656652,229.828649
356.459242,1628.453072,-9918.759623,0.000000
356.459566,1332.370696,-9918.759623,0.000000
356.459890,1036.288319,-9548.656652,-153.219100
356.460215,1258.350101,-10066.800811,-306.438199
356.460539,962.267725,-10214.842000,-689.485948
356.460863,1110.308913,-9992.780217,-459.657299
356.461187,962.267725,-10140.821405,-459.657299
356.461512,888.247130,-9622.677246,0.000000
356.461836,962.267725,-9622.677246,-153.219100
356.462160,888.247130,-9474.636058,0.000000
356.462485,666.185348,-9474.636058,0.000000
356.462809,444.123565,-9326.594869,0.000000
356.463133,296.082377,-9252.574275,0.000000
356.463457,370.102971,-9326.594869,0.000000
356.463782,518.144159,-8808.450710,0.000000
356.464106,592.164754,-9474.636058,383.047749
356.464430,296.082377,-8956.491898,536.266849
356.464755,0.000000,-9474.636058,-153.219100
356.465079,-592.164754,-9400.615463,-229.828649
356.465403,-1110.308913,-9474.636058,-229.828649
356.465727,-962.267725,-9548.656652,-229.828649
356.466052,-888.247130,-9474.636058,-459.657299
356.466376,-592.164754,-9326.594869,-306.438199
356.466700,0.000000,-9474.636058,-153.219100
356.467025,444.123565,-9474.636058,383.047749
356.467349,444.123565,-9474.636058,306.438199
356.467673,592.164754,-9548.656652,229.828649
356.467997,592.164754,-9918.759623,383.047749
356.468322,814.226536,-10140.821405,153.219100
356.468646,962.267725,-10362.883188,153.219100
356.468970,814.226536,-10140.821405,0.000000
356.469295,592.164754,-10066.800811,229.828649
356.469619,740.205942,-10362.883188,229.828649
356.469943,518.144159,-10140.821405,229.828649
356.470267,296.082377,-10140.821405,153.219100
356.470592,0.000000,-9918.759623,383.047749
356.470916,0.000000,-9992.780217,153.219100
356.471240,-222.061783,-9622.677246,-153.219100
356.471565,-740.205942,-9400.615463,536.266849
356.471889,-814.226536,-8956.491898,76.609550
356.472213,-1110.308913,-8956.491898,0.000000
356.472537,-1258.350101,-9178.553681,153.219100
356.472862,-1332.370696,-9178.553681,229.828649
356.473186,-1406.391290,-9104.533087,76.609550
356.473510,-1702.473667,-9326.594869,-612.876398
356.473835,-1480.411884,-9326.594869,-306.438199
356.474159,-1480.411884,-9252.574275,-229.828649
356.474483,-1258.350101,-9474.636058,-459.657299
356.474807,-1332.370696,-9622.677246,-383.047749
356.475132,-1110.308913,-9696.697840,-383.047749
356.475456,-444.123565,-9918.759623,-229.828649
356.475780,148.041188,-9770.718434,-383.047749
356.476105,518.144159,-9622.677246,-306.438199
356.476429,888.247130,-10140.821405,842.705048
356.476753,666.185348,-9770.718434,-459.657299
356.477077,592.164754,-9770.718434,0.000000
356.477402,592.164754,-9992.780217,-153.219100
356.477726,814.226536,-10362.883188,-306.438199
356.478050,1036.288319,-10288.862594,-383.047749
356.478375,1258.350101,-10436.903782,-229.828649
356.478699,1628.453072,-10066.800811,-383.047749
356.479023,1406.391290,-10288.862594,-383.047749
356.479347,1184.329507,-9992.780217,153.219100
356.479672,962.267725,-10066.800811,0.000000
356.479996,592.164754,-9622.677246,-229.828649
356.480320,296.082377,-9696.697840,-153.219100
356.480645,148.041188,-9326.594869,-153.219100
356.480969,148.041188,-9030.512492,-153.219100
356.481293,0.000000,-8956.491898,0.000000
356.481617,-222.061783,-8882.471304,-459.657299
356.481942,0.000000,-9400.615463,-306.438199
356.482266,-370.102971,-9252.574275,-153.219100
356.482590,-666.185348,-9178.553681,-229.828649
356.482915,-592.164754,-9326.594869,0.000000
356.483239,-592.164754,-9104.533087,-383.047749
356.483563,-740.205942,-9178.553681,306.438199
356.483887,0.000000,-9252.574275,229.828649
356.484212,222.061783,-9178.553681,76.609550
356.484536,0.000000,-9622.677246,0.000000
356.484860,370.102971,-9770.718434,0.000000
356.485185,592.164754,-9548.656652,76.609550
356.485509,740.205942,-9474.636058,76.609550
356.485833,1110.308913,-9770.718434,229.828649
356.486157,1036.288319,-10066.800811,229.828649
356.486482,814.226536,-9992.780217,0.000000
356.486806,1258.350101,-10140.821405,306.438199
356.487130,962.267725,-10140.821405,153.219100
356.487455,370.102971,-10288.862594,229.828649
356.487779,74.020594,-10362.883188,153.219100
356.488103,-296.082377,-9844.739029,383.047749
356.488427,-148.041188,-9918.759623,76.609550
356.488752,-296.082377,-10066.800811,76.609550
356.489076,-740.205942,-9474.636058,536.266849
356.489400,-1110.308913,-9252.574275,229.828649
356.489725,-1184.329507,-9030.512492,0.000000
356.490049,-1406.391290,-9030.512492,0.000000
356.490373,-1480.411884,-9030.512492,-229.828649
356.490697,-1406.391290,-8956.491898,0.000000
356.491022,-1480.411884,-9030.512492,-306.438199
356.491346,-1406.391290,-9474.636058,-229.828649
356.491670,-1924.535449,-9474.636058,-229.828649
356.491995,-1998.556043,-9622.677246,-306.438199
356.492319,-1628.453072,-9622.677246,-229.828649
356.492643,-1332.370696,-9696.697840,-153.219100
356.492967,-666.185348,-9770.718434,0.000000
356.493292,-592.164754,-9918.759623,0.000000
356.493616,0.000000,-9770.718434,-153.219100
356.493940,370.102971,-9844.739029,-306.438199
356.494264,444.123565,-9918.759623,-383.047749
356.494588,666.185348,-10362.883188,-306.438199
356.494913,888.247130,-10436.903782,-459.657299
356.495237,962.267725,-10436.903782,-1302.362347
356.495561,1036.288319,-10584.944971,-612.876398
356.495885,814.226536,-10436.903782,-536.266849
356.496209,666.185348,-10066.800811,-1072.533697
356.496533,1258.350101,-10288.862594,-459.657299
356.496857,1258.350101,-10510.924376,0.000000
356.497181,1036.288319,-10140.821405,-306.438199
356.497505,740.205942,-9918.759623,0.000000
356.497830,222.061783,-9696.697840,0.000000
356.498154,444.123565,-9622.677246,0.000000
356.498478,370.102971,-9474.636058,0.000000
356.498802,148.041188,-9030.512492,0.000000
356.499126,222.061783,-9030.512492,0.000000
356.499450,148.041188,-9252.574275,-459.657299
356.499774,0.000000,-9178.553681,-383.047749
356.500098,-370.102971,-9474.636058,-383.047749
356.500423,-888.247130,-8956.491898,-383.047749
356.500747,-370.102971,-9104.533087,-306.438199
356.501071,-222.061783,-9178.553681,-229.828649
356.501395,0.000000,-9252.574275,306.438199
356.501719,-296.082377,-9474.636058,0.000000
356.502043,0.000000,-9548.656652,0.000000
356.502367,222.061783,-9474.636058,0.000000
356.502691,296.082377,-9326.594869,76.609550
356.503016,888.247130,-9622.677246,383.047749
356.503340,148.041188,-9696.697840,306.438199
356.503664,814.226536,-9622.677246,536.266849
356.503988,592.164754,-9918.759623,306.438199
356.504312,814.226536,-10066.800811,76.609550
356.504636,740.205942,-10362.883188,229.828649
356.504960,740.205942,-10362.883188,153.219100
356.505284,592.164754,-10214.842000,306.438199
356.505609,444.123565,-10214.842000,383.047749
356.505933,0.000000,-9622.677246,306.438199
356.506257,-296.082377,-9844.739029,0.000000
356.506581,-888.247130,-9696.697840,0.000000
356.506905,-962.267725,-9474.636058,0.000000
356.507229,-962.267725,-9474.636058,229.828649
356.507553,-888.247130,-9326.594869,153.219100
356.507877,-1258.350101,-8660.409521,459.657299
356.508201,-1480.411884,-9104.533087,0.000000
356.508526,-1924.535449,-9326.594869,-153.219100
356.508850,-1702.473667,-9400.615463,-229.828649
356.509174,-1702.473667,-9622.677246,0.000000
356.509498,-1850.514855,-9474.636058,-229.828649
356.509822,-1628.453072,-9474.636058,-306.438199
356.510146,-1628.453072,-9326.594869,-612.876398
356.510470,-1184.329507,-9474.636058,0.000000
356.510794,-592.164754,-9622.677246,-459.657299
356.511119,-518.144159,-9400.615463,383.047749
356.511443,444.123565,-9770.718434,0.000000
356.511767,666.185348,-9844.739029,-306.438199
356.512091,888.247130,-10066.800811,0.000000
356.512415,592.164754,-10288.862594,-153.219100
356.512739,666.185348,-10214.842000,0.000000
356.513063,888.247130,-10436.903782,-612.876398
356.513387,1036.288319,-10510.924376,0.000000
356.513712,1184.329507,-9918.759623,-306.438199
356.514036,1258.350101,-10288.862594,0.000000
356.514360,1110.308913,-10066.800811,0.000000
356.514684,1036.288319,-9992.780217,-153.219100
356.515008,666.185348,-9474.636058,0.000000
356.515332,666.185348,-9474.636058,-306.438199
356.515656,962.267725,-9474.636058,-153.219100
356.515980,592.164754,-9030.512492,0.000000
356.516305,222.061783,-9030.512492,0.000000
356.516629,148.041188,-8956.491898,0.000000
356.516953,0.000000,-9178.553681,0.000000
356.517277,-370.102971,-9104.533087,0.000000
356.517601,0.000000,-9400.615463,-459.657299
356.517925,-370.102971,-9030.512492,0.000000
356.518249,-370.102971,-9252.574275,-383.047749
356.518573,-444.123565,-9178.553681,-229.828649
356.518897,-370.102971,-9548.656652,0.000000
356.519222,-296.082377,-9474.636058,76.609550
356.519546,-222.061783,-9474.636058,0.000000
356.519870,-296.082377,-9326.594869,76.609550
356.520194,222.061783,-9474.636058,153.219100
356.520518,888.247130,-9918.759623,0.000000
356.520842,740.205942,-9918.759623,76.609550
356.521166,1036.288319,-10066.800811,153.219100
356.521490,518.144159,-10066.800811,0.000000
356.521815,518.144159,-10066.800811,0.000000
356.522139,444.123565,-10362.883188,0.000000
356.522463,444.123565,-10288.862594,-689.485948
356.522787,814.226536,-10658.965565,306.438199
356.523111,222.061783,-10066.800811,0.000000
356.523435,0.000000,-10214.842000,0.000000
356.523759,-370.102971,-9844.739029,153.219100
356.524083,-592.164754,-9844.739029,76.609550
356.524408,-1110.308913,-9474.636058,0.000000
356.524732,-962.267725,-9548.656652,76.609550
356.525056,-1258.350101,-9104.533087,0.000000
356.525380,-1850.514855,-8882.471304,306.438199
356.525704,-1258.350101,-9178.553681,-459.657299
356.526028,-1332.370696,-9178.553681,-229.828649
356.526352,-1776.494261,-9104.533087,0.000000
356.526676,-1702.473667,-8956.491898,-306.438199
356.527001,-1702.473667,-9326.594869,-306.438199
356.527325,-1702.473667,-9548.656652,-459.657299
356.527649,-1406.391290,-9474.636058,-459.657299
356.527973,-1554.432478,-9696.697840,-689.485948
356.528297,-1036.288319,-9696.697840,-459.657299
356.528621,-888.247130,-9548.656652,76.609550
356.528945,-296.082377,-9622.677246,76.609550
356.529269,222.061783,-9770.718434,0.000000
356.529593,740.205942,-9844.739029,0.000000
356.529918,1110.308913,-10066.800811,-229.828649
356.530242,1110.308913,-9992.780217,-459.657299
356.530566,1184.329507,-10288.862594,-229.828649
356.530890,1332.370696,-10362.883188,-229.828649
356.531214,1628.453072,-9844.739029,-459.657299
356.531538,1628.453072,-9992.780217,-229.828649
356.531862,1036.288319,-10436.903782,-459.657299
356.532186,1258.350101,-10510.924376,-383.047749
356.532511,1258.350101,-10288.862594,-153.219100
356.532835,962.267725,-10214.842000,229.828649
356.533159,370.102971,-9918.759623,0.000000
356.533483,0.000000,-9474.636058,0.000000
356.533807,296.082377,-9474.636058,0.000000
356.534131,0.000000,-9178.553681,-153.219100
356.534455,0.000000,-9178.553681,0.000000
356.534779,0.000000,-9104.533087,76.609550
356.535104,0.000000,-9030.512492,-153.219100
356.535428,-296.082377,-8956.491898,-153.219100
356.535752,-666.185348,-8882.471304,0.000000
356.536076,-814.226536,-8660.409521,0.000000
356.536400,-296.082377,-9252.574275,-229.828649
356.536724,-222.061783,-9474.636058,-383.047749
356.537048,-370.102971,-9474.636058,0.000000
356.537372,-222.061783,-9844.739029,0.000000
356.537696,0.000000,-9400.615463,229.828649
356.538021,370.102971,-9770.718434,76.609550
356.538345,0.000000,-9770.718434,306.438199
356.538669,518.144159,-9992.780217,306.438199
356.538993,592.164754,-10066.800811,383.047749
356.539317,666.185348,-10140.821405,229.828649
356.539641,444.123565,-9992.780217,229.828649
356.539965,444.123565,-10066.800811,76.609550
356.540289,444.123565,-9918.759623,0.000000
356.540614,518.144159,-9770.718434,76.609550
356.540938,0.000000,-9844.739029,153.219100
356.541262,-148.041188,-9696.697840,76.609550
356.541586,-518.144159,-9844.739029,0.000000
356.541910,-1036.288319,-9400.615463,229.828649
356.542234,-1036.288319,-9400.615463,229.828649
356.542558,-1184.329507,-9326.594869,76.609550
356.542882,-666.185348,-8808.450710,229.828649
356.543207,-1110.308913,-9104.533087,0.000000
356.543531,-1110.308913,-8734.430116,383.047749
356.543855,-1258.350101,-9252.574275,0.000000
356.544179,-1406.391290,-9178.553681,76.609550
356.544503,-1480.411884,-9474.636058,-153.219100
356.544827,-1184.329507,-9474.636058,-229.828649
356.545151,-1036.288319,-9548.656652,0.000000
356.545475,-1110.308913,-9474.636058,0.000000
356.545800,-296.082377,-9400.615463,229.828649
356.546124,-296.082377,-9770.718434,229.828649
356.546448,0.000000,-9918.759623,-153.219100
356.546772,0.000000,-9770.718434,0.000000
356.547096,222.061783,-9770.718434,-306.438199
356.547420,222.061783,-9992.780217,-536.266849
356.547744,370.102971,-9844.739029,-153.219100
356.548068,1554.432478,-10436.903782,0.000000
356.548392,1628.453072,-9770.718434,153.219100
356.548717,1406.391290,-10214.842000,76.609550
356.549041,1406.391290,-10140.821405,-229.828649
356.549365,1332.370696,-10510.924376,0.000000
356.549689,1110.308913,-10214.842000,-153.219100
356.550013,1258.350101,-10584.944971,0.000000
356.550337,1258.350101,-9844.739029,0.000000
356.550661,1110.308913,-9844.739029,-383.047749
356.550985,592.164754,-9326.594869,-306.438199
356.551310,222.061783,-9474.636058,-306.438199
356.551634,148.041188,-9252.574275,-306.438199
356.551958,74.020594,-9400.615463,-383.047749
356.552282,0.000000,-9326.594869,0.000000
356.552606,222.061783,-9400.615463,-306.438199
356.552930,0.000000,-9252.574275,76.609550
356.553254,-740.205942,-9252.574275,-383.047749
356.553578,-962.267725,-9326.594869,76.609550
356.553903,-814.226536,-9400.615463,-153.219100
356.554227,-666.185348,-9400.615463,0.000000
356.554551,-592.164754,-9474.636058,0.000000
356.554875,-148.041188,-9548.656652,76.609550
356.555199,74.020594,-9548.656652,0.000000
356.555523,222.061783,-9400.615463,0.000000
356.555847,222.061783,-9696.697840,76.609550
356.556171,592.164754,-9844.739029,306.438199
356.556496,666.185348,-10066.800811,153.219100
356.556820,814.226536,-10140.821405,76.609550
356.557144,814.226536,-10214.842000,229.828649
356.557468,740.205942,-10066.800811,76.609550
356.557792,740.205942,-9844.739029,536.266849
356.558116,444.123565,-10214.842000,306.438199
356.558440,222.061783,-9918.759623,0.000000
356.558764,-148.041188,-9918.759623,76.609550
356.559088,-444.123565,-9918.759623,229.828649
356.559413,-518.144159,-9696.697840,229.828649
356.559737,-1110.308913,-9252.574275,766.095498
356.560061,-1184.329507,-9474.636058,229.828649
356.560385,-740.205942,-9548.656652,-153.219100
356.560709,-1332.370696,-9030.512492,306.438199
356.561033,-1258.350101,-8808.450710,153.219100
356.561357,-1258.350101,-9030.512492,0.000000
356.561681,-1036.288319,-8956.491898,-153.219100
356.562006,-1332.370696,-9104.533087,-306.438199
356.562330,-1554.432478,-9104.533087,-612.876398
356.562654,-1258.350101,-9622.677246,-383.047749
356.562978,-1406.391290,-9770.718434,-306.438199
356.563302,-1036.288319,-10066.800811,0.000000
356.563626,-1036.288319,-9992.780217,-76.609550
356.563950,-592.164754,-10066.800811,-306.438199
356.564274,0.000000,-9992.780217,-153.219100
356.564599,592.164754,-10140.821405,153.219100
356.564923,962.267725,-10214.842000,0.000000
356.565247,1110.308913,-9844.739029,229.828649
356.565571,888.247130,-9918.759623,-459.657299
356.565895,1110.308913,-10214.842000,-306.438199
356.566219,962.267725,-10288.862594,-459.657299
356.566543,1110.308913,-10436.903782,-306.438199
356.566867,1036.288319,-9992.780217,-229.828649
356.567192,1332.370696,-10288.862594,76.609550
356.567516,888.247130,-9844.739029,0.000000
356.567840,888.247130,-9844.739029,-306.438199
356.568164,518.144159,-9844.739029,0.000000
356.568488,222.061783,-9548.656652,0.000000
356.568812,74.020594,-9474.636058,0.000000
356.569136,0.000000,-9474.636058,0.000000
356.569460,74.020594,-9104.533087,0.000000
356.569784,-148.041188,-8956.491898,76.609550
356.570109,-518.144159,-8956.491898,0.000000
356.570433,-222.061783,-9252.574275,-306.438199
356.570757,-518.144159,-9474.636058,-383.047749
356.571081,-518.144159,-9326.594869,-229.828649
356.571405,-518.144159,-9474.636058,0.000000
356.571729,-370.102971,-9474.636058,0.000000
356.572053,-148.041188,-9104.533087,-153.219100
356.572377,-222.061783,-9326.594869,0.000000
356.572702,296.082377,-9992.780217,76.609550
356.573026,518.144159,-9992.780217,306.438199
356.573350,222.061783,-9696.697840,306.438199
356.573674,444.123565,-9548.656652,153.219100
356.573998,370.102971,-9844.739029,76.609550
356.574322,370.102971,-9548.656652,153.219100
356.574646,888.247130,-9992.780217,0.000000
356.574970,1110.308913,-10288.862594,0.000000
356.575295,962.267725,-10288.862594,306.438199
356.575619,740.205942,-9992.780217,76.609550
356.575943,740.205942,-9918.759623,0.000000
356.576267,370.102971,-10214.842000,76.609550
356.576591,148.041188,-10066.800811,76.609550
356.576915,444.123565,-9844.739029,-229.828649
356.577239,-444.123565,-9844.739029,0.000000
356.577563,-888.247130,-9474.636058,306.438199
356.577888,-1036.288319,-9696.697840,0.000000
356.578212,-1332.370696,-9326.594869,0.000000
356.578536,-1480.411884,-9326.594869,0.000000
356.578860,-1702.473667,-9178.553681,-153.219100
356.579184,-1480.411884,-9178.553681,-153.219100
356.579508,-1406.391290,-9178.553681,306.438199
356.579832,-1110.308913,-8882.471304,0.000000
356.580156,-1406.391290,-9178.553681,0.000000
356.580480,-1554.432478,-9474.636058,-153.219100
356.580805,-1406.391290,-9474.636058,-383.047749
356.581129,-962.267725,-9548.656652,-306.438199
356.581453,-444.123565,-9844.739029,-153.219100
356.581777,-222.061783,-9622.677246,-689.485948
356.582101,370.102971,-9400.615463,0.000000
356.582425,592.164754,-9548.656652,229.828649
356.582749,888.247130,-9918.759623,-306.438199
356.583073,814.226536,-9844.739029,-229.828649
356.583398,814.226536,-9992.780217,-153.219100
356.583722,1110.308913,-10066.800811,-153.219100
356.584046,962.267725,-9770.718434,-383.047749
356.584370,1332.370696,-9844.739029,0.000000
356.584694,1406.391290,-10066.800811,-612.876398
356.585018,1184.329507,-9844.739029,-689.485948
356.585342,740.205942,-10066.800811,-306.438199
356.585666,518.144159,-10066.800811,-229.828649
356.585991,444.123565,-9844.739029,-153.219100
356.586315,518.144159,-10066.800811,-536.266849
356.586639,148.041188,-9696.697840,76.609550
356.586963,370.102971,-9252.574275,-306.438199
356.587287,0.000000,-9030.512492,-383.047749
356.587611,0.000000,-9030.512492,0.000000
356.587935,-148.041188,-9326.594869,-459.657299
356.588259,0.000000,-9400.615463,-306.438199
356.588583,0.000000,-9474.636058,-229.828649
356.588908,-296.082377,-9326.594869,-459.657299
356.589232,-444.123565,-9104.533087,-536.266849
356.589556,-148.041188,-9474.636058,306.438199
356.589880,0.000000,-9474.636058,0.000000
356.590204,0.000000,-9622.677246,-153.219100
356.590528,74.020594,-9696.697840,0.000000
356.590852,148.041188,-9770.718434,0.000000
356.591176,222.061783,-9844.739029,153.219100
356.591501,444.123565,-9992.780217,0.000000
356.591825,592.164754,-9992.780217,-383.047749
356.592149,222.061783,-9992.780217,153.219100
356.592473,962.267725,-10140.821405,76.609550
356.592797,1036.288319,-10140.821405,306.438199
356.593121,814.226536,-10140.821405,0.000000
356.593445,444.123565,-10436.903782,536.266849
356.593769,148.041188,-10362.883188,383.047749
356.594094,148.041188,-10288.862594,306.438199
356.594418,-148.041188,-9918.759623,842.705048
356.594742,0.000000,-9696.697840,766.095498
356.595066,-962.267725,-9622.677246,536.266849
356.595390,-1036.288319,-9104.533087,459.657299
356.595714,-1184.329507,-8956.491898,306.438199
356.596038,-1184.329507,-8734.430116,306.438199
356.596362,-1184.329507,-8734.430116,76.609550
356.596686,-1110.308913,-8808.450710,229.828649
356.597010,-1258.350101,-8512.368333,383.047749
356.597334,-1110.308913,-9104.533087,0.000000
356.597658,-1702.473667,-8956.491898,229.828649
356.597982,-1554.432478,-9400.615463,0.000000
356.598306,-1628.453072,-9400.615463,0.000000
356.598630,-1480.411884,-9326.594869,-153.219100
356.598954,-1110.308913,-9548.656652,0.000000
356.599278,-666.185348,-9548.656652,76.609550
356.599602,-592.164754,-9548.656652,76.609550
356.599926,-148.041188,-9622.677246,306.438199
356.600250,444.123565,-9400.615463,-306.438199
356.600575,814.226536,-9918.759623,0.000000
356.600899,1110.308913,-10288.862594,0.000000
356.601223,1332.370696,-10436.903782,-229.828649
356.601547,1258.350101,-10658.965565,-383.047749
356.601871,1110.308913,-10362.883188,-306.438199
356.602195,888.247130,-10510.924376,-766.095498
356.602519,814.226536,-10807.006753,-536.266849
356.602843,888.247130,-10584.944971,-612.876398
356.603167,740.205942,-10510.924376,-536.266849
356.603491,592.164754,-10214.842000,-383.047749
356.603815,740.205942,-10066.800811,-383.047749
356.604139,592.164754,-9992.780217,-306.438199
356.604463,518.144159,-9400.615463,-153.219100
356.604787,370.102971,-9252.574275,-306.438199
356.605111,518.144159,-9474.636058,-536.266849
356.605435,148.041188,-9104.533087,-612.876398
356.605759,74.020594,-9252.574275,-459.657299
356.606083,0.000000,-9178.553681,-536.266849
356.606407,-148.041188,-9474.636058,-689.485948
356.606731,-444.123565,-9622.677246,-766.095498
356.607056,-518.144159,-9548.656652,-766.095498
356.607380,-370.102971,-9770.718434,306.438199
356.607704,-444.123565,-9326.594869,-306.438199
356.608028,-666.185348,-9622.677246,-306.438199
356.608352,-370.102971,-9770.718434,-612.876398
356.608676,0.000000,-9474.636058,0.000000
356.609000,296.082377,-9548.656652,153.219100
356.609324,518.144159,-9696.697840,76.609550
356.609648,592.164754,-9622.677246,153.219100
356.609972,740.205942,-9770.718434,306.438199
356.610296,518.144159,-9548.656652,76.609550
356.610620,592.164754,-9474.636058,306.438199
356.610944,370.102971,-9400.615463,-153.219100
356.611268,296.082377,-9844.739029,76.609550
356.611592,370.102971,-9992.780217,0.000000
356.611916,222.061783,-9844.739029,153.219100
356.612240,-296.082377,-9696.697840,306.438199
356.612564,-370.102971,-9548.656652,0.000000
356.612888,-888.247130,-9326.594869,76.609550
356.613212,-1110.308913,-9326.594869,383.047749
356.613537,-1258.350101,-9104.533087,306.438199
356.613861,-1184.329507,-9474.636058,76.609550
356.614185,-1184.329507,-9030.512492,459.657299
356.614509,-1406.391290,-9104.533087,-153.219100
356.614833,-1554.432478,-9104.533087,0.000000
356.615157,-1628.453072,-9400.615463,-229.828649
356.615481,-1406.391290,-9474.636058,-153.219100
356.615805,-1184.329507,-9548.656652,76.609550
356.616129,-1036.288319,-9474.636058,-229.828649
356.616453,-814.226536,-9622.677246,-76.609550
356.616777,-444.123565,-9992.780217,-383.047749
356.617101,0.000000,-10140.821405,0.000000
356.617425,592.164754,-10436.903782,-153.219100
356.617749,592.164754,-10362.883188,0.000000
356.618073,962.267725,-10362.883188,76.609550
356.618397,888.247130,-10140.821405,76.609550
356.618721,888.247130,-10362.883188,0.000000
356.619045,1258.350101,-10436.903782,0.000000
356.619369,1184.329507,-10362.883188,-229.828649
356.619693,1332.370696,-10288.862594,-153.219100
356.620017,1332.370696,-10288.862594,0.000000
356.620342,1036.288319,-9992.780217,-229.828649
356.620666,1480.411884,-9770.718434,-536.266849
356.620990,814.226536,-9696.697840,0.000000
356.621314,888.247130,-9400.615463,0.000000
356.621638,444.123565,-9474.636058,76.609550
356.621962,370.102971,-9178.553681,0.000000
356.622286,0.000000,-9252.574275,0.000000
356.622610,0.000000,-9104.533087,76.609550
356.622934,0.000000,-8882.471304,0.000000
356.623258,74.020594,-9326.594869,153.219100
356.623582,-444.123565,-8734.430116,229.828649
356.623906,-296.082377,-9400.615463,459.657299
356.624230,-518.144159,-9400.615463,76.609550
356.624554,-370.102971,-9474.636058,0.000000
356.624878,-370.102971,-9252.574275,0.000000
356.625202,0.000000,-9400.615463,-153.219100
356.625526,148.041188,-9252.574275,0.000000
356.625850,148.041188,-9030.512492,-153.219100
356.626174,0.000000,-9252.574275,-229.828649
356.626498,370.102971,-9548.656652,0.000000
356.626823,444.123565,-9622.677246,76.609550
356.627147,370.102971,-9918.759623,0.000000
356.627471,370.102971,-9918.759623,0.000000
356.627795,444.123565,-9622.677246,-153.219100
356.628119,592.164754,-10066.800811,0.000000
356.628443,222.061783,-9770.718434,0.000000
356.628767,740.205942,-10436.903782,153.219100
356.629091,222.061783,-10066.800811,306.438199
356.629415,222.061783,-10214.842000,229.828649
356.629739,-148.041188,-10140.821405,306.438199
356.630063,-370.102971,-10140.821405,306.438199
356.630387,-592.164754,-9844.739029,383.047749
356.630711,-740.205942,-9696.697840,-306.438199
356.631035,-814.226536,-9400.615463,0.000000
356.631359,-1258.350101,-8882.471304,0.000000
356.631683,-1110.308913,-9252.574275,-153.219100
356.632007,-1184.329507,-9326.594869,-306.438199
356.632331,-1480.411884,-9252.574275,-536.266849
356.632655,-1480.411884,-8956.491898,0.000000
356.632979,-1776.494261,-9400.615463,-536.266849
356.633304,-1776.494261,-9474.636058,-229.828649
356.633628,-1480.411884,-9844.739029,0.000000
356.633952,-1332.370696,-9918.759623,-153.219100
356.634276,-1184.329507,-9918.759623,-153.219100
356.634600,-814.226536,-9770.718434,-383.047749
356.634924,0.000000,-9252.574275,76.609550
356.635248,592.164754,-9548.656652,0.000000
356.635572,518.144159,-9548.656652,-153.219100
356.635896,1406.391290,-9770.718434,-536.266849
356.636220,1332.370696,-9844.739029,-306.438199
356.636544,1110.308913,-9992.780217,-536.266849
356.636868,1332.370696,-10214.842000,-536.266849
356.637192,1184.329507,-10510.924376,-383.047749
356.637516,1184.329507,-10510.924376,-76.609550
356.637840,1036.288319,-10140.821405,0.000000
356.638164,592.164754,-9992.780217,-306.438199
356.638488,1258.350101,-10066.800811,-153.219100
356.638812,666.185348,-9844.739029,76.609550
356.639136,296.082377,-9992.780217,0.000000
356.639460,148.041188,-9474.636058,-153.219100
356.639785,0.000000,-9252.574275,0.000000
356.640109,0.000000,-9104.533087,306.438199
356.640433,444.123565,-9104.533087,306.438199
356.640757,148.041188,-9030.512492,0.000000
356.641081,222.061783,-9104.533087,-229.828649
356.641405,-148.041188,-9252.574275,-153.219100
356.641729,-222.061783,-9104.533087,-229.828649
356.642053,-592.164754,-9474.636058,0.000000
356.642377,-518.144159,-9178.553681,-153.219100
356.642701,-666.185348,-9104.533087,0.000000
356.643025,-518.144159,-9252.574275,0.000000
356.643349,0.000000,-9252.574275,153.219100
356.643673,0.000000,-9474.636058,306.438199
356.643997,148.041188,-9474.636058,229.828649
356.644321,148.041188,-9548.656652,459.657299
356.644645,296.082377,-9844.739029,229.828649
356.644969,444.123565,-9918.759623,995.924147
356.645293,296.082377,-9992.780217,306.438199
356.645617,666.185348,-9770.718434,229.828649
356.645941,1036.288319,-10658.965565,229.828649
356.646265,888.247130,-10288.862594,306.438199
356.646590,592.164754,-10066.800811,612.876398
356.646914,296.082377,-10140.821405,0.000000
356.647238,0.000000,-10140.821405,76.609550
356.647562,-296.082377,-9474.636058,459.657299
356.647886,-296.082377,-9326.594869,229.828649
356.648210,-592.164754,-9474.636058,229.828649
356.648534,-1036.288319,-9178.553681,0.000000
356.648858,-1332.370696,-9326.594869,229.828649
356.649182,-1332.370696,-9030.512492,229.828649
356.649506,-1554.432478,-9104.533087,0.000000
356.649830,-1406.391290,-8734.430116,0.000000
356.650154,-1554.432478,-8882.471304,0.000000
356.650478,-1554.432478,-8956.491898,229.828649
356.650802,-1480.411884,-9400.615463,-459.657299
356.651126,-962.267725,-9622.677246,-153.219100
356.651450,-814.226536,-9622.677246,0.000000
356.651774,-444.123565,-9474.636058,-153.219100
356.652098,222.061783,-9474.636058,0.000000
356.652422,296.082377,-9770.718434,229.828649
356.652746,518.144159,-9918.759623,0.000000
356.653071,592.164754,-10066.800811,0.000000
356.653395,740.205942,-10288.862594,0.000000
356.653719,740.205942,-10214.842000,-153.219100
356.654043,814.226536,-10436.903782,0.000000
356.654367,740.205942,-10140.821405,-76.609550
356.654691,740.205942,-10066.800811,-306.438199
356.655015,888.247130,-10214.842000,-383.047749
356.655339,962.267725,-9918.759623,-229.828649
356.655663,740.205942,-10214.842000,-76.609550
356.655987,888.247130,-9992.780217,-306.438199
356.656311,814.226536,-9696.697840,-153.219100
356.656635,592.164754,-9622.677246,-306.438199
356.656959,592.164754,-9252.574275,0.000000
356.657283,222.061783,-9326.594869,-383.047749
356.657607,666.185348,-9548.656652,0.000000
356.657931,0.000000,-9474.636058,-153.219100
356.658255,-148.041188,-9400.615463,-459.657299
356.658579,-370.102971,-9548.656652,-383.047749
356.658903,-740.205942,-9548.656652,-689.485948
356.659227,-962.267725,-9474.636058,-383.047749
356.659552,-740.205942,-9178.553681,0.000000
356.659876,-592.164754,-9474.636058,-306.438199
356.660200,-518.144159,-9474.636058,0.000000
356.660524,74.020594,-9400.615463,-306.438199
356.660848,296.082377,-9474.636058,0.000000
356.661172,370.102971,-9474.636058,-842.705048
356.661496,222.061783,-9548.656652,-383.047749
356.661820,296.082377,-9770.718434,0.000000
356.662144,518.144159,-9918.759623,76.609550
356.662468,518.144159,-9992.780217,0.000000
356.662792,592.164754,-9696.697840,0.000000
356.663116,1110.308913,-10732.986159,459.657299
356.663440,814.226536,-10584.944971,306.438199
356.663764,666.185348,-10066.800811,306.438199
356.664088,814.226536,-10140.821405,306.438199
356.664412,740.205942,-9918.759623,612.876398
356.664736,666.185348,-9770.718434,306.438199
356.665060,370.102971,-9548.656652,306.438199
356.665384,370.102971,-9918.759623,766.095498
356.665708,-222.061783,-9252.574275,229.828649
356.666033,-592.164754,-9252.574275,306.438199
356.666357,-1110.308913,-9030.512492,153.219100
356.666681,-1110.308913,-9104.533087,0.000000
356.667005,-1184.329507,-9400.615463,76.609550
356.667329,-1924.535449,-9474.636058,0.000000
356.667653,-1628.453072,-8734.430116,0.000000
356.667977,-1480.411884,-9474.636058,-459.657299
356.668301,-1480.411884,-9252.574275,0.000000
356.668625,-1554.432478,-9474.636058,153.219100
356.668949,-1776.494261,-9326.594869,0.000000
356.669273,-1554.432478,-9548.656652,0.000000
356.669597,-1258.350101,-9622.677246,-229.828649
356.669921,-814.226536,-9992.780217,-306.438199
356.670245,-370.102971,-10066.800811,-229.828649
356.670569,0.000000,-9474.636058,0.000000
356.670893,888.247130,-10362.883188,0.000000
356.671217,888.247130,-10288.862594,-229.828649
356.671541,740.205942,-10510.924376,-229.828649
356.671865,888.247130,-10436.903782,-536.266849
356.672189,814.226536,-10140.821405,-306.438199
356.672513,1184.329507,-10510.924376,76.609550
356.672838,444.123565,-10288.862594,-383.047749
356.673162,1406.391290,-10658.965565,459.657299
356.673486,1258.350101,-10436.903782,-306.438199
356.673810,1184.329507,-10362.883188,0.000000
356.674134,888.247130,-9992.780217,-306.438199
356.674458,814.226536,-9992.780217,76.609550
356.674782,296.082377,-9770.718434,306.438199
356.675106,74.020594,-9400.615463,0.000000
356.675430,296.082377,-9326.594869,76.609550
356.675754,0.000000,-8956.491898,-153.219100
356.676078,0.000000,-9252.574275,-306.438199
356.676402,0.000000,-9178.553681,-536.266849
356.676726,-444.123565,-9030.512492,-306.438199
356.677050,-814.226536,-9030.512492,0.000000
356.677374,-1036.288319,-8956.491898,-536.266849
356.677698,-888.247130,-8882.471304,-153.219100
356.678022,-592.164754,-9178.553681,229.828649
356.678346,-370.102971,-9474.636058,-153.219100
356.678670,0.000000,-9474.636058,0.000000
356.678994,222.061783,-9474.636058,76.609550
356.679319,518.144159,-9326.594869,0.000000
356.679643,444.123565,-9474.636058,0.000000
356.679967,666.185348,-9252.574275,-459.657299
356.680291,518.144159,-9474.636058,153.219100
356.680615,740.205942,-9696.697840,459.657299
356.680939,888.247130,-10066.800811,0.000000
356.681263,814.226536,-10066.800811,0.000000
356.681587,518.144159,-10066.800811,229.828649
356.681911,296.082377,-9918.759623,229.828649
356.682235,222.061783,-10140.821405,0.000000
356.682559,-888.247130,-9474.636058,0.000000
356.682883,-962.267725,-9548.656652,306.438199
356.683207,-296.082377,-9696.697840,383.047749
356.683531,-444.123565,-9622.677246,229.828649
356.683855,-740.205942,-9252.574275,229.828649
356.684179,-1110.308913,-9252.574275,76.609550
356.684503,-1036.288319,-9252.574275,153.219100
356.684827,-1406.391290,-9252.574275,0.000000
356.685151,-1184.329507,-9474.636058,76.609550
356.685475,-888.247130,-9770.718434,-766.095498
356.685800,-1480.411884,-9474.636058,-459.657299
356.686124,-1184.329507,-9622.677246,-153.219100
356.686448,-1406.391290,-10066.800811,0.000000
356.686772,-1480.411884,-9844.739029,0.000000
356.687096,-1184.329507,-9770.718434,0.000000
356.687420,-888.247130,-9548.656652,153.219100
356.687744,-444.123565,-9992.780217,0.000000
356.688068,148.041188,-9918.759623,-612.876398
356.688392,222.061783,-10066.800811,0.000000
356.688716,296.082377,-10214.842000,-306.438199
356.689040,296.082377,-10140.821405,-306.438199
356.689364,444.123565,-10140.821405,-153.219100
356.689688,444.123565,-9918.759623,-919.314598
356.690012,888.247130,-10288.862594,-459.657299
356.690336,1184.329507,-10436.903782,-383.047749
356.690660,888.247130,-10214.842000,-383.047749
356.690984,888.247130,-10214.842000,-153.219100
356.691308,814.226536,-9770.718434,0.000000
356.691632,888.247130,-9622.677246,-153.219100
356.691956,1036.288319,-9548.656652,0.000000
356.692281,814.226536,-9252.574275,536.266849
356.692605,518.144159,-8956.491898,0.000000
356.692929,222.061783,-8956.491898,0.000000
356.693253,0.000000,-8956.491898,-229.828649
356.693577,0.000000,-9178.553681,0.000000
356.693901,0.000000,-9400.615463,-153.219100
356.694225,-370.102971,-9030.512492,0.000000
356.694549,0.000000,-9104.533087,0.000000
356.694873,-222.061783,-8512.368333,-306.438199
356.695197,-148.041188,-9622.677246,0.000000
356.695521,-518.144159,-9400.615463,-229.828649
356.695845,-370.102971,-9326.594869,0.000000
356.696169,-148.041188,-9178.553681,-153.219100
356.696494,74.020594,-9326.594869,-229.828649
356.696818,148.041188,-9918.759623,153.219100
356.697142,148.041188,-9622.677246,306.438199
356.697466,592.164754,-9770.718434,229.828649
356.697790,666.185348,-9474.636058,0.000000
356.698114,370.102971,-10066.800811,0.000000
356.698438,444.123565,-9992.780217,229.828649
356.698762,296.082377,-10066.800811,0.000000
356.699087,666.185348,-9992.780217,0.000000
356.699411,444.123565,-10066.800811,76.609550
356.699735,370.102971,-10140.821405,153.219100
356.700059,666.185348,-10066.800811,459.657299
356.700383,444.123565,-9770.718434,306.438199
356.700707,74.020594,-9770.718434,76.609550
356.701031,-222.061783,-9400.615463,306.438199
356.701355,-962.267725,-9622.677246,0.000000
356.701679,-1184.329507,-9400.615463,76.609550
356.702004,-1184.329507,-9178.553681,76.609550
356.702328,-1332.370696,-9030.512492,306.438199
356.702652,-1184.329507,-9178.553681,0.000000
356.702976,-1332.370696,-8808.450710,-459.657299
356.703300,-1554.432478,-8956.491898,-306.438199
356.703624,-1480.411884,-9474.636058,0.000000
356.703948,-1480.411884,-9622.677246,-306.438199
356.704272,-1332.370696,-9474.636058,-229.828649
356.704597,-1258.350101,-9548.656652,-306.438199
356.704921,-962.267725,-9622.677246,-383.047749
356.705245,-962.267725,-10066.800811,-459.657299
356.705569,-370.102971,-9844.739029,-153.219100
356.705893,-148.041188,-9844.739029,0.000000
356.706217,592.164754,-10066.800811,0.000000
356.706541,814.226536,-9992.780217,-229.828649
356.706865,888.247130,-10214.842000,-306.438199
356.707190,1184.329507,-10214.842000,0.000000
356.707514,1258.350101,-9918.759623,-306.438199
356.707838,1628.453072,-10214.842000,-459.657299
356.708162,1554.432478,-10214.842000,-536.266849
356.708486,1702.473667,-10288.862594,-306.438199
356.708810,1406.391290,-10214.842000,-153.219100
356.709134,1258.350101,-9844.739029,-306.438199
356.709458,888.247130,-9992.780217,-229.828649
356.709783,592.164754,-9992.780217,-995.924147
356.710107,444.123565,-9474.636058,459.657299
356.710431,0.000000,-9178.553681,0.000000
356.710755,148.041188,-9178.553681,-229.828649
356.711079,0.000000,-9474.636058,-383.047749
356.711403,0.000000,-9104.533087,-229.828649
356.711727,0.000000,-9178.553681,-229.828649
356.712051,-296.082377,-9104.533087,0.000000
356.712375,-740.205942,-9178.553681,-229.828649
356.712700,-666.185348,-9178.553681,-536.266849
356.713024,-296.082377,-9252.574275,0.000000
356.713348,-148.041188,-9326.594869,0.000000
356.713672,-296.082377,-9474.636058,0.000000
356.713996,-296.082377,-9622.677246,0.000000
356.714320,-148.041188,-9622.677246,0.000000
356.714644,370.102971,-10066.800811,0.000000
356.714968,148.041188,-10214.842000,0.000000
356.715293,370.102971,-10140.821405,0.000000
356.715617,666.185348,-10214.842000,76.609550
356.715941,814.226536,-10214.842000,153.219100
356.716265,666.185348,-10066.800811,76.609550
356.716589,518.144159,-10362.883188,0.000000
356.716913,518.144159,-9770.718434,153.219100
356.717237,666.185348,-10288.862594,383.047749
356.717561,-222.061783,-9622.677246,-153.219100
356.717886,-148.041188,-9992.780217,306.438199
356.718210,-444.123565,-9992.780217,0.000000
356.718534,-444.123565,-10214.842000,153.219100
356.718858,-592.164754,-9844.739029,153.219100
356.719182,-888.247130,-9474.636058,383.047749
356.719506,-1036.288319,-9252.574275,459.657299
356.719830,-1184.329507,-9178.553681,-459.657299
356.720154,-1554.432478,-9474.636058,229.828649
356.720478,-1332.370696,-9400.615463,0.000000
356.720803,-1480.411884,-9326.594869,0.000000
356.721127,-1628.453072,-9030.512492,-229.828649
356.721451,-1480.411884,-9252.574275,-306.438199
356.721775,-1702.473667,-9400.615463,0.000000
356.722099,-1554.432478,-9252.574275,-689.485948
356.722423,-1036.288319,-9030.512492,0.000000
356.722747,-370.102971,-9548.656652,-459.657299
356.723071,-222.061783,-9696.697840,-153.219100
356.723396,222.061783,-9696.697840,-306.438199
356.723720,666.185348,-9918.759623,-229.828649
356.724044,814.226536,-10140.821405,0.000000
356.724368,888.247130,-10214.842000,-229.828649
356.724692,592.164754,-9992.780217,-229.828649
356.725016,1258.350101,-10214.842000,-306.438199
356.725340,1184.329507,-10066.800811,0.000000
356.725664,1332.370696,-10436.903782,-153.219100
356.725989,1036.288319,-10362.883188,-229.828649
356.726313,1110.308913,-10362.883188,-383.047749
356.726637,888.247130,-10214.842000,-536.266849
356.726961,1110.308913,-9770.718434,-383.047749
356.727285,962.267725,-9622.677246,-153.219100
356.727609,222.061783,-9548.656652,-919.314598
356.727933,0.000000,-9622.677246,-459.657299
356.728257,148.041188,-9474.636058,-536.266849
356.728581,296.082377,-9474.636058,0.000000
356.728906,296.082377,-9474.636058,76.609550
356.729230,222.061783,-9474.636058,153.219100
356.729554,0.000000,-9104.533087,76.609550
356.729878,-518.144159,-9474.636058,0.000000
356.730202,-222.061783,-9696.697840,0.000000
356.730526,-518.144159,-9548.656652,-459.657299
356.730850,-444.123565,-9696.697840,76.609550
356.731174,0.000000,-9844.739029,229.828649
356.731499,444.123565,-9548.656652,383.047749
356.731823,444.123565,-9400.615463,306.438199
356.732147,444.123565,-9178.553681,306.438199
356.732471,814.226536,-9548.656652,-153.219100
356.732795,518.144159,-9918.759623,76.609550
356.733119,296.082377,-9992.780217,306.438199
356.733443,222.061783,-10140.821405,306.438199
356.733767,148.041188,-9918.759623,229.828649
356.734092,296.082377,-9548.656652,306.438199
356.734416,370.102971,-10658.965565,383.047749
356.734740,370.102971,-9548.656652,536.266849
356.735064,518.144159,-9770.718434,612.876398
356.735388,0.000000,-9844.739029,459.657299
356.735712,0.000000,-9474.636058,766.095498
356.736036,-296.082377,-9474.636058,306.438199
356.736360,-370.102971,-9474.636058,306.438199
356.736684,-444.123565,-8808.450710,459.657299
356.737009,-740.205942,-8956.491898,383.047749
356.737333,-370.102971,-8660.409521,229.828649
356.737657,-814.226536,-8956.491898,153.219100
356.737981,-888.247130,-9030.512492,153.219100
356.738305,-1258.350101,-8882.471304,0.000000
356.738629,-1628.453072,-9178.553681,76.609550
356.738953,-1776.494261,-8956.491898,0.000000
356.739277,-1702.473667,-9474.636058,153.219100
356.739602,-1554.432478,-9770.718434,76.609550
356.739926,-1702.473667,-9844.739029,-153.219100
356.740250,-1554.432478,-9992.780217,-306.438199
356.740574,-1258.350101,-9696.697840,-612.876398
356.740898,-444.123565,-9770.718434,-383.047749
356.741222,222.061783,-9622.677246,0.000000
356.741546,814.226536,-9770.718434,0.000000
356.741870,1184.329507,-10140.821405,0.000000
356.742195,1110.308913,-10066.800811,-536.266849
356.742519,1480.411884,-10362.883188,-689.485948
356.742843,1258.350101,-10584.944971,-612.876398
356.743167,962.267725,-10584.944971,-766.095498
356.743491,962.267725,-10881.027347,-459.657299
356.743815,1110.308913,-10881.027347,-766.095498
356.744139,740.205942,-10732.986159,0.000000
356.744463,740.205942,-10288.862594,-689.485948
356.744787,1258.350101,-10807.006753,-306.438199
356.745112,370.102971,-10066.800811,0.000000
356.745436,370.102971,-9918.759623,-153.219100
356.745760,370.102971,-9622.677246,-536.266849
356.746084,148.041188,-9252.574275,-459.657299
356.746408,0.000000,-9252.574275,-459.657299
356.746732,148.041188,-9178.553681,76.609550
356.747056,0.000000,-9326.594869,0.000000
356.747380,-296.082377,-8956.491898,0.000000
356.747705,-592.164754,-9252.574275,-536.266849
356.748029,-592.164754,-9326.594869,-459.657299
356.748353,-814.226536,-9474.636058,-536.266849
356.748677,-962.267725,-9400.615463,-306.438199
356.749001,-740.205942,-9252.574275,-229.828649
356.749325,-296.082377,-8956.491898,0.000000
356.749649,0.000000,-9326.594869,153.219100
356.749973,74.020594,-9474.636058,0.000000
356.750298,518.144159,-9622.677246,306.438199
356.750622,1036.288319,-9548.656652,0.000000
356.750946,740.205942,-9696.697840,76.609550
356.751270,740.205942,-9770.718434,76.609550
356.751594,592.164754,-9918.759623,76.609550
356.751918,740.205942,-9844.739029,0.000000
356.752242,666.185348,-10066.800811,76.609550
356.752566,592.164754,-9696.697840,-229.828649
356.752891,370.102971,-9622.677246,0.000000
356.753215,0.000000,-9474.636058,76.609550
356.753539,-222.061783,-9770.718434,306.438199
356.753863,-666.185348,-9548.656652,153.219100
356.754187,-962.267725,-9474.636058,306.438199
356.754511,-1036.288319,-9252.574275,459.657299
356.754835,-814.226536,-9104.533087,383.047749
356.755159,-1036.288319,-9030.512492,689.485948
356.755483,-962.267725,-9178.553681,229.828649
356.755808,-1184.329507,-9178.553681,-153.219100
356.756132,-1628.453072,-9400.615463,-153.219100
356.756456,-1702.473667,-9400.615463,-153.219100
356.756780,-1554.432478,-9622.677246,-383.047749
356.757104,-1406.391290,-9622.677246,-689.485948
356.757428,-1184.329507,-9548.656652,-536.266849
356.757752,-1110.308913,-9548.656652,0.000000
356.758076,-444.123565,-9918.759623,0.000000
356.758401,-296.082377,-10066.800811,-536.266849
356.758725,296.082377,-10140.821405,0.000000
356.759049,740.205942,-10288.862594,229.828649
356.759373,444.123565,-10214.842000,153.219100
356.759697,814.226536,-10288.862594,-229.828649
356.760021,814.226536,-10066.800811,76.609550
356.760345,888.247130,-10140.821405,76.609550
356.760669,962.267725,-10066.800811,0.000000
356.760994,888.247130,-10288.862594,-153.219100
356.761318,814.226536,-10140.821405,-306.438199
356.761642,814.226536,-10140.821405,-153.219100
356.761966,740.205942,-9918.759623,-306.438199
356.762290,592.164754,-9474.636058,0.000000
356.762614,1036.288319,-9770.718434,76.609550
356.762938,1036.288319,-9400.615463,229.828649
356.763262,666.185348,-9400.615463,76.609550
356.763586,370.102971,-9326.594869,-153.219100
356.763911,0.000000,-9252.574275,0.000000
356.764235,0.000000,-9178.553681,229.828649
356.764559,0.000000,-9252.574275,229.828649
356.764883,0.000000,-8956.491898,229.828649
356.765207,-666.185348,-9104.533087,0.000000
356.765531,-444.123565,-9178.553681,-612.876398
356.765855,-740.205942,-8956.491898,0.000000
356.766179,-444.123565,-8956.491898,0.000000
356.766504,-222.061783,-9030.512492,0.000000
356.766828,222.061783,-9252.574275,229.828649
356.767152,592.164754,-9548.656652,536.266849
356.767476,370.102971,-9326.594869,459.657299
356.767800,296.082377,-9548.656652,229.828649
356.768124,666.185348,-9548.656652,383.047749
356.768448,518.144159,-9844.739029,0.000000
356.768772,444.123565,-9992.780217,0.000000
356.769097,518.144159,-10288.862594,229.828649
356.769421,962.267725,-10140.821405,612.876398
356.769745,740.205942,-9770.718434,536.266849
356.770069,740.205942,-9992.780217,153.219100
356.770393,740.205942,-10362.883188,0.000000
356.770717,148.041188,-10066.800811,76.609550
356.771041,0.000000,-10066.800811,76.609550
356.771365,0.000000,-10066.800811,76.609550
356.771689,-444.123565,-9770.718434,-153.219100
356.772014,-814.226536,-9474.636058,76.609550
356.772338,-1258.350101,-9326.594869,0.000000
356.772662,-1036.288319,-9030.512492,76.609550
356.772986,-1258.350101,-9252.574275,-76.609550
356.773310,-1480.411884,-9400.615463,-306.438199
356.773634,-1850.514855,-9326.594869,-383.047749
356.773958,-1850.514855,-9252.574275,-153.219100
356.774282,-1628.453072,-9474.636058,-612.876398
356.774607,-1480.411884,-9770.718434,-306.438199
356.774931,-1258.350101,-9696.697840,-459.657299
356.775255,-888.247130,-9770.718434,-229.828649
356.775579,-814.226536,-10140.821405,0.000000
356.775903,-740.205942,-10140.821405,-459.657299
356.776227,-370.102971,-10140.821405,-536.266849
356.776551,0.000000,-9844.739029,-229.828649
356.776875,740.205942,-9992.780217,-153.219100
356.777200,740.205942,-10362.883188,-459.657299
356.777524,962.267725,-10140.821405,0.000000
356.777848,962.267725,-10140.821405,-536.266849
356.778172,1036.288319,-10214.842000,-306.438199
356.778496,1110.308913,-10140.821405,-306.438199
356.778820,1110.308913,-10140.821405,-306.438199
356.779144,1036.288319,-10214.842000,0.000000
356.779468,888.247130,-9918.759623,-995.924147
356.779792,1036.288319,-9696.697840,0.000000
356.780117,888.247130,-9474.636058,-306.438199
356.780441,592.164754,-9622.677246,-229.828649
356.780765,444.123565,-9622.677246,0.000000
356.781089,518.144159,-9844.739029,-229.828649
356.781413,296.082377,-9178.553681,-306.438199
356.781737,370.102971,-9104.533087,76.609550
356.782061,0.000000,-9104.533087,0.000000
356.782385,0.000000,-8956.491898,229.828649
356.782710,0.000000,-9252.574275,0.000000
356.783034,-370.102971,-9030.512492,0.000000
356.783358,-370.102971,-9030.512492,-229.828649
356.783682,-222.061783,-9178.553681,-229.828649
356.784006,-296.082377,-8956.491898,-689.485948
356.784330,-592.164754,-8956.491898,-306.438199
356.784654,-296.082377,-9252.574275,-459.657299
356.784978,-296.082377,-9326.594869,-383.047749
356.785303,0.000000,-9474.636058,76.609550
356.785627,148.041188,-9770.718434,153.219100
356.785951,518.144159,-10066.800811,306.438199
356.786275,888.247130,-10510.924376,229.828649
356.786599,666.185348,-10140.821405,76.609550
356.786923,518.144159,-10140.821405,76.609550
356.787247,518.144159,-10066.800811,-229.828649
356.787571,444.123565,-9918.759623,383.047749
356.787896,740.205942,-9770.718434,0.000000
356.788220,518.144159,-10140.821405,0.000000
356.788544,296.082377,-10140.821405,0.000000
356.788868,0.000000,-9992.780217,0.000000
356.789192,-370.102971,-9918.759623,689.485948
356.789516,-740.205942,-9548.656652,0.000000
356.789840,-814.226536,-9622.677246,76.609550
356.790164,-1332.370696,-9178.553681,0.000000
356.790488,-962.267725,-9474.636058,0.000000
356.790813,-1258.350101,-9400.615463,-153.219100
356.791137,-1480.411884,-9474.636058,0.000000
356.791461,-1776.494261,-9474.636058,0.000000
356.791785,-1776.494261,-9474.636058,76.609550
356.792109,-1702.473667,-9030.512492,-229.828649
356.792433,-1776.494261,-9474.636058,-153.219100
356.792757,-1554.432478,-9474.636058,-306.438199
356.793081,-962.267725,-9548.656652,-229.828649
356.793406,-444.123565,-9400.615463,-536.266849
356.793730,222.061783,-9770.718434,-459.657299
356.794054,592.164754,-9622.677246,-229.828649
356.794378,592.164754,-9844.739029,0.000000
356.794702,444.123565,-9770.718434,0.000000
356.795026,518.144159,-9696.697840,-153.219100
356.795350,518.144159,-10362.883188,-229.828649
356.795674,740.205942,-10510.924376,0.000000
356.795998,814.226536,-10362.883188,-153.219100
356.796322,962.267725,-10140.821405,536.266849
356.796647,1184.329507,-9696.697840,0.000000
356.796971,740.205942,-9622.677246,153.219100
356.797295,740.205942,-9622.677246,229.828649
356.797619,740.205942,-9474.636058,-153.219100
356.797943,814.226536,-9474.636058,306.438199
356.798267,1036.288319,-9178.553681,0.000000
356.798591,592.164754,-8882.471304,-153.219100
356.798915,222.061783,-9178.553681,-153.219100
356.799239,296.082377,-9326.594869,0.000000
356.799563,74.020594,-9252.574275,-76.609550
356.799887,74.020594,-8956.491898,0.000000
356.800211,0.000000,-9474.636058,0.000000
356.800536,-444.123565,-9400.615463,76.609550
356.800860,-666.185348,-9252.574275,0.000000
356.801184,-888.247130,-9474.636058,0.000000
356.801508,-592.164754,-9548.656652,0.000000
356.801832,-148.041188,-9474.636058,153.219100
356.802156,0.000000,-8808.450710,306.438199
356.802480,296.082377,-9548.656652,306.438199
356.802804,740.205942,-9622.677246,229.828649
356.803128,518.144159,-9696.697840,0.000000
356.803452,518.144159,-9696.697840,0.000000
356.803776,444.123565,-10066.800811,0.000000
356.804100,592.164754,-10066.800811,0.000000
356.804425,666.185348,-10362.883188,306.438199
356.804749,1258.350101,-10214.842000,459.657299
356.805073,592.164754,-10436.903782,0.000000
356.805397,444.123565,-10288.862594,383.047749
356.805721,222.061783,-10288.862594,459.657299
356.806045,0.000000,-10066.800811,229.828649
356.806369,-296.082377,-9918.759623,459.657299
356.806693,-296.082377,-9696.697840,459.657299
356.807017,-518.144159,-9622.677246,306.438199
356.807341,-962.267725,-9474.636058,76.609550
356.807665,-1258.350101,-9104.533087,383.047749
356.807989,-1110.308913,-9252.574275,0.000000
356.808314,-1184.329507,-9252.574275,0.000000
356.808638,-1406.391290,-9030.512492,-459.657299
356.808962,-1554.432478,-9178.553681,0.000000
356.809286,-1702.473667,-9474.636058,-459.657299
356.809610,-1702.473667,-9474.636058,-536.266849
356.809934,-1628.453072,-9252.574275,-153.219100
356.810258,-1332.370696,-9474.636058,0.000000
356.810582,-814.226536,-9696.697840,-306.438199
356.810906,-962.267725,-9622.677246,0.000000
356.811230,-518.144159,-9844.739029,0.000000
356.811554,-370.102971,-9622.677246,-229.828649
356.811878,222.061783,-9400.615463,0.000000
356.812203,518.144159,-9474.636058,-229.828649
356.812527,888.247130,-9474.636058,153.219100
356.812851,1036.288319,-9770.718434,0.000000
356.813175,888.247130,-9770.718434,-459.657299
356.813499,1258.350101,-9918.759623,-459.657299
356.813823,1332.370696,-10214.842000,-536.266849
356.814147,1184.329507,-10362.883188,-383.047749
356.814471,1554.432478,-10214.842000,0.000000
356.814795,1258.350101,-10066.800811,0.000000
356.815119,1332.370696,-10362.883188,0.000000
356.815443,1036.288319,-9918.759623,229.828649
356.815767,1036.288319,-10066.800811,76.609550
356.816092,814.226536,-9992.780217,229.828649
356.816416,888.247130,-9548.656652,76.609550
356.816740,592.164754,-9548.656652,306.438199
356.817064,222.061783,-9030.512492,0.000000
356.817388,222.061783,-9474.636058,-383.047749
356.817712,222.061783,-9104.533087,0.000000
356.818036,-296.082377,-9252.574275,0.000000
356.818360,-592.164754,-9178.553681,-612.876398
356.818684,-740.205942,-9178.553681,-612.876398
356.819008,-740.205942,-9178.553681,-153.219100
356.819332,-592.164754,-9622.677246,-612.876398
356.819656,-814.226536,-9178.553681,0.000000
356.819980,-814.226536,-9474.636058,383.047749
356.820305,-518.144159,-9252.574275,536.266849
356.820629,148.041188,-9770.718434,153.219100
356.820953,370.102971,-9696.697840,153.219100
356.821277,444.123565,-9622.677246,153.219100
356.821601,444.123565,-9844.739029,306.438199
356.821925,592.164754,-9992.780217,0.000000
356.822249,814.226536,-10066.800811,0.000000
356.822573,814.226536,-10066.800811,0.000000
356.822897,518.144159,-10066.800811,-153.219100
356.823221,518.144159,-10288.862594,-76.609550
356.823545,148.041188,-9992.780217,0.000000
356.823869,74.020594,-10066.800811,-153.219100
356.824194,-370.102971,-9770.718434,0.000000
356.824518,-296.082377,-9696.697840,76.609550
356.824842,-962.267725,-9326.594869,383.047749
356.825166,-1332.370696,-9326.594869,306.438199
356.825490,-1332.370696,-9252.574275,0.000000
356.825814,-1258.350101,-9252.574275,0.000000
356.826138,-1184.329507,-9326.594869,0.000000
356.826462,-1036.288319,-9104.533087,459.657299
356.826786,-1332.370696,-9400.615463,229.828649
356.827110,-1554.432478,-9400.615463,-153.219100
356.827434,-1554.432478,-9400.615463,0.000000
356.827758,-1406.391290,-9622.677246,-229.828649
356.828083,-962.267725,-9696.697840,-153.219100
356.828407,-444.123565,-9622.677246,0.000000
356.828731,-222.061783,-9548.656652,612.876398
356.829055,222.061783,-9622.677246,459.657299
356.829379,296.082377,-9622.677246,383.047749
356.829703,-148.041188,-9326.594869,-229.828649
356.830027,222.061783,-9474.636058,0.000000
356.830351,518.144159,-10066.800811,0.000000
356.830675,518.144159,-10066.800811,-153.219100
356.830999,814.226536,-10362.883188,-153.219100
356.831323,1036.288319,-10362.883188,-153.219100
356.831647,1258.350101,-9992.780217,76.609550
356.831972,888.247130,-10362.883188,306.438199
356.832296,1036.288319,-10140.821405,383.047749
356.832620,888.247130,-9918.759623,0.000000
356.832944,962.267725,-9696.697840,306.438199
356.833268,888.247130,-9548.656652,76.609550
356.833592,888.247130,-9548.656652,76.609550
356.833916,740.205942,-9030.512492,76.609550
356.834240,370.102971,-9252.574275,536.266849
356.834564,148.041188,-8808.450710,459.657299
356.834888,370.102971,-9252.574275,0.000000
356.835212,74.020594,-9326.594869,76.609550
356.835536,-444.123565,-9474.636058,-153.219100
356.835861,-296.082377,-9474.636058,-153.219100
356.836185,-518.144159,-9474.636058,0.000000
356.836509,-518.144159,-9400.615463,153.219100
356.836833,-370.102971,-9474.636058,229.828649
356.837157,-222.061783,-9252.574275,0.000000
356.837481,148.041188,-9400.615463,0.000000
356.837805,74.020594,-9326.594869,0.000000
356.838129,370.102971,-9622.677246,-153.219100
356.838453,296.082377,-9918.759623,-229.828649
356.838777,370.102971,-9918.759623,0.000000
356.839101,222.061783,-10140.821405,0.000000
356.839425,740.205942,-9918.759623,459.657299
356.839750,370.102971,-9844.739029,0.000000
356.840074,370.102971,-10362.883188,0.000000
356.840398,148.041188,-10140.821405,0.000000
356.840722,0.000000,-10066.800811,0.000000
356.841046,-148.041188,-10288.862594,0.000000
356.841370,-148.041188,-10288.862594,76.609550
356.841694,-444.123565,-9770.718434,153.219100
356.842018,-814.226536,-9474.636058,-536.266849
356.842342,-888.247130,-9252.574275,153.219100
356.842666,-592.164754,-9104.533087,459.657299
356.842990,-888.247130,-9326.594869,0.000000
356.843314,-1332.370696,-8808.450710,-306.438199
356.843639,-1110.308913,-8956.491898,-153.219100
356.843963,-1332.370696,-9104.533087,-459.657299
356.844287,-1406.391290,-9030.512492,-306.438199
356.844611,-1332.370696,-9030.512492,-306.438199
356.844935,-1776.494261,-9104.533087,-536.266849
356.845259,-1480.411884,-9474.636058,-459.657299
356.845583,-1036.288319,-9474.636058,-153.219100
356.845907,-1110.308913,-9474.636058,-306.438199
356.846231,-888.247130,-9696.697840,-383.047749
356.846555,-518.144159,-9770.718434,-153.219100
356.846879,0.000000,-9696.697840,-536.266849
356.847203,370.102971,-9844.739029,-842.705048
356.847527,888.247130,-10066.800811,-459.657299
356.847852,1258.350101,-9474.636058,-306.438199
356.848176,1332.370696,-10214.842000,-612.876398
356.848500,1184.329507,-10214.842000,-612.876398
356.848824,1110.308913,-10362.883188,-459.657299
356.849148,814.226536,-10584.944971,-536.266849
356.849472,962.267725,-10658.965565,-459.657299
356.849796,888.247130,-10807.006753,-306.438199
356.850120,1406.391290,-10362.883188,0.000000
356.850444,888.247130,-10066.800811,229.828649
356.850768,1110.308913,-10140.821405,76.609550
356.851092,1036.288319,-9992.780217,76.609550
356.851416,740.205942,-9548.656652,459.657299
356.851741,444.123565,-9622.677246,0.000000
356.852065,0.000000,-9252.574275,0.000000
356.852389,-222.061783,-9252.574275,0.000000
356.852713,-518.144159,-9178.553681,-229.828649
356.853037,-444.123565,-9178.553681,76.609550
356.853361,-666.185348,-8956.491898,-459.657299
356.853685,-444.123565,-8808.450710,0.000000
356.854009,-740.205942,-9030.512492,459.657299
356.854333,-740.205942,-9474.636058,76.609550
356.854657,-962.267725,-9400.615463,306.438199
356.854981,-888.247130,-9030.512492,306.438199
356.855305,-592.164754,-8956.491898,459.657299
356.855630,0.000000,-9178.553681,383.047749
356.855954,592.164754,-9400.615463,919.314598
356.856278,666.185348,-9474.636058,536.266849
356.856602,666.185348,-9030.512492,689.485948
356.856926,518.144159,-9474.636058,459.657299
356.857250,518.144159,-9400.615463,229.828649
356.857574,740.205942,-9622.677246,229.828649
356.857898,666.185348,-9918.759623,766.095498
356.858222,444.123565,-9992.780217,383.047749
356.858546,296.082377,-9844.739029,229.828649
356.858870,296.082377,-10658.965565,76.609550
356.859194,0.000000,-10066.800811,229.828649
356.859519,0.000000,-10140.821405,306.438199
356.859843,-148.041188,-9992.780217,536.266849
356.860167,-592.164754,-9474.636058,383.047749
356.860491,-888.247130,-9622.677246,383.047749
356.860815,-666.185348,-9474.636058,306.438199
356.861139,-1036.288319,-9474.636058,153.219100
356.861463,-888.247130,-9400.615463,0.000000
356.861787,-1036.288319,-9474.636058,-229.828649
356.862111,-1258.350101,-9326.594869,0.000000
356.862435,-1332.370696,-9548.656652,-383.047749
356.862759,-1628.453072,-9548.656652,-612.876398
356.863083,-1924.535449,-9622.677246,-383.047749
356.863408,-1480.411884,-9696.697840,-459.657299
356.863732,-1184.329507,-9918.759623,-229.828649
356.864056,-666.185348,-9844.739029,-383.047749
356.864380,-296.082377,-9844.739029,-383.047749
356.864704,74.020594,-9918.759623,0.000000
356.865028,592.164754,-9696.697840,-229.828649
356.865352,666.185348,-10140.821405,-306.438199
356.865676,592.164754,-9918.759623,0.000000
356.866000,740.205942,-10066.800811,-306.438199
356.866324,1110.308913,-10214.842000,-153.219100
356.866648,1184.329507,-10362.883188,-153.219100
356.866972,888.247130,-10214.842000,-459.657299
356.867297,1036.288319,-10362.883188,-229.828649
356.867621,1110.308913,-10214.842000,0.000000
356.867945,592.164754,-9696.697840,-536.266849
356.868269,666.185348,-9844.739029,-536.266849
356.868593,814.226536,-9474.636058,-383.047749
356.868917,370.102971,-9400.615463,-153.219100
356.869241,0.000000,-9178.553681,-153.219100
356.869565,0.000000,-9326.594869,0.000000
356.869889,0.000000,-8882.471304,-306.438199
356.870213,-296.082377,-9030.512492,-153.219100
356.870537,148.041188,-9030.512492,459.657299
356.870861,-370.102971,-9104.533087,-383.047749
356.871186,-740.205942,-9030.512492,-306.438199
356.871510,-370.102971,-9474.636058,-383.047749
356.871834,-814.226536,-9326.594869,-153.219100
356.872158,-296.082377,-9696.697840,-229.828649
356.872482,-148.041188,-9474.636058,-153.219100
356.872806,0.000000,-9474.636058,-306.438199
356.873130,444.123565,-9474.636058,76.609550
356.873454,148.041188,-9548.656652,229.828649
356.873778,518.144159,-9696.697840,229.828649
356.874102,444.123565,-9844.739029,153.219100
356.874426,518.144159,-9918.759623,153.219100
356.874750,592.164754,-10436.903782,0.000000
356.875074,518.144159,-10066.800811,0.000000
356.875399,444.123565,-10362.883188,0.000000
356.875723,222.061783,-10288.862594,306.438199
356.876047,518.144159,-10362.883188,229.828649
356.876371,370.102971,-10510.924376,306.438199
356.876695,0.000000,-9918.759623,0.000000
356.877019,222.061783,-10140.821405,153.219100
356.877343,0.000000,-9918.759623,383.047749
356.877667,-222.061783,-9918.759623,229.828649
356.877991,-666.185348,-9548.656652,229.828649
356.878315,-444.123565,-9400.615463,0.000000
356.878639,-740.205942,-9548.656652,229.828649
356.878963,-740.205942,-9326.594869,229.828649
356.879288,-1184.329507,-9400.615463,-153.219100
356.879612,-1332.370696,-9104.533087,0.000000
356.879936,-1332.370696,-9178.553681,76.609550
356.880260,-1628.453072,-9030.512492,0.000000
356.880584,-1332.370696,-9474.636058,612.876398
356.880908,-1332.370696,-9400.615463,689.485948
356.881232,-1036.288319,-9400.615463,0.000000
356.881556,-1258.350101,-9326.594869,0.000000
356.881880,-888.247130,-9622.677246,0.000000
356.882204,-518.144159,-9622.677246,-153.219100
356.882528,0.000000,-9696.697840,0.000000
356.882852,666.185348,-9844.739029,-306.438199
356.883177,740.205942,-9770.718434,-153.219100
356.883501,888.247130,-10362.883188,306.438199
356.883825,592.164754,-9844.739029,76.609550
356.884149,888.247130,-9992.780217,-459.657299
356.884473,1184.329507,-10140.821405,0.000000
356.884797,1110.308913,-10288.862594,0.000000
356.885121,1332.370696,-10214.842000,-153.219100
356.885445,1184.329507,-9844.739029,-536.266849
356.885769,1258.350101,-10288.862594,-536.266849
356.886093,1184.329507,-9696.697840,153.219100
356.886417,1036.288319,-10140.821405,0.000000
356.886741,814.226536,-9770.718434,153.219100
356.887066,592.164754,-9770.718434,0.000000
356.887390,444.123565,-9474.636058,-76.609550
356.887714,74.020594,-9252.574275,76.609550
356.888038,296.082377,-9178.553681,76.609550
356.888362,222.061783,-9326.594869,-153.219100
356.888686,-222.061783,-8956.491898,153.219100
356.889010,-444.123565,-8956.491898,-229.828649
356.889334,-444.123565,-9178.553681,-306.438199
356.889658,-518.144159,-9400.615463,-229.828649
356.889982,-370.102971,-9474.636058,0.000000
356.890306,-1110.308913,-9252.574275,0.000000
356.890630,-148.041188,-9252.574275,229.828649
356.890955,148.041188,-9474.636058,0.000000
356.891279,518.144159,-9992.780217,0.000000
356.891603,296.082377,-9696.697840,153.219100
356.891927,518.144159,-9770.718434,-153.219100
356.892251,592.164754,-9844.739029,0.000000
356.892575,814.226536,-9918.759623,0.000000
356.892899,666.185348,-10140.821405,229.828649
356.893223,888.247130,-10288.862594,76.609550
356.893547,1036.288319,-9992.780217,0.000000
356.893871,592.164754,-10066.800811,0.000000
356.894195,74.020594,-10140.821405,0.000000
356.894519,0.000000,-10214.842000,229.828649
356.894844,0.000000,-10066.800811,76.609550
356.895168,-370.102971,-10362.883188,0.000000
356.895492,-1332.370696,-9474.636058,-306.438199
356.895816,-1110.308913,-9548.656652,0.000000
356.896140,-1406.391290,-9252.574275,0.000000
356.896464,-1628.453072,-9326.594869,0.000000
356.896789,-1628.453072,-9030.512492,-229.828649
356.897113,-1628.453072,-9178.553681,-153.219100
356.897437,-1332.370696,-9104.533087,-153.219100
356.897761,-1480.411884,-8956.491898,-229.828649
356.898086,-1036.288319,-9326.594869,-306.438199
356.898410,-1110.308913,-9252.574275,-153.219100
356.898734,-1406.391290,-9326.594869,-383.047749
356.899058,-1184.329507,-9474.636058,-306.438199
356.899383,-592.164754,-9770.718434,-766.095498
356.899707,-296.082377,-9622.677246,-153.219100
356.900031,-148.041188,-9992.780217,229.828649
356.900355,444.123565,-9696.697840,229.828649
356.900679,74.020594,-10140.821405,-383.047749
356.901004,518.144159,-9992.780217,-459.657299
356.901328,740.205942,-10140.821405,-306.438199
356.901652,888.247130,-10288.862594,-306.438199
356.901976,740.205942,-10140.821405,-612.876398
356.902301,1554.432478,-10066.800811,0.000000
356.902625,1110.308913,-9918.759623,-459.657299
356.902949,1036.288319,-10510.924376,-306.438199
356.903273,518.144159,-10066.800811,0.000000
356.903598,518.144159,-9918.759623,-306.438199
356.903922,296.082377,-9844.739029,-153.219100
356.904246,444.123565,-9622.677246,0.000000
356.904570,296.082377,-9474.636058,0.000000
356.904895,74.020594,-9400.615463,76.609550
356.905219,370.102971,-9326.594869,459.657299
356.905543,222.061783,-9104.533087,153.219100
356.905867,148.041188,-9252.574275,0.000000
356.906191,0.000000,-9474.636058,0.000000
356.906516,-148.041188,-9474.636058,153.219100
356.906840,-444.123565,-9400.615463,-229.828649
356.907164,0.000000,-9178.553681,0.000000
356.907488,-296.082377,-9252.574275,229.828649
356.907813,0.000000,-8956.491898,-229.828649
356.908137,0.000000,-9178.553681,153.219100
356.908461,-148.041188,-9326.594869,229.828649
356.908785,0.000000,-9474.636058,306.438199
356.909110,222.061783,-9696.697840,229.828649
356.909434,592.164754,-9474.636058,0.000000
356.909758,962.267725,-9548.656652,536.266849
356.910082,1110.308913,-9770.718434,689.485948
356.910407,666.185348,-9622.677246,306.438199
356.910731,518.144159,-10066.800811,536.266849
356.911055,222.061783,-9918.759623,153.219100
356.911379,222.061783,-9844.739029,383.047749
356.911704,296.082377,-9992.780217,459.657299
356.912028,296.082377,-10066.800811,76.609550
356.912352,0.000000,-9770.718434,-459.657299
356.912676,148.041188,-9326.594869,306.438199
356.913000,-518.144159,-9474.636058,383.047749
356.913325,-740.205942,-9474.636058,229.828649
356.913649,-962.267725,-9548.656652,229.828649
356.913973,-888.247130,-9252.574275,306.438199
356.914297,-962.267725,-9252.574275,229.828649
356.914622,-888.247130,-9400.615463,0.000000
356.914946,-1480.411884,-9326.594869,229.828649
356.915270,-1406.391290,-9030.512492,0.000000
356.915594,-1628.453072,-9252.574275,0.000000
356.915919,-1850.514855,-9400.615463,-229.828649
356.916243,-1554.432478,-9474.636058,-306.438199
356.916567,-1184.329507,-9918.759623,-229.828649
356.916891,-888.247130,-9622.677246,0.000000
356.917216,-444.123565,-9770.718434,0.000000
356.917540,-444.123565,-9474.636058,-383.047749
356.917864,74.020594,-9474.636058,-689.485948
356.918188,518.144159,-9918.759623,-153.219100
356.918512,962.267725,-10362.883188,-229.828649
356.918837,1110.308913,-10436.903782,-153.219100
356.919161,1036.288319,-10288.862594,-229.828649
356.919485,888.247130,-9918.759623,-536.266849
356.919809,888.247130,-10584.944971,0.000000
356.920134,1036.288319,-10140.821405,0.000000
356.920458,1702.473667,-10658.965565,-153.219100
356.920782,1406.391290,-10288.862594,-229.828649
356.921106,1110.308913,-10140.821405,-153.219100
356.921431,1406.391290,-10362.883188,-306.438199
356.921755,1332.370696,-9992.780217,0.000000
356.922079,962.267725,-9622.677246,-306.438199
356.922403,592.164754,-9400.615463,-229.828649
356.922728,444.123565,-9474.636058,0.000000
356.923052,0.000000,-9326.594869,-153.219100
356.923376,-148.041188,-9178.553681,-383.047749
356.923700,-222.061783,-9400.615463,-306.438199
356.924025,-444.123565,-9178.553681,-536.266849
356.924349,-666.185348,-8882.471304,0.000000
356.924673,-666.185348,-8882.471304,-229.828649
356.924997,-518.144159,-8956.491898,0.000000
356.925321,-740.205942,-9252.574275,-153.219100
356.925646,-592.164754,-9400.615463,0.000000
356.925970,-592.164754,-9252.574275,76.609550
356.926294,-148.041188,-9474.636058,0.000000
356.926618,370.102971,-9548.656652,-153.219100
356.926943,814.226536,-9474.636058,-153.219100
356.927267,444.123565,-9844.739029,0.000000
356.927591,888.247130,-10066.800811,0.000000
356.927915,666.185348,-9918.759623,0.000000
356.928240,666.185348,-10066.800811,0.000000
356.928564,518.144159,-10436.903782,0.000000
356.928888,444.123565,-10584.944971,306.438199
356.929212,148.041188,-10510.924376,459.657299
356.929537,74.020594,-10288.862594,-459.657299
356.929861,148.041188,-10362.883188,153.219100
356.930185,-74.020594,-10066.800811,76.609550
356.930509,-666.185348,-9844.739029,153.219100
356.930833,-1036.288319,-9548.656652,153.219100
356.931158,-1184.329507,-9474.636058,0.000000
356.931482,-592.164754,-9252.574275,153.219100
356.931806,-814.226536,-8882.471304,76.609550
356.932130,-1184.329507,-8956.491898,-306.438199
356.932455,-888.247130,-9326.594869,153.219100
356.932779,-1036.288319,-9178.553681,0.000000
356.933103,-1184.329507,-9104.533087,0.000000
356.933427,-1776.494261,-9252.574275,0.000000
356.933752,-1628.453072,-9474.636058,-459.657299
356.934076,-1184.329507,-9400.615463,153.219100
356.934400,-888.247130,-9548.656652,459.657299
356.934724,-222.061783,-9622.677246,0.000000
356.935049,0.000000,-9918.759623,153.219100
356.935373,0.000000,-9770.718434,76.609550
356.935697,222.061783,-9770.718434,153.219100
356.936021,370.102971,-9992.780217,76.609550
356.936346,592.164754,-10066.800811,76.609550
356.936670,962.267725,-9992.780217,153.219100
356.936994,666.185348,-10140.821405,0.000000
356.937318,1036.288319,-9918.759623,-306.438199
356.937642,592.164754,-10214.842000,-153.219100
356.937967,814.226536,-10362.883188,-153.219100
356.938291,592.164754,-10214.842000,0.000000
356.938615,518.144159,-9992.780217,-153.219100
356.938939,814.226536,-10214.842000,0.000000
356.939264,592.164754,-9844.739029,-153.219100
356.939588,444.123565,-9696.697840,306.438199
356.939912,0.000000,-9400.615463,0.000000
356.940236,0.000000,-9178.553681,76.609550
356.940561,0.000000,-9030.512492,0.000000
356.940885,0.000000,-9326.594869,0.000000
356.941209,-222.061783,-8660.409521,-306.438199
356.941533,0.000000,-9104.533087,-153.219100
356.941858,0.000000,-9104.533087,-612.876398
356.942182,-370.102971,-9178.553681,-229.828649
356.942506,-444.123565,-9252.574275,-383.047749
356.942830,-370.102971,-9474.636058,-229.828649
356.943154,-444.123565,-9474.636058,-306.438199
356.943479,0.000000,-9844.739029,-383.047749
356.943803,0.000000,-9622.677246,0.000000
356.944127,222.061783,-9696.697840,-306.438199
356.944451,74.020594,-9474.636058,-459.657299
356.944776,814.226536,-9992.780217,0.000000
356.945100,666.185348,-10288.862594,0.000000
356.945424,518.144159,-10214.842000,-229.828649
356.945748,444.123565,-10214.842000,-229.828649
356.946073,592.164754,-10140.821405,-536.266849
356.946397,740.205942,-10214.842000,0.000000
356.946721,962.267725,-10214.842000,-229.828649
356.947045,814.226536,-10362.883188,-459.657299
356.947370,148.041188,-10066.800811,0.000000
356.947694,148.041188,-9844.739029,0.000000
356.948018,0.000000,-9844.739029,76.609550
356.948342,-148.041188,-9992.780217,0.000000
356.948666,-740.205942,-9474.636058,76.609550
356.948991,-1332.370696,-9326.594869,0.000000
356.949315,-1480.411884,-9178.553681,-229.828649
356.949639,-1332.370696,-9104.533087,-306.438199
356.949963,-1332.370696,-9252.574275,-153.219100
356.950288,-1332.370696,-9326.594869,-229.828649
356.950612,-1480.411884,-9104.533087,0.000000
356.950936,-1554.432478,-9178.553681,-153.219100
356.951260,-1332.370696,-9326.594869,-689.485948
356.951585,-1406.391290,-9030.512492,-306.438199
356.951909,-1332.370696,-9326.594869,459.657299
356.952233,-1332.370696,-9326.594869,0.000000
356.952557,-740.205942,-9696.697840,0.000000
356.952882,-444.123565,-9918.759623,0.000000
356.953206,148.041188,-9918.759623,76.609550
356.953530,518.144159,-9918.759623,153.219100
356.953854,518.144159,-9844.739029,0.000000
356.954179,740.205942,-9844.739029,0.000000
356.954503,666.185348,-9992.780217,0.000000
356.954827,814.226536,-10066.800811,-153.219100
356.955151,962.267725,-10288.862594,76.609550
356.955475,518.144159,-10140.821405,0.000000
356.955800,1184.329507,-9622.677246,306.438199
356.956124,888.247130,-10214.842000,306.438199
356.956448,1258.350101,-9992.780217,383.047749
356.956772,1258.350101,-9992.780217,0.000000
356.957097,1258.350101,-10066.800811,0.000000
356.957421,888.247130,-10066.800811,229.828649
356.957745,444.123565,-9918.759623,0.000000
356.958069,74.020594,-9696.697840,0.000000
356.958394,74.020594,-9474.636058,76.609550
356.958718,222.061783,-9548.656652,0.000000
356.959042,0.000000,-9326.594869,0.000000
356.959366,74.020594,-9178.553681,0.000000
356.959691,-148.041188,-9400.615463,0.000000
356.960015,-370.102971,-9104.533087,76.609550
356.960339,-444.123565,-9252.574275,0.000000
356.960663,-444.123565,-9252.574275,0.000000
356.960987,-444.123565,-9030.512492,76.609550
356.961312,296.082377,-9400.615463,383.047749
356.961636,0.000000,-9474.636058,306.438199
356.961960,444.123565,-9400.615463,306.438199
356.962284,296.082377,-9474.636058,383.047749
356.962609,666.185348,-9474.636058,306.438199
356.962933,592.164754,-9548.656652,0.000000
356.963257,666.185348,-9844.739029,0.000000
356.963581,592.164754,-9918.759623,153.219100
356.963906,1036.288319,-9844.739029,306.438199
356.964230,1036.288319,-9918.759623,76.609550
356.964554,888.247130,-9474.636058,0.000000
356.964878,592.164754,-9992.780217,76.609550
356.965203,296.082377,-10140.821405,0.000000
356.965527,0.000000,-10066.800811,76.609550
356.965851,-296.082377,-9844.739029,0.000000
356.966175,-962.267725,-10066.800811,0.000000
356.966500,-1480.411884,-9474.636058,153.219100
356.966824,-1480.411884,-9326.594869,0.000000
356.967148,-1554.432478,-9400.615463,0.000000
356.967472,-1628.453072,-9252.574275,-153.219100
356.967796,-1628.453072,-9178.553681,0.000000
356.968121,-1258.350101,-9104.533087,0.000000
356.968445,-1406.391290,-9252.574275,306.438199
356.968769,-1480.411884,-9178.553681,-383.047749
356.969093,-1850.514855,-9178.553681,-689.485948
356.969418,-1258.350101,-9622.677246,-229.828649
356.969742,-1184.329507,-9696.697840,-153.219100
356.970066,-1036.288319,-9696.697840,-306.438199
356.970390,-592.164754,-10066.800811,-383.047749
356.970715,0.000000,-9992.780217,0.000000
356.971039,370.102971,-9992.780217,0.000000
356.971363,592.164754,-10066.800811,0.000000
356.971687,740.205942,-10140.821405,-153.219100
356.972012,740.205942,-10288.862594,-383.047749
356.972336,740.205942,-10214.842000,-536.266849
356.972660,888.247130,-10584.944971,-229.828649
356.972984,888.247130,-10362.883188,-383.047749
356.973308,740.205942,-10214.842000,-229.828649
356.973633,962.267725,-9918.759623,0.000000
356.973957,518.144159,-9696.697840,-153.219100
356.974281,296.082377,-9918.759623,-689.485948
356.974605,148.041188,-9844.739029,-536.266849
356.974930,148.041188,-9622.677246,-229.828649
356.975254,222.061783,-9474.636058,-383.047749
356.975578,296.082377,-9252.574275,-536.266849
356.975902,74.020594,-8882.471304,0.000000
356.976227,0.000000,-8586.388927,0.000000
356.976551,148.041188,-8882.471304,0.000000
356.976875,-296.082377,-9178.553681,0.000000
356.977199,-370.102971,-9104.533087,-306.438199
356.977524,-518.144159,-8956.491898,-612.876398
356.977848,-592.164754,-9326.594869,-536.266849
356.978172,-666.185348,-9326.594869,0.000000
356.978496,-444.123565,-9622.677246,-536.266849
356.978821,-148.041188,-9622.677246,-306.438199
356.979145,370.102971,-9400.615463,76.609550
356.979469,592.164754,-9696.697840,0.000000
356.979793,814.226536,-9696.697840,153.219100
356.980117,1036.288319,-9844.739029,153.219100
356.980442,888.247130,-9770.718434,0.000000
356.980766,888.247130,-9844.739029,-229.828649
356.981090,666.185348,-10214.842000,0.000000
356.981414,666.185348,-10362.883188,0.000000
356.981739,370.102971,-10288.862594,0.000000
356.982063,148.041188,-10436.903782,-153.219100
356.982387,0.000000,-10288.862594,0.000000
356.982711,0.000000,-10214.842000,0.000000
356.983036,0.000000,-9918.759623,0.000000
356.983360,74.020594,-10288.862594,76.609550
356.983684,-222.061783,-9326.594869,459.657299
356.984008,-370.102971,-9622.677246,76.609550
356.984333,-740.205942,-9252.574275,536.266849
356.984657,-740.205942,-8882.471304,306.438199
356.984981,-1332.370696,-8956.491898,0.000000
356.985305,-1776.494261,-8956.491898,0.000000
356.985629,-1702.473667,-9178.553681,0.000000
356.985954,-2072.576638,-8882.471304,-306.438199
356.986278,-1850.514855,-9178.553681,-229.828649
356.986602,-2146.597232,-9474.636058,-153.219100
356.986926,-1924.535449,-9474.636058,-229.828649
356.987251,-1628.453072,-9474.636058,-153.219100
356.987575,-1184.329507,-9104.533087,0.000000
356.987899,-1036.288319,-9770.718434,-153.219100
356.988223,-444.123565,-9548.656652,-306.438199
356.988548,0.000000,-9770.718434,-306.438199
356.988872,444.123565,-10066.800811,0.000000
356.989196,592.164754,-9844.739029,0.000000
356.989520,814.226536,-10066.800811,0.000000
356.989845,888.247130,-10436.903782,-153.219100
356.990169,1036.288319,-10288.862594,0.000000
356.990493,888.247130,-10140.821405,-306.438199
356.990817,888.247130,-10436.903782,-612.876398
356.991141,962.267725,-10066.800811,0.000000
356.991466,1406.391290,-10288.862594,0.000000
356.991790,1332.370696,-10140.821405,0.000000
356.992114,1110.308913,-9992.780217,0.000000
356.992438,1110.308913,-9696.697840,76.609550
356.992763,888.247130,-9696.697840,306.438199
356.993087,1036.288319,-9622.677246,-306.438199
356.993411,666.185348,-9252.574275,536.266849
356.993735,518.144159,-9326.594869,153.219100
356.994060,0.000000,-9178.553681,0.000000
356.994384,0.000000,-9474.636058,-153.219100
356.994708,-222.061783,-9252.574275,-229.828649
356.995032,-592.164754,-9252.574275,-383.047749
356.995357,-888.247130,-9030.512492,-153.219100
356.995681,-518.144159,-8956.491898,0.000000
356.996005,0.000000,-9474.636058,0.000000
356.996329,-148.041188,-9326.594869,76.609550
356.996653,0.000000,-9326.594869,229.828649
356.996977,74.020594,-9326.594869,229.828649
356.997302,370.102971,-9474.636058,383.047749
356.997626,518.144159,-9548.656652,229.828649
356.997950,518.144159,-9622.677246,0.000000
356.998274,222.061783,-9548.656652,-689.485948
356.998598,444.123565,-9918.759623,0.000000
356.998922,888.247130,-10066.800811,383.047749
356.999246,296.082377,-9992.780217,153.219100
356.999571,370.102971,-10140.821405,0.000000
356.999895,222.061783,-10288.862594,0.000000
357.000219,296.082377,-10066.800811,76.609550
357.000543,518.144159,-9918.759623,459.657299
357.000867,-370.102971,-9696.697840,-306.438199
357.001191,0.000000,-9992.780217,76.609550
357.001515,0.000000,-9992.780217,76.609550
357.001839,-518.144159,-9696.697840,153.219100
357.002164,-1184.329507,-9474.636058,0.000000
357.002488,-1110.308913,-9400.615463,0.000000
357.002812,-814.226536,-9178.553681,76.609550
357.003136,-1332.370696,-9474.636058,-229.828649
357.003460,-1184.329507,-9474.636058,0.000000
357.003784,-1406.391290,-9474.636058,0.000000
357.004108,-1480.411884,-9474.636058,-383.047749
357.004433,-1776.494261,-9474.636058,-383.047749
357.004757,-1628.453072,-9548.656652,-153.219100
357.005081,-1184.329507,-9622.677246,-459.657299
357.005405,-518.144159,-9474.636058,-306.438199
357.005729,0.000000,-9622.677246,0.000000
357.006053,148.041188,-9400.615463,-689.485948
357.006377,518.144159,-9622.677246,-306.438199
357.006702,666.185348,-10066.800811,-153.219100
357.007026,592.164754,-10066.800811,-383.047749
357.007350,814.226536,-10362.883188,-459.657299
357.007674,740.205942,-9992.780217,0.000000
357.007998,592.164754,-10288.862594,-459.657299
357.008322,1036.288319,-10288.862594,0.000000
357.008646,666.185348,-10436.903782,-536.266849
357.008970,740.205942,-10362.883188,-76.609550
357.009295,370.102971,-10288.862594,-229.828649
357.009619,518.144159,-9992.780217,-229.828649
357.009943,444.123565,-9474.636058,0.000000
357.010267,518.144159,-9326.594869,0.000000
357.010591,370.102971,-9474.636058,0.000000
357.010915,370.102971,-8882.471304,-383.047749
357.011239,370.102971,-8808.450710,-459.657299
357.011564,0.000000,-8660.409521,-153.219100
357.011888,0.000000,-8956.491898,-229.828649
357.012212,-296.082377,-9326.594869,-229.828649
357.012536,-444.123565,-9400.615463,-459.657299
357.012860,-518.144159,-9326.594869,-383.047749
357.013184,-518.144159,-9474.636058,-76.609550
357.013508,-518.144159,-9326.594869,153.219100
357.013832,-444.123565,-9252.574275,0.000000
357.014157,0.000000,-9474.636058,76.609550
357.014481,148.041188,-9844.739029,0.000000
357.014805,518.144159,-9696.697840,0.000000
357.015129,740.205942,-9696.697840,76.609550
357.015453,814.226536,-9770.718434,0.000000
357.015777,444.123565,-9918.759623,306.438199
357.016101,518.144159,-9918.759623,-229.828649
357.016426,666.185348,-10140.821405,153.219100
357.016750,222.061783,-10140.821405,0.000000
357.017074,222.061783,-10510.924376,0.000000
357.017398,74.020594,-10584.944971,0.000000
357.017722,0.000000,-10362.883188,-153.219100
357.018046,0.000000,-9992.780217,229.828649
357.018370,0.000000,-9474.636058,459.657299
357.018695,-222.061783,-9474.636058,919.314598
357.019019,0.000000,-9696.697840,766.095498
357.019343,-518.144159,-9474.636058,383.047749
357.019667,-740.205942,-9178.553681,76.609550
357.019991,-962.267725,-8734.430116,0.000000
357.020315,-888.247130,-8808.450710,306.438199
357.020639,-592.164754,-8734.430116,153.219100
357.020963,-370.102971,-9474.636058,383.047749
357.021288,-1258.350101,-8882.471304,-229.828649
357.021612,-1776.494261,-8586.388927,0.000000
357.021936,-2220.617826,-9400.615463,-689.485948
357.022260,-2072.576638,-9474.636058,-536.266849
357.022584,-1850.514855,-9844.739029,-229.828649
357.022908,-1258.350101,-9548.656652,76.609550
357.023232,-962.267725,-9770.718434,0.000000
357.023557,-592.164754,-9770.718434,0.000000
357.023881,74.020594,-9770.718434,153.219100
357.024205,444.123565,-9844.739029,229.828649
357.024529,666.185348,-9918.759623,0.000000
357.024853,814.226536,-9992.780217,-153.219100
357.025177,1184.329507,-10288.862594,0.000000
357.025501,1258.350101,-10214.842000,-383.047749
357.025826,888.247130,-10214.842000,-383.047749
357.026150,814.226536,-10214.842000,-536.266849
357.026474,962.267725,-9992.780217,-229.828649
357.026798,740.205942,-10436.903782,-383.047749
357.027122,666.185348,-10584.944971,-229.828649
357.027446,814.226536,-10214.842000,-229.828649
357.027770,888.247130,-9844.739029,0.000000
357.028094,1036.288319,-10066.800811,-383.047749
357.028419,444.123565,-9178.553681,229.828649
357.028743,222.061783,-9326.594869,229.828649
357.029067,222.061783,-8956.491898,0.000000
357.029391,0.000000,-9030.512492,-229.828649
357.029715,0.000000,-9400.615463,-459.657299
357.030039,-222.061783,-9400.615463,-306.438199
357.030363,-518.144159,-8956.491898,0.000000
357.030688,0.000000,-9104.533087,-306.438199
357.031012,-592.164754,-9030.512492,0.000000
357.031336,-666.185348,-9326.594869,-383.047749
357.031660,-592.164754,-9474.636058,0.000000
357.031984,-444.123565,-9400.615463,0.000000
357.032308,74.020594,-9696.697840,0.000000
357.032632,222.061783,-9548.656652,766.095498
357.032956,444.123565,-9178.553681,76.609550
357.033281,592.164754,-9548.656652,306.438199
357.033605,370.102971,-9548.656652,383.047749
357.033929,222.061783,-9548.656652,0.000000
357.034253,666.185348,-10066.800811,76.609550
357.034577,888.247130,-9696.697840,0.000000
357.034901,1110.308913,-10362.883188,0.000000
357.035225,814.226536,-10066.800811,306.438199
357.035550,222.061783,-9992.780217,0.000000
357.035874,518.144159,-10066.800811,459.657299
357.036198,0.000000,-9992.780217,536.266849
357.036522,-222.061783,-9844.739029,229.828649
357.036846,-814.226536,-9696.697840,306.438199
357.037170,-888.247130,-9696.697840,0.000000
357.037494,-740.205942,-9326.594869,229.828649
357.037819,-1036.288319,-9178.553681,0.000000
357.038143,-1110.308913,-9104.533087,306.438199
357.038467,-1110.308913,-8808.450710,459.657299
357.038791,-1184.329507,-9326.594869,0.000000
357.039115,-1258.350101,-9178.553681,76.609550
357.039439,-1628.453072,-9474.636058,-153.219100
357.039763,-1702.473667,-9474.636058,0.000000
357.040087,-1184.329507,-9696.697840,153.219100
357.040412,-1184.329507,-9474.636058,0.000000
357.040736,-888.247130,-9474.636058,0.000000
357.041060,-444.123565,-9548.656652,76.609550
357.041384,148.041188,-9696.697840,689.485948
357.041708,518.144159,-9622.677246,229.828649
357.042032,518.144159,-9844.739029,153.219100
357.042356,296.082377,-10066.800811,306.438199
357.042681,666.185348,-10140.821405,229.828649
357.043005,666.185348,-10066.800811,76.609550
357.043329,370.102971,-9770.718434,229.828649
357.043653,444.123565,-10288.862594,0.000000
357.043977,518.144159,-10140.821405,0.000000
357.044301,740.205942,-10066.800811,0.000000
357.044625,518.144159,-9918.759623,0.000000
357.044949,592.164754,-9918.759623,-153.219100
357.045274,370.102971,-10066.800811,-229.828649
357.045598,444.123565,-9770.718434,0.000000
357.045922,518.144159,-9400.615463,306.438199
357.046246,222.061783,-9326.594869,-153.219100
357.046570,0.000000,-8956.491898,153.219100
357.046894,74.020594,-9326.594869,0.000000
357.047218,0.000000,-9326.594869,-153.219100
357.047543,-148.041188,-9400.615463,-383.047749
357.047867,-518.144159,-9400.615463,-459.657299
357.048191,-666.185348,-8808.450710,0.000000
357.048515,-444.123565,-9252.574275,-306.438199
357.048839,-592.164754,-9104.533087,-842.705048
357.049163,-444.123565,-9474.636058,-306.438199
357.049487,0.000000,-9474.636058,-306.438199
357.049812,222.061783,-9474.636058,-306.438199
357.050136,370.102971,-9400.615463,-306.438199
357.050460,518.144159,-9622.677246,0.000000
357.050784,888.247130,-10066.800811,383.047749
357.051108,814.226536,-9770.718434,-383.047749
357.051432,888.247130,-10214.842000,-612.876398
357.051756,666.185348,-10288.862594,-229.828649
357.052080,518.144159,-10288.862594,-306.438199
357.052405,518.144159,-10362.883188,-612.876398
357.052729,592.164754,-10510.924376,-536.266849
357.053053,370.102971,-10436.903782,-612.876398
357.053377,148.041188,-10140.821405,-766.095498
357.053701,0.000000,-9474.636058,-153.219100
357.054025,0.000000,-10140.821405,-229.828649
357.054349,-666.185348,-9696.697840,-459.657299
357.054674,-1110.308913,-9622.677246,-383.047749
357.054998,-1184.329507,-9474.636058,-229.828649
357.055322,-1036.288319,-9178.553681,-383.047749
357.055646,-1258.350101,-9030.512492,-459.657299
357.055970,-1480.411884,-9252.574275,0.000000
357.056294,-1702.473667,-9400.615463,0.000000
357.056618,-1480.411884,-9770.718434,-459.657299
357.056943,-1776.494261,-9400.615463,-383.047749
357.057267,-1998.556043,-9400.615463,-229.828649
357.057591,-1702.473667,-9474.636058,-383.047749
357.057915,-1332.370696,-9548.656652,-536.266849
357.058239,-1036.288319,-9474.636058,306.438199
357.058563,-666.185348,-9104.533087,-459.657299
357.058887,-370.102971,-9474.636058,153.219100
357.059211,-148.041188,-9696.697840,0.000000
357.059536,148.041188,-9844.739029,-229.828649
357.059860,370.102971,-9770.718434,-306.438199
357.060184,740.205942,-10066.800811,-153.219100
357.060508,1036.288319,-10066.800811,229.828649
357.060832,518.144159,-10066.800811,0.000000
357.061156,1184.329507,-10510.924376,76.609550
357.061480,592.164754,-10436.903782,0.000000
357.061805,888.247130,-10362.883188,153.219100
357.062129,962.267725,-10362.883188,76.609550
357.062453,1332.370696,-10140.821405,383.047749
357.062777,1184.329507,-9844.739029,536.266849
357.063101,1258.350101,-9622.677246,689.485948
357.063425,962.267725,-9178.553681,612.876398
357.063749,666.185348,-9178.553681,459.657299
357.064073,518.144159,-9104.533087,76.609550
357.064398,74.020594,-9030.512492,76.609550
357.064722,0.000000,-9030.512492,153.219100
357.065046,0.000000,-9252.574275,76.609550
357.065370,0.000000,-9252.574275,306.438199
357.065694,0.000000,-9326.594869,229.828649
357.066018,-222.061783,-9104.533087,536.266849
357.066342,-444.123565,-9178.553681,306.438199
357.066667,-370.102971,-9474.636058,76.609550
357.066991,-444.123565,-9548.656652,306.438199
357.067315,-296.082377,-9400.615463,459.657299
357.067639,296.082377,-9622.677246,766.095498
357.067963,740.205942,-9252.574275,459.657299
357.068287,814.226536,-9696.697840,0.000000
357.068611,740.205942,-9696.697840,459.657299
357.068936,592.164754,-9696.697840,76.609550
357.069260,518.144159,-10288.862594,-153.219100
357.069584,370.102971,-10214.842000,76.609550
357.069908,444.123565,-10140.821405,153.219100
357.070232,592.164754,-9992.780217,76.609550
357.070556,444.123565,-9844.739029,76.609550
357.070880,74.020594,-9918.759623,229.828649
357.071204,222.061783,-10140.821405,306.438199
357.071529,0.000000,-9844.739029,383.047749
357.071853,0.000000,-9770.718434,153.219100
357.072177,-666.185348,-9770.718434,229.828649
357.072501,-962.267725,-9252.574275,229.828649
357.072825,-1184.329507,-9178.553681,0.000000
357.073149,-1406.391290,-8882.471304,0.000000
357.073473,-1110.308913,-8734.430116,-153.219100
357.073798,-1480.411884,-8882.471304,-306.438199
357.074122,-1258.350101,-8882.471304,-229.828649
357.074446,-1332.370696,-9252.574275,-612.876398
357.074770,-1628.453072,-9326.594869,-1378.971896
357.075094,-2072.576638,-9400.615463,-612.876398
357.075418,-1850.514855,-9326.594869,-612.876398
357.075742,-1554.432478,-9326.594869,-842.705048
357.076066,-1110.308913,-9474.636058,-229.828649
357.076391,-666.185348,-9770.718434,-306.438199
357.076715,-296.082377,-10066.800811,-383.047749
357.077039,74.020594,-9918.759623,-383.047749
357.077363,814.226536,-9770.718434,-153.219100
357.077687,740.205942,-9770.718434,-536.266849
357.078011,666.185348,-9770.718434,-689.485948
357.078335,962.267725,-10066.800811,-766.095498
357.078660,962.267725,-10066.800811,-842.705048
357.078984,1036.288319,-10214.842000,-766.095498
357.079308,1036.288319,-10436.903782,-842.705048
357.079632,888.247130,-10658.965565,-995.924147
357.079956,740.205942,-10066.800811,-612.876398
357.080280,740.205942,-10436.903782,-689.485948
357.080604,518.144159,-9992.780217,-459.657299
357.080929,444.123565,-9992.780217,-459.657299
357.081253,296.082377,-9918.759623,-306.438199
357.081577,296.082377,-9474.636058,-689.485948
357.081901,148.041188,-9400.615463,-153.219100
357.082225,444.123565,-9178.553681,-612.876398
357.082549,444.123565,-9326.594869,-842.705048
357.082873,0.000000,-9252.574275,-459.657299
357.083197,-222.061783,-8808.450710,-306.438199
357.083522,-444.123565,-9474.636058,-612.876398
357.083846,-444.123565,-9622.677246,-612.876398
357.084170,-592.164754,-9622.677246,-689.485948
357.084494,-666.185348,-9474.636058,-536.266849
357.084818,-370.102971,-9622.677246,-383.047749
357.085142,-296.082377,-9622.677246,0.000000
357.085466,-148.041188,-9548.656652,0.000000
357.085791,148.041188,-9770.718434,229.828649
357.086115,370.102971,-9918.759623,536.266849
357.086439,518.144159,-9844.739029,612.876398
357.086763,592.164754,-9844.739029,306.438199
357.087087,814.226536,-10066.800811,536.266849
357.087411,962.267725,-9992.780217,0.000000
357.087735,814.226536,-10066.800811,0.000000
357.088059,222.061783,-9918.759623,459.657299
357.088384,-296.082377,-9622.677246,612.876398
357.088708,0.000000,-9918.759623,459.657299
357.089032,-444.123565,-10066.800811,306.438199
357.089356,-222.061783,-9770.718434,383.047749
357.089680,-518.144159,-9548.656652,459.657299
357.090004,-740.205942,-9326.594869,536.266849
357.090328,-592.164754,-8956.491898,1225.752797
357.090653,-888.247130,-9104.533087,919.314598
357.090977,-1036.288319,-8734.430116,842.705048
357.091301,-1332.370696,-8956.491898,919.314598
357.091625,-1258.350101,-8956.491898,306.438199
357.091949,-1184.329507,-9104.533087,536.266849
357.092273,-1258.350101,-9030.512492,153.219100
357.092597,-1258.350101,-9104.533087,0.000000
357.092922,-1110.308913,-9104.533087,229.828649
