#time,accel_x,accel_y,accel_z
972.605575,222.061783,-9474.636058,0.000000
972.605899,74.020594,-9918.759623,0.000000
972.606223,74.020594,-9992.780217,153.219100
972.606547,74.020594,-9696.697840,306.438199
972.606872,0.000000,-9474.636058,229.828649
972.607196,-296.082377,-9326.594869,76.609550
972.607520,-296.082377,-9548.656652,0.000000
972.607844,-518.144159,-9548.656652,0.000000
972.608168,-592.164754,-9770.718434,76.609550
972.608492,-370.102971,-9622.677246,-153.219100
972.608817,-148.041188,-9548.656652,0.000000
972.609141,74.020594,-9474.636058,-76.609550
972.609465,222.061783,-9548.656652,-383.047749
972.609789,222.061783,-9992.780217,76.609550
972.610113,-148.041188,-10214.842000,0.000000
972.610438,0.000000,-9844.739029,76.609550
972.610762,-148.041188,-9844.739029,153.219100
972.611086,-444.123565,-9622.677246,153.219100
972.611410,-592.164754,-9252.574275,459.657299
972.611734,-370.102971,-9622.677246,76.609550
972.612058,-444.123565,-10214.842000,76.609550
972.612383,-814.226536,-9918.759623,0.000000
972.612707,-962.267725,-9474.636058,306.438199
972.613031,-962.267725,-9548.656652,383.047749
972.613355,-370.102971,-9326.594869,153.219100
972.613679,592.164754,-8882.471304,306.438199
972.614003,592.164754,-9548.656652,459.657299
972.614328,1036.288319,-11029.068536,229.828649
972.614652,148.041188,-10584.944971,0.000000
972.614976,-444.123565,-10214.842000,383.047749
972.615300,-740.205942,-10510.924376,153.219100
972.615624,-888.247130,-10288.862594,-306.438199
972.615949,-1110.308913,-9622.677246,0.000000
972.616273,-1776.494261,-9474.636058,229.828649
972.616597,-1480.411884,-9252.574275,459.657299
972.616921,-296.082377,-8438.347739,459.657299
972.617245,222.061783,-8512.368333,1225.752797
972.617569,444.123565,-8956.491898,842.705048
972.617894,-74.020594,-9474.636058,536.266849
972.618218,-888.247130,-9770.718434,536.266849
972.618542,-1628.453072,-9918.759623,-459.657299
972.618866,-1998.556043,-10140.821405,459.657299
972.619190,-2368.659014,-10362.883188,153.219100
972.619514,-2146.597232,-10066.800811,229.828649
972.619839,-1998.556043,-10140.821405,612.876398
972.620163,-1480.411884,-9770.718434,689.485948
972.620487,-962.267725,-9474.636058,612.876398
972.620811,-222.061783,-8734.430116,919.314598
972.621135,296.082377,-8956.491898,1532.190996
972.621460,148.041188,-9622.677246,2145.067394
972.621784,-962.267725,-9770.718434,1685.410096
972.622108,-2072.576638,-10140.821405,1915.238745
972.622432,-2368.659014,-10807.006753,1302.362347
972.622756,-2590.720797,-10807.006753,1149.143247
972.623080,-2812.782580,-10658.965565,1378.971896
972.623405,-2960.823768,-10807.006753,1762.019645
972.623729,-2664.741391,-9844.739029,1762.019645
972.624053,-1702.473667,-9696.697840,1915.238745
972.624377,-1332.370696,-8660.409521,2145.067394
972.624701,-666.185348,-8660.409521,2374.896044
972.625026,-296.082377,-8956.491898,2451.505594
972.625350,-592.164754,-9474.636058,2451.505594
972.625674,-1184.329507,-9696.697840,2604.724693
972.625998,-2886.803174,-9844.739029,2451.505594
972.626322,-3478.967927,-10214.842000,2451.505594
972.626646,-3997.112087,-10288.862594,3064.381992
972.626971,-4737.318029,-10140.821405,3294.210641
972.627295,-5107.421000,-10066.800811,3677.258390
972.627619,-5107.421000,-9770.718434,2987.772442
972.627943,-4959.379811,-9474.636058,3677.258390
972.628267,-5033.400406,-9104.533087,3907.087040
972.628591,-3552.988522,-9548.656652,4060.306139
972.628916,-2368.659014,-9474.636058,4136.915689
972.629240,-962.267725,-9104.533087,4979.620737
972.629564,518.144159,-8734.430116,5132.839837
972.629888,1258.350101,-8364.327145,4826.401637
972.630212,814.226536,-8290.306550,4366.744339
972.630537,0.000000,-7994.224174,4213.525239
972.630861,-1406.391290,-8364.327145,3447.429741
972.631185,-3034.844362,-7772.162391,2911.162892
972.631509,-4885.359217,-7624.121203,2528.115143
972.631833,-6735.874072,-7550.100608,1072.533697
972.632157,-7920.203579,-8512.368333,153.219100
972.632482,-8438.347739,-10658.965565,1608.800546
972.632806,-5329.482782,-11399.171507,2451.505594
972.633130,-1776.494261,-9548.656652,3370.820191
972.633454,740.205942,-8512.368333,5745.716235
972.633778,3256.906145,-8364.327145,5056.230287
972.634103,4145.153275,-9844.739029,4136.915689
972.634427,3775.050304,-10584.944971,4213.525239
972.634751,2886.803174,-10140.821405,3907.087040
972.635075,1332.370696,-9918.759623,2528.115143
972.635399,-1628.453072,-9030.512492,766.095498
972.635723,-4145.153275,-9696.697840,-842.705048
972.636048,-5477.523971,-11029.068536,-1915.238745
972.636372,-5403.503377,-11399.171507,-2681.334243
972.636696,-5033.400406,-11029.068536,-1302.362347
972.637020,-3552.988522,-9622.677246,-229.828649
972.637344,-2072.576638,-8660.409521,153.219100
972.637668,-2220.617826,-8956.491898,612.876398
972.637993,-2664.741391,-9326.594869,1302.362347
972.638317,-2738.761985,-10288.862594,1455.581446
972.638641,-1258.350101,-11473.192101,2145.067394
972.638965,1924.535449,-11695.253884,3830.477490
972.639289,5329.482782,-11695.253884,4213.525239
972.639614,5921.647536,-10807.006753,3983.696590
972.639938,3478.967927,-10584.944971,2221.676944
972.640262,-592.164754,-9770.718434,229.828649
972.640586,-3923.091493,-7846.182985,-3447.429741
972.640910,-5773.606348,-9548.656652,-2145.067394
972.641234,-5403.503377,-11399.171507,-1302.362347
972.641559,-2590.720797,-11547.212695,-1762.019645
972.641883,-3478.967927,-10362.883188,-612.876398
972.642207,-5329.482782,-8438.347739,-153.219100
972.642531,-5995.668130,-8364.327145,-689.485948
972.642855,-6069.688724,-8512.368333,-995.924147
972.643179,-4811.338623,-7328.038826,229.828649
972.643504,-2368.659014,-9548.656652,2604.724693
972.643828,518.144159,-12435.459826,3140.991542
972.644152,962.267725,-12731.542202,3677.258390
972.644476,-592.164754,-11251.130318,3830.477490
972.644800,-1702.473667,-9844.739029,2681.334243
972.645125,-1850.514855,-10214.842000,1608.800546
972.645449,-1110.308913,-9770.718434,1915.238745
972.645773,148.041188,-8586.388927,1991.848295
972.646097,-592.164754,-8364.327145,1915.238745
972.646421,-2738.761985,-9548.656652,1378.971896
972.646745,-4441.235652,-8808.450710,1685.410096
972.647070,-4145.153275,-7994.224174,1991.848295
972.647394,-3552.988522,-7031.956449,1685.410096
972.647718,-4737.318029,-6661.853478,919.314598
972.648042,-6661.853478,-7624.121203,1532.190996
972.648366,-6513.812290,-9030.512492,1915.238745
972.648691,-4885.359217,-10066.800811,2451.505594
972.649015,-2590.720797,-8586.388927,2834.553343
972.649339,-1554.432478,-7550.100608,3140.991542
972.649663,-1702.473667,-9326.594869,3064.381992
972.649987,-1554.432478,-11029.068536,3524.039291
972.650311,0.000000,-11325.150913,4366.744339
972.650636,1184.329507,-10732.986159,5132.839837
972.650960,1554.432478,-10066.800811,4213.525239
972.651284,-370.102971,-9548.656652,4213.525239
972.651608,-1406.391290,-10510.924376,3753.867940
972.651932,-2220.617826,-11843.295072,3217.601092
972.652256,-2812.782580,-10881.027347,2451.505594
972.652581,-4663.297435,-8882.471304,2451.505594
972.652905,-5625.565159,-9030.512492,3370.820191
972.653229,-4219.173869,-9178.553681,2757.943793
972.653553,-3108.864956,-9104.533087,2068.457845
972.653877,-4071.132681,-8216.285956,919.314598
972.654202,-4663.297435,-7698.141797,1072.533697
972.654526,-3478.967927,-9622.677246,2374.896044
972.654850,-962.267725,-10362.883188,3907.087040
972.655174,148.041188,-9474.636058,4213.525239
972.655498,-222.061783,-9474.636058,3677.258390
972.655822,-444.123565,-10807.006753,3447.429741
972.656147,1258.350101,-12731.542202,3524.039291
972.656471,2442.679609,-11991.336260,4366.744339
972.656795,1036.288319,-10955.047942,4903.011187
972.657119,-1184.329507,-11325.150913,3907.087040
972.657443,-1776.494261,-10362.883188,2604.724693
972.657767,-1258.350101,-9474.636058,2604.724693
972.658092,-2294.638420,-8660.409521,2451.505594
972.658416,-4293.194464,-9252.574275,1378.971896
972.658740,-5699.585753,-8438.347739,0.000000
972.659064,-5329.482782,-6513.812290,153.219100
972.659388,-4219.173869,-7920.203579,536.266849
972.659713,-4071.132681,-10214.842000,229.828649
972.660037,-3849.070898,-9252.574275,689.485948
972.660361,-2368.659014,-8734.430116,2451.505594
972.660685,-444.123565,-9696.697840,3064.381992
972.661009,1110.308913,-11621.233289,2911.162892
972.661333,1702.473667,-10658.965565,2911.162892
972.661658,1406.391290,-9252.574275,3447.429741
972.661982,814.226536,-10732.986159,2834.553343
972.662306,370.102971,-11103.089130,2528.115143
972.662630,222.061783,-9474.636058,3907.087040
972.662954,-962.267725,-9474.636058,3524.039291
972.663279,-3108.864956,-10066.800811,842.705048
972.663603,-4515.256246,-8364.327145,-459.657299
972.663927,-5107.421000,-7105.977043,612.876398
972.664251,-4737.318029,-8216.285956,0.000000
972.664575,-4219.173869,-8512.368333,76.609550
972.664899,-4071.132681,-7328.038826,1072.533697
972.665223,-3330.926739,-8438.347739,1685.410096
972.665547,-2442.679609,-10362.883188,306.438199
972.665871,-2368.659014,-9770.718434,919.314598
972.666195,-2368.659014,-10288.862594,1532.190996
972.666519,-2368.659014,-11399.171507,1149.143247
972.666843,-1258.350101,-11029.068536,2451.505594
972.667167,444.123565,-10584.944971,2221.676944
972.667491,592.164754,-11177.109724,1225.752797
972.667815,-1554.432478,-10510.924376,536.266849
972.668139,-3478.967927,-10732.986159,0.000000
972.668463,-4145.153275,-12213.398043,-612.876398
972.668787,-3256.906145,-11695.253884,0.000000
972.669110,-2738.761985,-11029.068536,689.485948
972.669434,-2220.617826,-10807.006753,-153.219100
972.669758,-2442.679609,-9474.636058,1149.143247
972.670082,-3330.926739,-9548.656652,1302.362347
972.670406,-3256.906145,-10214.842000,-689.485948
972.670730,-3108.864956,-8956.491898,383.047749
972.671054,-1850.514855,-8068.244768,1378.971896
972.671378,888.247130,-9104.533087,1455.581446
972.671702,1628.453072,-8438.347739,1455.581446
972.672026,0.000000,-8512.368333,1608.800546
972.672350,-1332.370696,-9326.594869,-383.047749
972.672674,-666.185348,-9622.677246,-383.047749
972.672998,-518.144159,-10807.006753,1378.971896
972.673322,-518.144159,-11695.253884,-383.047749
972.673645,-1554.432478,-10510.924376,766.095498
972.673969,-2220.617826,-10288.862594,1532.190996
972.674293,-2072.576638,-11399.171507,919.314598
972.674617,-1554.432478,-10140.821405,1302.362347
972.674941,0.000000,-9474.636058,1532.190996
972.675265,518.144159,-9400.615463,2451.505594
972.675589,666.185348,-9622.677246,1608.800546
972.675913,370.102971,-8216.285956,2374.896044
972.676237,0.000000,-8068.244768,2911.162892
972.676561,0.000000,-8142.265362,689.485948
972.676885,-666.185348,-7254.018232,153.219100
972.677209,-740.205942,-9326.594869,1072.533697
972.677533,-148.041188,-10436.903782,0.000000
972.677856,0.000000,-10584.944971,-229.828649
972.678180,-370.102971,-9548.656652,1455.581446
972.678504,444.123565,-9178.553681,0.000000
972.678828,148.041188,-9622.677246,383.047749
972.679152,148.041188,-10658.965565,919.314598
972.679476,444.123565,-9918.759623,919.314598
972.679800,1406.391290,-8660.409521,1225.752797
972.680124,2072.576638,-8512.368333,1532.190996
972.680448,1850.514855,-8512.368333,1149.143247
972.680772,888.247130,-9548.656652,2298.286494
972.681096,-444.123565,-10584.944971,1608.800546
972.681420,-1924.535449,-10807.006753,919.314598
972.681744,-1998.556043,-9104.533087,383.047749
972.682068,-1480.411884,-8216.285956,-76.609550
972.682391,-1850.514855,-9474.636058,-459.657299
972.682715,-2368.659014,-8734.430116,-1072.533697
972.683039,-2146.597232,-9104.533087,-153.219100
972.683363,0.000000,-9252.574275,-383.047749
972.683687,2368.659014,-8290.306550,-459.657299
972.684011,3182.885551,-8142.265362,612.876398
972.684335,2442.679609,-8512.368333,383.047749
972.684659,1554.432478,-10584.944971,919.314598
972.684983,888.247130,-10881.027347,0.000000
972.685307,0.000000,-10732.986159,0.000000
972.685631,-1480.411884,-11251.130318,76.609550
972.685955,-1702.473667,-10658.965565,-229.828649
972.686279,-1924.535449,-11029.068536,383.047749
972.686603,-2294.638420,-11251.130318,76.609550
972.686926,-1702.473667,-10288.862594,-1149.143247
972.687250,-370.102971,-9622.677246,-766.095498
972.687574,222.061783,-8956.491898,-995.924147
972.687898,1258.350101,-9252.574275,-995.924147
972.688222,1036.288319,-9178.553681,-1149.143247
972.688546,370.102971,-9252.574275,-1378.971896
972.688870,444.123565,-10362.883188,-1378.971896
972.689194,592.164754,-10955.047942,-1608.800546
972.689518,0.000000,-10732.986159,-842.705048
972.689842,-518.144159,-10955.047942,-1532.190996
972.690166,-888.247130,-10955.047942,-1532.190996
972.690490,-1480.411884,-10436.903782,-995.924147
972.690814,-1184.329507,-10214.842000,-842.705048
972.691138,-1184.329507,-10510.924376,153.219100
972.691461,-1406.391290,-10955.047942,0.000000
972.691785,-962.267725,-8660.409521,-306.438199
972.692109,74.020594,-7846.182985,459.657299
972.692433,1110.308913,-8808.450710,842.705048
972.692757,1406.391290,-9104.533087,306.438199
972.693081,592.164754,-9326.594869,383.047749
972.693405,1332.370696,-9104.533087,229.828649
972.693729,1998.556043,-9030.512492,0.000000
972.694053,1776.494261,-8512.368333,-995.924147
972.694377,148.041188,-8142.265362,-1225.752797
972.694701,-740.205942,-8660.409521,-1608.800546
972.695025,-1036.288319,-9030.512492,-2604.724693
972.695349,-1924.535449,-8438.347739,-1991.848295
972.695672,-1998.556043,-8734.430116,-2068.457845
972.695996,-1480.411884,-8734.430116,-1302.362347
972.696320,-370.102971,-9252.574275,0.000000
972.696644,222.061783,-10140.821405,1302.362347
972.696968,1036.288319,-9992.780217,1838.629195
972.697292,1850.514855,-9252.574275,1455.581446
972.697616,2368.659014,-9400.615463,1838.629195
972.697940,2664.741391,-10362.883188,1762.019645
972.698264,2886.803174,-11621.233289,1072.533697
972.698588,2368.659014,-10807.006753,1302.362347
972.698912,592.164754,-9992.780217,0.000000
972.699236,-666.185348,-9918.759623,-1378.971896
972.699560,-1480.411884,-10140.821405,-2221.676944
972.699884,-1776.494261,-11251.130318,-1532.190996
972.700207,-888.247130,-10214.842000,-1532.190996
972.700531,74.020594,-9696.697840,-1762.019645
972.700855,0.000000,-8956.491898,-766.095498
972.701179,222.061783,-9474.636058,383.047749
972.701503,370.102971,-10658.965565,383.047749
972.701827,518.144159,-10584.944971,536.266849
972.702151,0.000000,-9474.636058,1225.752797
972.702475,-666.185348,-9696.697840,842.705048
972.702799,814.226536,-9992.780217,536.266849
972.703123,888.247130,-9696.697840,1072.533697
972.703447,444.123565,-10214.842000,306.438199
972.703771,0.000000,-10066.800811,-919.314598
972.704095,444.123565,-9696.697840,-766.095498
972.704419,1554.432478,-9844.739029,0.000000
972.704742,1480.411884,-10658.965565,-612.876398
972.705066,-148.041188,-9992.780217,-1225.752797
972.705390,-1998.556043,-9104.533087,-689.485948
972.705714,-1258.350101,-9844.739029,-1072.533697
972.706038,-148.041188,-9696.697840,-995.924147
972.706362,-444.123565,-9178.553681,766.095498
972.706686,-1554.432478,-9474.636058,1532.190996
972.707010,-1850.514855,-9622.677246,1072.533697
972.707334,-2220.617826,-9252.574275,536.266849
972.707658,-2368.659014,-8290.306550,0.000000
972.707982,-2146.597232,-7550.100608,-383.047749
972.708306,-1628.453072,-8734.430116,0.000000
972.708630,-1480.411884,-9474.636058,459.657299
972.708954,-888.247130,-8808.450710,153.219100
972.709277,-740.205942,-8290.306550,0.000000
972.709601,-666.185348,-9326.594869,-689.485948
972.709925,-962.267725,-10288.862594,-842.705048
972.710249,-444.123565,-9992.780217,-766.095498
972.710573,1406.391290,-9992.780217,459.657299
972.710897,2220.617826,-10658.965565,306.438199
972.711221,1628.453072,-10436.903782,76.609550
972.711545,666.185348,-10436.903782,689.485948
972.711869,888.247130,-10362.883188,229.828649
972.712193,1628.453072,-10881.027347,536.266849
972.712517,1110.308913,-10658.965565,0.000000
972.712841,0.000000,-9696.697840,0.000000
972.713165,-1628.453072,-9696.697840,-689.485948
972.713488,-2664.741391,-10732.986159,-1378.971896
972.713812,-2368.659014,-10510.924376,-1149.143247
972.714136,-1332.370696,-9770.718434,-383.047749
972.714460,-222.061783,-9474.636058,-229.828649
972.714784,148.041188,-9326.594869,-306.438199
972.715108,-296.082377,-9178.553681,459.657299
972.715432,296.082377,-10066.800811,306.438199
972.715756,814.226536,-10362.883188,306.438199
972.716080,1184.329507,-9622.677246,229.828649
972.716404,888.247130,-9030.512492,612.876398
972.716728,1850.514855,-9030.512492,689.485948
972.717052,2294.638420,-9474.636058,0.000000
972.717376,2738.761985,-10066.800811,536.266849
972.717700,2516.700203,-9400.615463,76.609550
972.718023,1702.473667,-7772.162391,153.219100
972.718347,1184.329507,-8216.285956,0.000000
972.718671,592.164754,-9252.574275,-689.485948
972.718995,666.185348,-8364.327145,-842.705048
972.719319,148.041188,-9030.512492,76.609550
972.719643,-296.082377,-9178.553681,-459.657299
972.719967,-1036.288319,-8734.430116,-459.657299
972.720291,-1776.494261,-8808.450710,0.000000
972.720615,-2220.617826,-9696.697840,0.000000
972.720939,-1554.432478,-10214.842000,-842.705048
972.721263,-1480.411884,-9548.656652,-1072.533697
972.721587,-518.144159,-8808.450710,-689.485948
972.721911,0.000000,-9770.718434,-153.219100
972.722235,888.247130,-10807.006753,76.609550
972.722558,1110.308913,-10436.903782,-306.438199
972.722882,518.144159,-10288.862594,-153.219100
972.723206,370.102971,-10362.883188,-919.314598
972.723530,-814.226536,-10436.903782,-1225.752797
972.723854,-1480.411884,-9326.594869,-1225.752797
972.724178,-888.247130,-8882.471304,-1149.143247
972.724502,-1110.308913,-9400.615463,-842.705048
972.724826,-1184.329507,-9474.636058,-1302.362347
972.725150,-1110.308913,-9252.574275,0.000000
972.725474,-1332.370696,-10214.842000,-229.828649
972.725798,-666.185348,-9844.739029,-536.266849
972.726122,-740.205942,-9030.512492,-766.095498
972.726446,148.041188,-8956.491898,-842.705048
972.726769,518.144159,-10140.821405,-612.876398
972.727093,370.102971,-11917.315666,-459.657299
972.727417,296.082377,-11029.068536,-306.438199
972.727741,0.000000,-10510.924376,-766.095498
972.728065,-296.082377,-11177.109724,-1149.143247
972.728389,0.000000,-11473.192101,-1378.971896
972.728713,-518.144159,-11325.150913,-1302.362347
972.729037,-1036.288319,-10658.965565,-1149.143247
972.729361,-962.267725,-9918.759623,-1225.752797
972.729685,0.000000,-10658.965565,-689.485948
972.730009,518.144159,-10584.944971,842.705048
972.730333,-222.061783,-10510.924376,919.314598
972.730657,-814.226536,-9844.739029,459.657299
972.730981,-740.205942,-8882.471304,76.609550
972.731304,74.020594,-8364.327145,-383.047749
972.731628,962.267725,-8068.244768,689.485948
972.731952,1406.391290,-8290.306550,1302.362347
972.732276,1702.473667,-8438.347739,995.924147
972.732600,1036.288319,-7920.203579,766.095498
972.732924,1702.473667,-8068.244768,306.438199
972.733248,2812.782580,-8068.244768,0.000000
972.733572,2886.803174,-7846.182985,306.438199
972.733896,1554.432478,-8660.409521,1685.410096
972.734220,1036.288319,-8660.409521,1378.971896
972.734544,0.000000,-7846.182985,383.047749
972.734868,-148.041188,-8216.285956,383.047749
972.735192,-222.061783,-8142.265362,459.657299
972.735516,-148.041188,-9104.533087,0.000000
972.735839,-1110.308913,-9474.636058,612.876398
972.736163,-740.205942,-9474.636058,919.314598
972.736487,0.000000,-9178.553681,0.000000
972.736811,74.020594,-9178.553681,-766.095498
972.737135,-962.267725,-10066.800811,-459.657299
972.737459,-148.041188,-11399.171507,-766.095498
972.737783,962.267725,-11399.171507,-1302.362347
972.738107,148.041188,-10807.006753,-612.876398
972.738431,-148.041188,-10140.821405,-1072.533697
972.738755,0.000000,-11399.171507,-1378.971896
972.739079,-296.082377,-12583.501014,-1378.971896
972.739403,0.000000,-11325.150913,-919.314598
972.739727,592.164754,-10288.862594,0.000000
972.740051,740.205942,-9474.636058,-766.095498
972.740374,0.000000,-10214.842000,-383.047749
972.740698,-1036.288319,-10732.986159,-459.657299
972.741022,-1480.411884,-10584.944971,-459.657299
972.741346,-1258.350101,-9918.759623,-536.266849
972.741670,-962.267725,-9400.615463,-919.314598
972.741994,-962.267725,-9844.739029,-536.266849
972.742318,-1554.432478,-11177.109724,-1225.752797
972.742642,-2146.597232,-10881.027347,-995.924147
972.742966,-1776.494261,-10732.986159,-689.485948
972.743290,-1036.288319,-10436.903782,-919.314598
972.743614,-296.082377,-9992.780217,-153.219100
972.743938,-370.102971,-9992.780217,689.485948
972.744262,0.000000,-10658.965565,-153.219100
972.744585,-370.102971,-10140.821405,229.828649
972.744909,-888.247130,-10214.842000,-612.876398
972.745233,-444.123565,-9992.780217,153.219100
972.745557,-148.041188,-9474.636058,229.828649
972.745881,-518.144159,-9104.533087,0.000000
972.746205,-1332.370696,-9252.574275,153.219100
972.746529,-962.267725,-9104.533087,-536.266849
972.746853,-666.185348,-8512.368333,-689.485948
972.747177,-814.226536,-7994.224174,76.609550
972.747501,-814.226536,-8142.265362,459.657299
972.747825,148.041188,-8734.430116,919.314598
972.748149,444.123565,-8438.347739,842.705048
972.748473,1036.288319,-7698.141797,995.924147
972.748797,1776.494261,-7402.059420,1072.533697
972.749120,1776.494261,-8660.409521,766.095498
972.749444,1702.473667,-8734.430116,1532.190996
972.749768,2072.576638,-8142.265362,919.314598
972.750092,1998.556043,-8142.265362,689.485948
972.750416,1776.494261,-8660.409521,229.828649
972.750740,1036.288319,-9474.636058,229.828649
972.751064,444.123565,-9696.697840,-459.657299
972.751388,888.247130,-9326.594869,0.000000
972.751712,1036.288319,-9918.759623,76.609550
972.752036,1184.329507,-10066.800811,383.047749
972.752360,444.123565,-9548.656652,76.609550
972.752684,-1332.370696,-9844.739029,-306.438199
972.753008,-962.267725,-10140.821405,-229.828649
972.753332,370.102971,-10807.006753,-536.266849
972.753655,1184.329507,-10362.883188,0.000000
972.753979,296.082377,-10066.800811,383.047749
972.754303,370.102971,-10510.924376,-306.438199
972.754627,296.082377,-11103.089130,-995.924147
972.754951,370.102971,-11177.109724,-1378.971896
972.755275,370.102971,-10658.965565,-1685.410096
972.755599,148.041188,-10362.883188,-1072.533697
972.755923,0.000000,-11399.171507,-919.314598
972.756247,296.082377,-11325.150913,-612.876398
972.756571,1258.350101,-10584.944971,-1072.533697
972.756895,1036.288319,-9992.780217,-1149.143247
972.757219,888.247130,-10288.862594,-612.876398
972.757543,296.082377,-11029.068536,-229.828649
972.757866,148.041188,-10584.944971,0.000000
972.758190,-296.082377,-9474.636058,153.219100
972.758514,-1258.350101,-8882.471304,-1072.533697
972.758838,-1998.556043,-8956.491898,-1378.971896
972.759162,-2516.700203,-9622.677246,-536.266849
972.759486,-2516.700203,-9770.718434,-1072.533697
972.759810,-3108.864956,-9770.718434,-1149.143247
972.760134,-2886.803174,-9474.636058,-1455.581446
972.760458,-2442.679609,-9548.656652,-2145.067394
972.760782,-2146.597232,-9696.697840,-1762.019645
972.761106,-1628.453072,-10362.883188,-919.314598
972.761430,-1332.370696,-9696.697840,-612.876398
972.761754,-1036.288319,-9400.615463,-612.876398
972.762078,0.000000,-9400.615463,0.000000
972.762401,666.185348,-9844.739029,383.047749
972.762725,888.247130,-10584.944971,536.266849
972.763049,296.082377,-10140.821405,919.314598
972.763373,0.000000,-9400.615463,689.485948
972.763697,-296.082377,-8290.306550,0.000000
972.764021,148.041188,-7624.121203,153.219100
972.764345,-740.205942,-9326.594869,229.828649
972.764669,-222.061783,-9696.697840,-383.047749
972.764993,222.061783,-8438.347739,919.314598
972.765317,1480.411884,-8290.306550,919.314598
972.765641,2368.659014,-7772.162391,0.000000
972.765965,2294.638420,-7254.018232,459.657299
972.766289,1480.411884,-8956.491898,536.266849
972.766613,1406.391290,-10214.842000,919.314598
972.766937,1628.453072,-9474.636058,766.095498
972.767261,1184.329507,-7179.997637,536.266849
972.767585,222.061783,-8512.368333,153.219100
972.767909,-592.164754,-10732.986159,-459.657299
972.768233,0.000000,-10436.903782,459.657299
972.768557,592.164754,-9770.718434,689.485948
972.768881,888.247130,-9918.759623,1302.362347
972.769206,1110.308913,-9548.656652,0.000000
972.769530,518.144159,-9474.636058,229.828649
972.769854,666.185348,-11251.130318,0.000000
972.770178,1332.370696,-12583.501014,995.924147
972.770502,1998.556043,-11621.233289,-153.219100
972.770826,1480.411884,-9622.677246,0.000000
972.771150,370.102971,-9622.677246,-229.828649
972.771474,148.041188,-10732.986159,-1149.143247
972.771798,370.102971,-11325.150913,-689.485948
972.772122,444.123565,-10436.903782,153.219100
972.772446,962.267725,-9178.553681,-689.485948
972.772770,518.144159,-8512.368333,-919.314598
972.773094,-518.144159,-9622.677246,-76.609550
972.773419,-1184.329507,-10955.047942,-612.876398
972.773743,-1924.535449,-10436.903782,-1378.971896
972.774067,-1776.494261,-8438.347739,-919.314598
972.774391,-1036.288319,-8512.368333,-766.095498
972.774715,0.000000,-9770.718434,-1149.143247
972.775039,222.061783,-9474.636058,-919.314598
972.775363,296.082377,-9474.636058,306.438199
972.775687,1406.391290,-10140.821405,76.609550
972.776011,1332.370696,-10288.862594,229.828649
972.776335,-444.123565,-9844.739029,919.314598
972.776659,-1258.350101,-9844.739029,0.000000
972.776983,-444.123565,-10510.924376,76.609550
972.777307,-444.123565,-10510.924376,-459.657299
972.777631,-1184.329507,-9918.759623,-383.047749
972.777956,-2220.617826,-9622.677246,0.000000
972.778280,-1998.556043,-9992.780217,-612.876398
972.778604,-1258.350101,-9696.697840,-459.657299
972.778928,-814.226536,-9622.677246,-689.485948
972.779252,-740.205942,-8882.471304,-689.485948
972.779576,-1554.432478,-8586.388927,-766.095498
972.779900,-1702.473667,-9030.512492,0.000000
972.780224,-1480.411884,-9844.739029,0.000000
972.780548,-1258.350101,-10140.821405,-383.047749
972.780872,-1110.308913,-8956.491898,-306.438199
972.781196,-740.205942,-7698.141797,0.000000
972.781520,-444.123565,-8438.347739,-153.219100
972.781844,-296.082377,-9622.677246,612.876398
972.782169,1110.308913,-9178.553681,1838.629195
972.782493,2072.576638,-9252.574275,689.485948
972.782817,2072.576638,-8068.244768,459.657299
972.783141,1924.535449,-8586.388927,842.705048
972.783465,1998.556043,-10066.800811,1378.971896
972.783789,1628.453072,-10584.944971,1149.143247
972.784113,148.041188,-9474.636058,0.000000
972.784437,-1110.308913,-8882.471304,0.000000
972.784761,-1406.391290,-9770.718434,-919.314598
972.785085,-740.205942,-10362.883188,-1225.752797
972.785409,-592.164754,-9400.615463,-153.219100
972.785733,-222.061783,-9474.636058,0.000000
972.786057,518.144159,-10214.842000,0.000000
972.786382,0.000000,-10362.883188,76.609550
972.786706,-222.061783,-9622.677246,153.219100
972.787030,0.000000,-10066.800811,306.438199
972.787354,592.164754,-10732.986159,-383.047749
972.787678,1480.411884,-10732.986159,153.219100
972.788002,2220.617826,-9918.759623,689.485948
972.788326,2294.638420,-10066.800811,0.000000
972.788650,2220.617826,-10140.821405,-153.219100
972.788974,1924.535449,-10288.862594,-536.266849
972.789298,2368.659014,-10214.842000,-689.485948
972.789622,1628.453072,-8734.430116,-612.876398
972.789946,1332.370696,-9030.512492,-766.095498
972.790270,444.123565,-9474.636058,-1149.143247
972.790594,296.082377,-9474.636058,-1685.410096
972.790919,962.267725,-8956.491898,-689.485948
972.791243,1258.350101,-9178.553681,-766.095498
972.791567,444.123565,-9992.780217,-306.438199
972.791891,-1258.350101,-9622.677246,-919.314598
972.792215,-2516.700203,-9326.594869,-766.095498
972.792539,-2220.617826,-10140.821405,-842.705048
972.792863,-1036.288319,-9992.780217,-1225.752797
972.793187,-370.102971,-9622.677246,153.219100
972.793511,-296.082377,-10436.903782,0.000000
972.793835,-296.082377,-9844.739029,-306.438199
972.794159,148.041188,-9252.574275,536.266849
972.794483,-1110.308913,-8882.471304,-612.876398
972.794807,-1702.473667,-10436.903782,-612.876398
972.795132,-2072.576638,-10955.047942,-612.876398
972.795456,-1184.329507,-10510.924376,-153.219100
972.795780,-148.041188,-8956.491898,0.000000
972.796104,0.000000,-9326.594869,-1378.971896
972.796428,-444.123565,-10066.800811,-306.438199
972.796752,-1110.308913,-10658.965565,-383.047749
972.797076,-1924.535449,-10288.862594,-1149.143247
972.797400,-2590.720797,-9104.533087,-229.828649
972.797724,-2072.576638,-8956.491898,-1072.533697
972.798048,-1702.473667,-8956.491898,-1072.533697
972.798372,-1850.514855,-9622.677246,-612.876398
972.798696,-1554.432478,-9548.656652,-383.047749
972.799020,-666.185348,-9326.594869,76.609550
972.799345,-518.144159,-9178.553681,0.000000
972.799669,518.144159,-8808.450710,229.828649
972.799993,814.226536,-8956.491898,766.095498
972.800317,1036.288319,-9770.718434,995.924147
972.800641,1184.329507,-10436.903782,1685.410096
972.800965,962.267725,-9844.739029,1302.362347
972.801289,1480.411884,-8512.368333,1149.143247
972.801613,1110.308913,-8734.430116,1378.971896
972.801937,592.164754,-10140.821405,689.485948
972.802261,444.123565,-9992.780217,995.924147
972.802585,444.123565,-9474.636058,459.657299
972.802909,1036.288319,-9030.512492,383.047749
972.803233,2072.576638,-8068.244768,689.485948
972.803557,2664.741391,-9918.759623,1455.581446
972.803882,2590.720797,-10362.883188,1455.581446
972.804206,1110.308913,-9252.574275,919.314598
972.804530,1184.329507,-9400.615463,919.314598
972.804854,1110.308913,-10214.842000,153.219100
972.805178,1184.329507,-10584.944971,229.828649
972.805502,74.020594,-9992.780217,689.485948
972.805826,666.185348,-10066.800811,689.485948
972.806150,1110.308913,-10658.965565,229.828649
972.806474,222.061783,-10288.862594,76.609550
972.806798,296.082377,-10140.821405,76.609550
972.807122,148.041188,-10881.027347,0.000000
972.807446,0.000000,-11029.068536,76.609550
972.807770,-518.144159,-10510.924376,306.438199
972.808095,74.020594,-8660.409521,76.609550
972.808419,370.102971,-8882.471304,306.438199
972.808743,-1036.288319,-10066.800811,689.485948
972.809067,-518.144159,-9770.718434,0.000000
972.809391,-740.205942,-8586.388927,0.000000
972.809715,-962.267725,-8808.450710,-536.266849
972.810039,-1332.370696,-8734.430116,-459.657299
972.810363,-1850.514855,-9326.594869,229.828649
972.810687,-2516.700203,-9918.759623,0.000000
972.811011,-1702.473667,-9548.656652,0.000000
972.811335,-1184.329507,-8956.491898,-306.438199
972.811659,-1406.391290,-8438.347739,0.000000
972.811983,-1702.473667,-9548.656652,-383.047749
972.812307,-1184.329507,-10436.903782,-612.876398
972.812632,148.041188,-10140.821405,229.828649
972.812956,444.123565,-10436.903782,229.828649
972.813280,666.185348,-9844.739029,383.047749
972.813604,740.205942,-9474.636058,1302.362347
972.813928,1332.370696,-10436.903782,0.000000
972.814252,296.082377,-10584.944971,-842.705048
972.814576,-518.144159,-10362.883188,-1072.533697
972.814900,-1184.329507,-9770.718434,-1838.629195
972.815224,-1110.308913,-9548.656652,-1532.190996
972.815548,-1628.453072,-10066.800811,-1149.143247
972.815872,-1628.453072,-10288.862594,-229.828649
972.816196,-1258.350101,-10510.924376,-612.876398
972.816520,-814.226536,-9992.780217,-1378.971896
972.816845,296.082377,-8586.388927,-153.219100
972.817169,814.226536,-9252.574275,383.047749
972.817493,1776.494261,-10584.944971,459.657299
972.817817,1554.432478,-9696.697840,306.438199
972.818141,1110.308913,-8660.409521,229.828649
972.818465,1406.391290,-8660.409521,536.266849
972.818789,1332.370696,-10362.883188,0.000000
972.819113,1036.288319,-9992.780217,-536.266849
972.819437,518.144159,-8512.368333,-689.485948
972.819761,592.164754,-9104.533087,-1072.533697
972.820085,148.041188,-9622.677246,-919.314598
972.820409,296.082377,-9400.615463,-1072.533697
972.820733,-222.061783,-8882.471304,-919.314598
972.821058,-666.185348,-8512.368333,-689.485948
972.821382,-296.082377,-8882.471304,-1455.581446
972.821706,74.020594,-8808.450710,-1455.581446
972.822030,888.247130,-8882.471304,-383.047749
972.822354,518.144159,-9400.615463,-306.438199
972.822678,296.082377,-10066.800811,-383.047749
972.823002,222.061783,-10066.800811,76.609550
972.823326,444.123565,-10066.800811,383.047749
972.823650,1258.350101,-10066.800811,306.438199
972.823974,888.247130,-9992.780217,306.438199
972.824298,444.123565,-10584.944971,-306.438199
972.824622,592.164754,-10510.924376,0.000000
972.824946,1702.473667,-10288.862594,0.000000
972.825270,2072.576638,-10214.842000,0.000000
972.825595,222.061783,-9548.656652,0.000000
972.825919,-1554.432478,-9844.739029,-919.314598
972.826243,-1406.391290,-9918.759623,-1149.143247
972.826567,-518.144159,-9622.677246,-612.876398
972.826891,0.000000,-9844.739029,-76.609550
972.827215,-1036.288319,-9770.718434,76.609550
972.827539,-1702.473667,-9696.697840,0.000000
972.827863,-1332.370696,-9844.739029,0.000000
972.828187,-666.185348,-10362.883188,612.876398
972.828511,-518.144159,-9844.739029,766.095498
972.828835,-666.185348,-10288.862594,995.924147
972.829159,-666.185348,-11103.089130,1302.362347
972.829483,0.000000,-9992.780217,153.219100
972.829808,148.041188,-10362.883188,1378.971896
972.830132,222.061783,-10881.027347,842.705048
972.830456,370.102971,-10584.944971,-153.219100
972.830780,-592.164754,-9844.739029,383.047749
972.831104,-1776.494261,-9548.656652,536.266849
972.831428,-1702.473667,-9770.718434,459.657299
972.831752,-1924.535449,-10066.800811,-919.314598
972.832076,-2960.823768,-8808.450710,-766.095498
972.832400,-3404.947333,-8364.327145,-306.438199
972.832724,-2738.761985,-9252.574275,-306.438199
972.833048,-1480.411884,-8882.471304,612.876398
972.833372,148.041188,-8586.388927,1455.581446
972.833696,740.205942,-8364.327145,1915.238745
972.834021,370.102971,-8290.306550,1608.800546
972.834345,-296.082377,-8956.491898,1302.362347
972.834669,0.000000,-9548.656652,1838.629195
972.834993,962.267725,-9104.533087,1762.019645
972.835317,1628.453072,-7994.224174,612.876398
972.835641,814.226536,-7624.121203,1072.533697
972.835965,-370.102971,-8068.244768,1302.362347
972.836289,-370.102971,-9178.553681,612.876398
972.836613,0.000000,-9030.512492,229.828649
972.836937,814.226536,-9030.512492,383.047749
972.837261,888.247130,-8956.491898,842.705048
972.837585,1110.308913,-9992.780217,842.705048
972.837909,1554.432478,-10066.800811,1532.190996
972.838233,1332.370696,-9696.697840,1378.971896
972.838558,1036.288319,-9030.512492,-459.657299
972.838882,-148.041188,-8364.327145,-1149.143247
972.839206,-296.082377,-9400.615463,-536.266849
972.839530,1036.288319,-10066.800811,0.000000
972.839854,1850.514855,-9844.739029,0.000000
972.840178,1702.473667,-9918.759623,-306.438199
972.840502,1480.411884,-10140.821405,-153.219100
972.840826,1702.473667,-9844.739029,-459.657299
972.841150,1702.473667,-11177.109724,-766.095498
972.841474,148.041188,-11399.171507,0.000000
972.841798,0.000000,-11029.068536,-1149.143247
972.842122,296.082377,-10362.883188,-1149.143247
972.842446,0.000000,-11103.089130,-306.438199
972.842771,-666.185348,-12583.501014,153.219100
972.843095,-444.123565,-11251.130318,-612.876398
972.843419,-518.144159,-10510.924376,-153.219100
972.843743,-370.102971,-10807.006753,-383.047749
972.844067,74.020594,-11251.130318,-995.924147
972.844391,-666.185348,-11473.192101,-306.438199
972.844715,-2442.679609,-11399.171507,-995.924147
972.845039,-3108.864956,-9992.780217,-1378.971896
972.845363,-2516.700203,-9548.656652,-1302.362347
972.845687,-1554.432478,-9770.718434,-383.047749
972.846011,-1554.432478,-9844.739029,0.000000
972.846335,-1776.494261,-8956.491898,-1302.362347
972.846659,-1850.514855,-8734.430116,0.000000
972.846983,-666.185348,-10140.821405,229.828649
972.847308,888.247130,-9622.677246,229.828649
972.847632,814.226536,-7846.182985,689.485948
972.847956,-370.102971,-8438.347739,689.485948
972.848280,0.000000,-10066.800811,536.266849
972.848604,1850.514855,-9918.759623,536.266849
972.848928,1554.432478,-7550.100608,306.438199
972.849252,518.144159,-6883.915261,306.438199
972.849576,-370.102971,-8734.430116,-306.438199
972.849900,-444.123565,-9622.677246,0.000000
972.850224,0.000000,-9252.574275,995.924147
972.850548,814.226536,-8364.327145,612.876398
972.850872,1258.350101,-7772.162391,306.438199
972.851196,444.123565,-7846.182985,229.828649
972.851521,222.061783,-9178.553681,459.657299
972.851845,962.267725,-8808.450710,229.828649
972.852169,962.267725,-7698.141797,-153.219100
972.852493,444.123565,-8216.285956,0.000000
972.852817,-666.185348,-8956.491898,229.828649
972.853141,-666.185348,-9992.780217,-229.828649
972.853465,74.020594,-9178.553681,459.657299
972.853789,0.000000,-9030.512492,-612.876398
972.854113,0.000000,-9548.656652,-766.095498
972.854437,222.061783,-9844.739029,0.000000
972.854761,444.123565,-10066.800811,153.219100
972.855085,888.247130,-10288.862594,-229.828649
972.855409,296.082377,-10881.027347,-229.828649
972.855734,0.000000,-11325.150913,-612.876398
972.856058,0.000000,-10288.862594,0.000000
972.856382,296.082377,-10140.821405,-383.047749
972.856706,518.144159,-10955.047942,-995.924147
972.857030,222.061783,-10658.965565,-1455.581446
972.857354,592.164754,-10658.965565,-1225.752797
972.857678,1258.350101,-10658.965565,-689.485948
972.858002,1554.432478,-10658.965565,-1455.581446
972.858326,444.123565,-10288.862594,-919.314598
972.858650,-1184.329507,-10362.883188,-1072.533697
972.858974,-1702.473667,-10436.903782,-1302.362347
972.859298,-296.082377,-11251.130318,-1072.533697
972.859622,370.102971,-10732.986159,-229.828649
972.859946,518.144159,-11029.068536,153.219100
972.860271,518.144159,-10214.842000,229.828649
972.860595,962.267725,-9770.718434,153.219100
972.860919,962.267725,-9992.780217,0.000000
972.861243,888.247130,-10436.903782,1455.581446
972.861567,148.041188,-10510.924376,612.876398
972.861891,-666.185348,-9918.759623,153.219100
972.862215,-1184.329507,-8956.491898,-229.828649
972.862539,-1110.308913,-9400.615463,-153.219100
972.862863,-666.185348,-10140.821405,-153.219100
972.863187,-888.247130,-9696.697840,229.828649
972.863511,-1924.535449,-9400.615463,536.266849
972.863835,-1776.494261,-8808.450710,536.266849
972.864159,-1406.391290,-8068.244768,-306.438199
972.864484,-148.041188,-9104.533087,766.095498
972.864808,-296.082377,-9474.636058,1072.533697
972.865132,0.000000,-9844.739029,1072.533697
972.865456,-592.164754,-8364.327145,1149.143247
972.865780,-1406.391290,-7550.100608,1532.190996
972.866104,-1332.370696,-8512.368333,306.438199
972.866428,-2294.638420,-9252.574275,0.000000
972.866752,-2294.638420,-9474.636058,383.047749
972.867076,-1184.329507,-8438.347739,689.485948
972.867400,370.102971,-7920.203579,153.219100
972.867725,1110.308913,-8142.265362,612.876398
972.868049,888.247130,-8734.430116,1225.752797
972.868373,814.226536,-9104.533087,766.095498
972.868697,518.144159,-9252.574275,1302.362347
972.869021,222.061783,-9622.677246,1455.581446
972.869345,74.020594,-8660.409521,1225.752797
972.869669,-74.020594,-7994.224174,766.095498
972.869993,-962.267725,-9104.533087,306.438199
972.870318,-1036.288319,-10510.924376,153.219100
972.870642,-222.061783,-10214.842000,0.000000
972.870966,296.082377,-8660.409521,612.876398
972.871290,814.226536,-8438.347739,536.266849
972.871614,1850.514855,-9548.656652,383.047749
972.871938,1258.350101,-10510.924376,0.000000
972.872262,222.061783,-10955.047942,153.219100
972.872587,1036.288319,-11029.068536,-229.828649
972.872911,1702.473667,-10436.903782,0.000000
972.873235,2368.659014,-10658.965565,459.657299
972.873559,2516.700203,-11473.192101,842.705048
972.873883,2294.638420,-10214.842000,-766.095498
972.874207,1258.350101,-10288.862594,-2068.457845
972.874531,-148.041188,-10066.800811,-1685.410096
972.874855,592.164754,-10362.883188,-842.705048
972.875180,888.247130,-10955.047942,229.828649
972.875504,296.082377,-10658.965565,-306.438199
972.875828,0.000000,-9326.594869,-1072.533697
972.876152,-296.082377,-8808.450710,-1072.533697
972.876476,148.041188,-9918.759623,-842.705048
972.876800,296.082377,-10510.924376,-306.438199
972.877124,-222.061783,-10510.924376,0.000000
972.877448,-666.185348,-9252.574275,0.000000
972.877773,-740.205942,-9400.615463,-689.485948
972.878097,-666.185348,-9992.780217,-689.485948
972.878421,-814.226536,-9992.780217,-153.219100
972.878745,-592.164754,-9844.739029,-306.438199
972.879069,-1036.288319,-9474.636058,-229.828649
972.879393,-1184.329507,-9770.718434,-536.266849
972.879717,-740.205942,-8734.430116,-1302.362347
972.880041,-1702.473667,-9400.615463,-612.876398
972.880366,-1924.535449,-10732.986159,-995.924147
972.880690,74.020594,-9770.718434,-459.657299
972.881014,518.144159,-8956.491898,306.438199
972.881338,148.041188,-9474.636058,536.266849
972.881662,-592.164754,-9696.697840,306.438199
972.881986,-1110.308913,-9918.759623,-383.047749
972.882310,-888.247130,-10140.821405,229.828649
972.882634,-814.226536,-9474.636058,306.438199
972.882959,-962.267725,-8882.471304,-229.828649
972.883283,-1258.350101,-8512.368333,842.705048
972.883607,-1628.453072,-10066.800811,536.266849
972.883931,-1480.411884,-9770.718434,-612.876398
972.884255,-1184.329507,-9252.574275,536.266849
972.884579,-444.123565,-9474.636058,76.609550
972.884903,1110.308913,-8808.450710,-306.438199
972.885227,1850.514855,-8956.491898,153.219100
972.885552,1406.391290,-9770.718434,842.705048
972.885876,1924.535449,-9770.718434,153.219100
972.886200,2812.782580,-10214.842000,919.314598
972.886524,2442.679609,-9400.615463,1072.533697
972.886848,1776.494261,-9104.533087,689.485948
972.887172,-296.082377,-9474.636058,-153.219100
972.887496,-740.205942,-9400.615463,0.000000
972.887820,-740.205942,-10288.862594,383.047749
972.888145,0.000000,-9992.780217,0.000000
972.888469,444.123565,-8068.244768,689.485948
972.888793,74.020594,-8808.450710,1378.971896
972.889117,-148.041188,-9104.533087,0.000000
972.889441,444.123565,-9326.594869,-229.828649
972.889765,-296.082377,-9178.553681,0.000000
972.890089,-592.164754,-9992.780217,153.219100
972.890414,-592.164754,-9844.739029,-383.047749
972.890738,-518.144159,-9844.739029,0.000000
972.891062,-148.041188,-9326.594869,-383.047749
972.891386,518.144159,-9548.656652,0.000000
972.891710,1036.288319,-10362.883188,76.609550
972.892034,1036.288319,-9770.718434,76.609550
972.892358,444.123565,-9400.615463,0.000000
972.892682,740.205942,-8956.491898,229.828649
972.893007,1036.288319,-9696.697840,459.657299
972.893331,740.205942,-10436.903782,459.657299
972.893655,740.205942,-8734.430116,536.266849
972.893979,0.000000,-9326.594869,536.266849
972.894303,-148.041188,-9548.656652,536.266849
972.894627,148.041188,-9696.697840,0.000000
972.894951,74.020594,-9474.636058,0.000000
972.895275,-592.164754,-9696.697840,76.609550
972.895600,-814.226536,-10362.883188,76.609550
972.895924,-1036.288319,-10436.903782,0.000000
972.896248,-814.226536,-9474.636058,-153.219100
972.896572,-370.102971,-9770.718434,0.000000
972.896896,148.041188,-10066.800811,-306.438199
972.897220,-370.102971,-10510.924376,0.000000
972.897544,-148.041188,-11251.130318,-459.657299
972.897868,-148.041188,-10732.986159,-306.438199
972.898193,-1184.329507,-10584.944971,-153.219100
972.898517,-1406.391290,-10214.842000,0.000000
972.898841,-1110.308913,-10732.986159,-766.095498
972.899165,-1480.411884,-10584.944971,0.000000
972.899489,-1258.350101,-10066.800811,-153.219100
972.899813,-370.102971,-10140.821405,76.609550
972.900137,518.144159,-10658.965565,459.657299
972.900461,518.144159,-9770.718434,76.609550
972.900786,-370.102971,-9178.553681,-153.219100
972.901110,-1036.288319,-9104.533087,0.000000
972.901434,-1110.308913,-9770.718434,0.000000
972.901758,-740.205942,-9696.697840,0.000000
972.902082,0.000000,-8216.285956,76.609550
972.902406,0.000000,-7476.080014,306.438199
972.902730,-518.144159,-8438.347739,0.000000
972.903054,-666.185348,-8364.327145,153.219100
972.903379,-518.144159,-8364.327145,0.000000
972.903703,-444.123565,-8290.306550,306.438199
972.904027,-222.061783,-8512.368333,306.438199
972.904351,-222.061783,-8438.347739,842.705048
972.904675,-148.041188,-9178.553681,536.266849
972.904999,148.041188,-9030.512492,306.438199
972.905323,444.123565,-8808.450710,229.828649
972.905647,888.247130,-8734.430116,306.438199
972.905972,1110.308913,-9030.512492,0.000000
972.906296,1554.432478,-9178.553681,612.876398
972.906620,1776.494261,-9548.656652,1455.581446
972.906944,1998.556043,-10214.842000,612.876398
972.907268,1184.329507,-10066.800811,-306.438199
972.907592,222.061783,-10510.924376,-153.219100
972.907916,814.226536,-10288.862594,0.000000
972.908241,1332.370696,-9992.780217,-536.266849
972.908565,740.205942,-9770.718434,-612.876398
972.908889,0.000000,-9548.656652,-1149.143247
972.909213,-222.061783,-10436.903782,-1302.362347
972.909537,148.041188,-11399.171507,-766.095498
972.909861,962.267725,-10732.986159,-153.219100
972.910185,1628.453072,-10658.965565,0.000000
972.910509,1776.494261,-10658.965565,0.000000
972.910834,814.226536,-10362.883188,0.000000
972.911158,0.000000,-10732.986159,-153.219100
972.911482,-888.247130,-9770.718434,-766.095498
972.911806,-740.205942,-9992.780217,-995.924147
972.912130,-370.102971,-10288.862594,-383.047749
972.912454,-296.082377,-10066.800811,-459.657299
972.912778,-1110.308913,-9770.718434,-229.828649
972.913102,-1110.308913,-9918.759623,0.000000
972.913427,-740.205942,-10584.944971,-383.047749
972.913751,-592.164754,-10214.842000,-842.705048
972.914075,-1184.329507,-9474.636058,536.266849
972.914399,-1406.391290,-10214.842000,0.000000
972.914723,-1036.288319,-10362.883188,-459.657299
972.915047,-888.247130,-9770.718434,536.266849
972.915371,-740.205942,-10436.903782,229.828649
972.915695,0.000000,-9844.739029,383.047749
972.916020,148.041188,-9326.594869,306.438199
972.916344,0.000000,-9696.697840,459.657299
972.916668,0.000000,-9696.697840,153.219100
972.916992,0.000000,-9918.759623,-459.657299
972.917316,-296.082377,-9252.574275,0.000000
972.917640,-222.061783,-8586.388927,383.047749
972.917964,-370.102971,-9770.718434,842.705048
972.918288,-1036.288319,-9844.739029,1532.190996
972.918613,-666.185348,-8586.388927,1149.143247
972.918937,-444.123565,-7179.997637,76.609550
972.919261,0.000000,-7550.100608,229.828649
972.919585,-592.164754,-9326.594869,229.828649
972.919909,-962.267725,-9326.594869,1225.752797
972.920233,-666.185348,-8882.471304,1302.362347
972.920557,74.020594,-8364.327145,536.266849
972.920881,74.020594,-8364.327145,306.438199
972.921206,-592.164754,-9622.677246,689.485948
972.921530,296.082377,-10140.821405,229.828649
972.921854,962.267725,-10214.842000,1302.362347
972.922178,1110.308913,-10436.903782,1532.190996
972.922502,1258.350101,-9696.697840,919.314598
972.922826,1184.329507,-9992.780217,536.266849
972.923150,666.185348,-9844.739029,0.000000
972.923474,0.000000,-9252.574275,-153.219100
972.923799,-888.247130,-9770.718434,-153.219100
972.924123,148.041188,-9326.594869,-766.095498
972.924447,962.267725,-8808.450710,-612.876398
972.924771,518.144159,-8882.471304,-995.924147
972.925095,222.061783,-8586.388927,-995.924147
972.925419,518.144159,-9770.718434,-536.266849
972.925743,888.247130,-9770.718434,-766.095498
972.926068,1332.370696,-9326.594869,-689.485948
972.926392,-370.102971,-9548.656652,0.000000
972.926716,-592.164754,-10288.862594,-536.266849
972.927040,148.041188,-10955.047942,-383.047749
972.927364,888.247130,-11103.089130,153.219100
972.927688,1036.288319,-9992.780217,0.000000
972.928012,592.164754,-10362.883188,0.000000
972.928336,740.205942,-10288.862594,229.828649
972.928661,1110.308913,-10510.924376,-229.828649
972.928985,962.267725,-10214.842000,-153.219100
972.929309,74.020594,-10140.821405,-153.219100
972.929633,-888.247130,-10807.006753,-612.876398
972.929957,-1702.473667,-10436.903782,-1762.019645
972.930281,-2294.638420,-9918.759623,-842.705048
972.930605,-1702.473667,-10510.924376,-919.314598
972.930929,-814.226536,-10288.862594,-612.876398
972.931254,-962.267725,-10362.883188,689.485948
972.931578,-962.267725,-10066.800811,0.000000
972.931902,-666.185348,-8882.471304,153.219100
972.932226,-222.061783,-9474.636058,76.609550
972.932550,296.082377,-9770.718434,459.657299
972.932874,370.102971,-10214.842000,1455.581446
972.933198,74.020594,-10732.986159,1149.143247
972.933522,0.000000,-9474.636058,1072.533697
972.933847,296.082377,-8808.450710,-306.438199
972.934171,0.000000,-8808.450710,-459.657299
972.934495,-296.082377,-8882.471304,-536.266849
972.934819,-2072.576638,-9548.656652,-229.828649
972.935143,-2146.597232,-9252.574275,0.000000
972.935467,-1184.329507,-9104.533087,76.609550
972.935791,296.082377,-8586.388927,-306.438199
972.936115,1406.391290,-8364.327145,536.266849
972.936440,888.247130,-9252.574275,1225.752797
972.936764,444.123565,-9474.636058,919.314598
972.937088,444.123565,-9474.636058,1608.800546
972.937412,444.123565,-9474.636058,1302.362347
972.937736,1258.350101,-8660.409521,229.828649
972.938060,-444.123565,-8660.409521,0.000000
972.938384,-1184.329507,-9548.656652,76.609550
972.938708,-222.061783,-9844.739029,229.828649
972.939033,518.144159,-9474.636058,-306.438199
972.939357,296.082377,-7994.224174,76.609550
972.939681,666.185348,-8808.450710,76.609550
972.940005,1184.329507,-10436.903782,-459.657299
972.940329,740.205942,-9696.697840,-306.438199
972.940653,-148.041188,-9178.553681,153.219100
972.940977,74.020594,-10584.944971,76.609550
972.941301,1258.350101,-10510.924376,-229.828649
972.941626,1554.432478,-10214.842000,76.609550
972.941950,1110.308913,-10214.842000,0.000000
972.942274,888.247130,-10584.944971,-1149.143247
972.942598,0.000000,-10732.986159,-1532.190996
972.942922,222.061783,-9992.780217,-1762.019645
972.943246,740.205942,-10955.047942,-919.314598
972.943570,-148.041188,-10955.047942,-1225.752797
972.943895,-1850.514855,-10362.883188,-1378.971896
972.944219,-2146.597232,-10140.821405,-1302.362347
972.944543,-1036.288319,-9770.718434,-1915.238745
972.944867,0.000000,-10362.883188,-383.047749
972.945191,444.123565,-11547.212695,76.609550
972.945515,888.247130,-10436.903782,536.266849
972.945839,1036.288319,-9400.615463,536.266849
972.946163,814.226536,-9400.615463,-383.047749
972.946488,0.000000,-8660.409521,-1455.581446
972.946812,-666.185348,-9474.636058,-1149.143247
972.947136,-666.185348,-9030.512492,-612.876398
972.947460,-962.267725,-9030.512492,-153.219100
972.947784,-666.185348,-8956.491898,-459.657299
972.948108,-444.123565,-8512.368333,-306.438199
972.948432,-148.041188,-9104.533087,-1225.752797
972.948756,0.000000,-10066.800811,-459.657299
972.949081,-222.061783,-9770.718434,1072.533697
972.949405,740.205942,-9844.739029,919.314598
972.949729,1480.411884,-10066.800811,1838.629195
972.950053,1480.411884,-10955.047942,1149.143247
972.950377,370.102971,-10510.924376,459.657299
972.950701,-1258.350101,-9918.759623,383.047749
972.951025,-1850.514855,-10214.842000,153.219100
972.951349,-1702.473667,-10214.842000,766.095498
972.951674,-1628.453072,-9918.759623,-995.924147
972.951998,-2368.659014,-9622.677246,-1302.362347
972.952322,-2664.741391,-9770.718434,-919.314598
972.952646,-1554.432478,-10436.903782,-766.095498
972.952970,-222.061783,-10510.924376,0.000000
972.953294,518.144159,-9548.656652,536.266849
972.953618,592.164754,-9770.718434,1532.190996
972.953942,962.267725,-9326.594869,612.876398
972.954267,1036.288319,-9474.636058,1608.800546
972.954591,1480.411884,-9918.759623,1991.848295
972.954915,1480.411884,-9474.636058,995.924147
972.955239,-148.041188,-9178.553681,1608.800546
972.955563,-1332.370696,-8364.327145,1302.362347
972.955887,-814.226536,-8438.347739,459.657299
972.956211,-962.267725,-8586.388927,-1302.362347
972.956535,-1110.308913,-7550.100608,-306.438199
972.956860,-1184.329507,-8290.306550,76.609550
972.957184,-518.144159,-9104.533087,-1072.533697
972.957508,0.000000,-8364.327145,-229.828649
972.957832,888.247130,-8808.450710,536.266849
972.958156,2442.679609,-9844.739029,153.219100
972.958480,2812.782580,-10658.965565,766.095498
972.958804,1184.329507,-10066.800811,1225.752797
972.959128,1184.329507,-9474.636058,1225.752797
972.959453,1850.514855,-10214.842000,153.219100
972.959777,1998.556043,-10066.800811,-536.266849
972.960101,1480.411884,-8734.430116,0.000000
972.960425,888.247130,-9178.553681,-766.095498
972.960749,-148.041188,-9770.718434,-766.095498
972.961073,-1184.329507,-9770.718434,-689.485948
972.961397,-666.185348,-8660.409521,-1685.410096
972.961722,-296.082377,-8290.306550,-1608.800546
972.962046,-666.185348,-9474.636058,-1378.971896
972.962370,-518.144159,-10140.821405,-1378.971896
972.962694,0.000000,-9548.656652,-306.438199
972.963018,222.061783,-9474.636058,-306.438199
972.963342,666.185348,-9770.718434,0.000000
972.963666,666.185348,-10288.862594,-383.047749
972.963990,74.020594,-10584.944971,-919.314598
972.964315,-666.185348,-10807.006753,-229.828649
972.964639,-444.123565,-11695.253884,-383.047749
972.964963,-592.164754,-10807.006753,-689.485948
972.965287,-1998.556043,-11103.089130,-536.266849
972.965611,-2738.761985,-11177.109724,-1685.410096
972.965935,-2072.576638,-10510.924376,-689.485948
972.966259,-1554.432478,-11325.150913,-1072.533697
972.966583,-962.267725,-12139.377449,-153.219100
972.966907,-444.123565,-10584.944971,612.876398
972.967231,-370.102971,-9474.636058,536.266849
972.967555,-592.164754,-10140.821405,383.047749
972.967879,-518.144159,-10214.842000,0.000000
972.968203,222.061783,-9918.759623,0.000000
972.968527,222.061783,-8882.471304,383.047749
972.968851,-666.185348,-9104.533087,-153.219100
972.969175,-1184.329507,-8808.450710,0.000000
972.969499,-1184.329507,-9104.533087,766.095498
972.969823,0.000000,-10214.842000,153.219100
972.970147,740.205942,-8586.388927,229.828649
972.970471,370.102971,-7402.059420,919.314598
972.970795,962.267725,-8068.244768,1225.752797
972.971119,1184.329507,-9400.615463,536.266849
972.971443,888.247130,-8882.471304,1532.190996
972.971767,666.185348,-8586.388927,1378.971896
972.972091,0.000000,-9918.759623,1225.752797
972.972415,-370.102971,-9178.553681,766.095498
972.972739,222.061783,-7624.121203,766.095498
972.973063,814.226536,-8068.244768,1149.143247
972.973387,1110.308913,-8808.450710,229.828649
972.973711,740.205942,-8956.491898,0.000000
972.974035,0.000000,-8882.471304,0.000000
972.974359,74.020594,-8808.450710,-536.266849
972.974683,740.205942,-9992.780217,-306.438199
972.975008,1480.411884,-9992.780217,0.000000
972.975332,1924.535449,-9326.594869,-995.924147
972.975656,814.226536,-10214.842000,-766.095498
972.975980,0.000000,-10807.006753,-919.314598
972.976304,296.082377,-10510.924376,-1225.752797
972.976628,1554.432478,-10732.986159,-919.314598
972.976952,1776.494261,-10436.903782,-153.219100
972.977276,740.205942,-10140.821405,-383.047749
972.977600,666.185348,-10140.821405,-1532.190996
972.977924,0.000000,-9548.656652,-919.314598
972.978248,1110.308913,-10140.821405,-1072.533697
972.978572,1480.411884,-9770.718434,-1302.362347
972.978896,-148.041188,-9252.574275,-842.705048
972.979220,-2072.576638,-9770.718434,-1455.581446
972.979544,-2294.638420,-9844.739029,-1455.581446
972.979868,-2072.576638,-9770.718434,-1685.410096
972.980192,-1850.514855,-9770.718434,-1378.971896
972.980516,-1850.514855,-9622.677246,-612.876398
972.980840,-1184.329507,-10214.842000,-1378.971896
972.981164,-740.205942,-9844.739029,0.000000
972.981488,-592.164754,-10140.821405,229.828649
972.981812,0.000000,-10140.821405,-536.266849
972.982136,148.041188,-9474.636058,0.000000
972.982460,74.020594,-9844.739029,1072.533697
972.982784,-592.164754,-10362.883188,919.314598
972.983108,-666.185348,-9770.718434,-536.266849
972.983432,-1850.514855,-9400.615463,-612.876398
972.983756,-1406.391290,-8734.430116,0.000000
972.984080,-444.123565,-9770.718434,-919.314598
972.984404,-1332.370696,-9548.656652,-995.924147
972.984728,-2738.761985,-8438.347739,0.000000
972.985052,-2072.576638,-8808.450710,0.000000
972.985376,-222.061783,-9992.780217,-995.924147
972.985700,-222.061783,-9548.656652,-383.047749
972.986024,-1036.288319,-8808.450710,536.266849
972.986348,-370.102971,-9474.636058,383.047749
972.986672,370.102971,-10584.944971,383.047749
972.986996,1184.329507,-10955.047942,995.924147
972.987320,1998.556043,-9622.677246,1608.800546
972.987644,2294.638420,-10436.903782,995.924147
972.987968,1406.391290,-9992.780217,306.438199
972.988292,888.247130,-9696.697840,229.828649
972.988616,148.041188,-9474.636058,-306.438199
972.988940,74.020594,-9992.780217,0.000000
972.989264,-222.061783,-10288.862594,-995.924147
972.989588,-592.164754,-9622.677246,-383.047749
972.989912,444.123565,-9622.677246,76.609550
972.990236,814.226536,-10214.842000,-229.828649
972.990560,814.226536,-9770.718434,229.828649
972.990884,1184.329507,-9696.697840,1378.971896
972.991208,1332.370696,-10955.047942,383.047749
972.991532,1998.556043,-10436.903782,1149.143247
972.991856,2220.617826,-8956.491898,1915.238745
972.992180,2516.700203,-8364.327145,1532.190996
972.992504,1628.453072,-9844.739029,1225.752797
972.992828,888.247130,-10066.800811,459.657299
972.993152,222.061783,-9030.512492,1608.800546
972.993476,74.020594,-8956.491898,919.314598
972.993800,-962.267725,-9474.636058,0.000000
972.994124,-1924.535449,-8734.430116,-536.266849
972.994448,-2368.659014,-7994.224174,-1302.362347
972.994772,-2516.700203,-8882.471304,-459.657299
972.995096,-1332.370696,-10362.883188,383.047749
972.995420,-222.061783,-9474.636058,229.828649
972.995744,222.061783,-7550.100608,0.000000
972.996068,-518.144159,-8512.368333,766.095498
972.996392,-814.226536,-9918.759623,76.609550
972.996716,-962.267725,-10140.821405,383.047749
972.997040,-1110.308913,-9696.697840,612.876398
972.997364,-518.144159,-9400.615463,766.095498
972.997688,0.000000,-10066.800811,536.266849
972.998012,-444.123565,-10510.924376,0.000000
972.998336,-1554.432478,-9400.615463,0.000000
972.998660,-1332.370696,-9474.636058,-536.266849
972.998984,-1184.329507,-9622.677246,-1302.362347
972.999308,-1924.535449,-9992.780217,0.000000
972.999632,-2072.576638,-10362.883188,-229.828649
972.999956,-1332.370696,-9844.739029,-1072.533697
973.000280,-592.164754,-9474.636058,-689.485948
973.000604,148.041188,-9474.636058,-689.485948
973.000928,1258.350101,-10436.903782,-229.828649
973.001252,1480.411884,-10436.903782,76.609550
973.001576,1184.329507,-10658.965565,0.000000
973.001900,592.164754,-10584.944971,-306.438199
973.002224,-148.041188,-10732.986159,-1149.143247
973.002548,-148.041188,-9696.697840,-1455.581446
973.002872,0.000000,-10140.821405,-383.047749
973.003196,0.000000,-11177.109724,0.000000
973.003520,74.020594,-11251.130318,-306.438199
973.003844,-370.102971,-9918.759623,-536.266849
973.004168,444.123565,-8956.491898,-842.705048
973.004492,740.205942,-9326.594869,-612.876398
973.004816,444.123565,-9770.718434,-612.876398
973.005140,-222.061783,-9252.574275,76.609550
973.005464,74.020594,-9252.574275,0.000000
973.005788,1036.288319,-9252.574275,0.000000
973.006112,1554.432478,-9252.574275,0.000000
973.006436,444.123565,-9400.615463,-536.266849
973.006760,0.000000,-9474.636058,-383.047749
973.007084,296.082377,-9252.574275,0.000000
973.007408,1184.329507,-9844.739029,153.219100
973.007732,814.226536,-9696.697840,1072.533697
973.008056,444.123565,-8808.450710,-229.828649
973.008380,444.123565,-8660.409521,-766.095498
973.008704,592.164754,-8882.471304,-842.705048
973.009028,740.205942,-8808.450710,-995.924147
973.009352,1184.329507,-9104.533087,0.000000
973.009676,962.267725,-9696.697840,76.609550
973.010000,814.226536,-9326.594869,0.000000
973.010324,592.164754,-8438.347739,-383.047749
973.010648,222.061783,-8956.491898,-1225.752797
973.010972,0.000000,-9474.636058,-1455.581446
973.011296,-1110.308913,-10066.800811,-1149.143247
973.011620,-1406.391290,-9474.636058,-1378.971896
973.011944,-1258.350101,-9104.533087,-1302.362347
973.012268,-1998.556043,-9622.677246,-1608.800546
973.012592,-1480.411884,-9548.656652,-2068.457845
973.012916,-814.226536,-9326.594869,-2068.457845
973.013240,0.000000,-10584.944971,-459.657299
973.013564,518.144159,-10732.986159,-536.266849
973.013888,1036.288319,-10881.027347,0.000000
973.014212,1258.350101,-10362.883188,0.000000
973.014536,888.247130,-10140.821405,76.609550
973.014860,592.164754,-11473.192101,-153.219100
973.015184,-592.164754,-10881.027347,-229.828649
973.015508,-1554.432478,-9474.636058,-459.657299
973.015832,-1332.370696,-9326.594869,-1072.533697
973.016156,-592.164754,-9474.636058,-919.314598
973.016480,-370.102971,-9992.780217,-383.047749
973.016804,-1036.288319,-9918.759623,-459.657299
973.017128,-1702.473667,-9030.512492,153.219100
973.017452,-1258.350101,-9548.656652,-689.485948
973.017776,-222.061783,-9622.677246,153.219100
973.018101,-1110.308913,-9622.677246,76.609550
973.018425,-592.164754,-10436.903782,-306.438199
973.018749,-296.082377,-10140.821405,612.876398
973.019073,-296.082377,-10214.842000,612.876398
973.019397,0.000000,-9474.636058,766.095498
973.019721,-222.061783,-9474.636058,1225.752797
973.020045,-888.247130,-9770.718434,1302.362347
973.020369,-888.247130,-10362.883188,919.314598
973.020693,0.000000,-9474.636058,1149.143247
973.021017,1258.350101,-9474.636058,2068.457845
973.021341,1702.473667,-9696.697840,2298.286494
973.021665,814.226536,-10140.821405,1685.410096
973.021989,148.041188,-8438.347739,1149.143247
973.022313,-148.041188,-7846.182985,1072.533697
973.022637,-296.082377,-9326.594869,1072.533697
973.022961,-740.205942,-8660.409521,766.095498
973.023285,-2146.597232,-7698.141797,459.657299
973.023609,-2368.659014,-7476.080014,76.609550
973.023933,-1258.350101,-7772.162391,-153.219100
973.024257,0.000000,-8216.285956,766.095498
973.024581,1406.391290,-8438.347739,1608.800546
973.024905,2516.700203,-9178.553681,2528.115143
973.025229,2072.576638,-9918.759623,2374.896044
973.025553,1998.556043,-9622.677246,1991.848295
973.025877,2294.638420,-9474.636058,1149.143247
973.026201,2294.638420,-10140.821405,919.314598
973.026525,1628.453072,-10584.944971,536.266849
973.026849,1258.350101,-10658.965565,76.609550
973.027173,666.185348,-10288.862594,-229.828649
973.027497,222.061783,-9696.697840,-2145.067394
973.027821,962.267725,-10140.821405,-2068.457845
973.028145,1036.288319,-11177.109724,-766.095498
973.028469,222.061783,-11399.171507,-1378.971896
973.028793,-1406.391290,-10584.944971,-1915.238745
973.029117,-2960.823768,-9252.574275,-1302.362347
973.029441,-1850.514855,-9696.697840,-1072.533697
973.029765,0.000000,-9770.718434,-1072.533697
973.030089,74.020594,-9400.615463,-842.705048
973.030413,-1554.432478,-9400.615463,-612.876398
973.030737,-1332.370696,-9770.718434,-383.047749
973.031061,74.020594,-10066.800811,0.000000
973.031385,1036.288319,-9548.656652,306.438199
973.031709,1110.308913,-9474.636058,-153.219100
973.032033,148.041188,-9844.739029,-1302.362347
973.032357,0.000000,-10436.903782,-1378.971896
973.032681,592.164754,-10140.821405,-612.876398
973.033005,296.082377,-10214.842000,-1225.752797
973.033329,-296.082377,-10288.862594,-459.657299
973.033653,-1258.350101,-10140.821405,-1685.410096
973.033977,-1258.350101,-10288.862594,-1455.581446
973.034301,0.000000,-9918.759623,-1149.143247
973.034625,370.102971,-9992.780217,-919.314598
973.034949,-148.041188,-9622.677246,-306.438199
973.035273,-592.164754,-9992.780217,-612.876398
973.035597,-666.185348,-10066.800811,0.000000
973.035921,-1628.453072,-10732.986159,0.000000
973.036245,-2146.597232,-9918.759623,-995.924147
973.036569,-1924.535449,-8586.388927,-1532.190996
973.036893,-2590.720797,-8660.409521,-1608.800546
973.037217,-2516.700203,-9622.677246,-1378.971896
973.037541,-740.205942,-9474.636058,0.000000
973.037865,888.247130,-9252.574275,-229.828649
973.038189,1776.494261,-8512.368333,-612.876398
973.038513,1850.514855,-8438.347739,-612.876398
973.038837,1702.473667,-9104.533087,-306.438199
973.039161,1480.411884,-9696.697840,-229.828649
973.039485,1480.411884,-9770.718434,0.000000
973.039809,814.226536,-9474.636058,0.000000
973.040133,222.061783,-8956.491898,459.657299
973.040457,0.000000,-9770.718434,229.828649
973.040781,-444.123565,-9770.718434,-612.876398
973.041105,222.061783,-9178.553681,0.000000
973.041429,296.082377,-9548.656652,76.609550
973.041753,962.267725,-9770.718434,229.828649
973.042077,1184.329507,-9548.656652,1072.533697
973.042401,1110.308913,-9770.718434,459.657299
973.042725,444.123565,-10362.883188,-153.219100
973.043049,0.000000,-9918.759623,-383.047749
973.043373,592.164754,-9844.739029,153.219100
973.043697,1258.350101,-9696.697840,0.000000
973.044021,1184.329507,-10288.862594,-536.266849
973.044345,370.102971,-9770.718434,-612.876398
973.044669,740.205942,-9696.697840,-1455.581446
973.044993,1110.308913,-10140.821405,-306.438199
973.045317,1184.329507,-9622.677246,-383.047749
973.045641,888.247130,-9844.739029,0.000000
973.045965,74.020594,-9770.718434,0.000000
973.046289,148.041188,-10140.821405,76.609550
973.046613,0.000000,-10362.883188,76.609550
973.046937,0.000000,-9474.636058,-306.438199
973.047261,-296.082377,-9474.636058,536.266849
973.047585,-296.082377,-10214.842000,612.876398
973.047909,444.123565,-10732.986159,612.876398
973.048233,-296.082377,-9844.739029,536.266849
973.048557,-740.205942,-9178.553681,612.876398
973.048881,-740.205942,-9474.636058,-536.266849
973.049205,-1924.535449,-9770.718434,-766.095498
973.049529,-1776.494261,-9252.574275,-306.438199
973.049853,-666.185348,-9474.636058,153.219100
973.050177,-74.020594,-9918.759623,229.828649
973.050501,-814.226536,-9252.574275,-76.609550
973.050825,-2368.659014,-8438.347739,-459.657299
973.051149,-2368.659014,-8364.327145,-229.828649
973.051473,-1554.432478,-9770.718434,153.219100
973.051797,-444.123565,-9622.677246,536.266849
973.052121,518.144159,-8364.327145,1378.971896
973.052445,-296.082377,-9326.594869,1915.238745
973.052769,370.102971,-10066.800811,842.705048
973.053093,296.082377,-9400.615463,0.000000
973.053417,-296.082377,-9252.574275,76.609550
973.053741,-962.267725,-10288.862594,689.485948
973.054065,-1406.391290,-11103.089130,-536.266849
973.054389,-1554.432478,-9622.677246,-689.485948
973.054713,-1406.391290,-8734.430116,-229.828649
973.055037,-666.185348,-10140.821405,-1302.362347
973.055361,148.041188,-10288.862594,-689.485948
973.055685,370.102971,-10436.903782,306.438199
973.056009,888.247130,-10584.944971,1072.533697
973.056333,962.267725,-10140.821405,919.314598
973.056657,888.247130,-9400.615463,0.000000
973.056981,814.226536,-9326.594869,153.219100
973.057305,962.267725,-9474.636058,306.438199
973.057629,1036.288319,-10807.006753,383.047749
973.057953,296.082377,-10214.842000,1225.752797
973.058277,592.164754,-8586.388927,536.266849
973.058601,1628.453072,-7772.162391,-229.828649
973.058925,1776.494261,-8660.409521,0.000000
973.059249,1480.411884,-10140.821405,-995.924147
973.059573,2072.576638,-9252.574275,-995.924147
973.059897,1702.473667,-8808.450710,-306.438199
973.060221,1110.308913,-8586.388927,-153.219100
973.060545,1036.288319,-9400.615463,-229.828649
973.060869,148.041188,-9992.780217,-612.876398
973.061194,-814.226536,-9844.739029,-1072.533697
973.061518,-1554.432478,-8882.471304,-1072.533697
973.061842,-1258.350101,-8586.388927,-1762.019645
973.062166,-814.226536,-8808.450710,-612.876398
973.062490,-370.102971,-10658.965565,0.000000
973.062814,-222.061783,-10881.027347,-229.828649
973.063138,-592.164754,-9918.759623,-459.657299
973.063462,-148.041188,-9252.574275,-1225.752797
973.063786,888.247130,-9252.574275,-1685.410096
973.064110,962.267725,-9474.636058,-1685.410096
973.064434,814.226536,-11251.130318,-689.485948
973.064758,888.247130,-11917.315666,-383.047749
973.065082,1628.453072,-11399.171507,-383.047749
973.065406,1406.391290,-10214.842000,-459.657299
973.065730,740.205942,-9918.759623,-536.266849
973.066054,296.082377,-11177.109724,-1455.581446
973.066378,-296.082377,-11029.068536,-919.314598
973.066702,148.041188,-10955.047942,76.609550
973.067026,-1110.308913,-10436.903782,-995.924147
973.067350,-1628.453072,-10436.903782,0.000000
973.067674,-2072.576638,-9992.780217,-995.924147
973.067998,-2368.659014,-9622.677246,-1455.581446
973.068322,-2220.617826,-9918.759623,-1149.143247
973.068646,-1258.350101,-9844.739029,-919.314598
973.068970,-962.267725,-9696.697840,-612.876398
973.069294,-2072.576638,-9178.553681,-229.828649
973.069618,-2072.576638,-9252.574275,-842.705048
973.069942,-1924.535449,-9474.636058,-842.705048
973.070266,-518.144159,-9474.636058,-995.924147
973.070591,222.061783,-9400.615463,0.000000
973.070915,296.082377,-9844.739029,766.095498
973.071239,666.185348,-10362.883188,1685.410096
973.071563,592.164754,-9844.739029,2145.067394
973.071887,222.061783,-9474.636058,459.657299
973.072211,0.000000,-8216.285956,76.609550
973.072535,148.041188,-7772.162391,459.657299
973.072859,1850.514855,-8734.430116,842.705048
973.073183,2516.700203,-9474.636058,2068.457845
973.073507,1998.556043,-8808.450710,1685.410096
973.073831,1776.494261,-7772.162391,1302.362347
973.074155,1110.308913,-7254.018232,229.828649
973.074479,370.102971,-8216.285956,-229.828649
973.074804,-518.144159,-9104.533087,0.000000
973.075128,-518.144159,-8586.388927,0.000000
973.075452,-296.082377,-8512.368333,919.314598
973.075776,-148.041188,-8586.388927,1378.971896
973.076100,-518.144159,-8660.409521,536.266849
973.076424,-962.267725,-8734.430116,842.705048
973.076748,-518.144159,-9474.636058,-229.828649
973.077072,74.020594,-9770.718434,0.000000
973.077396,-148.041188,-9696.697840,919.314598
973.077720,-148.041188,-9696.697840,536.266849
973.078044,-592.164754,-10436.903782,-306.438199
973.078368,-592.164754,-10510.924376,-229.828649
973.078692,444.123565,-10584.944971,-612.876398
973.079017,814.226536,-11177.109724,-612.876398
973.079341,444.123565,-10807.006753,-995.924147
973.079665,-370.102971,-10362.883188,-919.314598
973.079989,-962.267725,-10955.047942,-689.485948
973.080313,-666.185348,-11399.171507,-766.095498
973.080637,370.102971,-10658.965565,-766.095498
973.080961,888.247130,-9844.739029,306.438199
973.081285,592.164754,-10436.903782,0.000000
973.081609,0.000000,-11399.171507,842.705048
973.081933,-740.205942,-10066.800811,153.219100
973.082257,-444.123565,-9918.759623,-689.485948
973.082581,-1406.391290,-10436.903782,-383.047749
973.082905,-740.205942,-9844.739029,-1302.362347
973.083230,0.000000,-9474.636058,-919.314598
973.083554,-444.123565,-10214.842000,0.000000
973.083878,222.061783,-10362.883188,-536.266849
973.084202,518.144159,-10510.924376,76.609550
973.084526,-296.082377,-9696.697840,76.609550
973.084850,-296.082377,-9178.553681,0.000000
973.085174,-370.102971,-9104.533087,-229.828649
973.085498,-666.185348,-9770.718434,-229.828649
973.085822,74.020594,-9252.574275,383.047749
973.086146,1036.288319,-9104.533087,1225.752797
973.086470,1480.411884,-8956.491898,306.438199
973.086794,-666.185348,-8142.265362,-459.657299
973.087118,-740.205942,-8290.306550,-612.876398
973.087443,0.000000,-8586.388927,-459.657299
973.087767,0.000000,-9326.594869,153.219100
973.088091,-962.267725,-9252.574275,306.438199
973.088415,-888.247130,-8808.450710,0.000000
973.088739,0.000000,-8808.450710,459.657299
973.089063,962.267725,-9474.636058,-306.438199
973.089387,1184.329507,-9400.615463,-306.438199
973.089711,0.000000,-9326.594869,229.828649
973.090035,-740.205942,-9844.739029,1225.752797
973.090359,0.000000,-10214.842000,383.047749
973.090683,666.185348,-9030.512492,0.000000
973.091007,0.000000,-7994.224174,536.266849
973.091331,-592.164754,-9548.656652,229.828649
973.091656,-370.102971,-10066.800811,0.000000
973.091980,0.000000,-8882.471304,689.485948
973.092304,-222.061783,-8956.491898,1072.533697
973.092628,0.000000,-9918.759623,0.000000
973.092952,222.061783,-9474.636058,0.000000
973.093276,0.000000,-9252.574275,842.705048
973.093600,0.000000,-9622.677246,459.657299
973.093924,-222.061783,-9400.615463,0.000000
973.094248,518.144159,-8734.430116,-76.609550
973.094572,1258.350101,-8956.491898,153.219100
973.094896,1036.288319,-9770.718434,-229.828649
973.095220,370.102971,-10436.903782,0.000000
973.095544,74.020594,-10140.821405,-306.438199
973.095869,814.226536,-9992.780217,-229.828649
973.096193,1184.329507,-9918.759623,-383.047749
973.096517,592.164754,-10140.821405,-1302.362347
973.096841,-814.226536,-10584.944971,-1225.752797
973.097165,-1332.370696,-11251.130318,-229.828649
973.097489,-814.226536,-12065.356855,-612.876398
973.097813,-296.082377,-11473.192101,76.609550
973.098137,0.000000,-10214.842000,153.219100
973.098461,-296.082377,-10214.842000,229.828649
973.098785,-592.164754,-11177.109724,-536.266849
973.099109,-296.082377,-10214.842000,-1532.190996
973.099433,148.041188,-10214.842000,0.000000
973.099757,296.082377,-10140.821405,0.000000
973.100082,370.102971,-9992.780217,-1149.143247
973.100406,-814.226536,-9622.677246,76.609550
973.100730,-962.267725,-9178.553681,-689.485948
973.101054,0.000000,-9770.718434,-1532.190996
973.101378,0.000000,-9326.594869,-766.095498
973.101702,222.061783,-9474.636058,0.000000
973.102026,370.102971,-9474.636058,0.000000
973.102350,444.123565,-9030.512492,-306.438199
973.102674,0.000000,-9474.636058,383.047749
973.102998,0.000000,-9696.697840,-229.828649
973.103322,-222.061783,-9548.656652,76.609550
973.103646,-1332.370696,-9400.615463,76.609550
973.103970,-296.082377,-7624.121203,536.266849
973.104295,888.247130,-7994.224174,-383.047749
973.104619,-296.082377,-8956.491898,-842.705048
973.104943,-2072.576638,-9326.594869,-612.876398
973.105267,-2294.638420,-9252.574275,0.000000
973.105591,-1184.329507,-10066.800811,306.438199
973.105915,-148.041188,-9252.574275,306.438199
973.106239,148.041188,-8956.491898,-153.219100
973.106563,0.000000,-9252.574275,689.485948
973.106887,370.102971,-10732.986159,1149.143247
973.107211,518.144159,-10807.006753,1302.362347
973.107535,296.082377,-8956.491898,689.485948
973.107859,74.020594,-8586.388927,612.876398
973.108183,370.102971,-9474.636058,1302.362347
973.108508,814.226536,-10288.862594,536.266849
973.108832,-296.082377,-10140.821405,0.000000
973.109156,-1110.308913,-9030.512492,766.095498
973.109480,0.000000,-8586.388927,0.000000
973.109804,1036.288319,-8290.306550,0.000000
973.110128,1332.370696,-7772.162391,689.485948
973.110452,666.185348,-9104.533087,76.609550
973.110776,370.102971,-9918.759623,-689.485948
973.111100,148.041188,-9252.574275,536.266849
973.111424,592.164754,-8512.368333,229.828649
973.111748,296.082377,-8956.491898,536.266849
973.112072,-148.041188,-9622.677246,0.000000
973.112396,-222.061783,-10288.862594,-459.657299
973.112721,148.041188,-11251.130318,-229.828649
973.113045,1258.350101,-11991.336260,-306.438199
973.113369,1924.535449,-10732.986159,0.000000
973.113693,962.267725,-10955.047942,-229.828649
973.114017,148.041188,-11399.171507,-612.876398
973.114341,148.041188,-11325.150913,-536.266849
973.114665,222.061783,-12435.459826,-995.924147
973.114989,222.061783,-11399.171507,-842.705048
973.115313,0.000000,-9622.677246,-153.219100
973.115637,518.144159,-10140.821405,-766.095498
973.115961,-370.102971,-10362.883188,-842.705048
973.116285,592.164754,-10584.944971,76.609550
973.116609,1036.288319,-9918.759623,229.828649
973.116933,0.000000,-9252.574275,-383.047749
973.117258,-1554.432478,-8734.430116,-995.924147
973.117582,-2146.597232,-8438.347739,-1072.533697
973.117906,-1998.556043,-9030.512492,-842.705048
973.118230,-1850.514855,-9844.739029,-919.314598
973.118554,-1554.432478,-8142.265362,-612.876398
973.118878,-1776.494261,-8364.327145,76.609550
973.119202,-222.061783,-9252.574275,229.828649
973.119526,1332.370696,-9400.615463,919.314598
973.119850,1702.473667,-9548.656652,1685.410096
973.120174,1406.391290,-9474.636058,229.828649
973.120498,518.144159,-9178.553681,0.000000
973.120822,666.185348,-9696.697840,-536.266849
973.121146,74.020594,-9548.656652,-459.657299
973.121471,-666.185348,-10214.842000,-1378.971896
973.121795,-1406.391290,-10436.903782,-1225.752797
973.122119,-1702.473667,-10436.903782,-1838.629195
973.122443,-1850.514855,-10436.903782,-1378.971896
973.122767,-1628.453072,-9474.636058,-995.924147
973.123091,148.041188,-10066.800811,-459.657299
973.123415,740.205942,-10881.027347,383.047749
973.123739,1184.329507,-10362.883188,1072.533697
973.124063,518.144159,-9548.656652,612.876398
973.124387,444.123565,-9770.718434,689.485948
973.124711,370.102971,-9992.780217,1225.752797
973.125035,1406.391290,-9622.677246,459.657299
973.125359,0.000000,-8956.491898,383.047749
973.125684,-740.205942,-8734.430116,0.000000
973.126008,-148.041188,-9030.512492,-383.047749
973.126332,666.185348,-9326.594869,153.219100
973.126656,1184.329507,-9326.594869,-689.485948
973.126980,962.267725,-8290.306550,0.000000
973.127304,370.102971,-8882.471304,229.828649
973.127628,592.164754,-9918.759623,383.047749
973.127952,1184.329507,-10140.821405,536.266849
973.128276,518.144159,-9326.594869,229.828649
973.128600,666.185348,-9104.533087,0.000000
973.128924,740.205942,-9622.677246,229.828649
973.129248,814.226536,-10288.862594,689.485948
973.129572,1036.288319,-9622.677246,459.657299
973.129897,444.123565,-9104.533087,459.657299
973.130221,74.020594,-9918.759623,306.438199
973.130545,0.000000,-9770.718434,153.219100
973.130869,-1110.308913,-9622.677246,0.000000
973.131193,-1702.473667,-9252.574275,-153.219100
973.131517,-888.247130,-10362.883188,383.047749
973.131841,296.082377,-11029.068536,459.657299
973.132165,1110.308913,-9770.718434,919.314598
973.132489,-962.267725,-9918.759623,612.876398
973.132813,-1332.370696,-9770.718434,0.000000
973.133137,-148.041188,-8956.491898,229.828649
973.133461,-222.061783,-10140.821405,766.095498
973.133785,0.000000,-9474.636058,229.828649
973.134110,-148.041188,-9252.574275,766.095498
973.134434,296.082377,-9474.636058,766.095498
973.134758,666.185348,-8882.471304,-306.438199
973.135082,444.123565,-9104.533087,-229.828649
973.135406,-74.020594,-8438.347739,-612.876398
973.135730,-1332.370696,-9400.615463,-536.266849
973.136054,-2294.638420,-11325.150913,-306.438199
973.136378,-2368.659014,-10955.047942,459.657299
973.136702,-1258.350101,-10288.862594,76.609550
973.137026,0.000000,-9696.697840,-306.438199
973.137350,-296.082377,-8438.347739,-995.924147
973.137674,-370.102971,-9326.594869,-995.924147
973.137998,0.000000,-10510.924376,-153.219100
973.138323,74.020594,-10955.047942,-459.657299
973.138647,0.000000,-10066.800811,-306.438199
973.138971,-962.267725,-9178.553681,-612.876398
973.139295,-1702.473667,-10214.842000,-1455.581446
973.139619,-1554.432478,-10732.986159,-1991.848295
973.139943,-814.226536,-10066.800811,-919.314598
973.140267,592.164754,-10955.047942,229.828649
973.140591,2072.576638,-10584.944971,229.828649
973.140915,2072.576638,-10584.944971,1378.971896
973.141239,1406.391290,-10436.903782,1149.143247
973.141563,888.247130,-9548.656652,76.609550
973.141887,74.020594,-9252.574275,0.000000
973.142211,0.000000,-8660.409521,0.000000
973.142536,74.020594,-8586.388927,536.266849
973.142860,0.000000,-9104.533087,-306.438199
973.143184,-370.102971,-8290.306550,-229.828649
973.143508,74.020594,-8808.450710,-536.266849
973.143832,592.164754,-9030.512492,-383.047749
973.144156,962.267725,-8364.327145,612.876398
973.144480,1036.288319,-8512.368333,1378.971896
973.144804,1628.453072,-8882.471304,1072.533697
973.145128,1332.370696,-9104.533087,383.047749
973.145452,74.020594,-8956.491898,306.438199
973.145776,0.000000,-8290.306550,-306.438199
973.146100,-370.102971,-9178.553681,0.000000
973.146424,222.061783,-9474.636058,0.000000
973.146749,814.226536,-8734.430116,536.266849
973.147073,592.164754,-8956.491898,229.828649
973.147397,-296.082377,-8808.450710,0.000000
973.147721,-1036.288319,-9252.574275,-919.314598
973.148045,-1628.453072,-8956.491898,-1225.752797
973.148369,-962.267725,-8808.450710,-995.924147
973.148693,296.082377,-9770.718434,-153.219100
973.149017,1332.370696,-9622.677246,-153.219100
973.149341,1184.329507,-10214.842000,306.438199
973.149665,74.020594,-10658.965565,536.266849
973.149989,-296.082377,-10658.965565,153.219100
973.150313,-296.082377,-10362.883188,-536.266849
973.150637,148.041188,-9770.718434,-612.876398
973.150962,296.082377,-9918.759623,0.000000
973.151286,0.000000,-11917.315666,-536.266849
973.151610,-888.247130,-11547.212695,-383.047749
973.151934,-1332.370696,-10214.842000,-229.828649
973.152258,-1332.370696,-10066.800811,-995.924147
973.152582,-1110.308913,-10510.924376,-842.705048
973.152906,-1702.473667,-11621.233289,-536.266849
973.153230,-1924.535449,-11177.109724,-383.047749
973.153554,-1776.494261,-10214.842000,0.000000
973.153878,-1258.350101,-10140.821405,-306.438199
973.154202,296.082377,-9844.739029,-229.828649
973.154526,518.144159,-10066.800811,689.485948
973.154850,888.247130,-10140.821405,612.876398
973.155175,296.082377,-9474.636058,0.000000
973.155499,-296.082377,-9030.512492,-842.705048
973.155823,-962.267725,-8438.347739,-995.924147
973.156147,-666.185348,-9252.574275,-1149.143247
973.156471,-444.123565,-9844.739029,-1225.752797
973.156795,-148.041188,-8808.450710,0.000000
973.157119,740.205942,-8808.450710,153.219100
973.157443,1628.453072,-10140.821405,0.000000
973.157767,1776.494261,-9326.594869,306.438199
973.158091,1702.473667,-9326.594869,612.876398
973.158415,1036.288319,-10140.821405,1302.362347
973.158739,1036.288319,-9844.739029,1302.362347
973.159063,1628.453072,-9770.718434,1532.190996
973.159388,1184.329507,-8882.471304,1838.629195
973.159712,-222.061783,-9326.594869,76.609550
973.160036,-1776.494261,-8808.450710,-383.047749
973.160360,-2368.659014,-8438.347739,-383.047749
973.160684,-2146.597232,-8364.327145,-689.485948
973.161008,-1184.329507,-7772.162391,-689.485948
973.161332,-1702.473667,-7772.162391,-306.438199
973.161656,-1184.329507,-8068.244768,-229.828649
973.161980,296.082377,-8142.265362,-536.266849
973.162304,1184.329507,-8734.430116,-459.657299
973.162628,888.247130,-7698.141797,0.000000
973.162952,1776.494261,-9474.636058,1838.629195
973.163276,2886.803174,-10881.027347,995.924147
973.163601,3034.844362,-10584.944971,842.705048
973.163925,2368.659014,-10288.862594,995.924147
973.164249,1258.350101,-11103.089130,536.266849
973.164573,74.020594,-11177.109724,76.609550
973.164897,-592.164754,-10436.903782,-766.095498
973.165221,-1702.473667,-9696.697840,-383.047749
973.165545,-2516.700203,-10510.924376,-229.828649
973.165869,-2220.617826,-10732.986159,-536.266849
973.166193,-1110.308913,-10214.842000,306.438199
973.166517,-1702.473667,-10510.924376,689.485948
973.166841,-2368.659014,-9770.718434,0.000000
973.167165,-2072.576638,-9252.574275,-612.876398
973.167489,-1184.329507,-9696.697840,-306.438199
973.167813,-222.061783,-9770.718434,229.828649
973.168137,296.082377,-10732.986159,919.314598
973.168461,-148.041188,-11103.089130,1072.533697
973.168785,-222.061783,-9844.739029,919.314598
973.169110,222.061783,-9178.553681,-459.657299
973.169434,0.000000,-9400.615463,0.000000
973.169758,-444.123565,-9992.780217,0.000000
973.170082,0.000000,-10140.821405,153.219100
973.170406,370.102971,-9548.656652,1302.362347
973.170730,666.185348,-8956.491898,536.266849
973.171054,370.102971,-8660.409521,229.828649
973.171378,296.082377,-8808.450710,229.828649
973.171702,0.000000,-9474.636058,-612.876398
973.172026,-740.205942,-9252.574275,76.609550
973.172350,-740.205942,-8808.450710,0.000000
973.172674,0.000000,-9104.533087,229.828649
973.172998,-222.061783,-9030.512492,-229.828649
973.173322,-1406.391290,-9844.739029,-919.314598
973.173646,-2294.638420,-10066.800811,-1149.143247
973.173970,-1332.370696,-9622.677246,-689.485948
973.174294,1110.308913,-9992.780217,536.266849
973.174618,2812.782580,-10510.924376,1378.971896
973.174942,2516.700203,-10584.944971,842.705048
973.175266,814.226536,-9474.636058,306.438199
973.175590,592.164754,-9622.677246,-306.438199
973.175914,888.247130,-10510.924376,-689.485948
973.176238,1406.391290,-10288.862594,536.266849
973.176562,1628.453072,-9400.615463,919.314598
973.176886,888.247130,-9770.718434,76.609550
973.177210,666.185348,-10436.903782,536.266849
973.177534,740.205942,-10066.800811,-306.438199
973.177858,0.000000,-9474.636058,-1149.143247
973.178182,-666.185348,-7920.203579,-995.924147
973.178506,-592.164754,-7920.203579,-1455.581446
973.178830,-444.123565,-8660.409521,76.609550
973.179154,148.041188,-8808.450710,-306.438199
973.179478,814.226536,-8882.471304,-306.438199
973.179802,666.185348,-8882.471304,612.876398
973.180126,1036.288319,-9548.656652,153.219100
973.180450,1850.514855,-10066.800811,536.266849
973.180774,1924.535449,-10140.821405,1072.533697
973.181099,1258.350101,-11029.068536,229.828649
973.181423,0.000000,-10362.883188,153.219100
973.181747,-1406.391290,-9696.697840,0.000000
973.182071,-1480.411884,-11177.109724,459.657299
973.182395,-1554.432478,-10510.924376,0.000000
973.182719,-1850.514855,-9844.739029,-1149.143247
973.183043,-2664.741391,-8882.471304,-995.924147
973.183367,-2738.761985,-9400.615463,-1149.143247
973.183691,-1702.473667,-11251.130318,-995.924147
973.184015,-1110.308913,-10066.800811,0.000000
973.184339,-1036.288319,-8808.450710,689.485948
973.184663,-740.205942,-9548.656652,76.609550
973.184987,296.082377,-9918.759623,842.705048
973.185311,1406.391290,-10510.924376,1225.752797
973.185635,1036.288319,-10214.842000,1225.752797
973.185959,222.061783,-9400.615463,459.657299
973.186283,-296.082377,-8586.388927,459.657299
973.186607,-444.123565,-8364.327145,1302.362347
973.186931,-518.144159,-9104.533087,383.047749
973.187255,-1406.391290,-9030.512492,0.000000
973.187579,-1702.473667,-8290.306550,0.000000
973.187903,-1406.391290,-8290.306550,-459.657299
973.188227,-370.102971,-8882.471304,-306.438199
973.188551,0.000000,-9770.718434,76.609550
973.188875,888.247130,-10362.883188,459.657299
973.189199,814.226536,-9918.759623,612.876398
973.189523,814.226536,-9622.677246,689.485948
973.189847,222.061783,-10214.842000,1072.533697
973.190171,148.041188,-10658.965565,842.705048
973.190495,-592.164754,-10807.006753,0.000000
973.190819,-1332.370696,-10510.924376,919.314598
973.191143,0.000000,-10436.903782,1225.752797
973.191467,1924.535449,-10066.800811,0.000000
973.191791,1332.370696,-8882.471304,153.219100
973.192115,0.000000,-9474.636058,306.438199
973.192439,-518.144159,-9622.677246,-306.438199
973.192763,0.000000,-9622.677246,-536.266849
973.193087,-370.102971,-9770.718434,153.219100
973.193412,0.000000,-8660.409521,-459.657299
973.193736,-444.123565,-9104.533087,383.047749
973.194060,-888.247130,-9252.574275,-229.828649
973.194384,222.061783,-9104.533087,76.609550
973.194708,1332.370696,-9030.512492,0.000000
973.195032,1184.329507,-8882.471304,-1072.533697
973.195356,1036.288319,-8660.409521,-919.314598
973.195680,1110.308913,-9992.780217,0.000000
973.196004,1554.432478,-10362.883188,0.000000
973.196328,740.205942,-10436.903782,0.000000
973.196652,-444.123565,-10288.862594,0.000000
973.196976,-370.102971,-9400.615463,-995.924147
973.197300,148.041188,-10362.883188,-1378.971896
973.197624,0.000000,-10881.027347,-459.657299
973.197948,888.247130,-10955.047942,306.438199
973.198272,1850.514855,-10732.986159,229.828649
973.198596,1480.411884,-9474.636058,0.000000
973.198920,-296.082377,-9178.553681,-536.266849
973.199244,-1184.329507,-9326.594869,-1378.971896
973.199568,-1776.494261,-9918.759623,-1302.362347
973.199892,-1628.453072,-9770.718434,-1455.581446
973.200216,-962.267725,-8438.347739,-766.095498
973.200540,-1406.391290,-8586.388927,-153.219100
973.200864,-1332.370696,-9178.553681,-689.485948
973.201188,0.000000,-9178.553681,153.219100
973.201512,1110.308913,-9178.553681,536.266849
973.201836,1258.350101,-8438.347739,689.485948
973.202160,1480.411884,-8660.409521,842.705048
973.202484,1628.453072,-9474.636058,919.314598
973.202808,1702.473667,-8660.409521,766.095498
973.203132,296.082377,-9178.553681,-153.219100
973.203456,-1406.391290,-9474.636058,-689.485948
973.203780,-2072.576638,-9030.512492,-689.485948
973.204104,-2146.597232,-9030.512492,-919.314598
973.204428,-1480.411884,-9252.574275,0.000000
973.204752,-1480.411884,-10510.924376,-383.047749
973.205076,-592.164754,-9918.759623,383.047749
973.205400,-370.102971,-9918.759623,612.876398
973.205725,-1110.308913,-10436.903782,0.000000
973.206049,-1184.329507,-10510.924376,0.000000
973.206373,-444.123565,-10584.944971,459.657299
973.206697,592.164754,-10436.903782,229.828649
973.207021,518.144159,-9918.759623,1225.752797
973.207345,-296.082377,-10510.924376,-76.609550
973.207669,-592.164754,-10362.883188,76.609550
973.207993,0.000000,-10140.821405,229.828649
973.208317,962.267725,-10881.027347,76.609550
973.208641,1406.391290,-9992.780217,0.000000
973.208965,1480.411884,-9474.636058,229.828649
973.209289,814.226536,-9918.759623,0.000000
973.209613,1258.350101,-10584.944971,306.438199
973.209937,1036.288319,-10214.842000,-536.266849
973.210261,222.061783,-8882.471304,-536.266849
973.210585,0.000000,-8438.347739,-766.095498
973.210909,-222.061783,-9252.574275,-1149.143247
973.211233,0.000000,-9474.636058,-229.828649
973.211557,0.000000,-9992.780217,306.438199
973.211881,444.123565,-10436.903782,612.876398
973.212205,666.185348,-9474.636058,459.657299
973.212529,888.247130,-9252.574275,612.876398
973.212853,1036.288319,-9474.636058,459.657299
973.213177,444.123565,-9548.656652,-76.609550
973.213501,0.000000,-9696.697840,229.828649
973.213825,222.061783,-8808.450710,76.609550
973.214149,444.123565,-9252.574275,-383.047749
973.214473,666.185348,-8660.409521,-612.876398
973.214797,148.041188,-7846.182985,-153.219100
973.215121,296.082377,-9474.636058,-919.314598
973.215445,1110.308913,-8882.471304,-995.924147
973.215769,814.226536,-8512.368333,-919.314598
973.216093,-222.061783,-8290.306550,-306.438199
973.216417,0.000000,-8586.388927,-842.705048
973.216741,370.102971,-9770.718434,-229.828649
973.217065,518.144159,-8956.491898,612.876398
973.217389,1924.535449,-8068.244768,1302.362347
973.217714,1184.329507,-9400.615463,76.609550
973.218038,74.020594,-8882.471304,-459.657299
973.218362,0.000000,-8290.306550,-459.657299
973.218686,296.082377,-9548.656652,-459.657299
973.219010,444.123565,-10955.047942,-383.047749
973.219334,814.226536,-11399.171507,0.000000
973.219658,-1110.308913,-10436.903782,0.000000
973.219982,-2146.597232,-10658.965565,-1455.581446
973.220306,-2146.597232,-11547.212695,-2451.505594
973.220630,-1554.432478,-10955.047942,-2528.115143
973.220954,-740.205942,-11325.150913,-1991.848295
973.221278,296.082377,-10881.027347,-2451.505594
973.221602,1554.432478,-10214.842000,-2145.067394
973.221926,2442.679609,-10288.862594,-995.924147
973.222250,2886.803174,-10436.903782,-1149.143247
973.222574,3256.906145,-10658.965565,-536.266849
973.222898,3552.988522,-11399.171507,-459.657299
973.223222,2738.761985,-10807.006753,-383.047749
973.223546,2220.617826,-10510.924376,-536.266849
973.223870,1036.288319,-9844.739029,-1378.971896
973.224194,740.205942,-9252.574275,-1685.410096
973.224518,0.000000,-9178.553681,-2221.676944
973.224842,-1258.350101,-9474.636058,-3370.820191
973.225166,-1110.308913,-8364.327145,-3753.867940
973.225490,1184.329507,-7402.059420,-3217.601092
973.225814,2960.823768,-8216.285956,-2528.115143
973.226138,3775.050304,-8586.388927,-2451.505594
973.226462,3552.988522,-8734.430116,-2911.162892
973.226786,2886.803174,-10362.883188,-2451.505594
973.227110,3552.988522,-10658.965565,-2221.676944
973.227434,4219.173869,-10584.944971,-1915.238745
973.227758,4293.194464,-10140.821405,-2068.457845
973.228082,4071.132681,-10214.842000,-1685.410096
973.228406,3552.988522,-10732.986159,-2068.457845
973.228730,1924.535449,-9992.780217,-2604.724693
973.229054,1924.535449,-8586.388927,-2757.943793
973.229378,2146.597232,-7476.080014,-2681.334243
973.229702,2812.782580,-8216.285956,-2987.772442
973.230027,2812.782580,-8142.265362,-2374.896044
973.230351,2220.617826,-8438.347739,-2068.457845
973.230675,2294.638420,-9030.512492,-2221.676944
973.230999,3330.926739,-9178.553681,-1915.238745
973.231323,3478.967927,-8290.306550,-2145.067394
973.231647,2664.741391,-8808.450710,-2834.553343
973.231971,1776.494261,-9696.697840,-3370.820191
973.232295,1480.411884,-9622.677246,-2681.334243
973.232619,1554.432478,-10510.924376,-2757.943793
973.232943,1702.473667,-10436.903782,-3217.601092
973.233267,2072.576638,-8808.450710,-2757.943793
973.233591,2738.761985,-9178.553681,-2145.067394
973.233915,3627.009116,-10955.047942,-2145.067394
973.234239,4145.153275,-10955.047942,-1225.752797
973.234563,2812.782580,-11325.150913,-1149.143247
973.234887,2294.638420,-11473.192101,-536.266849
973.235211,2368.659014,-10881.027347,-995.924147
973.235535,2294.638420,-10732.986159,-766.095498
973.235859,1480.411884,-11103.089130,-1991.848295
973.236183,444.123565,-9696.697840,-2757.943793
973.236507,-962.267725,-9400.615463,-2757.943793
973.236831,-2146.597232,-9770.718434,-3447.429741
973.237155,-1924.535449,-8586.388927,-4673.182538
973.237479,-1998.556043,-7920.203579,-4519.963438
973.237803,-1332.370696,-8660.409521,-3830.477490
973.238127,1110.308913,-9178.553681,-3294.210641
973.238451,3108.864956,-9178.553681,-1685.410096
973.238775,4071.132681,-10436.903782,306.438199
973.239099,4515.256246,-9696.697840,153.219100
973.239423,3997.112087,-9770.718434,-153.219100
973.239747,3034.844362,-10436.903782,383.047749
973.240071,2146.597232,-10584.944971,-229.828649
973.240395,1036.288319,-9400.615463,-1072.533697
973.240719,74.020594,-9474.636058,-1991.848295
973.241043,-444.123565,-9474.636058,-3294.210641
973.241367,-444.123565,-8438.347739,-3524.039291
973.241691,-1480.411884,-7772.162391,-3600.648841
973.242016,-2220.617826,-8142.265362,-4060.306139
973.242340,-1332.370696,-8660.409521,-3677.258390
973.242664,0.000000,-7994.224174,-3677.258390
973.242988,1628.453072,-8216.285956,-2221.676944
973.243312,3849.070898,-10214.842000,-1378.971896
973.243636,6587.832884,-11621.233289,76.609550
973.243960,7550.100608,-10881.027347,0.000000
973.244284,5847.626942,-10658.965565,-536.266849
973.244608,4737.318029,-11251.130318,-229.828649
973.244932,5477.523971,-11547.212695,-842.705048
973.245256,4885.359217,-10955.047942,-1608.800546
973.245580,3256.906145,-10066.800811,-2528.115143
973.245904,2220.617826,-9844.739029,-3370.820191
973.246228,2812.782580,-9474.636058,-2757.943793
973.246552,3256.906145,-9104.533087,-2757.943793
973.246876,1554.432478,-8660.409521,-2987.772442
973.247200,-296.082377,-8586.388927,-2834.553343
973.247524,-444.123565,-9474.636058,-2451.505594
973.247848,888.247130,-8956.491898,-2145.067394
973.248172,2442.679609,-8512.368333,-1838.629195
973.248496,3256.906145,-8882.471304,-1532.190996
973.248820,3108.864956,-9918.759623,-1072.533697
973.249144,3849.070898,-9770.718434,-306.438199
973.249468,5033.400406,-8956.491898,0.000000
973.249792,4737.318029,-9326.594869,-1225.752797
973.250116,2960.823768,-9770.718434,-2145.067394
973.250440,1554.432478,-9400.615463,-2221.676944
973.250764,814.226536,-8734.430116,-2757.943793
973.251088,1036.288319,-9104.533087,-3217.601092
973.251412,1184.329507,-9474.636058,-2757.943793
973.251736,1480.411884,-8956.491898,-2834.553343
973.252060,1554.432478,-8882.471304,-2757.943793
973.252384,1332.370696,-8808.450710,-2681.334243
973.252708,1332.370696,-9030.512492,-1915.238745
973.253032,2368.659014,-9548.656652,-1991.848295
973.253356,3404.947333,-10066.800811,-1302.362347
973.253680,4219.173869,-10288.862594,-1302.362347
973.254004,3256.906145,-10288.862594,-1455.581446
973.254329,888.247130,-10732.986159,-2221.676944
973.254653,-888.247130,-10807.006753,-2987.772442
973.254977,-666.185348,-9992.780217,-3217.601092
973.255301,592.164754,-9104.533087,-2528.115143
973.255625,1776.494261,-10362.883188,-2451.505594
973.255949,1406.391290,-11399.171507,-3294.210641
973.256273,222.061783,-11029.068536,-3600.648841
973.256597,-888.247130,-9622.677246,-3600.648841
973.256921,444.123565,-9104.533087,-3217.601092
973.257245,2516.700203,-9400.615463,-2681.334243
973.257569,3849.070898,-9548.656652,-2757.943793
973.257893,3775.050304,-10140.821405,-3217.601092
973.258217,2960.823768,-10288.862594,-2987.772442
973.258541,2368.659014,-11103.089130,-2681.334243
973.258865,1628.453072,-11029.068536,-3140.991542
973.259189,592.164754,-10436.903782,-2987.772442
973.259513,444.123565,-9696.697840,-2911.162892
973.259837,1406.391290,-9844.739029,-2528.115143
973.260161,3330.926739,-10066.800811,-1302.362347
973.260485,4071.132681,-10584.944971,-2068.457845
973.260809,3701.029710,-10362.883188,-1685.410096
973.261133,2738.761985,-9400.615463,-1991.848295
973.261457,1036.288319,-8734.430116,-2068.457845
973.261781,-222.061783,-8660.409521,-2451.505594
973.262105,-296.082377,-9548.656652,-2834.553343
973.262429,444.123565,-9696.697840,-2298.286494
973.262753,2072.576638,-8808.450710,-2298.286494
973.263077,4071.132681,-8734.430116,-2145.067394
973.263401,3997.112087,-8216.285956,-1991.848295
973.263725,3997.112087,-8882.471304,-2068.457845
973.264049,2812.782580,-9178.553681,-2145.067394
973.264373,2220.617826,-9178.553681,-1991.848295
973.264697,2368.659014,-9252.574275,-1149.143247
973.265021,2812.782580,-9252.574275,-306.438199
973.265345,3775.050304,-9400.615463,536.266849
973.265669,3997.112087,-9178.553681,459.657299
973.265993,3923.091493,-8734.430116,1225.752797
973.266317,3478.967927,-8808.450710,766.095498
973.266642,2812.782580,-8734.430116,229.828649
973.266966,1702.473667,-8586.388927,-842.705048
973.267290,518.144159,-8808.450710,-1838.629195
973.267614,0.000000,-9400.615463,-2604.724693
973.267938,-1332.370696,-9178.553681,-4213.525239
973.268262,-1480.411884,-9252.574275,-4596.572988
973.268586,-1702.473667,-9030.512492,-4826.401637
973.268910,148.041188,-9104.533087,-4136.915689
973.269234,2368.659014,-9622.677246,-2834.553343
973.269558,4219.173869,-10658.965565,-1762.019645
973.269882,5625.565159,-11325.150913,-383.047749
973.270206,5995.668130,-11843.295072,612.876398
973.270530,5551.544565,-11843.295072,1378.971896
973.270854,4663.297435,-11843.295072,842.705048
973.271178,3701.029710,-11325.150913,536.266849
973.271502,2368.659014,-11029.068536,0.000000
973.271826,1184.329507,-10584.944971,-1838.629195
973.272150,-148.041188,-10066.800811,-3217.601092
973.272474,-1628.453072,-9696.697840,-5209.449386
973.272798,-3775.050304,-8734.430116,-7354.516781
973.273122,-4293.194464,-8068.244768,-7507.735880
973.273446,-3256.906145,-8586.388927,-6588.421283
973.273770,0.000000,-8586.388927,-5132.839837
973.274094,3256.906145,-8660.409521,-3677.258390
973.274418,5181.441594,-8808.450710,-1762.019645
973.274742,6957.935855,-9844.739029,-536.266849
973.275066,7031.956449,-12361.439231,229.828649
973.275391,7254.018232,-12953.603985,842.705048
973.275715,6661.853478,-11843.295072,1149.143247
973.276039,4959.379811,-11769.274478,153.219100
973.276363,2886.803174,-10881.027347,-1915.238745
973.276687,444.123565,-10510.924376,-3753.867940
973.277011,-1924.535449,-10584.944971,-4443.353888
973.277335,-3775.050304,-10140.821405,-5209.449386
973.277659,-4441.235652,-7698.141797,-6205.373534
973.277983,-4367.215058,-6069.688724,-4903.011187
973.278307,-3997.112087,-5699.585753,-3983.696590
973.278631,-1184.329507,-7476.080014,-2987.772442
973.278955,1258.350101,-9622.677246,-1378.971896
973.279279,3404.947333,-9918.759623,153.219100
973.279603,4885.359217,-9622.677246,842.705048
973.279927,5551.544565,-10807.006753,1302.362347
973.280251,4589.276840,-10807.006753,76.609550
973.280575,3923.091493,-11399.171507,76.609550
973.280899,2368.659014,-12731.542202,-766.095498
973.281223,1110.308913,-13101.645173,-2298.286494
973.281547,222.061783,-10362.883188,-2911.162892
973.281871,-148.041188,-8512.368333,-2604.724693
973.282195,-518.144159,-8216.285956,-4136.915689
973.282519,0.000000,-8068.244768,-3677.258390
973.282843,1184.329507,-6069.688724,-2757.943793
973.283167,2738.761985,-5847.626942,-1225.752797
973.283491,4367.215058,-6365.771101,-689.485948
973.283816,6365.771101,-7179.997637,0.000000
973.284140,7476.080014,-8290.306550,766.095498
973.284464,7328.038826,-9548.656652,536.266849
973.284788,5773.606348,-10436.903782,0.000000
973.285112,3997.112087,-10658.965565,-1455.581446
973.285436,3256.906145,-10955.047942,-2221.676944
973.285760,2960.823768,-11621.233289,-2528.115143
973.286084,2516.700203,-11547.212695,-3830.477490
973.286408,1628.453072,-10436.903782,-4673.182538
973.286732,962.267725,-9400.615463,-4060.306139
973.287056,1406.391290,-9252.574275,-4519.963438
973.287380,2146.597232,-9474.636058,-2681.334243
973.287704,2886.803174,-8734.430116,-2221.676944
973.288028,3552.988522,-8882.471304,-2068.457845
973.288352,3923.091493,-9844.739029,-1762.019645
973.288676,4219.173869,-10362.883188,-1225.752797
973.289000,4293.194464,-11103.089130,-1149.143247
973.289324,3552.988522,-11325.150913,-1838.629195
973.289648,2664.741391,-10584.944971,-2221.676944
973.289972,888.247130,-10140.821405,-3524.039291
973.290296,962.267725,-10881.027347,-4213.525239
973.290620,-518.144159,-10732.986159,-5439.278036
973.290944,-2072.576638,-10214.842000,-6511.811733
973.291268,-3108.864956,-9770.718434,-6052.154434
973.291592,-3330.926739,-8882.471304,-5592.497135
973.291916,-2368.659014,-8660.409521,-4903.011187
973.292241,0.000000,-9030.512492,-3600.648841
973.292565,2664.741391,-9548.656652,-2451.505594
973.292889,5329.482782,-10288.862594,-1608.800546
973.293213,6809.894666,-11399.171507,0.000000
973.293537,7476.080014,-11991.336260,306.438199
973.293861,5477.523971,-11991.336260,-229.828649
973.294185,2220.617826,-11547.212695,-2068.457845
973.294509,-1406.391290,-11251.130318,-3907.087040
973.294833,-3627.009116,-11177.109724,-4903.011187
973.295157,-4367.215058,-9770.718434,-5745.716235
973.295481,-3552.988522,-8956.491898,-5209.449386
973.295805,-962.267725,-7846.182985,-4443.353888
973.296129,296.082377,-7994.224174,-3753.867940
973.296453,1776.494261,-8216.285956,-3370.820191
973.296777,1998.556043,-7920.203579,-2987.772442
973.297101,1998.556043,-8216.285956,-1532.190996
973.297425,2738.761985,-8660.409521,-766.095498
973.297749,5477.523971,-9622.677246,919.314598
973.298073,7698.141797,-10436.903782,1838.629195
973.298397,8364.327145,-10140.821405,1685.410096
973.298721,7476.080014,-10732.986159,612.876398
973.299045,3775.050304,-10732.986159,-536.266849
973.299369,222.061783,-9696.697840,-1991.848295
973.299693,-1998.556043,-8290.306550,-2911.162892
973.300017,-2220.617826,-7624.121203,-2987.772442
973.300341,-740.205942,-7624.121203,-2757.943793
973.300666,296.082377,-7994.224174,-3140.991542
973.300990,666.185348,-7550.100608,-2528.115143
973.301314,592.164754,-7105.977043,-1532.190996
973.301638,1332.370696,-7402.059420,-383.047749
973.301962,2664.741391,-7624.121203,766.095498
973.302286,4737.318029,-8808.450710,1302.362347
973.302610,6069.688724,-10066.800811,1225.752797
973.302934,6291.750507,-11103.089130,1225.752797
973.303258,5551.544565,-11621.233289,536.266849
973.303582,4367.215058,-10288.862594,153.219100
973.303906,3256.906145,-9400.615463,-689.485948
973.304230,2590.720797,-8882.471304,-1608.800546
973.304554,740.205942,-9400.615463,-2911.162892
973.304878,-1036.288319,-10288.862594,-4136.915689
973.305202,-2146.597232,-9992.780217,-4136.915689
973.305526,-1332.370696,-9844.739029,-3447.429741
973.305850,1110.308913,-9844.739029,-2451.505594
973.306174,3330.926739,-9474.636058,-2145.067394
973.306498,3478.967927,-9548.656652,-1915.238745
973.306822,3627.009116,-10881.027347,-1225.752797
973.307146,3701.029710,-11621.233289,-1378.971896
973.307470,4367.215058,-12065.356855,-536.266849
973.307794,4515.256246,-12065.356855,-536.266849
973.308118,3034.844362,-11769.274478,-995.924147
973.308442,814.226536,-11399.171507,-1532.190996
973.308766,-444.123565,-10658.965565,-3064.381992
973.309091,-592.164754,-9844.739029,-4596.572988
973.309415,-296.082377,-9178.553681,-4290.134789
973.309739,-888.247130,-8364.327145,-4290.134789
973.310063,74.020594,-8586.388927,-3830.477490
973.310387,1480.411884,-8808.450710,-3753.867940
973.310711,1850.514855,-8734.430116,-4213.525239
973.311035,962.267725,-8734.430116,-3677.258390
973.311359,1406.391290,-9548.656652,-2604.724693
973.311683,2886.803174,-10732.986159,-1915.238745
973.312007,4441.235652,-11103.089130,-1838.629195
973.312331,4811.338623,-9992.780217,-1915.238745
973.312655,4071.132681,-10214.842000,-1532.190996
973.312979,3849.070898,-11695.253884,-1762.019645
973.313303,3923.091493,-11325.150913,-766.095498
973.313627,2368.659014,-9696.697840,-1838.629195
973.313951,0.000000,-8660.409521,-2221.676944
973.314275,-1776.494261,-8438.347739,-3524.039291
973.314599,-888.247130,-8512.368333,-3140.991542
973.314923,74.020594,-8290.306550,-3064.381992
973.315247,0.000000,-7772.162391,-3294.210641
973.315571,-222.061783,-8068.244768,-3830.477490
973.315895,592.164754,-8142.265362,-3064.381992
973.316219,2442.679609,-7994.224174,-3447.429741
973.316543,3034.844362,-8364.327145,-3064.381992
973.316867,2960.823768,-10658.965565,-2528.115143
973.317191,3478.967927,-10955.047942,-2681.334243
973.317515,4589.276840,-9844.739029,-2068.457845
973.317840,5255.462188,-9474.636058,-1378.971896
973.318164,5921.647536,-10732.986159,-2145.067394
973.318488,4367.215058,-10510.924376,-1991.848295
973.318812,2368.659014,-9548.656652,-1991.848295
973.319136,962.267725,-8660.409521,-2528.115143
973.319460,1036.288319,-9474.636058,-1991.848295
973.319784,2146.597232,-10140.821405,-1302.362347
973.320108,2220.617826,-9844.739029,-1991.848295
973.320432,1184.329507,-8586.388927,-2911.162892
973.320756,814.226536,-7994.224174,-3140.991542
973.321080,518.144159,-9252.574275,-2911.162892
973.321404,1110.308913,-9992.780217,-2604.724693
973.321728,1480.411884,-9178.553681,-2451.505594
973.322052,2368.659014,-8956.491898,-2987.772442
973.322376,2442.679609,-9918.759623,-3140.991542
973.322700,2220.617826,-11029.068536,-3830.477490
973.323024,1850.514855,-11325.150913,-3294.210641
973.323348,2368.659014,-11325.150913,-2068.457845
973.323672,3034.844362,-10510.924376,-1685.410096
973.323996,2442.679609,-9696.697840,-995.924147
973.324320,2368.659014,-10955.047942,-459.657299
973.324644,4293.194464,-11695.253884,-689.485948
973.324968,4071.132681,-11251.130318,-306.438199
973.325292,2442.679609,-10140.821405,-306.438199
973.325616,1924.535449,-9696.697840,-459.657299
973.325940,1850.514855,-8364.327145,-1762.019645
973.326265,1406.391290,-7920.203579,-2911.162892
973.326589,740.205942,-9030.512492,-3830.477490
973.326913,-370.102971,-8956.491898,-5362.668486
973.327237,-2664.741391,-8734.430116,-5286.058936
973.327561,-4441.235652,-9400.615463,-5745.716235
973.327885,-3330.926739,-8808.450710,-4519.963438
973.328209,-370.102971,-9326.594869,-2911.162892
973.328533,2220.617826,-11029.068536,-2451.505594
973.328857,4145.153275,-10955.047942,-1149.143247
973.329181,5255.462188,-10955.047942,1838.629195
973.329505,5847.626942,-13915.871710,2451.505594
973.329829,5625.565159,-12879.583391,2757.943793
973.330153,4293.194464,-10584.944971,2834.553343
973.330477,2442.679609,-10436.903782,919.314598
973.330801,1184.329507,-9992.780217,-1302.362347
973.331125,740.205942,-8142.265362,-1991.848295
973.331449,222.061783,-8142.265362,-1685.410096
973.331773,-444.123565,-8216.285956,-3447.429741
973.332097,-2146.597232,-7328.038826,-4519.963438
973.332421,-4589.276840,-6291.750507,-4596.572988
973.332745,-5181.441594,-7402.059420,-4596.572988
973.333069,-3849.070898,-9400.615463,-3370.820191
973.333393,-740.205942,-9104.533087,-1149.143247
973.333717,2590.720797,-8290.306550,995.924147
973.334041,4737.318029,-9178.553681,2374.896044
973.334365,5403.503377,-10436.903782,2834.553343
973.334690,3627.009116,-11325.150913,2757.943793
973.335014,2516.700203,-10658.965565,2987.772442
973.335338,2368.659014,-10732.986159,3753.867940
973.335662,2590.720797,-10436.903782,2451.505594
973.335986,1332.370696,-7846.182985,536.266849
973.336310,-2294.638420,-7994.224174,-383.047749
973.336634,-4293.194464,-10510.924376,-2221.676944
973.336958,-4293.194464,-9104.533087,-3524.039291
973.337282,-4441.235652,-7846.182985,-2681.334243
973.337606,-5255.462188,-7772.162391,-2221.676944
973.337930,-4219.173869,-8808.450710,-2221.676944
973.338254,-2146.597232,-9844.739029,-1532.190996
973.338578,1184.329507,-9326.594869,995.924147
973.338902,4737.318029,-9400.615463,1685.410096
973.339226,6883.915261,-10510.924376,2834.553343
973.339550,7031.956449,-10584.944971,3753.867940
973.339874,6587.832884,-10955.047942,4213.525239
973.340198,5255.462188,-11325.150913,3294.210641
973.340522,2590.720797,-11473.192101,1915.238745
973.340846,-444.123565,-11769.274478,459.657299
973.341170,-2368.659014,-10881.027347,842.705048
973.341494,-1924.535449,-11103.089130,842.705048
973.341818,-2886.803174,-10807.006753,-1378.971896
973.342142,-3701.029710,-8808.450710,-1762.019645
973.342466,-4293.194464,-8290.306550,-1838.629195
973.342790,-3923.091493,-8808.450710,-2451.505594
973.343115,-3701.029710,-8216.285956,-2221.676944
973.343439,-2516.700203,-7698.141797,-1225.752797
973.343763,-444.123565,-8512.368333,0.000000
973.344087,2146.597232,-10658.965565,-153.219100
973.344411,2664.741391,-10658.965565,612.876398
973.344735,2146.597232,-9474.636058,383.047749
973.345059,0.000000,-10584.944971,0.000000
973.345383,-1480.411884,-11621.233289,-536.266849
973.345707,-1036.288319,-11103.089130,0.000000
973.346031,296.082377,-10362.883188,995.924147
973.346355,1110.308913,-9992.780217,0.000000
973.346679,888.247130,-9252.574275,-383.047749
973.347003,1258.350101,-8364.327145,-1225.752797
973.347327,2220.617826,-7105.977043,-919.314598
973.347651,2146.597232,-7772.162391,-1685.410096
973.347975,444.123565,-8512.368333,-1838.629195
973.348299,-962.267725,-8882.471304,-2145.067394
973.348623,-1184.329507,-9474.636058,-2221.676944
973.348947,-370.102971,-9104.533087,-2451.505594
973.349271,0.000000,-9252.574275,-2451.505594
973.349595,-1184.329507,-10214.842000,-2068.457845
973.349919,-1554.432478,-11251.130318,-1608.800546
973.350243,-962.267725,-11103.089130,-306.438199
973.350567,-222.061783,-10510.924376,76.609550
973.350891,0.000000,-11177.109724,306.438199
973.351215,-370.102971,-10881.027347,153.219100
973.351540,-666.185348,-9992.780217,536.266849
973.351864,-74.020594,-11399.171507,919.314598
973.352188,592.164754,-11029.068536,0.000000
973.352512,740.205942,-9178.553681,229.828649
973.352836,518.144159,-8956.491898,-1072.533697
973.353160,-962.267725,-9326.594869,-1915.238745
973.353484,-1554.432478,-10214.842000,-1685.410096
973.353808,-1332.370696,-10066.800811,-1762.019645
973.354132,-592.164754,-9252.574275,-1455.581446
973.354456,148.041188,-8438.347739,-689.485948
973.354780,518.144159,-8660.409521,-612.876398
973.355104,1332.370696,-9104.533087,-229.828649
973.355428,1480.411884,-9992.780217,1072.533697
973.355752,2072.576638,-9252.574275,1991.848295
973.356076,2072.576638,-9178.553681,2374.896044
973.356400,1480.411884,-9104.533087,3217.601092
973.356724,1406.391290,-9326.594869,4060.306139
973.357048,2146.597232,-10584.944971,3064.381992
973.357372,1406.391290,-9770.718434,1838.629195
973.357696,-888.247130,-8364.327145,919.314598
973.358020,-2664.741391,-7994.224174,-536.266849
973.358344,-3849.070898,-7920.203579,-1378.971896
973.358668,-4663.297435,-8734.430116,-1838.629195
973.358992,-5625.565159,-9548.656652,-2528.115143
973.359316,-4737.318029,-8290.306550,-1915.238745
973.359640,-2812.782580,-8216.285956,-995.924147
973.359965,-444.123565,-9178.553681,0.000000
973.360289,1406.391290,-9622.677246,459.657299
973.360613,3108.864956,-9992.780217,1455.581446
973.360937,3552.988522,-10362.883188,2451.505594
973.361261,3627.009116,-11917.315666,2451.505594
973.361585,3330.926739,-11473.192101,1685.410096
973.361909,1628.453072,-10658.965565,2298.286494
973.362233,888.247130,-11103.089130,383.047749
973.362557,370.102971,-9992.780217,-1072.533697
973.362881,0.000000,-9548.656652,-612.876398
973.363205,0.000000,-10362.883188,-1149.143247
973.363529,74.020594,-9992.780217,-1149.143247
973.363853,-518.144159,-9992.780217,-1991.848295
973.364177,-1702.473667,-8512.368333,-2374.896044
973.364501,-1776.494261,-8734.430116,-2528.115143
973.364825,-1184.329507,-9770.718434,-3064.381992
973.365149,-592.164754,-9770.718434,-2221.676944
973.365473,0.000000,-10807.006753,-919.314598
973.365797,740.205942,-11843.295072,0.000000
973.366121,2368.659014,-11473.192101,766.095498
973.366445,3108.864956,-10658.965565,1149.143247
973.366769,2886.803174,-10955.047942,1455.581446
973.367093,2072.576638,-11769.274478,1149.143247
973.367417,814.226536,-11769.274478,1072.533697
973.367741,518.144159,-9918.759623,1072.533697
973.368065,518.144159,-9178.553681,229.828649
973.368389,0.000000,-9400.615463,229.828649
973.368713,-2294.638420,-9178.553681,-536.266849
973.369037,-3478.967927,-9622.677246,-1685.410096
973.369361,-3775.050304,-8512.368333,-1302.362347
973.369685,-2442.679609,-8068.244768,-1302.362347
973.370009,-1776.494261,-8216.285956,-1225.752797
973.370333,-1628.453072,-6883.915261,-766.095498
973.370657,-2146.597232,-7624.121203,459.657299
973.370981,-1628.453072,-8882.471304,842.705048
973.371305,444.123565,-8660.409521,2068.457845
973.371629,1480.411884,-8216.285956,2145.067394
973.371953,1554.432478,-8438.347739,2987.772442
973.372277,1036.288319,-9844.739029,2145.067394
973.372601,962.267725,-9400.615463,1072.533697
973.372925,1406.391290,-7920.203579,919.314598
973.373249,1110.308913,-8142.265362,689.485948
973.373573,518.144159,-8512.368333,536.266849
973.373897,-444.123565,-8290.306550,-229.828649
973.374221,-888.247130,-8364.327145,-383.047749
973.374545,-444.123565,-8364.327145,-383.047749
973.374869,-296.082377,-8734.430116,-1685.410096
973.375193,-1110.308913,-8808.450710,-1225.752797
973.375517,-2220.617826,-9252.574275,-842.705048
973.375840,-1554.432478,-11547.212695,-459.657299
973.376164,-740.205942,-12287.418637,-766.095498
973.376488,-444.123565,-11917.315666,612.876398
973.376812,74.020594,-11991.336260,0.000000
973.377136,0.000000,-11917.315666,0.000000
973.377460,0.000000,-12287.418637,229.828649
973.377784,0.000000,-11621.233289,153.219100
973.378108,-148.041188,-11177.109724,-1532.190996
973.378432,-592.164754,-11621.233289,-1378.971896
973.378756,-1184.329507,-10288.862594,-2145.067394
973.379080,-1036.288319,-10288.862594,-2374.896044
973.379404,-1554.432478,-11251.130318,-1838.629195
973.379728,-148.041188,-11177.109724,-1302.362347
973.380052,1406.391290,-10362.883188,-1378.971896
973.380376,1924.535449,-9622.677246,-1378.971896
973.380700,1702.473667,-9326.594869,-229.828649
973.381024,1554.432478,-10436.903782,0.000000
973.381348,1850.514855,-9918.759623,-766.095498
973.381672,1480.411884,-9474.636058,-153.219100
973.381996,1554.432478,-9548.656652,383.047749
973.382320,1480.411884,-9326.594869,0.000000
973.382644,1184.329507,-9252.574275,-306.438199
973.382968,-148.041188,-7920.203579,0.000000
973.383292,0.000000,-8068.244768,-383.047749
973.383615,-148.041188,-9030.512492,-919.314598
973.383939,-296.082377,-8808.450710,0.000000
973.384263,-148.041188,-9030.512492,1072.533697
973.384587,148.041188,-9104.533087,612.876398
973.384911,148.041188,-9030.512492,1149.143247
973.385235,-740.205942,-8956.491898,1072.533697
973.385559,0.000000,-8734.430116,766.095498
973.385883,-814.226536,-9178.553681,153.219100
973.386207,-2146.597232,-8734.430116,0.000000
973.386531,-1332.370696,-8142.265362,766.095498
973.386855,444.123565,-8956.491898,842.705048
973.387179,740.205942,-8808.450710,1149.143247
973.387503,-222.061783,-8290.306550,1455.581446
973.387827,-1554.432478,-9178.553681,536.266849
973.388151,-296.082377,-8808.450710,0.000000
973.388475,444.123565,-8956.491898,612.876398
973.388799,296.082377,-9030.512492,306.438199
973.389123,-370.102971,-8660.409521,0.000000
973.389447,-1258.350101,-9474.636058,76.609550
973.389771,-1480.411884,-10510.924376,459.657299
973.390095,0.000000,-10436.903782,383.047749
973.390419,1258.350101,-9252.574275,612.876398
973.390743,814.226536,-9104.533087,1455.581446
973.391067,814.226536,-10214.842000,995.924147
973.391390,666.185348,-10066.800811,153.219100
973.391714,-370.102971,-9770.718434,229.828649
973.392038,-962.267725,-10732.986159,-153.219100
973.392362,-962.267725,-10732.986159,-229.828649
973.392686,-1554.432478,-11103.089130,689.485948
973.393010,-2516.700203,-11325.150913,0.000000
973.393334,-2368.659014,-10807.006753,-1072.533697
973.393658,-1480.411884,-10362.883188,-919.314598
973.393982,-888.247130,-11029.068536,-383.047749
973.394306,0.000000,-11325.150913,0.000000
973.394630,296.082377,-10066.800811,306.438199
973.394954,1110.308913,-9548.656652,306.438199
973.395278,1258.350101,-10288.862594,153.219100
973.395602,1406.391290,-9844.739029,-1532.190996
973.395926,148.041188,-9326.594869,-919.314598
973.396250,-962.267725,-10140.821405,-689.485948
973.396574,-962.267725,-9548.656652,-2298.286494
973.396898,-888.247130,-9104.533087,-1685.410096
973.397222,-444.123565,-9474.636058,-1225.752797
973.397546,518.144159,-9992.780217,-1225.752797
973.397870,1036.288319,-10436.903782,0.000000
973.398194,1554.432478,-10066.800811,76.609550
973.398518,1702.473667,-9030.512492,0.000000
973.398842,1702.473667,-9252.574275,-229.828649
973.399165,1628.453072,-9474.636058,459.657299
973.399489,888.247130,-10288.862594,383.047749
973.399813,370.102971,-9622.677246,-383.047749
973.400137,0.000000,-8290.306550,536.266849
973.400461,1110.308913,-8364.327145,153.219100
973.400785,1998.556043,-8956.491898,-459.657299
973.401109,1036.288319,-8808.450710,0.000000
973.401433,-370.102971,-8586.388927,-842.705048
973.401757,-1332.370696,-7402.059420,-1685.410096
973.402081,-1998.556043,-8586.388927,-842.705048
973.402405,-1258.350101,-9918.759623,-383.047749
973.402729,0.000000,-9252.574275,-306.438199
973.403053,-296.082377,-9252.574275,459.657299
973.403377,370.102971,-9474.636058,1149.143247
973.403701,1332.370696,-9770.718434,689.485948
973.404025,1184.329507,-10288.862594,1225.752797
973.404349,518.144159,-9548.656652,1455.581446
973.404673,222.061783,-9918.759623,766.095498
973.404997,296.082377,-9844.739029,766.095498
973.405321,444.123565,-9326.594869,1225.752797
973.405645,444.123565,-10140.821405,995.924147
973.405969,-592.164754,-9548.656652,536.266849
973.406293,-2146.597232,-9696.697840,-536.266849
973.406617,-3182.885551,-9844.739029,-612.876398
973.406940,-2368.659014,-9178.553681,-995.924147
973.407264,-962.267725,-8734.430116,-766.095498
973.407588,0.000000,-8882.471304,153.219100
973.407912,148.041188,-9770.718434,766.095498
973.408236,370.102971,-10066.800811,536.266849
973.408560,1480.411884,-9770.718434,1225.752797
973.408884,2516.700203,-10140.821405,2068.457845
973.409208,2886.803174,-10510.924376,919.314598
973.409532,370.102971,-10214.842000,1072.533697
973.409856,-2368.659014,-10658.965565,229.828649
973.410180,-2146.597232,-10658.965565,-306.438199
973.410504,-1702.473667,-9696.697840,-689.485948
973.410828,-1036.288319,-9770.718434,-1072.533697
973.411152,-1332.370696,-9622.677246,-536.266849
973.411476,-666.185348,-10436.903782,-383.047749
973.411800,0.000000,-10140.821405,-1149.143247
973.412124,-370.102971,-9844.739029,-1149.143247
973.412448,-814.226536,-9992.780217,-1225.752797
973.412772,-370.102971,-10066.800811,-1302.362347
973.413096,-1110.308913,-11177.109724,-1149.143247
973.413420,-666.185348,-10955.047942,-919.314598
973.413744,814.226536,-10362.883188,-536.266849
973.414068,1184.329507,-10436.903782,76.609550
973.414392,1480.411884,-10066.800811,-306.438199
973.414715,1406.391290,-9252.574275,459.657299
973.415039,1406.391290,-9622.677246,229.828649
973.415363,1702.473667,-9252.574275,-153.219100
973.415687,1998.556043,-8290.306550,0.000000
973.416011,2072.576638,-8068.244768,0.000000
973.416335,814.226536,-8364.327145,-766.095498
973.416659,-888.247130,-9178.553681,-919.314598
973.416983,-1702.473667,-8364.327145,-995.924147
973.417307,-1702.473667,-8290.306550,-995.924147
973.417631,-814.226536,-8956.491898,-842.705048
973.417955,296.082377,-9252.574275,0.000000
973.418279,1480.411884,-9548.656652,76.609550
973.418603,2072.576638,-9548.656652,1072.533697
973.418927,2368.659014,-9326.594869,766.095498
973.419251,2294.638420,-10066.800811,995.924147
973.419575,1406.391290,-10510.924376,1149.143247
973.419899,0.000000,-10584.944971,1225.752797
973.420223,-1110.308913,-10658.965565,306.438199
