#time,accel_x,accel_y,accel_z
1020.304424,222.061783,-9622.677246,0.000000
1020.304748,148.041188,-9474.636058,0.000000
1020.305072,-148.041188,-9696.697840,0.000000
1020.305395,0.000000,-9844.739029,-229.828649
1020.305719,0.000000,-9548.656652,229.828649
1020.306043,-74.020594,-9474.636058,0.000000
1020.306367,0.000000,-9474.636058,-306.438199
1020.306690,-148.041188,-9622.677246,0.000000
1020.307014,0.000000,-9918.759623,0.000000
1020.307338,-148.041188,-9844.739029,0.000000
1020.307662,-222.061783,-9770.718434,-383.047749
1020.307985,-148.041188,-9400.615463,-383.047749
1020.308309,-296.082377,-9548.656652,306.438199
1020.308633,0.000000,-9992.780217,-229.828649
1020.308957,74.020594,-9918.759623,0.000000
1020.309280,-444.123565,-9992.780217,153.219100
1020.309604,-148.041188,-9918.759623,0.000000
1020.309928,0.000000,-9696.697840,0.000000
1020.310252,222.061783,-9770.718434,0.000000
1020.310575,-296.082377,-9474.636058,0.000000
1020.310899,0.000000,-9474.636058,-229.828649
1020.311223,0.000000,-10066.800811,0.000000
1020.311547,0.000000,-9844.739029,-306.438199
1020.311870,-296.082377,-9548.656652,76.609550
1020.312194,-370.102971,-9474.636058,0.000000
1020.312518,0.000000,-9844.739029,76.609550
1020.312842,74.020594,-9770.718434,153.219100
1020.313165,296.082377,-9548.656652,536.266849
1020.313489,148.041188,-9622.677246,229.828649
1020.313813,0.000000,-9696.697840,-153.219100
1020.314136,0.000000,-9844.739029,153.219100
1020.314460,0.000000,-10140.821405,536.266849
1020.314784,-148.041188,-10066.800811,306.438199
1020.315108,-518.144159,-9622.677246,0.000000
1020.315431,-1036.288319,-9770.718434,0.000000
1020.315755,-1554.432478,-9474.636058,76.609550
1020.316079,-1184.329507,-9548.656652,153.219100
1020.316403,-962.267725,-8882.471304,536.266849
1020.316726,-444.123565,-8216.285956,1149.143247
1020.317050,888.247130,-9474.636058,689.485948
1020.317374,740.205942,-9622.677246,995.924147
1020.317698,74.020594,-10288.862594,612.876398
1020.318021,-1332.370696,-10140.821405,-229.828649
1020.318345,-2294.638420,-10288.862594,-306.438199
1020.318669,-3034.844362,-10584.944971,76.609550
1020.318993,-2886.803174,-10658.965565,229.828649
1020.319316,-2368.659014,-10584.944971,766.095498
1020.319640,-1702.473667,-9918.759623,459.657299
1020.319964,-666.185348,-9104.533087,1072.533697
1020.320288,0.000000,-8512.368333,1378.971896
1020.320611,444.123565,-9030.512492,1762.019645
1020.320935,518.144159,-9104.533087,1685.410096
1020.321259,-666.185348,-9548.656652,1838.629195
1020.321583,-2072.576638,-10066.800811,1225.752797
1020.321906,-2664.741391,-10732.986159,1378.971896
1020.322230,-2960.823768,-11325.150913,995.924147
1020.322554,-2590.720797,-11399.171507,1455.581446
1020.322878,-3256.906145,-10807.006753,1532.190996
1020.323201,-2664.741391,-11029.068536,1378.971896
1020.323525,-1924.535449,-10066.800811,2145.067394
1020.323849,-1480.411884,-9178.553681,2221.676944
1020.324173,-888.247130,-8808.450710,2374.896044
1020.324496,-592.164754,-9178.553681,2451.505594
1020.324820,-296.082377,-9548.656652,2528.115143
1020.325144,-666.185348,-9326.594869,2757.943793
1020.325468,-1998.556043,-9326.594869,2528.115143
1020.325791,-3108.864956,-10288.862594,2834.553343
1020.326115,-4367.215058,-10732.986159,2374.896044
1020.326439,-5255.462188,-10881.027347,2757.943793
1020.326763,-5625.565159,-10436.903782,2987.772442
1020.327086,-5699.585753,-10066.800811,3294.210641
1020.327410,-5329.482782,-9030.512492,2834.553343
1020.327734,-4737.318029,-8734.430116,3677.258390
1020.328058,-4145.153275,-9474.636058,2911.162892
1020.328381,-2664.741391,-9474.636058,4060.306139
1020.328705,-1110.308913,-9104.533087,4673.182538
1020.329029,444.123565,-8438.347739,5209.449386
1020.329353,1184.329507,-8068.244768,4673.182538
1020.329676,1110.308913,-7846.182985,3600.648841
1020.330000,148.041188,-7846.182985,4290.134789
1020.330324,-592.164754,-8438.347739,3677.258390
1020.330648,-2072.576638,-8290.306550,2987.772442
1020.330971,-4293.194464,-7698.141797,1838.629195
1020.331295,-6069.688724,-7846.182985,153.219100
1020.331619,-7698.141797,-10288.862594,919.314598
1020.331943,-7105.977043,-11991.336260,1302.362347
1020.332266,-5255.462188,-10955.047942,1762.019645
1020.332590,-2960.823768,-8956.491898,4443.353888
1020.332914,74.020594,-8142.265362,4826.401637
1020.333238,2812.782580,-8586.388927,4290.134789
1020.333561,4293.194464,-10214.842000,4596.572988
1020.333885,4589.276840,-10732.986159,4903.011187
1020.334209,3701.029710,-11103.089130,4749.792088
1020.334533,1850.514855,-10436.903782,3600.648841
1020.334856,-1332.370696,-8438.347739,1685.410096
1020.335180,-4145.153275,-7846.182985,-919.314598
1020.335504,-6883.915261,-10584.944971,-2145.067394
1020.335828,-6513.812290,-12731.542202,-2451.505594
1020.336151,-4293.194464,-11325.150913,-1915.238745
1020.336475,-2590.720797,-9252.574275,76.609550
1020.336799,-2146.597232,-8438.347739,842.705048
1020.337123,-2294.638420,-9104.533087,306.438199
1020.337446,-3108.864956,-9474.636058,919.314598
1020.337770,-3108.864956,-9918.759623,1225.752797
1020.338094,-1036.288319,-11399.171507,2604.724693
1020.338418,2442.679609,-12139.377449,3907.087040
1020.338741,5921.647536,-11547.212695,4673.182538
1020.339065,6291.750507,-10658.965565,4136.915689
1020.339389,3404.947333,-10436.903782,2681.334243
1020.339713,-1184.329507,-10066.800811,153.219100
1020.340036,-4811.338623,-8882.471304,-1608.800546
1020.340360,-5847.626942,-6291.750507,-3753.867940
1020.340684,-6291.750507,-8142.265362,-2451.505594
1020.341008,-5477.523971,-11251.130318,-1378.971896
1020.341331,-3923.091493,-11843.295072,-1838.629195
1020.341655,-4959.379811,-10658.965565,-842.705048
1020.341979,-7254.018232,-8660.409521,306.438199
1020.342303,-7179.997637,-8512.368333,0.000000
1020.342626,-5773.606348,-8808.450710,-383.047749
1020.342950,-3034.844362,-9770.718434,1378.971896
1020.343274,222.061783,-11991.336260,3217.601092
1020.343598,2442.679609,-13693.809927,2987.772442
1020.343921,1480.411884,-11991.336260,3830.477490
1020.344245,444.123565,-9252.574275,3294.210641
1020.344569,-222.061783,-8068.244768,2604.724693
1020.344893,0.000000,-8438.347739,1302.362347
1020.345216,-740.205942,-9178.553681,1225.752797
1020.345540,-1702.473667,-9030.512492,1378.971896
1020.345864,-2886.803174,-8512.368333,842.705048
1020.346188,-4145.153275,-8808.450710,1225.752797
1020.346511,-4663.297435,-7846.182985,1685.410096
1020.346835,-4071.132681,-7105.977043,1072.533697
1020.347159,-4515.256246,-7550.100608,612.876398
1020.347483,-6143.709319,-8734.430116,536.266849
1020.347806,-6587.832884,-10066.800811,1608.800546
1020.348130,-4441.235652,-10955.047942,2528.115143
1020.348454,-1554.432478,-10362.883188,3294.210641
1020.348778,-296.082377,-9104.533087,3140.991542
1020.349101,-1036.288319,-8956.491898,3064.381992
1020.349425,-1628.453072,-11103.089130,3600.648841
1020.349749,-592.164754,-12361.439231,3983.696590
1020.350073,1036.288319,-11547.212695,4290.134789
1020.350396,1554.432478,-10066.800811,4060.306139
1020.350720,-888.247130,-9104.533087,2834.553343
1020.351044,-4145.153275,-10732.986159,2987.772442
1020.351368,-4811.338623,-11843.295072,2374.896044
1020.351691,-3997.112087,-10066.800811,1532.190996
1020.352015,-4737.318029,-7402.059420,1915.238745
1020.352339,-4293.194464,-6587.832884,2604.724693
1020.352663,-3182.885551,-7846.182985,2604.724693
1020.352986,-2072.576638,-9252.574275,2298.286494
1020.353310,-2368.659014,-8734.430116,1608.800546
1020.353634,-3256.906145,-8734.430116,1532.190996
1020.353958,-2590.720797,-9844.739029,2374.896044
1020.354281,296.082377,-10140.821405,4366.744339
1020.354605,1998.556043,-10140.821405,4443.353888
1020.354929,1850.514855,-10658.965565,4213.525239
1020.355252,222.061783,-12065.356855,3983.696590
1020.355576,666.185348,-12213.398043,3983.696590
1020.355900,1702.473667,-10881.027347,3447.429741
1020.356224,-962.267725,-9844.739029,3907.087040
1020.356547,-3923.091493,-10140.821405,3217.601092
1020.356871,-4737.318029,-10658.965565,2451.505594
1020.357195,-3775.050304,-9696.697840,1762.019645
1020.357519,-3404.947333,-7698.141797,1762.019645
1020.357842,-4737.318029,-8216.285956,1608.800546
1020.358166,-4885.359217,-8586.388927,536.266849
1020.358490,-3701.029710,-7698.141797,766.095498
1020.358814,-2146.597232,-7772.162391,1608.800546
1020.359137,-1776.494261,-9918.759623,1915.238745
1020.359461,-1776.494261,-9696.697840,1915.238745
1020.359785,-1850.514855,-7994.224174,2221.676944
1020.360109,222.061783,-8068.244768,2987.772442
1020.360432,1850.514855,-10881.027347,2834.553343
1020.360756,1850.514855,-11103.089130,2834.553343
1020.361080,444.123565,-9548.656652,3370.820191
1020.361404,-370.102971,-9622.677246,2374.896044
1020.361727,-1480.411884,-9992.780217,1608.800546
1020.362051,-2220.617826,-9104.533087,1915.238745
1020.362375,-3849.070898,-8882.471304,2145.067394
1020.362699,-4737.318029,-10436.903782,229.828649
1020.363022,-4737.318029,-10214.842000,-689.485948
1020.363346,-4663.297435,-9104.533087,689.485948
1020.363670,-4293.194464,-9844.739029,536.266849
1020.363994,-4515.256246,-9992.780217,0.000000
1020.364317,-3627.009116,-8512.368333,1225.752797
1020.364641,-2516.700203,-9326.594869,1991.848295
1020.364965,-1332.370696,-12139.377449,1532.190996
1020.365289,-1036.288319,-11917.315666,2374.896044
1020.365612,-518.144159,-10807.006753,2451.505594
1020.365936,0.000000,-10362.883188,1532.190996
1020.366260,0.000000,-9696.697840,1608.800546
1020.366583,148.041188,-9104.533087,1225.752797
1020.366907,-1036.288319,-9844.739029,0.000000
1020.367231,-2368.659014,-10732.986159,0.000000
1020.367555,-2960.823768,-10732.986159,306.438199
1020.367878,-2960.823768,-11103.089130,-229.828649
1020.368202,-3404.947333,-9992.780217,229.828649
1020.368526,-3034.844362,-9104.533087,842.705048
1020.368849,-2664.741391,-9696.697840,-306.438199
1020.369173,-3552.988522,-9474.636058,536.266849
1020.369497,-3182.885551,-9474.636058,1149.143247
1020.369821,-2812.782580,-9400.615463,459.657299
1020.370144,-2516.700203,-9252.574275,1072.533697
1020.370468,-2368.659014,-10066.800811,2374.896044
1020.370792,-1258.350101,-11325.150913,1915.238745
1020.371115,-1110.308913,-11251.130318,2221.676944
1020.371439,-2738.761985,-10881.027347,2681.334243
1020.371763,-2368.659014,-9622.677246,919.314598
1020.372086,-1406.391290,-9252.574275,1915.238745
1020.372410,-1554.432478,-10066.800811,1532.190996
1020.372734,-2886.803174,-9622.677246,-306.438199
1020.373058,-4219.173869,-9918.759623,689.485948
1020.373381,-4145.153275,-10214.842000,1302.362347
1020.373705,-3330.926739,-10288.862594,1378.971896
1020.374029,-3182.885551,-9252.574275,1762.019645
1020.374352,-2664.741391,-7550.100608,2451.505594
1020.374676,-1924.535449,-9770.718434,2451.505594
1020.375000,-1110.308913,-10658.965565,2374.896044
1020.375324,-888.247130,-8586.388927,3064.381992
1020.375647,-740.205942,-8364.327145,5209.449386
1020.375971,518.144159,-9178.553681,3753.867940
1020.376295,592.164754,-9104.533087,3983.696590
1020.376618,-518.144159,-8290.306550,4673.182538
1020.376942,-1036.288319,-8660.409521,3983.696590
1020.377266,-1480.411884,-8808.450710,3677.258390
1020.377590,-1332.370696,-8068.244768,2911.162892
1020.377913,-2072.576638,-5255.462188,995.924147
1020.378237,-4219.173869,-5255.462188,-153.219100
1020.378561,-5551.544565,-8956.491898,1685.410096
1020.378884,-4145.153275,-11769.274478,2145.067394
1020.379208,-1702.473667,-11843.295072,2757.943793
1020.379532,-2368.659014,-9548.656652,4136.915689
1020.379856,-2294.638420,-8364.327145,2987.772442
1020.380179,-2368.659014,-10362.883188,2604.724693
1020.380503,-1480.411884,-11695.253884,2911.162892
1020.380827,518.144159,-10510.924376,3983.696590
1020.381150,1554.432478,-10288.862594,4213.525239
1020.381474,1776.494261,-10362.883188,4903.011187
1020.381798,1924.535449,-9622.677246,4519.963438
1020.382122,962.267725,-9326.594869,2451.505594
1020.382445,-1702.473667,-7994.224174,-766.095498
1020.382769,-4219.173869,-9400.615463,-842.705048
1020.383093,-4145.153275,-10955.047942,-842.705048
1020.383416,-1480.411884,-10288.862594,-1532.190996
1020.383740,-962.267725,-8956.491898,459.657299
1020.384064,-1628.453072,-9030.512492,536.266849
1020.384388,-962.267725,-10658.965565,-842.705048
1020.384711,-1332.370696,-11103.089130,-612.876398
1020.385035,-1628.453072,-9400.615463,306.438199
1020.385359,-814.226536,-10140.821405,1685.410096
1020.385682,962.267725,-11473.192101,1149.143247
1020.386006,2294.638420,-11769.274478,2681.334243
1020.386330,1850.514855,-11473.192101,2681.334243
1020.386654,1036.288319,-11473.192101,1608.800546
1020.386977,-296.082377,-10807.006753,1225.752797
1020.387301,-814.226536,-10288.862594,0.000000
1020.387625,-1036.288319,-9474.636058,-995.924147
1020.387948,-740.205942,-8808.450710,-1838.629195
1020.388272,148.041188,-8734.430116,-1762.019645
1020.388596,-148.041188,-8808.450710,-2604.724693
1020.388920,-1110.308913,-8512.368333,-3064.381992
1020.389243,-2664.741391,-7624.121203,-3064.381992
1020.389567,-3182.885551,-8068.244768,-2451.505594
1020.389891,-2368.659014,-9400.615463,-1532.190996
1020.390214,-1924.535449,-9992.780217,-229.828649
1020.390538,-1406.391290,-10066.800811,0.000000
1020.390862,-814.226536,-9104.533087,919.314598
1020.391185,1258.350101,-8956.491898,2221.676944
1020.391509,3701.029710,-10436.903782,1455.581446
1020.391833,4663.297435,-9622.677246,1455.581446
1020.392157,4737.318029,-8364.327145,1302.362347
1020.392480,3849.070898,-8882.471304,842.705048
1020.392804,2294.638420,-9844.739029,-1072.533697
1020.393128,-74.020594,-9622.677246,-3600.648841
1020.393451,-2072.576638,-9770.718434,-2834.553343
1020.393775,-814.226536,-11325.150913,-2451.505594
1020.394099,666.185348,-10955.047942,-2911.162892
1020.394423,-1036.288319,-9326.594869,-2451.505594
1020.394746,-3256.906145,-9178.553681,-1915.238745
1020.395070,-2368.659014,-9844.739029,-1378.971896
1020.395394,-518.144159,-10362.883188,-689.485948
1020.395717,-222.061783,-9252.574275,-306.438199
1020.396041,-666.185348,-8142.265362,306.438199
1020.396365,1184.329507,-9474.636058,1378.971896
1020.396689,3627.009116,-11399.171507,2451.505594
1020.397012,4811.338623,-10732.986159,2145.067394
1020.397336,4219.173869,-9252.574275,1685.410096
1020.397660,2960.823768,-9474.636058,0.000000
1020.397983,2368.659014,-11029.068536,-995.924147
1020.398307,1628.453072,-11177.109724,-1225.752797
1020.398631,0.000000,-10584.944971,-1225.752797
1020.398955,-2146.597232,-10658.965565,-2298.286494
1020.399278,-3478.967927,-10214.842000,-3294.210641
1020.399602,-3034.844362,-8290.306550,-3217.601092
1020.399926,-962.267725,-8068.244768,-2834.553343
1020.400249,222.061783,-9400.615463,-1532.190996
1020.400573,-444.123565,-9474.636058,-536.266849
1020.400897,-1850.514855,-8660.409521,76.609550
1020.401221,-2442.679609,-8290.306550,612.876398
1020.401544,-1554.432478,-9178.553681,1608.800546
1020.401868,-296.082377,-10066.800811,1378.971896
1020.402192,1184.329507,-10288.862594,1378.971896
1020.402515,1480.411884,-10955.047942,2451.505594
1020.402839,2442.679609,-11029.068536,3294.210641
1020.403163,2738.761985,-10066.800811,2298.286494
1020.403487,1406.391290,-8882.471304,153.219100
1020.403810,-1110.308913,-9326.594869,-1072.533697
1020.404134,-1998.556043,-10955.047942,-1685.410096
1020.404458,-888.247130,-10066.800811,-1685.410096
1020.404781,-1110.308913,-8956.491898,-1378.971896
1020.405105,-1998.556043,-8586.388927,-76.609550
1020.405429,-2368.659014,-9770.718434,-1072.533697
1020.405753,-1554.432478,-9474.636058,-1225.752797
1020.406076,-1628.453072,-8290.306550,-383.047749
1020.406400,-1406.391290,-8290.306550,995.924147
1020.406724,-1036.288319,-9770.718434,2221.676944
1020.407047,-592.164754,-10732.986159,2451.505594
1020.407371,1110.308913,-10362.883188,3447.429741
1020.407695,962.267725,-10362.883188,2528.115143
1020.408019,-814.226536,-10510.924376,1302.362347
1020.408342,-1332.370696,-9400.615463,1225.752797
1020.408666,-222.061783,-9696.697840,1072.533697
1020.408990,1924.535449,-10214.842000,1532.190996
1020.409313,1554.432478,-9474.636058,766.095498
1020.409637,-74.020594,-9400.615463,-153.219100
1020.409961,-740.205942,-9400.615463,-1532.190996
1020.410284,-444.123565,-9548.656652,-612.876398
1020.410608,-814.226536,-9770.718434,229.828649
1020.410932,-1332.370696,-9770.718434,842.705048
1020.411256,-1924.535449,-9252.574275,153.219100
1020.411579,-1406.391290,-9104.533087,153.219100
1020.411903,0.000000,-10214.842000,1378.971896
1020.412227,1406.391290,-10436.903782,2298.286494
1020.412550,2368.659014,-10584.944971,2298.286494
1020.412874,2368.659014,-9030.512492,2068.457845
1020.413198,2664.741391,-7994.224174,2298.286494
1020.413522,2072.576638,-9178.553681,1685.410096
1020.413845,222.061783,-9844.739029,306.438199
1020.414169,-1184.329507,-9252.574275,-689.485948
1020.414493,0.000000,-9474.636058,0.000000
1020.414816,1036.288319,-9548.656652,-1608.800546
1020.415140,296.082377,-8512.368333,-1455.581446
1020.415464,-1406.391290,-8512.368333,-459.657299
1020.415788,-1702.473667,-8882.471304,-1838.629195
1020.416111,-1702.473667,-9400.615463,-1302.362347
1020.416435,-1480.411884,-9474.636058,-306.438199
1020.416759,-592.164754,-9326.594869,0.000000
1020.417082,148.041188,-9474.636058,0.000000
1020.417406,888.247130,-9474.636058,1072.533697
1020.417730,1924.535449,-10807.006753,1455.581446
1020.418054,2072.576638,-10955.047942,1225.752797
1020.418377,1258.350101,-9548.656652,-306.438199
1020.418701,740.205942,-7994.224174,-689.485948
1020.419025,1628.453072,-9622.677246,-383.047749
1020.419348,1702.473667,-11769.274478,-1302.362347
1020.419672,666.185348,-10955.047942,-1991.848295
1020.419996,-592.164754,-9548.656652,-2068.457845
1020.420320,-962.267725,-9548.656652,-2834.553343
1020.420643,-518.144159,-10955.047942,-2604.724693
1020.420967,-1036.288319,-10510.924376,-2757.943793
1020.421291,-1332.370696,-10510.924376,-1072.533697
1020.421614,296.082377,-10584.944971,-1762.019645
1020.421938,1110.308913,-10955.047942,-1302.362347
1020.422262,-592.164754,-9992.780217,-1072.533697
1020.422586,-1184.329507,-9548.656652,-1225.752797
1020.422909,-888.247130,-11029.068536,-612.876398
1020.423233,1480.411884,-11399.171507,-766.095498
1020.423557,3404.947333,-9844.739029,842.705048
1020.423880,3775.050304,-9178.553681,612.876398
1020.424204,1776.494261,-9622.677246,0.000000
1020.424528,0.000000,-9030.512492,-1838.629195
1020.424852,-592.164754,-9178.553681,-1608.800546
1020.425175,-888.247130,-9622.677246,-919.314598
1020.425499,-1258.350101,-9548.656652,-766.095498
1020.425823,-1850.514855,-7624.121203,-995.924147
1020.426146,-1776.494261,-7105.977043,-842.705048
1020.426470,-1776.494261,-8512.368333,-1302.362347
1020.426794,-1702.473667,-9548.656652,-612.876398
1020.427118,-2220.617826,-8586.388927,-459.657299
1020.427441,-888.247130,-7624.121203,229.828649
1020.427765,592.164754,-8068.244768,1455.581446
1020.428089,814.226536,-9030.512492,612.876398
1020.428412,1406.391290,-8734.430116,766.095498
1020.428736,518.144159,-9030.512492,995.924147
1020.429060,222.061783,-10214.842000,842.705048
1020.429383,518.144159,-10288.862594,0.000000
1020.429707,-518.144159,-9548.656652,1302.362347
1020.430031,-444.123565,-9252.574275,995.924147
1020.430355,-592.164754,-8882.471304,-995.924147
1020.430678,-2072.576638,-9474.636058,-153.219100
1020.431002,-888.247130,-10066.800811,-153.219100
1020.431326,0.000000,-9622.677246,-306.438199
1020.431649,0.000000,-9992.780217,459.657299
1020.431973,0.000000,-8882.471304,1302.362347
1020.432297,-148.041188,-10362.883188,459.657299
1020.432621,-1332.370696,-10881.027347,0.000000
1020.432944,-1924.535449,-11769.274478,2145.067394
1020.433268,-148.041188,-12805.562797,2298.286494
1020.433592,2146.597232,-12065.356855,2298.286494
1020.433915,1776.494261,-10436.903782,1608.800546
1020.434239,814.226536,-10140.821405,1838.629195
1020.434563,962.267725,-10807.006753,919.314598
1020.434887,888.247130,-11177.109724,459.657299
1020.435210,-962.267725,-9696.697840,1072.533697
1020.435534,-1998.556043,-8882.471304,1608.800546
1020.435858,-962.267725,-9474.636058,536.266849
1020.436181,-666.185348,-9918.759623,459.657299
1020.436505,-592.164754,-9696.697840,383.047749
1020.436829,-814.226536,-8586.388927,-612.876398
1020.437153,-1184.329507,-7920.203579,0.000000
1020.437476,-1406.391290,-8438.347739,536.266849
1020.437800,0.000000,-8660.409521,612.876398
1020.438124,814.226536,-8956.491898,1302.362347
1020.438447,370.102971,-9474.636058,1149.143247
1020.438771,0.000000,-10140.821405,1455.581446
1020.439095,962.267725,-9918.759623,1225.752797
1020.439419,1924.535449,-9104.533087,2068.457845
1020.439742,1702.473667,-9474.636058,2298.286494
1020.440066,1184.329507,-9474.636058,2221.676944
1020.440390,370.102971,-9178.553681,1608.800546
1020.440713,0.000000,-8808.450710,1302.362347
1020.441037,-962.267725,-7698.141797,0.000000
1020.441361,-1702.473667,-7846.182985,-689.485948
1020.441685,-1628.453072,-9400.615463,-766.095498
1020.442008,-1184.329507,-9104.533087,-995.924147
1020.442332,-296.082377,-8364.327145,-306.438199
1020.442656,-444.123565,-7698.141797,-153.219100
1020.442979,-222.061783,-8808.450710,0.000000
1020.443303,1110.308913,-9844.739029,306.438199
1020.443627,2294.638420,-9992.780217,536.266849
1020.443951,1850.514855,-10510.924376,306.438199
1020.444274,1480.411884,-9548.656652,536.266849
1020.444598,1258.350101,-10140.821405,842.705048
1020.444922,1406.391290,-10362.883188,306.438199
1020.445245,1036.288319,-9104.533087,-766.095498
1020.445569,-592.164754,-9178.553681,-766.095498
1020.445893,-370.102971,-10955.047942,-612.876398
1020.446217,-666.185348,-10066.800811,-1762.019645
1020.446540,-962.267725,-8956.491898,-2221.676944
1020.446864,-1850.514855,-9030.512492,-1838.629195
1020.447188,-1776.494261,-10881.027347,-2068.457845
1020.447511,-1110.308913,-11621.233289,-1762.019645
1020.447835,-1850.514855,-10658.965565,-1225.752797
1020.448159,-1702.473667,-10288.862594,-1608.800546
1020.448482,-444.123565,-11325.150913,-2298.286494
1020.448806,0.000000,-11991.336260,-536.266849
1020.449130,0.000000,-11843.295072,-995.924147
1020.449454,0.000000,-9770.718434,-1915.238745
1020.449777,-888.247130,-10214.842000,-1608.800546
1020.450101,-666.185348,-11695.253884,-1685.410096
1020.450425,592.164754,-11325.150913,-1149.143247
1020.450748,296.082377,-10732.986159,-1072.533697
1020.451072,-444.123565,-9696.697840,-1072.533697
1020.451396,-1480.411884,-10436.903782,-1915.238745
1020.451720,-1628.453072,-11103.089130,-1532.190996
1020.452043,-666.185348,-9548.656652,-1532.190996
1020.452367,0.000000,-8142.265362,-612.876398
1020.452691,444.123565,-8660.409521,-766.095498
1020.453014,1110.308913,-8660.409521,-153.219100
1020.453338,1924.535449,-9400.615463,1225.752797
1020.453662,2368.659014,-9104.533087,459.657299
1020.453986,2294.638420,-8216.285956,459.657299
1020.454309,1480.411884,-8068.244768,306.438199
1020.454633,1258.350101,-9030.512492,1149.143247
1020.454957,1850.514855,-9770.718434,1685.410096
1020.455280,1554.432478,-8586.388927,1378.971896
1020.455604,1184.329507,-8068.244768,1225.752797
1020.455928,222.061783,-8586.388927,919.314598
1020.456252,518.144159,-9030.512492,0.000000
1020.456575,0.000000,-8068.244768,76.609550
1020.456899,-814.226536,-7698.141797,689.485948
1020.457223,-1036.288319,-7920.203579,-459.657299
1020.457546,-1628.453072,-8438.347739,-459.657299
1020.457870,-1850.514855,-8364.327145,0.000000
1020.458194,0.000000,-7476.080014,-383.047749
1020.458518,740.205942,-9030.512492,-536.266849
1020.458841,370.102971,-10066.800811,612.876398
1020.459165,222.061783,-10510.924376,536.266849
1020.459489,-222.061783,-10362.883188,612.876398
1020.459812,0.000000,-10436.903782,1378.971896
1020.460136,0.000000,-10510.924376,1302.362347
1020.460460,962.267725,-11251.130318,1915.238745
1020.460784,1110.308913,-10807.006753,842.705048
1020.461107,1332.370696,-10066.800811,1149.143247
1020.461431,888.247130,-10732.986159,612.876398
1020.461755,-518.144159,-10584.944971,0.000000
1020.462078,-1850.514855,-9844.739029,0.000000
1020.462402,-1998.556043,-9622.677246,-383.047749
1020.462726,-1332.370696,-9770.718434,-306.438199
1020.463050,-1332.370696,-10214.842000,76.609550
1020.463373,-1702.473667,-10955.047942,536.266849
1020.463697,-1480.411884,-9918.759623,-306.438199
1020.464021,-1110.308913,-8438.347739,-306.438199
1020.464344,-1406.391290,-9844.739029,383.047749
1020.464668,-518.144159,-10436.903782,612.876398
1020.464992,962.267725,-10288.862594,995.924147
1020.465316,1258.350101,-10214.842000,1455.581446
1020.465640,1036.288319,-9992.780217,995.924147
1020.465963,296.082377,-9474.636058,-306.438199
1020.466287,-444.123565,-9326.594869,229.828649
1020.466611,-222.061783,-9992.780217,383.047749
1020.466935,1628.453072,-10658.965565,0.000000
1020.467259,962.267725,-9178.553681,76.609550
1020.467583,0.000000,-8290.306550,0.000000
1020.467906,-1406.391290,-9770.718434,306.438199
1020.468230,-1036.288319,-10436.903782,-383.047749
1020.468554,-1480.411884,-9918.759623,0.000000
1020.468878,-2146.597232,-9474.636058,153.219100
1020.469202,-1332.370696,-9474.636058,153.219100
1020.469525,-222.061783,-9326.594869,459.657299
1020.469849,0.000000,-8882.471304,766.095498
1020.470173,74.020594,-9844.739029,1532.190996
1020.470497,888.247130,-10140.821405,919.314598
1020.470821,962.267725,-9992.780217,306.438199
1020.471144,666.185348,-9104.533087,689.485948
1020.471468,814.226536,-8586.388927,383.047749
1020.471792,1110.308913,-8956.491898,-1225.752797
1020.472116,518.144159,-9326.594869,-1149.143247
1020.472440,74.020594,-8290.306550,-1072.533697
1020.472764,1924.535449,-8734.430116,-995.924147
1020.473087,1776.494261,-9474.636058,-383.047749
1020.473411,1406.391290,-9326.594869,-612.876398
1020.473735,-222.061783,-9030.512492,-689.485948
1020.474059,-1036.288319,-8882.471304,-842.705048
1020.474383,-666.185348,-8956.491898,-1225.752797
1020.474706,-740.205942,-9696.697840,-689.485948
1020.475030,-444.123565,-9474.636058,0.000000
1020.475354,74.020594,-9696.697840,0.000000
1020.475678,888.247130,-9474.636058,-459.657299
1020.476002,296.082377,-9104.533087,-766.095498
1020.476326,-592.164754,-8956.491898,-1225.752797
1020.476649,-1702.473667,-10436.903782,-1149.143247
1020.476973,-296.082377,-10140.821405,-1532.190996
1020.477297,814.226536,-9918.759623,-1608.800546
1020.477621,666.185348,-10807.006753,-1072.533697
1020.477945,0.000000,-11695.253884,-842.705048
1020.478268,0.000000,-11843.295072,-1302.362347
1020.478592,518.144159,-11251.130318,-1225.752797
1020.478916,370.102971,-11325.150913,-536.266849
1020.479240,592.164754,-11547.212695,-536.266849
1020.479564,888.247130,-10732.986159,-459.657299
1020.479887,592.164754,-9696.697840,-612.876398
1020.480211,444.123565,-9844.739029,-612.876398
1020.480535,-296.082377,-10732.986159,-1225.752797
1020.480859,-518.144159,-11473.192101,-1225.752797
1020.481183,-222.061783,-9844.739029,-383.047749
1020.481507,1258.350101,-9252.574275,76.609550
1020.481830,1406.391290,-10140.821405,-153.219100
1020.482154,666.185348,-10066.800811,-766.095498
1020.482478,0.000000,-9918.759623,0.000000
1020.482802,-370.102971,-9178.553681,-306.438199
1020.483126,-296.082377,-9474.636058,995.924147
1020.483449,-888.247130,-9548.656652,1225.752797
1020.483773,-1406.391290,-9252.574275,919.314598
1020.484097,-1702.473667,-8142.265362,842.705048
1020.484421,-1184.329507,-7550.100608,1149.143247
1020.484745,-444.123565,-8512.368333,1072.533697
1020.485069,-666.185348,-8290.306550,1532.190996
1020.485392,-740.205942,-7624.121203,1838.629195
1020.485716,-444.123565,-6587.832884,306.438199
1020.486040,-592.164754,-7254.018232,-229.828649
1020.486364,-1110.308913,-8512.368333,383.047749
1020.486688,-296.082377,-8808.450710,306.438199
1020.487011,148.041188,-8290.306550,459.657299
1020.487335,740.205942,-7698.141797,842.705048
1020.487659,74.020594,-7920.203579,842.705048
1020.487983,0.000000,-8956.491898,229.828649
1020.488307,-370.102971,-8956.491898,-153.219100
1020.488630,-1036.288319,-8660.409521,0.000000
1020.488954,-1110.308913,-10140.821405,76.609550
1020.489278,-740.205942,-10881.027347,612.876398
1020.489602,74.020594,-11621.233289,1608.800546
1020.489926,1036.288319,-11251.130318,1072.533697
1020.490250,740.205942,-10881.027347,-153.219100
1020.490573,-370.102971,-10807.006753,0.000000
1020.490897,296.082377,-11399.171507,229.828649
1020.491221,1480.411884,-12287.418637,536.266849
1020.491545,1110.308913,-11695.253884,-766.095498
1020.491869,-370.102971,-10214.842000,0.000000
1020.492192,-1258.350101,-10732.986159,-919.314598
1020.492516,-518.144159,-10436.903782,-1762.019645
1020.492840,-518.144159,-10658.965565,-842.705048
1020.493164,148.041188,-10510.924376,-459.657299
1020.493488,1184.329507,-10807.006753,-766.095498
1020.493811,1924.535449,-9770.718434,76.609550
1020.494135,2294.638420,-9474.636058,1072.533697
1020.494459,1998.556043,-9474.636058,-612.876398
1020.494783,1480.411884,-9548.656652,-536.266849
1020.495107,296.082377,-10066.800811,153.219100
1020.495431,-222.061783,-9918.759623,306.438199
1020.495754,74.020594,-9326.594869,-689.485948
1020.496078,222.061783,-8216.285956,-153.219100
1020.496402,814.226536,-9178.553681,0.000000
1020.496726,1332.370696,-10066.800811,-229.828649
1020.497050,148.041188,-9844.739029,-383.047749
1020.497373,-740.205942,-8290.306550,0.000000
1020.497697,-592.164754,-7476.080014,-612.876398
1020.498021,-814.226536,-9252.574275,-766.095498
1020.498345,-1554.432478,-10140.821405,153.219100
1020.498669,-1110.308913,-10066.800811,-229.828649
1020.498993,-592.164754,-9548.656652,0.000000
1020.499316,-814.226536,-8660.409521,-612.876398
1020.499640,-592.164754,-8956.491898,0.000000
1020.499964,592.164754,-9992.780217,689.485948
1020.500288,1258.350101,-10436.903782,689.485948
1020.500612,370.102971,-9770.718434,995.924147
1020.500935,-444.123565,-8290.306550,229.828649
1020.501259,74.020594,-8734.430116,0.000000
1020.501583,444.123565,-9400.615463,0.000000
1020.501907,666.185348,-9252.574275,612.876398
1020.502231,592.164754,-9918.759623,76.609550
1020.502554,-296.082377,-9770.718434,-153.219100
1020.502878,-814.226536,-8364.327145,76.609550
1020.503202,-222.061783,-7994.224174,-383.047749
1020.503526,148.041188,-9252.574275,-536.266849
1020.503850,-518.144159,-8438.347739,-1302.362347
1020.504174,-1184.329507,-8882.471304,-1225.752797
1020.504497,-1258.350101,-9548.656652,-1149.143247
1020.504821,0.000000,-10362.883188,-229.828649
1020.505145,222.061783,-10807.006753,383.047749
1020.505469,0.000000,-10510.924376,-306.438199
1020.505793,-1110.308913,-10436.903782,76.609550
1020.506116,-1406.391290,-11251.130318,-1149.143247
1020.506440,-814.226536,-11621.233289,-612.876398
1020.506764,-222.061783,-11473.192101,306.438199
1020.507088,814.226536,-12065.356855,0.000000
1020.507412,148.041188,-11473.192101,-612.876398
1020.507736,-518.144159,-10955.047942,-229.828649
1020.508059,-666.185348,-10066.800811,-919.314598
1020.508383,-518.144159,-10881.027347,-1072.533697
1020.508707,-1554.432478,-10436.903782,-1532.190996
1020.509031,-1036.288319,-9326.594869,-995.924147
1020.509355,-222.061783,-9696.697840,-1149.143247
1020.509678,-592.164754,-10436.903782,-612.876398
1020.510002,-740.205942,-10436.903782,-306.438199
1020.510326,-592.164754,-9992.780217,-919.314598
1020.510650,518.144159,-9326.594869,536.266849
1020.510974,1480.411884,-9474.636058,536.266849
1020.511297,1480.411884,-8808.450710,1225.752797
1020.511621,666.185348,-9252.574275,536.266849
1020.511945,74.020594,-8882.471304,1149.143247
1020.512269,148.041188,-8808.450710,766.095498
1020.512593,148.041188,-8142.265362,0.000000
1020.512917,-740.205942,-7994.224174,689.485948
1020.513240,-888.247130,-7994.224174,1072.533697
1020.513564,1406.391290,-9252.574275,1149.143247
1020.513888,2220.617826,-9252.574275,536.266849
1020.514212,888.247130,-8068.244768,459.657299
1020.514536,222.061783,-7846.182985,995.924147
1020.514859,222.061783,-8808.450710,919.314598
1020.515183,370.102971,-9400.615463,842.705048
1020.515507,-148.041188,-8364.327145,459.657299
1020.515831,-888.247130,-8216.285956,76.609550
1020.516155,-222.061783,-9030.512492,459.657299
1020.516479,296.082377,-9252.574275,612.876398
1020.516802,814.226536,-8438.347739,1072.533697
1020.517126,148.041188,-8808.450710,229.828649
1020.517450,-888.247130,-10214.842000,612.876398
1020.517774,0.000000,-9474.636058,0.000000
1020.518098,1480.411884,-8734.430116,-383.047749
1020.518421,888.247130,-9992.780217,842.705048
1020.518745,296.082377,-10807.006753,766.095498
1020.519069,0.000000,-11029.068536,0.000000
1020.519393,-370.102971,-10288.862594,-459.657299
1020.519717,-1258.350101,-9622.677246,-995.924147
1020.520040,-1702.473667,-10214.842000,-1455.581446
1020.520364,-2516.700203,-11103.089130,-536.266849
1020.520688,-2516.700203,-11769.274478,0.000000
1020.521012,-1924.535449,-11399.171507,-1532.190996
1020.521336,-2590.720797,-10881.027347,-383.047749
1020.521660,-2146.597232,-11843.295072,-383.047749
1020.521983,-444.123565,-11843.295072,-383.047749
1020.522307,1776.494261,-11029.068536,612.876398
1020.522631,1036.288319,-11103.089130,229.828649
1020.522955,-148.041188,-9844.739029,0.000000
1020.523279,-444.123565,-10140.821405,0.000000
1020.523602,444.123565,-10362.883188,-459.657299
1020.523926,814.226536,-10066.800811,-995.924147
1020.524250,0.000000,-9844.739029,-842.705048
1020.524574,-444.123565,-9326.594869,-1608.800546
1020.524898,0.000000,-8734.430116,-2145.067394
1020.525222,1406.391290,-8660.409521,-383.047749
1020.525545,1776.494261,-9474.636058,1149.143247
1020.525869,1628.453072,-9918.759623,919.314598
1020.526193,814.226536,-9474.636058,229.828649
1020.526517,0.000000,-7476.080014,0.000000
1020.526841,296.082377,-7698.141797,-383.047749
1020.527164,0.000000,-9992.780217,0.000000
1020.527488,0.000000,-9918.759623,1072.533697
1020.527812,740.205942,-9474.636058,919.314598
1020.528136,1110.308913,-7476.080014,229.828649
1020.528460,0.000000,-8142.265362,-153.219100
1020.528783,-518.144159,-8808.450710,-842.705048
1020.529107,0.000000,-9770.718434,-766.095498
1020.529431,0.000000,-9918.759623,-153.219100
1020.529755,296.082377,-8808.450710,842.705048
1020.530079,0.000000,-7994.224174,-153.219100
1020.530403,-1036.288319,-8438.347739,-1149.143247
1020.530726,-1406.391290,-8808.450710,-1149.143247
1020.531050,0.000000,-9992.780217,306.438199
1020.531374,1036.288319,-10584.944971,229.828649
1020.531698,444.123565,-8438.347739,153.219100
1020.532022,0.000000,-8364.327145,919.314598
1020.532345,1258.350101,-9696.697840,459.657299
1020.532669,2590.720797,-11177.109724,306.438199
1020.532993,1998.556043,-10584.944971,1302.362347
1020.533317,666.185348,-8734.430116,76.609550
1020.533641,0.000000,-7994.224174,-1378.971896
1020.533964,-666.185348,-8808.450710,-995.924147
1020.534288,-666.185348,-9992.780217,-1225.752797
1020.534612,-592.164754,-10732.986159,-1302.362347
1020.534936,-1258.350101,-10436.903782,-1455.581446
1020.535260,-1850.514855,-9474.636058,-1532.190996
1020.535584,-1924.535449,-9474.636058,-1149.143247
1020.535907,-1258.350101,-11399.171507,-229.828649
1020.536231,-888.247130,-12287.418637,76.609550
1020.536555,-740.205942,-12065.356855,-306.438199
1020.536879,-518.144159,-10732.986159,-383.047749
1020.537203,444.123565,-10807.006753,0.000000
1020.537526,1776.494261,-11843.295072,383.047749
1020.537850,1480.411884,-12139.377449,536.266849
1020.538174,1110.308913,-11325.150913,-612.876398
1020.538498,-222.061783,-10807.006753,-1225.752797
1020.538822,-1258.350101,-10807.006753,-1072.533697
1020.539146,-1332.370696,-10955.047942,-842.705048
1020.539469,-592.164754,-10732.986159,-383.047749
1020.539793,370.102971,-9622.677246,-919.314598
1020.540117,148.041188,-9252.574275,-1072.533697
1020.540441,0.000000,-9104.533087,-459.657299
1020.540765,-444.123565,-8586.388927,0.000000
1020.541088,222.061783,-8216.285956,229.828649
1020.541412,-370.102971,-7846.182985,153.219100
1020.541736,-1702.473667,-7698.141797,-153.219100
1020.542060,-1406.391290,-7179.997637,229.828649
1020.542384,-370.102971,-7994.224174,76.609550
1020.542707,1184.329507,-8512.368333,919.314598
1020.543031,1554.432478,-9400.615463,459.657299
1020.543355,1480.411884,-9104.533087,995.924147
1020.543679,1184.329507,-9474.636058,1225.752797
1020.544003,1036.288319,-9252.574275,536.266849
1020.544327,444.123565,-9474.636058,919.314598
1020.544650,-370.102971,-10214.842000,459.657299
1020.544974,-148.041188,-9992.780217,229.828649
1020.545298,592.164754,-9030.512492,689.485948
1020.545622,1406.391290,-8808.450710,383.047749
1020.545946,0.000000,-9770.718434,306.438199
1020.546269,-1184.329507,-9622.677246,0.000000
1020.546593,-1850.514855,-9326.594869,-306.438199
1020.546917,-1406.391290,-8216.285956,-1072.533697
1020.547241,-1184.329507,-8364.327145,-536.266849
1020.547565,-1332.370696,-9400.615463,-383.047749
1020.547889,-1036.288319,-9622.677246,0.000000
1020.548212,148.041188,-10140.821405,1149.143247
1020.548536,2442.679609,-10732.986159,1685.410096
1020.548860,3552.988522,-10362.883188,1072.533697
1020.549184,2812.782580,-9030.512492,1225.752797
1020.549508,1480.411884,-8882.471304,1378.971896
1020.549831,370.102971,-9844.739029,-536.266849
1020.550155,0.000000,-10436.903782,-612.876398
1020.550479,-370.102971,-10436.903782,-306.438199
1020.550803,-444.123565,-9030.512492,-1455.581446
1020.551127,-1554.432478,-8882.471304,-1608.800546
1020.551450,-2294.638420,-9844.739029,-995.924147
1020.551774,-1406.391290,-11473.192101,-766.095498
1020.552098,-888.247130,-11769.274478,-1455.581446
1020.552422,-1628.453072,-10732.986159,-919.314598
1020.552746,-1480.411884,-10732.986159,-995.924147
1020.553070,814.226536,-11325.150913,-612.876398
1020.553393,1628.453072,-11843.295072,-306.438199
1020.553717,1036.288319,-11991.336260,689.485948
1020.554041,1110.308913,-11325.150913,383.047749
1020.554365,1480.411884,-10807.006753,459.657299
1020.554689,1480.411884,-9918.759623,-689.485948
1020.555012,1776.494261,-9104.533087,-306.438199
1020.555336,1184.329507,-10066.800811,-689.485948
1020.555660,592.164754,-10881.027347,-1302.362347
1020.555984,0.000000,-8808.450710,-1149.143247
1020.556308,-962.267725,-7550.100608,-1378.971896
1020.556632,-1554.432478,-8586.388927,-1608.800546
1020.556955,-2368.659014,-9400.615463,-1915.238745
1020.557279,-2220.617826,-9104.533087,0.000000
1020.557603,-1332.370696,-8364.327145,76.609550
1020.557927,-592.164754,-9400.615463,995.924147
1020.558251,666.185348,-9030.512492,995.924147
1020.558574,1554.432478,-7846.182985,-229.828649
1020.558898,740.205942,-8290.306550,1225.752797
1020.559222,222.061783,-9548.656652,536.266849
1020.559546,518.144159,-9400.615463,383.047749
1020.559870,296.082377,-9104.533087,919.314598
1020.560193,-222.061783,-8808.450710,229.828649
1020.560517,-666.185348,-9252.574275,-1455.581446
1020.560841,-888.247130,-9326.594869,-689.485948
1020.561165,-1332.370696,-9474.636058,-1149.143247
1020.561489,-1036.288319,-9400.615463,-689.485948
1020.561813,-518.144159,-7846.182985,-536.266849
1020.562136,-296.082377,-8808.450710,689.485948
1020.562460,-370.102971,-9844.739029,919.314598
1020.562784,518.144159,-9326.594869,459.657299
1020.563108,74.020594,-8882.471304,306.438199
1020.563432,-222.061783,-8734.430116,-229.828649
1020.563755,666.185348,-8734.430116,-229.828649
1020.564079,1258.350101,-9770.718434,689.485948
1020.564403,1924.535449,-10362.883188,1149.143247
1020.564727,1332.370696,-10436.903782,842.705048
1020.565051,0.000000,-10214.842000,-536.266849
1020.565375,-740.205942,-9992.780217,-1072.533697
1020.565699,-148.041188,-10807.006753,-612.876398
1020.566022,1036.288319,-10436.903782,-459.657299
1020.566346,1776.494261,-11325.150913,0.000000
1020.566670,296.082377,-12361.439231,-536.266849
1020.566994,-518.144159,-11399.171507,-1762.019645
1020.567318,-814.226536,-10288.862594,-1455.581446
1020.567642,-1036.288319,-11325.150913,-1302.362347
1020.567966,-740.205942,-11177.109724,-842.705048
1020.568290,-962.267725,-11547.212695,-153.219100
1020.568613,-1480.411884,-11103.089130,0.000000
1020.568937,-148.041188,-10881.027347,1149.143247
1020.569261,1998.556043,-10807.006753,229.828649
1020.569585,1850.514855,-9178.553681,153.219100
1020.569909,0.000000,-9548.656652,459.657299
1020.570233,-1110.308913,-8882.471304,0.000000
1020.570557,-518.144159,-7994.224174,-612.876398
1020.570881,-2146.597232,-7994.224174,-919.314598
1020.571204,-2294.638420,-8290.306550,-1149.143247
1020.571528,-148.041188,-7772.162391,-766.095498
1020.571852,1628.453072,-7772.162391,229.828649
1020.572176,1332.370696,-7994.224174,383.047749
1020.572500,0.000000,-8438.347739,459.657299
1020.572824,-1258.350101,-9474.636058,-306.438199
1020.573148,0.000000,-8808.450710,-306.438199
1020.573472,1258.350101,-9400.615463,1378.971896
1020.573795,1702.473667,-9178.553681,1532.190996
1020.574119,1406.391290,-9030.512492,766.095498
1020.574443,518.144159,-9622.677246,1149.143247
1020.574767,370.102971,-9252.574275,-306.438199
1020.575091,222.061783,-8660.409521,-1762.019645
1020.575415,-1184.329507,-9104.533087,-919.314598
1020.575739,-1850.514855,-10066.800811,-153.219100
1020.576063,-370.102971,-10362.883188,-306.438199
1020.576387,222.061783,-9400.615463,-383.047749
1020.576710,-222.061783,-8660.409521,-459.657299
1020.577034,-444.123565,-9844.739029,-612.876398
1020.577358,-222.061783,-10362.883188,-536.266849
1020.577682,148.041188,-9622.677246,459.657299
1020.578006,-148.041188,-9622.677246,919.314598
1020.578330,-370.102971,-9918.759623,995.924147
1020.578654,0.000000,-11103.089130,919.314598
1020.578978,-296.082377,-10140.821405,0.000000
1020.579301,370.102971,-9918.759623,0.000000
1020.579625,444.123565,-9622.677246,-383.047749
1020.579949,1702.473667,-11843.295072,919.314598
1020.580273,1998.556043,-12139.377449,919.314598
1020.580597,1702.473667,-9696.697840,-536.266849
1020.580921,-148.041188,-8956.491898,-383.047749
1020.581245,-2442.679609,-10288.862594,-1072.533697
1020.581569,-1776.494261,-11991.336260,-1072.533697
1020.581892,-1036.288319,-10140.821405,-1149.143247
1020.582216,-962.267725,-8660.409521,-459.657299
1020.582540,-1702.473667,-9548.656652,-229.828649
1020.582864,-1406.391290,-10584.944971,-76.609550
1020.583188,-1184.329507,-10510.924376,842.705048
1020.583512,-444.123565,-10066.800811,1225.752797
1020.583836,296.082377,-9844.739029,842.705048
1020.584160,-222.061783,-10066.800811,0.000000
1020.584484,0.000000,-10436.903782,383.047749
1020.584807,1036.288319,-10140.821405,1072.533697
1020.585131,1554.432478,-10436.903782,459.657299
1020.585455,148.041188,-9548.656652,766.095498
1020.585779,-740.205942,-9400.615463,306.438199
1020.586103,-740.205942,-9104.533087,-306.438199
1020.586427,0.000000,-8216.285956,-153.219100
1020.586751,-592.164754,-9252.574275,-536.266849
1020.587075,-1110.308913,-9474.636058,0.000000
1020.587398,296.082377,-9030.512492,306.438199
1020.587722,1850.514855,-8216.285956,306.438199
1020.588046,1702.473667,-7328.038826,612.876398
1020.588370,-666.185348,-7254.018232,-766.095498
1020.588694,-1850.514855,-8660.409521,0.000000
1020.589018,-1554.432478,-9252.574275,-229.828649
1020.589342,0.000000,-8734.430116,-459.657299
1020.589666,296.082377,-9030.512492,-229.828649
1020.589989,74.020594,-9548.656652,306.438199
1020.590313,296.082377,-10214.842000,229.828649
1020.590637,962.267725,-9770.718434,-306.438199
1020.590961,1406.391290,-9030.512492,0.000000
1020.591285,1628.453072,-9918.759623,76.609550
1020.591609,2146.597232,-10955.047942,-153.219100
1020.591933,1332.370696,-10214.842000,-689.485948
1020.592257,666.185348,-9770.718434,76.609550
1020.592580,296.082377,-10436.903782,-383.047749
1020.592904,-962.267725,-10955.047942,-689.485948
1020.593228,-1628.453072,-10362.883188,-995.924147
1020.593552,-1184.329507,-9992.780217,0.000000
1020.593876,-1406.391290,-10362.883188,0.000000
1020.594200,-1554.432478,-9918.759623,-459.657299
1020.594524,-1258.350101,-9622.677246,0.000000
1020.594848,-1110.308913,-9696.697840,-306.438199
1020.595172,-296.082377,-9326.594869,-612.876398
1020.595495,0.000000,-9622.677246,0.000000
1020.595819,592.164754,-9844.739029,-536.266849
1020.596143,1110.308913,-10140.821405,-612.876398
1020.596467,592.164754,-10288.862594,-1532.190996
1020.596791,-222.061783,-9696.697840,-995.924147
1020.597115,-666.185348,-10214.842000,-1225.752797
1020.597439,-148.041188,-11547.212695,-536.266849
1020.597763,-444.123565,-11177.109724,-229.828649
1020.598086,1258.350101,-10362.883188,-612.876398
1020.598410,1036.288319,-9400.615463,0.000000
1020.598734,-296.082377,-10436.903782,229.828649
1020.599058,-740.205942,-11177.109724,0.000000
1020.599382,-1702.473667,-9844.739029,229.828649
1020.599706,-1332.370696,-9474.636058,-153.219100
1020.600030,-1924.535449,-8956.491898,-689.485948
1020.600354,-1036.288319,-9474.636058,0.000000
1020.600677,296.082377,-8956.491898,306.438199
1020.601001,962.267725,-9104.533087,-229.828649
1020.601325,518.144159,-8882.471304,0.000000
1020.601649,518.144159,-8734.430116,0.000000
1020.601973,1776.494261,-8882.471304,0.000000
1020.602297,2072.576638,-9104.533087,-306.438199
1020.602621,1924.535449,-9400.615463,612.876398
1020.602945,1628.453072,-9474.636058,-383.047749
1020.603268,1258.350101,-9844.739029,229.828649
1020.603592,1110.308913,-9400.615463,0.000000
1020.603916,1702.473667,-7994.224174,-383.047749
1020.604240,296.082377,-8142.265362,-1302.362347
1020.604564,-1554.432478,-8734.430116,-1838.629195
1020.604888,-1776.494261,-9326.594869,-1532.190996
1020.605212,-814.226536,-9252.574275,-536.266849
1020.605536,-518.144159,-9326.594869,0.000000
1020.605860,-962.267725,-9178.553681,-306.438199
1020.606183,-592.164754,-9548.656652,0.000000
1020.606507,74.020594,-9474.636058,306.438199
1020.606831,1554.432478,-11325.150913,919.314598
1020.607155,1036.288319,-10732.986159,1072.533697
1020.607479,814.226536,-9030.512492,995.924147
1020.607803,74.020594,-9992.780217,766.095498
1020.608127,-370.102971,-10881.027347,76.609550
1020.608451,-1036.288319,-10807.006753,-153.219100
1020.608774,-1332.370696,-10955.047942,-612.876398
1020.609098,-1850.514855,-10362.883188,-459.657299
1020.609422,-1332.370696,-10066.800811,-689.485948
1020.609746,-592.164754,-9252.574275,-842.705048
1020.610070,-148.041188,-9474.636058,-536.266849
1020.610394,444.123565,-10732.986159,612.876398
1020.610718,1258.350101,-11769.274478,536.266849
1020.611042,370.102971,-10955.047942,1225.752797
1020.611365,1406.391290,-11103.089130,1532.190996
1020.611689,1628.453072,-10140.821405,0.000000
1020.612013,962.267725,-10362.883188,459.657299
1020.612337,-444.123565,-10214.842000,842.705048
1020.612661,-444.123565,-9770.718434,0.000000
1020.612985,-444.123565,-9474.636058,229.828649
1020.613309,-962.267725,-8512.368333,-306.438199
1020.613633,-1702.473667,-9252.574275,-383.047749
1020.613957,-2442.679609,-9474.636058,229.828649
1020.614280,-1776.494261,-9770.718434,689.485948
1020.614604,-1998.556043,-9474.636058,536.266849
1020.614928,-2220.617826,-8956.491898,536.266849
1020.615252,-2146.597232,-9030.512492,459.657299
1020.615576,0.000000,-9104.533087,1072.533697
1020.615900,1850.514855,-9918.759623,1838.629195
1020.616224,2220.617826,-9918.759623,1838.629195
1020.616548,1554.432478,-9474.636058,919.314598
1020.616871,444.123565,-7994.224174,-153.219100
1020.617195,222.061783,-8142.265362,0.000000
1020.617519,0.000000,-9400.615463,-766.095498
1020.617843,-518.144159,-9844.739029,-842.705048
1020.618167,-444.123565,-9622.677246,0.000000
1020.618491,1480.411884,-7994.224174,383.047749
1020.618815,2442.679609,-8882.471304,229.828649
1020.619139,814.226536,-8586.388927,-229.828649
1020.619462,-296.082377,-8882.471304,0.000000
1020.619786,-666.185348,-9178.553681,0.000000
1020.620110,-518.144159,-9400.615463,229.828649
1020.620434,-1332.370696,-9104.533087,459.657299
1020.620758,-1332.370696,-9474.636058,0.000000
1020.621082,-518.144159,-9104.533087,-229.828649
1020.621406,518.144159,-9178.553681,-995.924147
1020.621730,0.000000,-10214.842000,-459.657299
1020.622053,-666.185348,-10214.842000,-1072.533697
1020.622377,-962.267725,-10214.842000,-1685.410096
1020.622701,-962.267725,-10658.965565,-1072.533697
1020.623025,0.000000,-11103.089130,-1455.581446
1020.623349,-148.041188,-10955.047942,-689.485948
1020.623673,-74.020594,-12065.356855,-536.266849
1020.623997,1184.329507,-11843.295072,-153.219100
1020.624321,2368.659014,-10732.986159,0.000000
1020.624645,1776.494261,-11029.068536,0.000000
1020.624968,666.185348,-11547.212695,689.485948
1020.625292,1110.308913,-11547.212695,306.438199
1020.625616,888.247130,-10658.965565,-1149.143247
1020.625940,-888.247130,-8956.491898,-1072.533697
1020.626264,-2072.576638,-8956.491898,-1915.238745
1020.626588,-2738.761985,-9844.739029,-1991.848295
1020.626912,-2368.659014,-9844.739029,-1378.971896
1020.627236,-1184.329507,-9030.512492,-1149.143247
1020.627559,-222.061783,-7846.182985,-1225.752797
1020.627883,518.144159,-7254.018232,-459.657299
1020.628207,1036.288319,-8956.491898,229.828649
1020.628531,1036.288319,-9622.677246,383.047749
1020.628855,2072.576638,-9474.636058,612.876398
1020.629179,518.144159,-9326.594869,689.485948
1020.629503,-592.164754,-9548.656652,459.657299
1020.629827,-592.164754,-9548.656652,306.438199
1020.630150,444.123565,-9548.656652,306.438199
1020.630474,666.185348,-9548.656652,995.924147
1020.630798,518.144159,-9104.533087,76.609550
1020.631122,888.247130,-8956.491898,-689.485948
1020.631446,592.164754,-8956.491898,0.000000
1020.631770,740.205942,-9400.615463,-536.266849
1020.632094,0.000000,-9844.739029,-766.095498
1020.632418,-2146.597232,-9622.677246,0.000000
1020.632741,-2294.638420,-9548.656652,-536.266849
1020.633065,0.000000,-9474.636058,229.828649
1020.633389,1332.370696,-10214.842000,919.314598
1020.633713,1110.308913,-9622.677246,0.000000
1020.634037,370.102971,-8512.368333,0.000000
1020.634361,148.041188,-8734.430116,229.828649
1020.634685,888.247130,-9770.718434,459.657299
1020.635009,518.144159,-10066.800811,1225.752797
1020.635333,-370.102971,-9770.718434,1149.143247
1020.635656,-518.144159,-9770.718434,76.609550
1020.635980,0.000000,-8882.471304,-459.657299
1020.636304,222.061783,-9104.533087,-229.828649
1020.636628,296.082377,-9696.697840,229.828649
1020.636952,814.226536,-10658.965565,76.609550
1020.637276,148.041188,-10066.800811,919.314598
1020.637600,-370.102971,-9918.759623,306.438199
1020.637924,-1258.350101,-8734.430116,-459.657299
1020.638247,-1776.494261,-9400.615463,-153.219100
1020.638571,-1554.432478,-10436.903782,-229.828649
1020.638895,-592.164754,-10288.862594,306.438199
1020.639219,-148.041188,-9844.739029,842.705048
1020.639543,518.144159,-9548.656652,536.266849
1020.639867,0.000000,-10066.800811,459.657299
1020.640191,-296.082377,-10140.821405,-229.828649
1020.640515,-1036.288319,-10140.821405,-229.828649
1020.640838,-2072.576638,-10510.924376,0.000000
1020.641162,-2368.659014,-10214.842000,0.000000
1020.641486,-1110.308913,-8512.368333,0.000000
1020.641810,-518.144159,-8438.347739,-766.095498
1020.642134,-518.144159,-9474.636058,-919.314598
1020.642458,740.205942,-10658.965565,-383.047749
1020.642782,1702.473667,-11177.109724,536.266849
1020.643106,1776.494261,-10362.883188,1302.362347
1020.643430,1776.494261,-9548.656652,919.314598
1020.643753,1480.411884,-9770.718434,1225.752797
1020.644077,592.164754,-9992.780217,1149.143247
1020.644401,222.061783,-10066.800811,383.047749
1020.644725,0.000000,-9104.533087,459.657299
1020.645049,-148.041188,-8808.450710,459.657299
1020.645373,296.082377,-8734.430116,306.438199
1020.645697,-296.082377,-9104.533087,612.876398
1020.646021,-888.247130,-8512.368333,-383.047749
1020.646344,-1184.329507,-7920.203579,-1225.752797
1020.646668,-1184.329507,-8290.306550,-1532.190996
1020.646992,74.020594,-9178.553681,-153.219100
1020.647316,1332.370696,-9770.718434,306.438199
1020.647640,2294.638420,-9104.533087,536.266849
1020.647964,1184.329507,-9178.553681,459.657299
1020.648288,74.020594,-9548.656652,-306.438199
1020.648612,-444.123565,-9992.780217,0.000000
1020.648935,0.000000,-10658.965565,612.876398
1020.649259,1184.329507,-10584.944971,1225.752797
1020.649583,1258.350101,-9992.780217,1072.533697
1020.649907,592.164754,-10436.903782,689.485948
1020.650231,-444.123565,-10066.800811,-306.438199
1020.650555,0.000000,-9622.677246,-383.047749
1020.650879,-1554.432478,-9474.636058,-612.876398
1020.651203,-1776.494261,-10584.944971,-459.657299
1020.651526,-2664.741391,-10436.903782,-612.876398
1020.651850,-1554.432478,-9696.697840,-995.924147
1020.652174,-592.164754,-9474.636058,0.000000
1020.652498,0.000000,-10140.821405,-1149.143247
1020.652822,-444.123565,-10288.862594,-842.705048
1020.653146,-1184.329507,-9696.697840,-842.705048
1020.653470,-1184.329507,-8660.409521,-919.314598
1020.653794,-814.226536,-10288.862594,-153.219100
1020.654118,0.000000,-10436.903782,-612.876398
1020.654441,592.164754,-10288.862594,-229.828649
1020.654765,814.226536,-9844.739029,-612.876398
1020.655089,740.205942,-9252.574275,-919.314598
1020.655413,518.144159,-9844.739029,153.219100
1020.655737,74.020594,-10362.883188,0.000000
1020.656061,-370.102971,-10436.903782,-383.047749
1020.656385,-592.164754,-9918.759623,-1072.533697
1020.656709,-296.082377,-9918.759623,-536.266849
1020.657032,1406.391290,-10214.842000,-459.657299
1020.657356,1924.535449,-10510.924376,-229.828649
1020.657680,1258.350101,-9696.697840,229.828649
1020.658004,1110.308913,-9918.759623,383.047749
1020.658328,148.041188,-9474.636058,-689.485948
1020.658652,-814.226536,-8660.409521,-1072.533697
1020.658976,-1110.308913,-8364.327145,-1378.971896
1020.659300,-666.185348,-8512.368333,-229.828649
1020.659623,74.020594,-9696.697840,-306.438199
1020.659947,1036.288319,-9104.533087,919.314598
1020.660271,1036.288319,-8364.327145,766.095498
1020.660595,518.144159,-7698.141797,-229.828649
1020.660919,0.000000,-7994.224174,-459.657299
1020.661243,-666.185348,-8882.471304,-689.485948
1020.661567,74.020594,-9400.615463,-153.219100
1020.661891,518.144159,-9474.636058,76.609550
1020.662214,740.205942,-9474.636058,-153.219100
1020.662538,740.205942,-9178.553681,-689.485948
1020.662862,444.123565,-9548.656652,-459.657299
1020.663186,222.061783,-10436.903782,0.000000
1020.663510,296.082377,-10362.883188,766.095498
1020.663834,518.144159,-10288.862594,689.485948
1020.664158,-740.205942,-11029.068536,766.095498
1020.664482,-1628.453072,-12287.418637,1072.533697
1020.664806,-1480.411884,-11029.068536,0.000000
1020.665129,-1480.411884,-9918.759623,-153.219100
1020.665454,-2220.617826,-10066.800811,536.266849
1020.665778,-740.205942,-9696.697840,919.314598
1020.666102,-518.144159,-10288.862594,1072.533697
1020.666426,-1924.535449,-9770.718434,459.657299
1020.666750,-2368.659014,-8956.491898,-229.828649
1020.667074,-1628.453072,-9622.677246,459.657299
1020.667398,-222.061783,-10658.965565,919.314598
1020.667722,1258.350101,-9474.636058,459.657299
1020.668046,2146.597232,-8142.265362,766.095498
1020.668370,1406.391290,-8512.368333,689.485948
1020.668695,1110.308913,-9844.739029,-153.219100
1020.669019,888.247130,-10658.965565,995.924147
1020.669343,370.102971,-9548.656652,842.705048
1020.669667,0.000000,-8660.409521,0.000000
1020.669991,-1258.350101,-9104.533087,459.657299
1020.670315,-1554.432478,-9992.780217,0.000000
1020.670639,-666.185348,-9770.718434,383.047749
1020.670963,-296.082377,-10214.842000,612.876398
1020.671287,-222.061783,-9918.759623,536.266849
1020.671612,-370.102971,-10140.821405,919.314598
1020.671936,-1036.288319,-11029.068536,1302.362347
1020.672260,-1480.411884,-10140.821405,842.705048
1020.672584,-1776.494261,-9400.615463,-306.438199
1020.672908,-2368.659014,-9178.553681,459.657299
1020.673232,-296.082377,-10362.883188,689.485948
1020.673556,1332.370696,-9548.656652,766.095498
1020.673880,2220.617826,-8808.450710,1685.410096
1020.674204,1406.391290,-8438.347739,612.876398
1020.674528,148.041188,-8438.347739,-995.924147
1020.674853,-592.164754,-9030.512492,-612.876398
1020.675177,222.061783,-9622.677246,153.219100
1020.675501,1776.494261,-9326.594869,-842.705048
1020.675825,1258.350101,-8216.285956,-306.438199
1020.676149,592.164754,-8142.265362,229.828649
1020.676473,1036.288319,-8882.471304,-459.657299
1020.676797,1998.556043,-9252.574275,76.609550
1020.677121,1628.453072,-9104.533087,459.657299
1020.677445,1184.329507,-8586.388927,0.000000
1020.677770,592.164754,-9622.677246,459.657299
1020.678094,74.020594,-9474.636058,995.924147
1020.678418,74.020594,-9548.656652,229.828649
1020.678742,-592.164754,-9622.677246,-919.314598
1020.679066,-1258.350101,-10066.800811,-306.438199
1020.679390,-1036.288319,-10436.903782,0.000000
1020.679714,-148.041188,-11029.068536,-612.876398
1020.680038,-666.185348,-9918.759623,0.000000
1020.680362,-1036.288319,-9622.677246,-153.219100
1020.680686,-1554.432478,-11103.089130,-995.924147
1020.681011,-962.267725,-10732.986159,-1762.019645
1020.681335,-370.102971,-9474.636058,-842.705048
1020.681659,-666.185348,-9992.780217,306.438199
1020.681983,148.041188,-10807.006753,-153.219100
1020.682307,518.144159,-9844.739029,0.000000
1020.682631,962.267725,-8956.491898,76.609550
1020.682955,1480.411884,-9548.656652,-459.657299
1020.683279,1628.453072,-10066.800811,-306.438199
1020.683603,1110.308913,-9992.780217,-229.828649
1020.683928,222.061783,-9770.718434,-995.924147
1020.684252,-592.164754,-9622.677246,-1378.971896
1020.684576,-1702.473667,-9474.636058,-1991.848295
1020.684900,-2294.638420,-10510.924376,-1915.238745
1020.685224,-1480.411884,-10658.965565,-1762.019645
1020.685548,-888.247130,-10140.821405,-1072.533697
1020.685872,-444.123565,-10510.924376,-766.095498
1020.686196,-518.144159,-10436.903782,-612.876398
1020.686520,-518.144159,-10732.986159,-842.705048
1020.686844,-962.267725,-10436.903782,-1072.533697
1020.687169,-666.185348,-9844.739029,306.438199
1020.687493,-666.185348,-10140.821405,76.609550
1020.687817,-518.144159,-10066.800811,76.609550
1020.688141,-1110.308913,-9104.533087,-612.876398
1020.688465,-740.205942,-8216.285956,-1455.581446
1020.688789,-222.061783,-8438.347739,-1685.410096
1020.689113,444.123565,-8660.409521,-766.095498
1020.689437,2442.679609,-9918.759623,306.438199
1020.689761,2294.638420,-7698.141797,612.876398
1020.690086,2812.782580,-7179.997637,0.000000
1020.690410,1332.370696,-7994.224174,0.000000
1020.690734,1110.308913,-9474.636058,-383.047749
1020.691058,1998.556043,-9030.512492,0.000000
1020.691382,2886.803174,-8586.388927,995.924147
1020.691706,2664.741391,-8660.409521,229.828649
1020.692030,1850.514855,-9178.553681,-153.219100
1020.692354,-296.082377,-9548.656652,-153.219100
1020.692678,-666.185348,-10140.821405,0.000000
1020.693002,-962.267725,-9548.656652,-1225.752797
1020.693327,-1628.453072,-10140.821405,-459.657299
1020.693651,-1998.556043,-11547.212695,612.876398
1020.693975,-1258.350101,-11177.109724,-536.266849
1020.694299,-814.226536,-9474.636058,0.000000
1020.694623,-962.267725,-10362.883188,536.266849
1020.694947,-740.205942,-11547.212695,536.266849
1020.695271,0.000000,-11695.253884,459.657299
1020.695595,518.144159,-10510.924376,1532.190996
1020.695919,962.267725,-10658.965565,1762.019645
1020.696244,518.144159,-11325.150913,1378.971896
1020.696568,0.000000,-11177.109724,1149.143247
1020.696892,-592.164754,-10955.047942,1378.971896
1020.697216,-592.164754,-9326.594869,1302.362347
1020.697540,-740.205942,-8956.491898,-612.876398
1020.697864,-1184.329507,-8956.491898,536.266849
1020.698188,-444.123565,-9696.697840,536.266849
1020.698512,444.123565,-9400.615463,229.828649
1020.698836,148.041188,-9104.533087,1302.362347
1020.699160,-888.247130,-9770.718434,1838.629195
1020.699485,-962.267725,-9474.636058,1532.190996
1020.699809,-296.082377,-9400.615463,536.266849
1020.700133,-888.247130,-8586.388927,842.705048
1020.700457,-888.247130,-8290.306550,0.000000
1020.700781,74.020594,-9918.759623,1762.019645
1020.701105,814.226536,-11547.212695,2528.115143
1020.701429,1406.391290,-9992.780217,1685.410096
1020.701753,444.123565,-7772.162391,1378.971896
1020.702077,-1406.391290,-8882.471304,1072.533697
1020.702402,-1702.473667,-10584.944971,689.485948
1020.702726,-1406.391290,-9770.718434,153.219100
1020.703050,-1554.432478,-8438.347739,1225.752797
1020.703374,-1110.308913,-8142.265362,0.000000
1020.703698,-740.205942,-8364.327145,0.000000
1020.704022,962.267725,-9326.594869,1302.362347
1020.704346,1406.391290,-8956.491898,612.876398
1020.704670,740.205942,-7772.162391,-459.657299
1020.704994,-1332.370696,-7105.977043,-1072.533697
1020.705318,-1554.432478,-7550.100608,-689.485948
1020.705643,-148.041188,-8660.409521,-1149.143247
1020.705967,888.247130,-9030.512492,-766.095498
1020.706291,1258.350101,-9474.636058,-383.047749
1020.706615,2072.576638,-9992.780217,0.000000
1020.706939,2442.679609,-10807.006753,-1072.533697
1020.707263,1480.411884,-10066.800811,-153.219100
1020.707587,1702.473667,-11177.109724,76.609550
1020.707911,1036.288319,-12287.418637,-1455.581446
1020.708235,0.000000,-11325.150913,-1225.752797
1020.708560,74.020594,-11103.089130,-995.924147
1020.708884,296.082377,-11325.150913,76.609550
1020.709208,1110.308913,-11843.295072,-1072.533697
1020.709532,-296.082377,-10214.842000,-1762.019645
1020.709856,-1480.411884,-10362.883188,-1225.752797
1020.710180,-444.123565,-11547.212695,-1608.800546
1020.710504,-222.061783,-11103.089130,-1378.971896
1020.710828,-1628.453072,-9918.759623,-689.485948
1020.711152,-1850.514855,-9844.739029,-1532.190996
1020.711476,-1702.473667,-9770.718434,-2145.067394
1020.711801,-814.226536,-9992.780217,-1225.752797
1020.712125,518.144159,-9030.512492,-612.876398
1020.712449,1406.391290,-8660.409521,-1072.533697
1020.712773,592.164754,-9252.574275,-919.314598
1020.713097,666.185348,-9548.656652,-536.266849
1020.713421,1628.453072,-9252.574275,-153.219100
1020.713745,962.267725,-8956.491898,0.000000
1020.714069,296.082377,-9474.636058,153.219100
1020.714393,0.000000,-10436.903782,612.876398
1020.714718,666.185348,-10807.006753,842.705048
1020.715042,888.247130,-9770.718434,536.266849
1020.715366,444.123565,-8438.347739,-76.609550
1020.715690,-222.061783,-8142.265362,-1608.800546
1020.716014,-518.144159,-8956.491898,-1072.533697
1020.716338,-814.226536,-9844.739029,612.876398
1020.716662,-1036.288319,-9326.594869,689.485948
1020.716986,-1332.370696,-8364.327145,306.438199
1020.717310,-2146.597232,-7476.080014,-1072.533697
1020.717634,-1628.453072,-8216.285956,-536.266849
1020.717959,0.000000,-8882.471304,-536.266849
1020.718283,740.205942,-10066.800811,1149.143247
1020.718607,0.000000,-10881.027347,2221.676944
1020.718931,0.000000,-9178.553681,689.485948
1020.719255,-666.185348,-7254.018232,459.657299
1020.719579,-666.185348,-8364.327145,-383.047749
1020.719903,222.061783,-10214.842000,-459.657299
1020.720227,740.205942,-10510.924376,-383.047749
1020.720551,222.061783,-8956.491898,306.438199
1020.720876,-666.185348,-8438.347739,-306.438199
1020.721200,-962.267725,-9844.739029,-383.047749
1020.721524,-1110.308913,-11695.253884,-153.219100
1020.721848,-740.205942,-11399.171507,0.000000
1020.722172,518.144159,-11695.253884,0.000000
1020.722496,1406.391290,-10658.965565,612.876398
1020.722820,2072.576638,-10807.006753,1378.971896
1020.723144,1258.350101,-11251.130318,1302.362347
1020.723468,0.000000,-11769.274478,766.095498
1020.723792,-740.205942,-10732.986159,842.705048
1020.724117,-666.185348,-9992.780217,1149.143247
1020.724441,-370.102971,-10732.986159,995.924147
1020.724765,-296.082377,-9770.718434,0.000000
1020.725089,-814.226536,-9474.636058,229.828649
1020.725413,-1332.370696,-10362.883188,153.219100
1020.725737,-444.123565,-10510.924376,229.828649
1020.726061,-370.102971,-9548.656652,842.705048
1020.726385,-1258.350101,-7698.141797,689.485948
1020.726709,-888.247130,-7846.182985,76.609550
1020.727034,-666.185348,-9696.697840,766.095498
1020.727358,222.061783,-11103.089130,1302.362347
1020.727682,1258.350101,-10288.862594,1072.533697
1020.728006,1406.391290,-8512.368333,995.924147
1020.728330,888.247130,-7920.203579,1149.143247
1020.728654,962.267725,-9474.636058,1302.362347
1020.728978,666.185348,-11177.109724,2298.286494
1020.729302,592.164754,-10066.800811,1991.848295
1020.729626,0.000000,-8142.265362,383.047749
1020.729950,-1110.308913,-7476.080014,383.047749
1020.730275,-2072.576638,-8586.388927,383.047749
1020.730599,-962.267725,-8438.347739,0.000000
1020.730923,0.000000,-8364.327145,1455.581446
1020.731247,444.123565,-8290.306550,689.485948
1020.731571,-148.041188,-8808.450710,1072.533697
1020.731895,-1036.288319,-8438.347739,0.000000
1020.732219,-666.185348,-7402.059420,-689.485948
1020.732543,370.102971,-7550.100608,-383.047749
1020.732867,1702.473667,-8438.347739,689.485948
1020.733192,1776.494261,-10510.924376,1072.533697
1020.733516,1332.370696,-9548.656652,612.876398
1020.733840,1110.308913,-8660.409521,612.876398
1020.734164,592.164754,-9400.615463,-229.828649
1020.734488,296.082377,-10510.924376,-1072.533697
1020.734812,74.020594,-10362.883188,0.000000
1020.735136,888.247130,-10066.800811,306.438199
1020.735460,1110.308913,-10066.800811,-536.266849
1020.735784,222.061783,-10362.883188,-229.828649
1020.736108,-296.082377,-11399.171507,-919.314598
1020.736433,-740.205942,-10584.944971,-1915.238745
1020.736757,-518.144159,-9622.677246,-2221.676944
1020.737081,-1702.473667,-10066.800811,-1685.410096
1020.737405,-1110.308913,-11547.212695,-1838.629195
1020.737729,0.000000,-11917.315666,-1608.800546
1020.738053,-222.061783,-10955.047942,-153.219100
1020.738377,0.000000,-10362.883188,-1302.362347
1020.738701,-370.102971,-9696.697840,-2145.067394
1020.739025,-370.102971,-10955.047942,-995.924147
1020.739350,222.061783,-11991.336260,-612.876398
1020.739674,1258.350101,-11843.295072,-919.314598
1020.739998,370.102971,-10881.027347,0.000000
1020.740322,592.164754,-10510.924376,1225.752797
1020.740646,1702.473667,-10658.965565,76.609550
1020.740970,1480.411884,-9548.656652,-383.047749
1020.741294,-592.164754,-7772.162391,-1532.190996
1020.741618,-1554.432478,-9178.553681,-1762.019645
1020.741942,-2146.597232,-10584.944971,-2528.115143
1020.742266,-1924.535449,-9770.718434,-2451.505594
1020.742591,-2368.659014,-9252.574275,-1838.629195
1020.742915,-3108.864956,-8882.471304,-2451.505594
1020.743239,-2368.659014,-9770.718434,-1532.190996
1020.743563,-888.247130,-9992.780217,-612.876398
1020.743887,1332.370696,-9178.553681,766.095498
1020.744211,1924.535449,-9474.636058,1225.752797
1020.744535,888.247130,-9326.594869,766.095498
1020.744859,444.123565,-10140.821405,1378.971896
1020.745183,888.247130,-10288.862594,1915.238745
1020.745508,1554.432478,-9326.594869,1149.143247
1020.745832,370.102971,-8660.409521,995.924147
1020.746156,-296.082377,-8438.347739,842.705048
1020.746480,444.123565,-9178.553681,919.314598
1020.746804,1036.288319,-8660.409521,-459.657299
1020.747128,-370.102971,-7476.080014,-1225.752797
1020.747452,-592.164754,-6661.853478,-306.438199
1020.747776,444.123565,-7698.141797,0.000000
1020.748100,740.205942,-8216.285956,229.828649
1020.748424,74.020594,-8216.285956,995.924147
1020.748749,-740.205942,-7698.141797,0.000000
1020.749073,592.164754,-9030.512492,1455.581446
1020.749397,1628.453072,-10066.800811,919.314598
1020.749721,2220.617826,-8808.450710,2221.676944
1020.750045,1406.391290,-8586.388927,1762.019645
1020.750369,-296.082377,-9622.677246,842.705048
1020.750693,-1036.288319,-11177.109724,766.095498
1020.751017,-814.226536,-10288.862594,0.000000
1020.751341,-296.082377,-9400.615463,0.000000
1020.751666,-444.123565,-10140.821405,-842.705048
1020.751990,148.041188,-10732.986159,0.000000
1020.752314,1332.370696,-11177.109724,306.438199
1020.752638,1036.288319,-11843.295072,689.485948
1020.752962,148.041188,-11917.315666,842.705048
1020.753286,-148.041188,-11251.130318,689.485948
1020.753610,-592.164754,-10807.006753,153.219100
1020.753934,-1480.411884,-11251.130318,612.876398
1020.754258,-2072.576638,-11029.068536,229.828649
1020.754582,-2294.638420,-9770.718434,-995.924147
1020.754907,-3108.864956,-9474.636058,0.000000
1020.755231,-2590.720797,-9918.759623,0.000000
1020.755555,-592.164754,-9622.677246,-306.438199
1020.755879,1036.288319,-8808.450710,0.000000
1020.756203,962.267725,-9104.533087,306.438199
1020.756527,1258.350101,-9252.574275,-229.828649
1020.756851,814.226536,-10140.821405,-383.047749
1020.757175,0.000000,-9622.677246,-306.438199
1020.757499,-1036.288319,-10510.924376,153.219100
1020.757824,-222.061783,-11695.253884,76.609550
1020.758148,888.247130,-10955.047942,306.438199
1020.758472,592.164754,-8808.450710,612.876398
1020.758796,74.020594,-8438.347739,-612.876398
1020.759120,-592.164754,-8956.491898,-766.095498
1020.759444,-1036.288319,-10140.821405,-919.314598
1020.759768,-1850.514855,-10362.883188,-306.438199
1020.760092,-2220.617826,-8660.409521,-1072.533697
1020.760416,-2368.659014,-7031.956449,-1378.971896
1020.760740,-2368.659014,-8512.368333,306.438199
1020.761065,-592.164754,-9696.697840,536.266849
1020.761389,444.123565,-9252.574275,612.876398
1020.761713,888.247130,-8438.347739,612.876398
1020.762037,1924.535449,-8068.244768,153.219100
1020.762361,2664.741391,-8734.430116,383.047749
1020.762685,2738.761985,-9104.533087,0.000000
1020.763009,1406.391290,-8216.285956,-153.219100
1020.763333,-296.082377,-8808.450710,-459.657299
1020.763657,-666.185348,-9474.636058,-536.266849
1020.763982,444.123565,-9400.615463,0.000000
1020.764306,2072.576638,-7994.224174,-995.924147
1020.764630,2220.617826,-7920.203579,-995.924147
1020.764954,1110.308913,-10214.842000,-306.438199
1020.765278,740.205942,-11991.336260,-536.266849
1020.765602,740.205942,-10510.924376,-612.876398
1020.765927,74.020594,-9474.636058,766.095498
1020.766251,-888.247130,-9844.739029,-1225.752797
1020.766575,-814.226536,-11251.130318,-612.876398
1020.766899,74.020594,-11991.336260,229.828649
1020.767224,1332.370696,-11695.253884,1072.533697
1020.767548,1924.535449,-10732.986159,0.000000
1020.767872,444.123565,-10214.842000,766.095498
1020.768196,-592.164754,-10807.006753,536.266849
1020.768520,-592.164754,-10881.027347,-1072.533697
1020.768844,-740.205942,-10066.800811,-1149.143247
1020.769169,-2368.659014,-9326.594869,-612.876398
1020.769493,-2442.679609,-9844.739029,-383.047749
1020.769817,-1110.308913,-9918.759623,-612.876398
1020.770141,962.267725,-9474.636058,153.219100
1020.770465,1258.350101,-9252.574275,-306.438199
1020.770789,888.247130,-9178.553681,-842.705048
1020.771114,-370.102971,-10066.800811,-459.657299
1020.771438,148.041188,-10066.800811,-383.047749
1020.771762,222.061783,-9548.656652,689.485948
1020.772086,-1406.391290,-9474.636058,-995.924147
1020.772410,-2072.576638,-10066.800811,-842.705048
1020.772734,-2368.659014,-9548.656652,-689.485948
1020.773058,-814.226536,-9474.636058,-612.876398
1020.773383,0.000000,-9622.677246,-229.828649
1020.773707,0.000000,-9400.615463,153.219100
1020.774031,0.000000,-10658.965565,383.047749
1020.774355,-518.144159,-9844.739029,766.095498
1020.774679,-148.041188,-10066.800811,383.047749
1020.775003,-1332.370696,-9844.739029,-153.219100
1020.775328,-1110.308913,-9918.759623,-153.219100
1020.775652,-592.164754,-9844.739029,0.000000
1020.775976,-444.123565,-9326.594869,995.924147
1020.776300,296.082377,-9252.574275,229.828649
1020.776624,444.123565,-8808.450710,229.828649
1020.776948,518.144159,-9400.615463,689.485948
1020.777272,1554.432478,-9178.553681,689.485948
1020.777597,1332.370696,-7994.224174,919.314598
1020.777921,0.000000,-7105.977043,536.266849
1020.778245,-444.123565,-7698.141797,76.609550
1020.778569,0.000000,-8216.285956,153.219100
1020.778893,1036.288319,-8216.285956,919.314598
1020.779217,518.144159,-9030.512492,1072.533697
1020.779542,518.144159,-8586.388927,536.266849
1020.779866,444.123565,-8216.285956,-153.219100
1020.780190,148.041188,-9104.533087,0.000000
1020.780514,0.000000,-10140.821405,-459.657299
1020.780838,-222.061783,-10436.903782,-1149.143247
1020.781162,-370.102971,-10658.965565,536.266849
1020.781486,0.000000,-10658.965565,-383.047749
1020.781811,296.082377,-10510.924376,-306.438199
1020.782135,-148.041188,-10881.027347,229.828649
1020.782459,0.000000,-11547.212695,536.266849
1020.782783,296.082377,-12065.356855,76.609550
1020.783107,-148.041188,-10732.986159,0.000000
1020.783431,-444.123565,-10510.924376,0.000000
1020.783756,-1332.370696,-11029.068536,-383.047749
1020.784080,-592.164754,-11769.274478,306.438199
1020.784404,-370.102971,-11325.150913,0.000000
1020.784728,-222.061783,-9622.677246,-689.485948
1020.785052,-740.205942,-9252.574275,-1225.752797
1020.785376,0.000000,-9400.615463,-1378.971896
1020.785700,148.041188,-9178.553681,-689.485948
1020.786025,518.144159,-9992.780217,-383.047749
1020.786349,444.123565,-9918.759623,-612.876398
1020.786673,0.000000,-8956.491898,-1608.800546
1020.786997,-518.144159,-8364.327145,-1149.143247
1020.787321,-74.020594,-9104.533087,-919.314598
1020.787645,1110.308913,-10510.924376,153.219100
1020.787970,2072.576638,-10881.027347,459.657299
1020.788294,1924.535449,-9992.780217,1302.362347
1020.788618,2072.576638,-9400.615463,612.876398
1020.788942,1850.514855,-8734.430116,-383.047749
1020.789266,1554.432478,-9474.636058,0.000000
1020.789590,222.061783,-10066.800811,-1225.752797
1020.789914,-1184.329507,-9844.739029,-153.219100
1020.790239,-1258.350101,-9252.574275,-459.657299
1020.790563,-740.205942,-8956.491898,-766.095498
1020.790887,-1406.391290,-7698.141797,-1608.800546
1020.791211,-2146.597232,-7624.121203,-1991.848295
1020.791535,-1406.391290,-8956.491898,-1915.238745
1020.791859,-444.123565,-9400.615463,-766.095498
1020.792184,0.000000,-8808.450710,76.609550
1020.792508,-740.205942,-7994.224174,-229.828649
1020.792832,-1258.350101,-9030.512492,0.000000
1020.793156,74.020594,-10066.800811,-919.314598
1020.793480,1110.308913,-9400.615463,229.828649
1020.793804,962.267725,-9770.718434,229.828649
1020.794128,296.082377,-9992.780217,76.609550
1020.794453,0.000000,-10436.903782,0.000000
1020.794777,0.000000,-10436.903782,0.000000
1020.795101,-666.185348,-10066.800811,-1378.971896
1020.795425,-1850.514855,-9548.656652,-2374.896044
1020.795749,-1924.535449,-10658.965565,-612.876398
1020.796073,-1036.288319,-11103.089130,-612.876398
1020.796398,0.000000,-10362.883188,-229.828649
1020.796722,-1258.350101,-10140.821405,229.828649
1020.797046,-1480.411884,-10584.944971,0.000000
1020.797370,-592.164754,-10658.965565,-383.047749
1020.797694,-296.082377,-10584.944971,1072.533697
1020.798018,518.144159,-10658.965565,1685.410096
1020.798343,444.123565,-10658.965565,229.828649
1020.798667,444.123565,-11251.130318,1455.581446
1020.798991,444.123565,-10658.965565,689.485948
1020.799315,518.144159,-10066.800811,229.828649
1020.799639,-370.102971,-10066.800811,383.047749
1020.799963,-370.102971,-10140.821405,536.266849
1020.800287,148.041188,-9622.677246,-306.438199
1020.800612,592.164754,-8882.471304,76.609550
1020.800936,296.082377,-8956.491898,0.000000
1020.801260,0.000000,-9030.512492,-536.266849
1020.801584,-444.123565,-9992.780217,459.657299
1020.801908,0.000000,-9622.677246,0.000000
1020.802232,740.205942,-8438.347739,383.047749
1020.802557,888.247130,-8882.471304,766.095498
1020.802881,888.247130,-10140.821405,383.047749
1020.803205,592.164754,-9622.677246,689.485948
1020.803529,666.185348,-8438.347739,995.924147
1020.803853,888.247130,-8364.327145,1378.971896
1020.804177,814.226536,-8586.388927,1225.752797
1020.804501,740.205942,-8808.450710,1302.362347
1020.804826,592.164754,-8586.388927,995.924147
1020.805150,592.164754,-8438.347739,229.828649
1020.805474,-592.164754,-7994.224174,-1149.143247
1020.805798,-296.082377,-8290.306550,-1149.143247
1020.806122,-814.226536,-8956.491898,-383.047749
1020.806446,-518.144159,-8290.306550,-689.485948
1020.806771,444.123565,-8808.450710,-383.047749
1020.807095,-370.102971,-9622.677246,-306.438199
1020.807419,-444.123565,-9844.739029,-306.438199
1020.807743,74.020594,-9770.718434,-689.485948
1020.808067,148.041188,-8956.491898,0.000000
1020.808391,296.082377,-9770.718434,-306.438199
1020.808715,0.000000,-10881.027347,-153.219100
1020.809040,-296.082377,-11695.253884,0.000000
1020.809364,-222.061783,-10362.883188,-383.047749
1020.809688,592.164754,-9548.656652,-689.485948
1020.810012,222.061783,-10066.800811,-842.705048
1020.810336,-444.123565,-11769.274478,-766.095498
1020.810660,-666.185348,-11473.192101,-689.485948
1020.810985,0.000000,-9770.718434,-1225.752797
1020.811309,-370.102971,-10955.047942,-919.314598
1020.811633,-1110.308913,-12139.377449,-306.438199
1020.811957,-1480.411884,-11547.212695,-1149.143247
1020.812281,-1480.411884,-9474.636058,-1455.581446
1020.812605,-1776.494261,-8438.347739,-1915.238745
1020.812929,-1332.370696,-9992.780217,-1685.410096
1020.813254,0.000000,-11399.171507,0.000000
1020.813578,1258.350101,-11103.089130,612.876398
1020.813902,1628.453072,-9844.739029,1072.533697
1020.814226,592.164754,-9992.780217,76.609550
1020.814550,-148.041188,-9992.780217,-842.705048
1020.814874,74.020594,-10955.047942,383.047749
1020.815199,666.185348,-10807.006753,842.705048
1020.815523,370.102971,-10436.903782,-612.876398
1020.815847,-962.267725,-9030.512492,-306.438199
1020.816171,-1480.411884,-9030.512492,0.000000
1020.816495,-222.061783,-9696.697840,-919.314598
1020.816819,444.123565,-9548.656652,-306.438199
1020.817143,-740.205942,-9104.533087,-306.438199
1020.817468,-740.205942,-8142.265362,-995.924147
1020.817792,-296.082377,-8734.430116,842.705048
1020.818116,148.041188,-8364.327145,766.095498
1020.818440,0.000000,-7772.162391,536.266849
1020.818764,-370.102971,-7698.141797,229.828649
1020.819088,-222.061783,-7994.224174,0.000000
1020.819413,296.082377,-7772.162391,459.657299
1020.819737,814.226536,-7105.977043,766.095498
1020.820061,1184.329507,-7846.182985,842.705048
1020.820385,1554.432478,-8882.471304,1072.533697
1020.820709,1554.432478,-9178.553681,306.438199
1020.821033,1184.329507,-7624.121203,-153.219100
1020.821358,444.123565,-7698.141797,-612.876398
1020.821682,-370.102971,-9178.553681,-536.266849
1020.822006,-222.061783,-9992.780217,-459.657299
1020.822330,0.000000,-10214.842000,-766.095498
1020.822654,74.020594,-9918.759623,-689.485948
1020.822978,444.123565,-9918.759623,-995.924147
1020.823302,370.102971,-10510.924376,-842.705048
1020.823627,-444.123565,-11695.253884,-766.095498
1020.823951,0.000000,-11769.274478,-306.438199
1020.824275,740.205942,-10658.965565,-689.485948
1020.824599,222.061783,-10658.965565,-306.438199
1020.824923,-370.102971,-11547.212695,0.000000
1020.825247,296.082377,-12213.398043,306.438199
1020.825572,444.123565,-10732.986159,0.000000
1020.825896,592.164754,-10807.006753,-229.828649
1020.826220,222.061783,-11103.089130,-995.924147
1020.826544,-74.020594,-11843.295072,-383.047749
1020.826868,0.000000,-11843.295072,-153.219100
1020.827192,-370.102971,-10658.965565,-306.438199
1020.827516,-740.205942,-9992.780217,153.219100
1020.827841,1406.391290,-9474.636058,-459.657299
1020.828165,1702.473667,-10436.903782,229.828649
1020.828489,962.267725,-10732.986159,0.000000
1020.828813,444.123565,-9474.636058,-612.876398
1020.829137,-1110.308913,-9992.780217,383.047749
1020.829461,-1332.370696,-10140.821405,229.828649
1020.829786,0.000000,-8512.368333,0.000000
1020.830110,148.041188,-7846.182985,689.485948
1020.830434,296.082377,-7550.100608,0.000000
1020.830758,0.000000,-8512.368333,229.828649
1020.831082,0.000000,-7846.182985,-306.438199
1020.831406,-740.205942,-7624.121203,306.438199
1020.831730,-1036.288319,-8290.306550,383.047749
1020.832055,-296.082377,-7994.224174,842.705048
1020.832379,296.082377,-8734.430116,153.219100
1020.832703,-296.082377,-7994.224174,-766.095498
1020.833027,74.020594,-6513.812290,-995.924147
1020.833351,518.144159,-7179.997637,-153.219100
1020.833675,1110.308913,-8438.347739,-766.095498
1020.834000,1184.329507,-8660.409521,-1072.533697
1020.834324,592.164754,-7846.182985,-1762.019645
1020.834648,1184.329507,-8364.327145,-3064.381992
1020.834972,2072.576638,-10214.842000,-2068.457845
1020.835296,3108.864956,-12065.356855,-995.924147
1020.835620,2960.823768,-11325.150913,-995.924147
1020.835944,2590.720797,-10214.842000,-995.924147
1020.836269,1850.514855,-10510.924376,-689.485948
1020.836593,2294.638420,-10881.027347,-1532.190996
1020.836917,2368.659014,-10732.986159,-2298.286494
1020.837241,1924.535449,-9918.759623,-1838.629195
1020.837565,3034.844362,-9992.780217,-2604.724693
1020.837889,4441.235652,-9844.739029,-3983.696590
1020.838214,4441.235652,-9030.512492,-3524.039291
1020.838538,3182.885551,-9770.718434,-3217.601092
1020.838862,2368.659014,-10881.027347,-4826.401637
1020.839186,666.185348,-10955.047942,-5286.058936
1020.839510,-814.226536,-11029.068536,-4213.525239
1020.839834,-370.102971,-11473.192101,-4136.915689
1020.840158,1406.391290,-11251.130318,-3830.477490
1020.840483,1776.494261,-10955.047942,-2068.457845
1020.840807,3997.112087,-11103.089130,-1302.362347
1020.841131,5847.626942,-11843.295072,-995.924147
1020.841455,5921.647536,-11325.150913,0.000000
1020.841779,4959.379811,-10140.821405,-536.266849
1020.842103,3478.967927,-9992.780217,-1685.410096
1020.842428,2072.576638,-10140.821405,-2834.553343
1020.842752,1036.288319,-10436.903782,-3370.820191
1020.843076,-740.205942,-9178.553681,-3600.648841
1020.843400,-1332.370696,-8586.388927,-4366.744339
1020.843724,-1110.308913,-9030.512492,-3983.696590
1020.844048,222.061783,-9104.533087,-4596.572988
1020.844372,1332.370696,-8808.450710,-3524.039291
1020.844697,2146.597232,-8660.409521,-2604.724693
1020.845021,3552.988522,-8956.491898,-1838.629195
1020.845345,4663.297435,-9474.636058,-383.047749
1020.845669,5551.544565,-8586.388927,459.657299
1020.845993,5847.626942,-9030.512492,306.438199
1020.846317,4811.338623,-8808.450710,0.000000
1020.846642,3627.009116,-8438.347739,-1149.143247
1020.846966,1406.391290,-9400.615463,-1915.238745
1020.847290,0.000000,-9844.739029,-2068.457845
1020.847614,-962.267725,-8956.491898,-2298.286494
1020.847938,-1110.308913,-8142.265362,-3294.210641
1020.848262,-1184.329507,-8142.265362,-3294.210641
1020.848587,-1036.288319,-8956.491898,-3524.039291
1020.848911,0.000000,-8512.368333,-3677.258390
1020.849235,1184.329507,-8586.388927,-2834.553343
1020.849559,1924.535449,-9104.533087,-2451.505594
1020.849883,3108.864956,-8956.491898,-2451.505594
1020.850207,3182.885551,-10140.821405,-1378.971896
1020.850531,3034.844362,-10881.027347,-1455.581446
1020.850856,3701.029710,-10584.944971,-1225.752797
1020.851180,4367.215058,-10955.047942,-612.876398
1020.851504,4663.297435,-11473.192101,-766.095498
1020.851828,4515.256246,-11251.130318,0.000000
1020.852152,3404.947333,-11103.089130,-76.609550
1020.852476,1776.494261,-10732.986159,-1762.019645
1020.852801,370.102971,-10066.800811,-2298.286494
1020.853125,-222.061783,-10140.821405,-2221.676944
1020.853449,-888.247130,-9992.780217,-3907.087040
1020.853773,-1332.370696,-9474.636058,-4136.915689
1020.854097,-1110.308913,-9178.553681,-3447.429741
1020.854421,-740.205942,-9844.739029,-2834.553343
1020.854745,1332.370696,-9548.656652,-2987.772442
1020.855070,2220.617826,-8438.347739,-2757.943793
1020.855394,2590.720797,-9474.636058,-2298.286494
1020.855718,3552.988522,-11029.068536,-1838.629195
1020.856042,4959.379811,-11251.130318,-689.485948
1020.856366,5255.462188,-11621.233289,-153.219100
1020.856690,5255.462188,-11769.274478,-306.438199
1020.857015,4959.379811,-9992.780217,-1302.362347
1020.857339,3256.906145,-9400.615463,-1072.533697
1020.857663,1702.473667,-9918.759623,-1762.019645
1020.857987,2220.617826,-9252.574275,-3217.601092
1020.858311,666.185348,-8734.430116,-2834.553343
1020.858635,-296.082377,-8068.244768,-2987.772442
1020.858959,296.082377,-7105.977043,-4060.306139
1020.859284,444.123565,-7254.018232,-2757.943793
1020.859608,222.061783,-7550.100608,-2451.505594
1020.859932,1258.350101,-8290.306550,-2604.724693
1020.860256,1702.473667,-8882.471304,-1608.800546
1020.860580,2146.597232,-9696.697840,-612.876398
1020.860904,3182.885551,-9326.594869,-612.876398
1020.861229,3552.988522,-9474.636058,-229.828649
1020.861553,2812.782580,-10584.944971,0.000000
1020.861877,2886.803174,-10955.047942,-842.705048
1020.862201,3034.844362,-9474.636058,-919.314598
1020.862525,2442.679609,-9696.697840,-1608.800546
1020.862849,2072.576638,-9548.656652,-2528.115143
1020.863173,1110.308913,-9030.512492,-3907.087040
1020.863498,-296.082377,-9030.512492,-3524.039291
1020.863822,-740.205942,-9696.697840,-2911.162892
1020.864146,666.185348,-9696.697840,-2834.553343
1020.864470,1924.535449,-9252.574275,-2757.943793
1020.864794,2072.576638,-9104.533087,-1762.019645
1020.865118,3923.091493,-10362.883188,-1302.362347
1020.865443,6365.771101,-11621.233289,-1072.533697
1020.865767,5699.585753,-10732.986159,-383.047749
1020.866091,3404.947333,-10362.883188,-229.828649
1020.866415,2368.659014,-11251.130318,-1149.143247
1020.866739,2442.679609,-11251.130318,-1532.190996
1020.867063,2294.638420,-10288.862594,-2528.115143
1020.867387,962.267725,-9844.739029,-3600.648841
1020.867712,0.000000,-10436.903782,-3983.696590
1020.868036,962.267725,-10584.944971,-2757.943793
1020.868360,1776.494261,-9400.615463,-2757.943793
1020.868684,666.185348,-9178.553681,-2911.162892
1020.869008,-296.082377,-9622.677246,-2834.553343
1020.869332,222.061783,-9918.759623,-2451.505594
1020.869656,2072.576638,-9622.677246,-2221.676944
1020.869981,3552.988522,-8956.491898,-919.314598
1020.870305,3404.947333,-9770.718434,-1838.629195
1020.870629,3404.947333,-10955.047942,-1302.362347
1020.870953,3701.029710,-9474.636058,-689.485948
1020.871277,3923.091493,-8438.347739,-1532.190996
1020.871601,2738.761985,-8956.491898,-2604.724693
1020.871925,1110.308913,-9770.718434,-3294.210641
1020.872250,-296.082377,-8808.450710,-3140.991542
1020.872574,148.041188,-8438.347739,-2834.553343
1020.872898,1332.370696,-8660.409521,-3064.381992
1020.873222,1776.494261,-7994.224174,-3677.258390
1020.873546,2368.659014,-8586.388927,-2834.553343
1020.873870,2812.782580,-8808.450710,-2757.943793
1020.874194,2886.803174,-8956.491898,-2451.505594
1020.874518,2738.761985,-9326.594869,-1532.190996
1020.874843,3775.050304,-9622.677246,-919.314598
1020.875167,4441.235652,-9918.759623,-1149.143247
1020.875491,4515.256246,-9844.739029,-1762.019645
1020.875815,2812.782580,-10140.821405,-2145.067394
1020.876139,592.164754,-10732.986159,-2911.162892
1020.876463,-740.205942,-10955.047942,-3677.258390
1020.876787,74.020594,-9844.739029,-3600.648841
1020.877112,1554.432478,-8956.491898,-3524.039291
1020.877436,2368.659014,-9992.780217,-2757.943793
1020.877760,1776.494261,-10955.047942,-3447.429741
1020.878084,1110.308913,-11103.089130,-2834.553343
1020.878408,296.082377,-9622.677246,-2604.724693
1020.878732,1924.535449,-9400.615463,-1838.629195
1020.879056,4293.194464,-9770.718434,-1378.971896
1020.879381,5625.565159,-10436.903782,-1225.752797
1020.879705,5107.421000,-10955.047942,-2145.067394
1020.880029,3478.967927,-10732.986159,-1915.238745
1020.880353,1998.556043,-11177.109724,-2068.457845
1020.880677,592.164754,-10955.047942,-1838.629195
1020.881001,-740.205942,-9918.759623,-2451.505594
1020.881325,-1628.453072,-9104.533087,-3140.991542
1020.881650,-740.205942,-9030.512492,-3064.381992
1020.881974,1110.308913,-9474.636058,-2374.896044
1020.882298,2442.679609,-9918.759623,-1991.848295
1020.882622,2590.720797,-9474.636058,-383.047749
1020.882946,1998.556043,-8808.450710,-1149.143247
1020.883270,370.102971,-8142.265362,-1532.190996
1020.883594,-370.102971,-8586.388927,-1608.800546
1020.883919,0.000000,-9400.615463,-2068.457845
1020.884243,1184.329507,-9548.656652,-1838.629195
1020.884567,3034.844362,-9252.574275,-1302.362347
1020.884891,5033.400406,-8956.491898,-689.485948
1020.885215,5033.400406,-9178.553681,-766.095498
1020.885539,3849.070898,-9178.553681,-1378.971896
1020.885863,1258.350101,-9104.533087,-2374.896044
1020.886187,0.000000,-9030.512492,-2528.115143
1020.886512,-444.123565,-8956.491898,-2221.676944
1020.886836,370.102971,-9104.533087,-1838.629195
1020.887160,1850.514855,-9030.512492,-1378.971896
1020.887484,2664.741391,-9178.553681,-1225.752797
1020.887808,3478.967927,-9474.636058,0.000000
1020.888132,3404.947333,-9104.533087,-612.876398
1020.888456,3478.967927,-9400.615463,-383.047749
1020.888781,3404.947333,-9770.718434,-919.314598
1020.889105,3034.844362,-10140.821405,-1302.362347
1020.889429,2220.617826,-10584.944971,-2374.896044
1020.889753,1480.411884,-10584.944971,-2604.724693
1020.890077,666.185348,-10362.883188,-3830.477490
1020.890401,740.205942,-9918.759623,-4290.134789
1020.890725,888.247130,-9400.615463,-3983.696590
1020.891050,1850.514855,-9844.739029,-3370.820191
1020.891374,2812.782580,-10436.903782,-2528.115143
1020.891698,3108.864956,-10658.965565,-1915.238745
1020.892022,3701.029710,-10584.944971,-689.485948
1020.892346,3108.864956,-10066.800811,-1072.533697
1020.892670,3701.029710,-10066.800811,459.657299
1020.892994,3775.050304,-10288.862594,153.219100
1020.893319,3627.009116,-10732.986159,-536.266849
1020.893643,2590.720797,-10510.924376,-1225.752797
1020.893967,592.164754,-10066.800811,-2911.162892
1020.894291,-888.247130,-9548.656652,-4443.353888
1020.894615,-1702.473667,-9548.656652,-5209.449386
1020.894939,-2368.659014,-8882.471304,-5822.325785
1020.895263,-1776.494261,-8290.306550,-5745.716235
1020.895588,-222.061783,-8216.285956,-4826.401637
1020.895912,2220.617826,-8438.347739,-3217.601092
1020.896236,4293.194464,-8660.409521,-1762.019645
1020.896560,5699.585753,-8734.430116,-383.047749
1020.896884,6291.750507,-9474.636058,919.314598
1020.897208,6217.729913,-10807.006753,306.438199
1020.897532,5107.421000,-11103.089130,536.266849
1020.897857,4219.173869,-10807.006753,306.438199
1020.898181,2590.720797,-11029.068536,-689.485948
1020.898505,666.185348,-10955.047942,-2221.676944
1020.898829,-1702.473667,-10140.821405,-3753.867940
1020.899153,-4071.132681,-9030.512492,-5056.230287
1020.899477,-5403.503377,-7994.224174,-5669.106685
1020.899801,-5033.400406,-7772.162391,-5439.278036
1020.900125,-3552.988522,-7105.977043,-4749.792088
1020.900450,-1332.370696,-7698.141797,-2604.724693
1020.900774,1628.453072,-8808.450710,-1225.752797
1020.901098,3923.091493,-9622.677246,229.828649
1020.901422,5255.462188,-10807.006753,1302.362347
1020.901746,5699.585753,-11473.192101,1149.143247
1020.902070,4737.318029,-11621.233289,1762.019645
1020.902394,3997.112087,-12139.377449,383.047749
1020.902719,2590.720797,-11917.315666,-1225.752797
1020.903043,888.247130,-11917.315666,-2757.943793
1020.903367,148.041188,-11325.150913,-3677.258390
1020.903691,74.020594,-10658.965565,-4290.134789
1020.904015,148.041188,-9252.574275,-4136.915689
1020.904339,222.061783,-8142.265362,-3294.210641
1020.904663,1554.432478,-7254.018232,-2834.553343
1020.904988,3182.885551,-7254.018232,-1991.848295
1020.905312,4737.318029,-7624.121203,-689.485948
1020.905636,6587.832884,-8364.327145,153.219100
1020.905960,7698.141797,-9104.533087,842.705048
1020.906284,7624.121203,-9548.656652,1302.362347
1020.906608,6069.688724,-9548.656652,536.266849
1020.906932,4589.276840,-9918.759623,-1532.190996
1020.907257,2664.741391,-9844.739029,-2145.067394
1020.907581,1554.432478,-10436.903782,-3600.648841
1020.907905,1110.308913,-9844.739029,-4290.134789
1020.908229,1036.288319,-9104.533087,-4290.134789
1020.908553,1036.288319,-8512.368333,-3983.696590
1020.908877,1554.432478,-8438.347739,-3983.696590
1020.909201,2368.659014,-8734.430116,-3064.381992
1020.909526,2368.659014,-8216.285956,-1915.238745
1020.909850,3256.906145,-8660.409521,-995.924147
1020.910174,3775.050304,-9030.512492,-842.705048
1020.910498,4293.194464,-9696.697840,-153.219100
1020.910822,4589.276840,-10510.924376,-459.657299
1020.911146,3923.091493,-10881.027347,-766.095498
1020.911470,2812.782580,-10732.986159,-1915.238745
1020.911794,1332.370696,-10288.862594,-3677.258390
1020.912119,666.185348,-10436.903782,-3830.477490
1020.912443,-1036.288319,-10066.800811,-5592.497135
1020.912767,-2516.700203,-9548.656652,-6205.373534
1020.913091,-3478.967927,-9400.615463,-6281.983084
1020.913415,-2886.803174,-9548.656652,-5745.716235
1020.913739,-1184.329507,-9252.574275,-4443.353888
1020.914063,1332.370696,-9548.656652,-3294.210641
1020.914388,4663.297435,-10362.883188,-1072.533697
1020.914712,6069.688724,-10584.944971,-842.705048
1020.915036,7179.997637,-11621.233289,76.609550
1020.915360,6957.935855,-12509.480420,306.438199
1020.915684,5477.523971,-12731.542202,-306.438199
1020.916008,2442.679609,-11991.336260,-2145.067394
1020.916332,-1258.350101,-10881.027347,-3370.820191
1020.916657,-3997.112087,-10362.883188,-5286.058936
1020.916981,-5033.400406,-10140.821405,-6665.030833
1020.917305,-3997.112087,-9622.677246,-6358.592633
1020.917629,-1480.411884,-8956.491898,-5209.449386
1020.917953,814.226536,-8364.327145,-3753.867940
1020.918277,2516.700203,-8586.388927,-2681.334243
1020.918601,3330.926739,-9178.553681,-1378.971896
1020.918926,2886.803174,-8808.450710,-995.924147
1020.919250,3627.009116,-9104.533087,-76.609550
1020.919574,5403.503377,-9474.636058,689.485948
1020.919898,7402.059420,-10288.862594,1685.410096
1020.920222,8364.327145,-10436.903782,1762.019645
1020.920546,6735.874072,-10214.842000,383.047749
1020.920870,3034.844362,-9548.656652,-1455.581446
1020.921195,-592.164754,-8734.430116,-2834.553343
1020.921519,-2664.741391,-7179.997637,-3524.039291
1020.921843,-2960.823768,-6661.853478,-3830.477490
1020.922167,-1480.411884,-7402.059420,-3677.258390
1020.922491,0.000000,-7179.997637,-3064.381992
1020.922815,370.102971,-7698.141797,-2298.286494
1020.923139,962.267725,-7920.203579,-1532.190996
1020.923464,1998.556043,-8438.347739,0.000000
1020.923788,3701.029710,-8142.265362,153.219100
1020.924112,5477.523971,-8956.491898,1608.800546
1020.924436,6587.832884,-10584.944971,1532.190996
1020.924760,6587.832884,-11843.295072,1608.800546
1020.925084,5181.441594,-12139.377449,689.485948
1020.925408,3775.050304,-10955.047942,-459.657299
1020.925732,2368.659014,-9104.533087,-1608.800546
1020.926057,1776.494261,-8882.471304,-3140.991542
1020.926381,74.020594,-9400.615463,-3983.696590
1020.926705,-2072.576638,-9918.759623,-4903.011187
1020.927029,-2442.679609,-9770.718434,-4826.401637
1020.927353,-1406.391290,-9548.656652,-4060.306139
1020.927677,1480.411884,-9474.636058,-2834.553343
1020.928001,4293.194464,-9400.615463,-1915.238745
1020.928326,5403.503377,-9770.718434,-1072.533697
1020.928650,4515.256246,-10362.883188,-919.314598
1020.928974,4885.359217,-11917.315666,-229.828649
1020.929298,5551.544565,-12287.418637,536.266849
1020.929622,5403.503377,-12435.459826,536.266849
1020.929946,3108.864956,-11843.295072,-383.047749
1020.930270,296.082377,-10881.027347,-1991.848295
1020.930595,-1184.329507,-10584.944971,-3524.039291
1020.930919,-2072.576638,-9474.636058,-4213.525239
1020.931243,-1998.556043,-8882.471304,-4290.134789
1020.931567,-1702.473667,-8364.327145,-3753.867940
1020.931891,-888.247130,-8216.285956,-3217.601092
1020.932215,888.247130,-8512.368333,-3217.601092
1020.932539,1406.391290,-8438.347739,-3600.648841
1020.932864,1480.411884,-7994.224174,-3830.477490
1020.933188,2590.720797,-8882.471304,-2068.457845
1020.933512,4589.276840,-9992.780217,-842.705048
1020.933836,5773.606348,-10066.800811,-306.438199
1020.934160,6365.771101,-9622.677246,-229.828649
1020.934484,5107.421000,-10288.862594,-459.657299
1020.934808,4367.215058,-11325.150913,-1225.752797
1020.935133,3256.906145,-10881.027347,-1532.190996
1020.935457,592.164754,-9030.512492,-1838.629195
1020.935781,-2294.638420,-7920.203579,-2911.162892
1020.936105,-2368.659014,-8660.409521,-3140.991542
1020.936429,-296.082377,-9104.533087,-2834.553343
1020.936753,296.082377,-7476.080014,-2681.334243
1020.937077,0.000000,-7402.059420,-3294.210641
1020.937401,-222.061783,-8734.430116,-2911.162892
1020.937726,1332.370696,-9474.636058,-2757.943793
1020.938050,2664.741391,-8734.430116,-2757.943793
1020.938374,2664.741391,-9326.594869,-2145.067394
1020.938698,2442.679609,-11177.109724,-2451.505594
1020.939022,3923.091493,-11695.253884,-2757.943793
1020.939346,5255.462188,-9696.697840,-1685.410096
1020.939670,6143.709319,-9918.759623,-1455.581446
1020.939995,5403.503377,-11695.253884,-1532.190996
1020.940319,4071.132681,-11843.295072,-2221.676944
1020.940643,2442.679609,-9770.718434,-1915.238745
1020.940967,1258.350101,-8882.471304,-1915.238745
1020.941291,1554.432478,-9104.533087,-2604.724693
1020.941615,2072.576638,-8956.491898,-1991.848295
1020.941939,1554.432478,-8882.471304,-2221.676944
1020.942264,1480.411884,-8734.430116,-2911.162892
1020.942588,1258.350101,-8364.327145,-2757.943793
1020.942912,740.205942,-8956.491898,-1991.848295
1020.943236,518.144159,-9326.594869,-3217.601092
1020.943560,370.102971,-9474.636058,-4060.306139
1020.943884,518.144159,-9770.718434,-3600.648841
1020.944208,1776.494261,-10362.883188,-4596.572988
1020.944533,3108.864956,-11251.130318,-4136.915689
1020.944857,2812.782580,-11917.315666,-2374.896044
1020.945181,3256.906145,-11695.253884,-1378.971896
1020.945505,3478.967927,-10658.965565,-1991.848295
1020.945829,2220.617826,-10066.800811,-1532.190996
1020.946153,2368.659014,-10955.047942,-919.314598
1020.946477,3849.070898,-11917.315666,-1455.581446
1020.946802,3552.988522,-10584.944971,-306.438199
1020.947126,2442.679609,-9918.759623,459.657299
1020.947450,1924.535449,-9696.697840,-1915.238745
1020.947774,2220.617826,-9030.512492,-2298.286494
1020.948098,592.164754,-7179.997637,-3217.601092
1020.948422,-1184.329507,-8068.244768,-4673.182538
1020.948746,-1110.308913,-7846.182985,-5362.668486
1020.949071,-1184.329507,-8438.347739,-4673.182538
1020.949395,-1776.494261,-9030.512492,-4903.011187
1020.949719,148.041188,-7994.224174,-4136.915689
1020.950043,2220.617826,-8438.347739,-2834.553343
1020.950367,4145.153275,-10658.965565,-2221.676944
1020.950691,5403.503377,-11251.130318,0.000000
1020.951015,6883.915261,-11103.089130,1762.019645
1020.951339,7179.997637,-12361.439231,2298.286494
1020.951664,7031.956449,-11695.253884,2374.896044
1020.951988,5847.626942,-10584.944971,1302.362347
1020.952312,2960.823768,-10584.944971,0.000000
1020.952636,296.082377,-9622.677246,-2374.896044
1020.952960,-888.247130,-8438.347739,-3064.381992
1020.953284,-2664.741391,-7698.141797,-3600.648841
1020.953608,-3256.906145,-8216.285956,-4596.572988
1020.953933,-3775.050304,-7846.182985,-4979.620737
1020.954257,-3108.864956,-7328.038826,-3983.696590
1020.954581,-1184.329507,-7846.182985,-4060.306139
1020.954905,962.267725,-8660.409521,-3140.991542
1020.955229,3256.906145,-8438.347739,-1991.848295
1020.955553,4737.318029,-9030.512492,-459.657299
1020.955877,5625.565159,-10288.862594,229.828649
1020.956202,4811.338623,-11695.253884,689.485948
1020.956526,4219.173869,-11917.315666,766.095498
1020.956850,3849.070898,-11103.089130,229.828649
1020.957174,3330.926739,-10955.047942,0.000000
1020.957498,2960.823768,-10288.862594,-1225.752797
1020.957822,1924.535449,-9474.636058,-1149.143247
1020.958146,518.144159,-10362.883188,-2451.505594
1020.958471,740.205942,-9474.636058,-2451.505594
1020.958795,1332.370696,-8438.347739,-2298.286494
1020.959119,1110.308913,-7920.203579,-2757.943793
1020.959443,296.082377,-8216.285956,-3217.601092
1020.959767,-1332.370696,-8882.471304,-4596.572988
1020.960091,-1480.411884,-8956.491898,-3830.477490
1020.960415,-666.185348,-9252.574275,-3600.648841
1020.960740,1258.350101,-9992.780217,-2298.286494
1020.961064,2072.576638,-11695.253884,153.219100
1020.961388,3182.885551,-12435.459826,0.000000
1020.961712,3256.906145,-10807.006753,-689.485948
1020.962036,2590.720797,-10066.800811,459.657299
1020.962360,3552.988522,-11695.253884,459.657299
1020.962684,4367.215058,-11325.150913,0.000000
1020.963008,3404.947333,-10436.903782,1532.190996
1020.963333,2146.597232,-9622.677246,689.485948
1020.963657,962.267725,-10214.842000,-229.828649
1020.963981,-148.041188,-10214.842000,-842.705048
1020.964305,-1036.288319,-9030.512492,-1762.019645
1020.964629,-1554.432478,-7624.121203,-3524.039291
1020.964953,-2146.597232,-7624.121203,-3830.477490
1020.965277,-3997.112087,-8586.388927,-3753.867940
1020.965602,-4515.256246,-9252.574275,-3370.820191
1020.965926,-2960.823768,-9178.553681,-2451.505594
1020.966250,-740.205942,-8216.285956,-1149.143247
1020.966574,1850.514855,-8216.285956,229.828649
1020.966898,4367.215058,-8586.388927,459.657299
1020.967222,5551.544565,-9548.656652,2451.505594
1020.967546,5773.606348,-11325.150913,2987.772442
1020.967870,4811.338623,-11473.192101,3140.991542
1020.968194,3108.864956,-10807.006753,3217.601092
1020.968518,962.267725,-9770.718434,2298.286494
1020.968842,-666.185348,-9178.553681,229.828649
1020.969166,-2294.638420,-8586.388927,-2068.457845
1020.969490,-3775.050304,-8364.327145,-3217.601092
1020.969814,-4071.132681,-8290.306550,-4290.134789
1020.970138,-3256.906145,-7994.224174,-3217.601092
1020.970462,-2146.597232,-8068.244768,-2834.553343
1020.970786,-1480.411884,-8438.347739,-2145.067394
1020.971110,-2146.597232,-9474.636058,-1762.019645
1020.971434,-2590.720797,-9844.739029,-2221.676944
1020.971758,-1110.308913,-11769.274478,0.000000
1020.972082,1776.494261,-12509.480420,2374.896044
1020.972405,4219.173869,-13175.665768,4060.306139
1020.972729,3627.009116,-12805.562797,3600.648841
1020.973053,1850.514855,-11399.171507,3600.648841
1020.973377,740.205942,-10955.047942,2604.724693
1020.973701,1406.391290,-10584.944971,842.705048
1020.974025,888.247130,-8808.450710,995.924147
1020.974349,-666.185348,-6069.688724,-1532.190996
1020.974673,-1628.453072,-6143.709319,-2298.286494
1020.974997,-2664.741391,-8808.450710,-2604.724693
1020.975321,-2368.659014,-9918.759623,-3447.429741
1020.975645,-3256.906145,-9548.656652,-3677.258390
1020.975969,-4515.256246,-8808.450710,-2604.724693
1020.976293,-2738.761985,-9030.512492,-1532.190996
1020.976617,444.123565,-11547.212695,153.219100
1020.976941,2516.700203,-13545.768739,1608.800546
1020.977265,2516.700203,-12879.583391,2451.505594
1020.977589,3108.864956,-11917.315666,2451.505594
1020.977913,3256.906145,-10066.800811,2987.772442
1020.978237,3256.906145,-9918.759623,3447.429741
1020.978561,1850.514855,-9474.636058,2604.724693
1020.978885,0.000000,-9030.512492,1455.581446
1020.979209,148.041188,-9326.594869,76.609550
1020.979533,1258.350101,-8956.491898,0.000000
1020.979857,1184.329507,-8364.327145,-919.314598
1020.980181,-1258.350101,-7920.203579,-1608.800546
1020.980505,-3775.050304,-8290.306550,-2221.676944
1020.980829,-4219.173869,-8660.409521,-3140.991542
1020.981153,-3182.885551,-8068.244768,-2528.115143
1020.981477,-2664.741391,-8290.306550,-919.314598
1020.981801,74.020594,-9252.574275,842.705048
1020.982125,3775.050304,-9548.656652,1838.629195
1020.982449,5625.565159,-8808.450710,2528.115143
1020.982773,5107.421000,-8956.491898,3753.867940
1020.983097,3552.988522,-9696.697840,3064.381992
1020.983421,2738.761985,-9696.697840,2604.724693
1020.983744,1332.370696,-8660.409521,2221.676944
1020.984068,148.041188,-8956.491898,459.657299
1020.984392,-1184.329507,-9696.697840,-842.705048
1020.984716,-2146.597232,-8808.450710,-1685.410096
1020.985040,-2664.741391,-9030.512492,-1608.800546
1020.985364,-3182.885551,-9548.656652,-2681.334243
1020.985688,-4145.153275,-9844.739029,-2528.115143
1020.986012,-3775.050304,-9474.636058,-1225.752797
1020.986336,-2072.576638,-9622.677246,-766.095498
1020.986660,222.061783,-10066.800811,-383.047749
1020.986984,888.247130,-9474.636058,229.828649
1020.987308,888.247130,-9770.718434,0.000000
1020.987632,962.267725,-11325.150913,0.000000
1020.987956,888.247130,-11769.274478,306.438199
1020.988280,1480.411884,-10807.006753,1532.190996
1020.988604,2220.617826,-11473.192101,1455.581446
1020.988928,962.267725,-11621.233289,76.609550
1020.989252,-370.102971,-10436.903782,-919.314598
1020.989576,-1554.432478,-10436.903782,-1149.143247
1020.989900,-666.185348,-10807.006753,-1455.581446
1020.990224,-296.082377,-10658.965565,-1455.581446
1020.990548,-962.267725,-9252.574275,-842.705048
1020.990872,-444.123565,-8512.368333,-1149.143247
1020.991196,0.000000,-7031.956449,-2451.505594
1020.991520,-296.082377,-8216.285956,-1455.581446
1020.991844,444.123565,-9992.780217,-766.095498
1020.992168,1258.350101,-10214.842000,153.219100
1020.992492,666.185348,-9252.574275,229.828649
1020.992816,-888.247130,-9178.553681,1072.533697
1020.993140,-1184.329507,-11103.089130,229.828649
1020.993464,-740.205942,-12213.398043,-612.876398
1020.993788,-1258.350101,-11547.212695,-383.047749
1020.994112,-740.205942,-9844.739029,306.438199
1020.994436,-296.082377,-9844.739029,-383.047749
1020.994760,-1184.329507,-10140.821405,-766.095498
1020.995083,-2072.576638,-10510.924376,76.609550
1020.995407,-962.267725,-9696.697840,-459.657299
1020.995731,-148.041188,-7698.141797,-1532.190996
1020.996055,-962.267725,-6735.874072,-1149.143247
1020.996379,444.123565,-7328.038826,0.000000
1020.996703,2146.597232,-9844.739029,229.828649
1020.997027,1554.432478,-10140.821405,153.219100
1020.997351,0.000000,-8882.471304,766.095498
1020.997675,74.020594,-8882.471304,459.657299
1020.997999,888.247130,-9474.636058,766.095498
1020.998323,1702.473667,-9178.553681,1455.581446
1020.998647,1554.432478,-8512.368333,2221.676944
1020.998971,592.164754,-9252.574275,1225.752797
1020.999295,-740.205942,-9622.677246,842.705048
1020.999619,-888.247130,-9252.574275,766.095498
1020.999943,0.000000,-7920.203579,0.000000
1021.000267,148.041188,-7031.956449,-229.828649
1021.000591,-814.226536,-9030.512492,-612.876398
1021.000915,-1406.391290,-9622.677246,-766.095498
1021.001239,-1036.288319,-9622.677246,-1072.533697
1021.001563,296.082377,-9474.636058,0.000000
1021.001887,1036.288319,-10140.821405,612.876398
1021.002211,1554.432478,-11769.274478,229.828649
1021.002535,888.247130,-11621.233289,689.485948
1021.002859,444.123565,-10436.903782,995.924147
1021.003183,296.082377,-10288.862594,-919.314598
1021.003507,-814.226536,-11177.109724,229.828649
1021.003831,-666.185348,-10732.986159,689.485948
1021.004155,518.144159,-10436.903782,919.314598
1021.004479,1036.288319,-9252.574275,612.876398
1021.004803,0.000000,-8660.409521,536.266849
1021.005127,-1406.391290,-8734.430116,383.047749
1021.005451,-1184.329507,-8660.409521,-1149.143247
1021.005775,-1924.535449,-7698.141797,-1762.019645
1021.006099,-1406.391290,-9400.615463,0.000000
1021.006422,-1036.288319,-10658.965565,-1072.533697
1021.006746,-888.247130,-9548.656652,-612.876398
1021.007070,-962.267725,-7994.224174,0.000000
1021.007394,-148.041188,-9474.636058,-383.047749
1021.007718,74.020594,-10510.924376,-842.705048
1021.008042,0.000000,-10510.924376,0.000000
1021.008366,666.185348,-10881.027347,1455.581446
1021.008690,2072.576638,-10510.924376,919.314598
1021.009014,2442.679609,-10955.047942,842.705048
1021.009338,-370.102971,-11029.068536,1072.533697
1021.009662,-1924.535449,-10510.924376,0.000000
1021.009986,-2072.576638,-10436.903782,-612.876398
1021.010310,-2294.638420,-9326.594869,0.000000
1021.010634,-1406.391290,-9178.553681,-229.828649
1021.010958,814.226536,-9252.574275,-306.438199
1021.011282,1258.350101,-9770.718434,229.828649
1021.011606,1036.288319,-9474.636058,-383.047749
1021.011930,444.123565,-8956.491898,-383.047749
1021.012254,-666.185348,-8364.327145,-536.266849
1021.012578,0.000000,-8290.306550,229.828649
1021.012902,444.123565,-8438.347739,0.000000
1021.013226,888.247130,-8808.450710,536.266849
1021.013550,222.061783,-9770.718434,536.266849
1021.013874,222.061783,-9548.656652,-153.219100
1021.014198,-74.020594,-8956.491898,153.219100
1021.014522,-222.061783,-8586.388927,0.000000
1021.014846,-962.267725,-9622.677246,0.000000
1021.015170,-1998.556043,-9622.677246,76.609550
1021.015494,-1480.411884,-9844.739029,76.609550
1021.015818,-592.164754,-10214.842000,-306.438199
1021.016142,0.000000,-10066.800811,-383.047749
1021.016466,148.041188,-9992.780217,-306.438199
1021.016790,962.267725,-11103.089130,76.609550
1021.017114,1184.329507,-11695.253884,0.000000
1021.017437,1184.329507,-10066.800811,-229.828649
1021.017761,148.041188,-9030.512492,-229.828649
1021.018085,-222.061783,-10807.006753,-536.266849
1021.018409,0.000000,-10881.027347,-612.876398
1021.018733,-888.247130,-9770.718434,-306.438199
1021.019057,-740.205942,-8586.388927,-383.047749
1021.019381,-962.267725,-8882.471304,-766.095498
1021.019705,-740.205942,-8734.430116,-689.485948
1021.020029,0.000000,-8808.450710,229.828649
1021.020353,518.144159,-9696.697840,459.657299
1021.020677,814.226536,-10214.842000,766.095498
1021.021001,-592.164754,-9770.718434,229.828649
1021.021325,-1184.329507,-9844.739029,0.000000
1021.021649,-592.164754,-10066.800811,-536.266849
1021.021973,0.000000,-10362.883188,-612.876398
1021.022297,1036.288319,-9474.636058,-842.705048
1021.022621,2368.659014,-10140.821405,995.924147
1021.022945,3701.029710,-11029.068536,459.657299
1021.023269,3182.885551,-10066.800811,-306.438199
1021.023593,444.123565,-9252.574275,-229.828649
1021.023917,-2368.659014,-9844.739029,-766.095498
1021.024241,-2442.679609,-10807.006753,-919.314598
1021.024565,-1184.329507,-10288.862594,-383.047749
1021.024889,222.061783,-9178.553681,689.485948
1021.025213,518.144159,-8734.430116,153.219100
1021.025537,0.000000,-9030.512492,153.219100
1021.025861,222.061783,-9326.594869,0.000000
1021.026185,1110.308913,-8734.430116,-229.828649
1021.026509,518.144159,-8068.244768,0.000000
1021.026833,-1110.308913,-8660.409521,153.219100
1021.027157,-1184.329507,-9178.553681,-153.219100
1021.027481,0.000000,-8882.471304,-306.438199
1021.027805,518.144159,-9178.553681,-306.438199
1021.028129,370.102971,-9548.656652,-766.095498
1021.028453,740.205942,-9770.718434,-842.705048
1021.028776,0.000000,-10436.903782,76.609550
1021.029100,-148.041188,-9474.636058,-229.828649
1021.029424,0.000000,-9770.718434,-153.219100
1021.029748,-1554.432478,-10658.965565,229.828649
1021.030072,-1480.411884,-11325.150913,229.828649
1021.030396,-1332.370696,-10140.821405,-612.876398
1021.030720,-666.185348,-9252.574275,-842.705048
1021.031044,-666.185348,-9474.636058,76.609550
1021.031368,-740.205942,-10584.944971,0.000000
1021.031692,-1110.308913,-10510.924376,-383.047749
1021.032016,-1480.411884,-9326.594869,-229.828649
1021.032340,-1850.514855,-9326.594869,-1072.533697
1021.032664,-1184.329507,-9844.739029,-1762.019645
1021.032988,0.000000,-10288.862594,-536.266849
1021.033312,1036.288319,-10140.821405,153.219100
1021.033636,1924.535449,-9844.739029,536.266849
1021.033960,1184.329507,-10214.842000,383.047749
1021.034284,666.185348,-9104.533087,459.657299
1021.034608,1554.432478,-8956.491898,536.266849
1021.034932,2886.803174,-10658.965565,1762.019645
1021.035256,2146.597232,-10584.944971,612.876398
1021.035580,370.102971,-9178.553681,1149.143247
1021.035904,-518.144159,-9252.574275,919.314598
1021.036228,-1110.308913,-10066.800811,-153.219100
1021.036552,-1850.514855,-9178.553681,76.609550
1021.036876,-2072.576638,-8586.388927,383.047749
1021.037200,-1776.494261,-9400.615463,76.609550
1021.037524,74.020594,-9770.718434,-536.266849
1021.037848,1110.308913,-8364.327145,0.000000
1021.038172,1036.288319,-9326.594869,1762.019645
1021.038496,0.000000,-9918.759623,383.047749
1021.038820,-814.226536,-10140.821405,229.828649
1021.039144,-962.267725,-9770.718434,383.047749
1021.039468,-148.041188,-9252.574275,459.657299
1021.039792,592.164754,-9844.739029,-383.047749
1021.040115,1184.329507,-9844.739029,689.485948
1021.040439,2294.638420,-9474.636058,919.314598
1021.040763,3256.906145,-8956.491898,766.095498
1021.041087,2072.576638,-9326.594869,995.924147
1021.041411,592.164754,-8512.368333,459.657299
1021.041735,-222.061783,-9030.512492,-459.657299
1021.042059,-1332.370696,-9474.636058,-995.924147
1021.042383,-1480.411884,-8660.409521,-995.924147
1021.042707,0.000000,-8956.491898,-459.657299
1021.043031,370.102971,-9474.636058,919.314598
1021.043355,888.247130,-9548.656652,689.485948
1021.043679,1036.288319,-9326.594869,0.000000
1021.044003,0.000000,-9252.574275,-306.438199
1021.044327,-1406.391290,-10140.821405,-612.876398
1021.044651,-1110.308913,-10510.924376,-1149.143247
1021.044975,-296.082377,-9770.718434,-1149.143247
1021.045299,222.061783,-9696.697840,383.047749
1021.045623,-518.144159,-10214.842000,-1149.143247
1021.045947,-740.205942,-10288.862594,-1225.752797
1021.046271,-518.144159,-10066.800811,-1149.143247
1021.046595,740.205942,-10066.800811,-612.876398
1021.046919,1110.308913,-11251.130318,-919.314598
1021.047243,148.041188,-11547.212695,-383.047749
1021.047567,0.000000,-10807.006753,-229.828649
1021.047891,-444.123565,-10732.986159,-612.876398
1021.048215,74.020594,-10288.862594,-383.047749
1021.048539,370.102971,-11029.068536,-153.219100
1021.048863,518.144159,-10658.965565,153.219100
1021.049187,888.247130,-9474.636058,-459.657299
1021.049511,740.205942,-9178.553681,-383.047749
1021.049835,-370.102971,-10288.862594,-383.047749
1021.050159,-1184.329507,-10732.986159,-995.924147
1021.050483,-1998.556043,-9992.780217,-459.657299
1021.050807,-2072.576638,-9918.759623,-459.657299
1021.051130,-1850.514855,-10510.924376,153.219100
1021.051454,-1258.350101,-10510.924376,0.000000
1021.051778,-518.144159,-9770.718434,536.266849
1021.052102,74.020594,-9696.697840,689.485948
1021.052426,444.123565,-9696.697840,0.000000
1021.052750,-962.267725,-9548.656652,306.438199
1021.053074,-1776.494261,-9770.718434,383.047749
1021.053398,-814.226536,-9252.574275,306.438199
1021.053722,-296.082377,-8290.306550,-383.047749
1021.054046,0.000000,-7920.203579,536.266849
1021.054370,296.082377,-9326.594869,766.095498
1021.054694,1480.411884,-8808.450710,689.485948
1021.055018,1850.514855,-7476.080014,842.705048
1021.055342,74.020594,-6735.874072,536.266849
1021.055666,-962.267725,-6809.894666,536.266849
1021.055990,-1036.288319,-8142.265362,76.609550
1021.056314,-888.247130,-9622.677246,766.095498
1021.056638,666.185348,-8586.388927,306.438199
1021.056962,1776.494261,-7328.038826,0.000000
1021.057286,1184.329507,-8068.244768,-229.828649
1021.057610,1332.370696,-9326.594869,306.438199
1021.057934,1850.514855,-10066.800811,612.876398
1021.058258,1258.350101,-10510.924376,383.047749
1021.058582,740.205942,-10362.883188,-229.828649
1021.058906,592.164754,-10436.903782,-995.924147
1021.059230,1036.288319,-11103.089130,-459.657299
1021.059554,1406.391290,-11029.068536,-229.828649
1021.059878,1184.329507,-10881.027347,-229.828649
1021.060202,-444.123565,-10955.047942,-995.924147
1021.060526,-1554.432478,-10436.903782,-995.924147
1021.060850,-222.061783,-10436.903782,-919.314598
1021.061174,814.226536,-10955.047942,0.000000
1021.061498,592.164754,-11325.150913,-612.876398
1021.061822,-962.267725,-9696.697840,-306.438199
1021.062146,-1628.453072,-9992.780217,0.000000
1021.062469,0.000000,-10584.944971,-689.485948
1021.062793,962.267725,-9474.636058,383.047749
1021.063117,592.164754,-10066.800811,919.314598
1021.063441,0.000000,-9770.718434,306.438199
1021.063765,518.144159,-9474.636058,-459.657299
1021.064089,592.164754,-8882.471304,0.000000
1021.064413,518.144159,-9992.780217,229.828649
1021.064737,0.000000,-10584.944971,153.219100
1021.065061,-370.102971,-10140.821405,229.828649
1021.065385,-296.082377,-9178.553681,612.876398
1021.065709,0.000000,-8734.430116,459.657299
1021.066033,-518.144159,-9400.615463,153.219100
1021.066357,-666.185348,-10362.883188,536.266849
1021.066681,0.000000,-10362.883188,1149.143247
1021.067005,444.123565,-8734.430116,689.485948
1021.067329,-814.226536,-8364.327145,689.485948
1021.067653,-2294.638420,-8660.409521,536.266849
1021.067977,-2738.761985,-9400.615463,306.438199
1021.068301,-2368.659014,-8586.388927,76.609550
1021.068625,-1850.514855,-8142.265362,612.876398
1021.068949,-1554.432478,-8660.409521,383.047749
1021.069273,-370.102971,-8290.306550,383.047749
1021.069597,-444.123565,-8734.430116,842.705048
1021.069921,-666.185348,-9104.533087,536.266849
1021.070245,-1110.308913,-8216.285956,-1149.143247
1021.070569,-1406.391290,-7328.038826,-459.657299
1021.070893,-518.144159,-8956.491898,0.000000
1021.071218,444.123565,-9622.677246,-306.438199
1021.071542,1184.329507,-9770.718434,689.485948
1021.071866,888.247130,-11103.089130,1685.410096
1021.072190,1406.391290,-12287.418637,1378.971896
1021.072514,1776.494261,-10584.944971,612.876398
1021.072838,666.185348,-9770.718434,229.828649
1021.073162,0.000000,-10881.027347,0.000000
1021.073486,518.144159,-12065.356855,-229.828649
1021.073810,962.267725,-11991.336260,0.000000
1021.074134,370.102971,-9992.780217,-919.314598
1021.074458,148.041188,-9252.574275,-1762.019645
1021.074782,-888.247130,-9918.759623,-2911.162892
1021.075106,-740.205942,-10066.800811,-1915.238745
1021.075430,-518.144159,-10066.800811,-1762.019645
1021.075754,-370.102971,-10288.862594,-1838.629195
1021.076078,-1406.391290,-9918.759623,-1762.019645
1021.076402,-814.226536,-9400.615463,-1532.190996
1021.076726,296.082377,-10362.883188,-153.219100
1021.077050,1702.473667,-10436.903782,689.485948
1021.077374,2220.617826,-9326.594869,76.609550
1021.077698,962.267725,-8882.471304,842.705048
1021.078022,1110.308913,-9474.636058,1072.533697
1021.078346,2220.617826,-9844.739029,1149.143247
1021.078670,2664.741391,-9918.759623,1072.533697
1021.078994,1776.494261,-9030.512492,-229.828649
1021.079318,222.061783,-8438.347739,-1072.533697
1021.079642,222.061783,-8882.471304,-766.095498
1021.079966,592.164754,-9326.594869,0.000000
1021.080290,888.247130,-9770.718434,536.266849
1021.080614,-222.061783,-9326.594869,0.000000
1021.080938,-1184.329507,-9030.512492,-612.876398
1021.081263,-1110.308913,-8438.347739,-612.876398
1021.081587,888.247130,-8142.265362,-306.438199
1021.081911,1110.308913,-8956.491898,1149.143247
1021.082235,-592.164754,-9474.636058,536.266849
1021.082559,-2664.741391,-8734.430116,-766.095498
1021.082883,-3775.050304,-7402.059420,-995.924147
1021.083207,-2664.741391,-8586.388927,-612.876398
1021.083531,-888.247130,-11103.089130,383.047749
1021.083855,740.205942,-11325.150913,2145.067394
1021.084179,1332.370696,-10732.986159,1915.238745
1021.084503,962.267725,-9992.780217,1762.019645
1021.084827,-148.041188,-9696.697840,-76.609550
1021.085151,-2664.741391,-10436.903782,-383.047749
1021.085475,-4145.153275,-11325.150913,-1302.362347
1021.085799,-3330.926739,-9622.677246,-2298.286494
1021.086123,-1628.453072,-8512.368333,0.000000
1021.086447,-148.041188,-10584.944971,842.705048
1021.086771,1258.350101,-10658.965565,-153.219100
1021.087095,888.247130,-8734.430116,-1149.143247
1021.087419,-888.247130,-7920.203579,0.000000
1021.087743,-814.226536,-9030.512492,-383.047749
1021.088067,-1184.329507,-9918.759623,-689.485948
1021.088391,-1480.411884,-9548.656652,689.485948
1021.088715,518.144159,-9474.636058,1378.971896
1021.089039,2516.700203,-9696.697840,766.095498
1021.089363,2664.741391,-10436.903782,383.047749
1021.089687,1924.535449,-10288.862594,1532.190996
1021.090011,2220.617826,-9770.718434,383.047749
1021.090335,1702.473667,-10214.842000,76.609550
1021.090659,-444.123565,-10584.944971,-383.047749
1021.090983,-1554.432478,-10584.944971,-1225.752797
1021.091308,-1332.370696,-10584.944971,0.000000
1021.091632,-592.164754,-9844.739029,-459.657299
1021.091956,592.164754,-9326.594869,-153.219100
1021.092280,814.226536,-9548.656652,-153.219100
1021.092604,1332.370696,-10140.821405,76.609550
1021.092928,1554.432478,-10436.903782,766.095498
1021.093252,1184.329507,-9770.718434,306.438199
1021.093576,74.020594,-9474.636058,612.876398
1021.093900,-1332.370696,-9770.718434,0.000000
1021.094224,-1480.411884,-10436.903782,459.657299
1021.094548,444.123565,-9770.718434,1149.143247
1021.094872,1850.514855,-8512.368333,842.705048
1021.095196,888.247130,-7920.203579,383.047749
1021.095520,148.041188,-8734.430116,536.266849
1021.095844,888.247130,-9030.512492,689.485948
1021.096168,2072.576638,-7846.182985,536.266849
1021.096492,1850.514855,-7698.141797,1378.971896
1021.096816,666.185348,-9252.574275,689.485948
1021.097140,-1110.308913,-9252.574275,-612.876398
1021.097464,-1480.411884,-8808.450710,-612.876398
1021.097788,-1332.370696,-9104.533087,-919.314598
1021.098112,-962.267725,-10140.821405,-689.485948
1021.098436,-444.123565,-9992.780217,0.000000
1021.098760,0.000000,-10658.965565,153.219100
1021.099084,148.041188,-10436.903782,76.609550
1021.099408,888.247130,-11103.089130,0.000000
1021.099732,222.061783,-11399.171507,-229.828649
