#time,accel_x,accel_y,accel_z
616.504117,-370.102971,-9548.656652,0.000000
616.504442,-148.041188,-9548.656652,0.000000
616.504766,0.000000,-9622.677246,-459.657299
616.505090,148.041188,-9696.697840,0.000000
616.505414,-148.041188,-9474.636058,0.000000
616.505739,444.123565,-9918.759623,0.000000
616.506063,148.041188,-9474.636058,-306.438199
616.506387,444.123565,-9770.718434,153.219100
616.506711,296.082377,-9696.697840,76.609550
616.507036,148.041188,-9622.677246,0.000000
616.507360,74.020594,-9622.677246,0.000000
616.507684,148.041188,-9622.677246,-306.438199
616.508008,0.000000,-9622.677246,229.828649
616.508333,222.061783,-9844.739029,0.000000
616.508657,0.000000,-9326.594869,76.609550
616.508981,0.000000,-9622.677246,76.609550
616.509306,0.000000,-9548.656652,0.000000
616.509630,0.000000,-9622.677246,0.000000
616.509954,0.000000,-9622.677246,-153.219100
616.510278,222.061783,-9326.594869,76.609550
616.510603,148.041188,-9548.656652,0.000000
616.510927,222.061783,-9918.759623,0.000000
616.511251,0.000000,-9844.739029,76.609550
616.511575,0.000000,-9844.739029,-306.438199
616.511900,-370.102971,-9844.739029,0.000000
616.512224,-370.102971,-9992.780217,-383.047749
616.512548,0.000000,-9918.759623,-306.438199
616.512872,-666.185348,-9326.594869,-459.657299
616.513197,0.000000,-9548.656652,0.000000
616.513521,-74.020594,-9696.697840,76.609550
616.513845,-148.041188,-9474.636058,0.000000
616.514169,222.061783,-9474.636058,0.000000
616.514494,666.185348,-9770.718434,306.438199
616.514818,814.226536,-9770.718434,689.485948
616.515142,222.061783,-10140.821405,0.000000
616.515466,-592.164754,-10066.800811,153.219100
616.515791,-1850.514855,-9770.718434,0.000000
616.516115,-1628.453072,-9326.594869,0.000000
616.516439,-814.226536,-9548.656652,306.438199
616.516763,666.185348,-9992.780217,689.485948
616.517088,1258.350101,-9474.636058,766.095498
616.517412,1480.411884,-9252.574275,612.876398
616.517736,1036.288319,-9252.574275,536.266849
616.518060,592.164754,-9400.615463,-459.657299
616.518385,592.164754,-9474.636058,-229.828649
616.518709,-370.102971,-9844.739029,-153.219100
616.519033,-740.205942,-10288.862594,-229.828649
616.519357,-666.185348,-10288.862594,-306.438199
616.519682,0.000000,-10066.800811,153.219100
616.520006,888.247130,-9548.656652,612.876398
616.520330,1776.494261,-9474.636058,1225.752797
616.520654,2812.782580,-9474.636058,2068.457845
616.520979,2960.823768,-9918.759623,1685.410096
616.521303,2960.823768,-9844.739029,1532.190996
616.521627,2368.659014,-9548.656652,995.924147
616.521951,1850.514855,-8956.491898,383.047749
616.522276,888.247130,-9252.574275,229.828649
616.522600,0.000000,-9696.697840,0.000000
616.522924,-74.020594,-9844.739029,-536.266849
616.523248,222.061783,-9622.677246,459.657299
616.523573,1184.329507,-9474.636058,995.924147
616.523897,3034.844362,-9548.656652,1608.800546
616.524221,4441.235652,-9252.574275,2374.896044
616.524545,4959.379811,-9474.636058,2604.724693
616.524870,4885.359217,-9992.780217,2987.772442
616.525194,4959.379811,-10510.924376,2757.943793
616.525518,3997.112087,-9992.780217,2451.505594
616.525842,2590.720797,-10066.800811,1838.629195
616.526167,1850.514855,-10584.944971,1378.971896
616.526491,1036.288319,-10584.944971,766.095498
616.526815,740.205942,-10510.924376,459.657299
616.527139,1776.494261,-9622.677246,1991.848295
616.527464,3182.885551,-9030.512492,2757.943793
616.527788,4367.215058,-8956.491898,3370.820191
616.528112,4663.297435,-9104.533087,4366.744339
616.528436,4293.194464,-9474.636058,4673.182538
616.528761,3775.050304,-10066.800811,4903.011187
616.529085,2146.597232,-9696.697840,4443.353888
616.529409,592.164754,-9326.594869,3753.867940
616.529733,-814.226536,-9030.512492,3217.601092
616.530058,-2072.576638,-8586.388927,2451.505594
616.530382,-1924.535449,-7994.224174,2145.067394
616.530706,-1480.411884,-7328.038826,2145.067394
616.531031,-370.102971,-6735.874072,2145.067394
616.531355,518.144159,-6661.853478,2604.724693
616.531679,1480.411884,-6513.812290,3600.648841
616.532003,3404.947333,-6587.832884,3830.477490
616.532328,3849.070898,-8290.306550,3600.648841
616.532652,4663.297435,-9548.656652,4903.011187
616.532976,4811.338623,-10955.047942,4519.963438
616.533300,3849.070898,-11547.212695,4366.744339
616.533625,1850.514855,-12361.439231,3677.258390
616.533949,0.000000,-12583.501014,2528.115143
616.534273,-1554.432478,-12065.356855,2068.457845
616.534597,-1998.556043,-10881.027347,459.657299
616.534922,-1258.350101,-9030.512492,995.924147
616.535246,740.205942,-8290.306550,1072.533697
616.535570,2220.617826,-7698.141797,1225.752797
616.535894,3256.906145,-7550.100608,1225.752797
616.536219,3923.091493,-7994.224174,1149.143247
616.536543,4367.215058,-8734.430116,1378.971896
616.536867,3923.091493,-10288.862594,2298.286494
616.537191,2738.761985,-12287.418637,2681.334243
616.537516,1628.453072,-12509.480420,1991.848295
616.537840,592.164754,-12139.377449,1762.019645
616.538164,370.102971,-11843.295072,1378.971896
616.538488,1406.391290,-11473.192101,995.924147
616.538813,2368.659014,-11029.068536,383.047749
616.539137,2812.782580,-9696.697840,0.000000
616.539461,3552.988522,-8956.491898,383.047749
616.539785,4219.173869,-9178.553681,306.438199
616.540110,2886.803174,-8660.409521,-536.266849
616.540434,1628.453072,-8882.471304,-612.876398
616.540758,1850.514855,-8586.388927,-383.047749
616.541082,3404.947333,-9548.656652,229.828649
616.541407,5329.482782,-11251.130318,1608.800546
616.541731,6217.729913,-12435.459826,2298.286494
616.542055,5403.503377,-12879.583391,2604.724693
616.542379,3256.906145,-11991.336260,2221.676944
616.542704,0.000000,-11621.233289,689.485948
616.543028,-1924.535449,-10436.903782,842.705048
616.543352,-2072.576638,-9326.594869,536.266849
616.543676,-518.144159,-8512.368333,1072.533697
616.544001,1554.432478,-7550.100608,1532.190996
616.544325,2368.659014,-7105.977043,842.705048
616.544649,2368.659014,-5921.647536,536.266849
616.544973,2294.638420,-5181.441594,229.828649
616.545298,2368.659014,-5773.606348,153.219100
616.545622,3478.967927,-7105.977043,1072.533697
616.545946,3923.091493,-9104.533087,2298.286494
616.546270,3627.009116,-10955.047942,2298.286494
616.546595,1850.514855,-10807.006753,2298.286494
616.546919,888.247130,-9474.636058,2604.724693
616.547243,518.144159,-9474.636058,2298.286494
616.547567,814.226536,-10288.862594,1685.410096
616.547892,888.247130,-11029.068536,2451.505594
616.548216,0.000000,-10732.986159,2451.505594
616.548540,0.000000,-9474.636058,1762.019645
616.548864,1184.329507,-7920.203579,1455.581446
616.549189,3404.947333,-7550.100608,1455.581446
616.549513,4367.215058,-8734.430116,2221.676944
616.549837,2812.782580,-10436.903782,1455.581446
616.550161,666.185348,-10732.986159,612.876398
616.550486,-888.247130,-10584.944971,536.266849
616.550810,-444.123565,-11251.130318,1302.362347
616.551134,1776.494261,-12139.377449,2451.505594
616.551458,3552.988522,-12435.459826,2757.943793
616.551783,3330.926739,-11251.130318,2681.334243
616.552107,2812.782580,-10362.883188,3294.210641
616.552431,3478.967927,-11251.130318,3677.258390
616.552756,3552.988522,-11695.253884,3753.867940
616.553080,2368.659014,-11177.109724,3677.258390
616.553404,962.267725,-9400.615463,2451.505594
616.553728,962.267725,-8068.244768,1149.143247
616.554053,2220.617826,-8734.430116,1762.019645
616.554377,3256.906145,-9696.697840,2298.286494
616.554701,3256.906145,-9548.656652,2451.505594
616.555025,2960.823768,-8364.327145,1838.629195
616.555350,3034.844362,-7994.224174,2298.286494
616.555674,3849.070898,-9474.636058,3140.991542
616.555998,3627.009116,-10436.903782,3217.601092
616.556322,2516.700203,-9622.677246,3524.039291
616.556647,2368.659014,-8660.409521,4060.306139
616.556971,2368.659014,-9252.574275,4749.792088
616.557295,2812.782580,-10066.800811,4290.134789
616.557619,3404.947333,-9992.780217,4443.353888
616.557944,3256.906145,-8808.450710,3830.477490
616.558268,1924.535449,-8364.327145,2757.943793
616.558592,74.020594,-8512.368333,2451.505594
616.558916,-1258.350101,-8216.285956,995.924147
616.559241,-888.247130,-7402.059420,689.485948
616.559565,1406.391290,-6661.853478,1762.019645
616.559889,2590.720797,-7698.141797,1685.410096
616.560213,3404.947333,-9030.512492,2298.286494
616.560538,4663.297435,-9326.594869,3217.601092
616.560862,5033.400406,-9178.553681,3983.696590
616.561186,4367.215058,-9474.636058,4060.306139
616.561510,2442.679609,-11399.171507,4060.306139
616.561835,1998.556043,-12065.356855,4826.401637
616.562159,2738.761985,-11103.089130,4213.525239
616.562483,3182.885551,-9474.636058,3370.820191
616.562807,1924.535449,-9844.739029,2604.724693
616.563132,370.102971,-10436.903782,1378.971896
616.563456,-814.226536,-9030.512492,0.000000
616.563780,-1480.411884,-7698.141797,-383.047749
616.564104,-2368.659014,-7254.018232,-536.266849
616.564429,-1110.308913,-8068.244768,-919.314598
616.564753,1480.411884,-8216.285956,0.000000
616.565077,4367.215058,-8734.430116,1685.410096
616.565401,6291.750507,-9622.677246,2145.067394
616.565725,6143.709319,-11103.089130,2528.115143
616.566050,4737.318029,-11769.274478,3140.991542
616.566374,2664.741391,-10140.821405,3294.210641
616.566698,2886.803174,-10362.883188,2298.286494
616.567022,1776.494261,-13175.665768,2451.505594
616.567346,148.041188,-14211.954086,1838.629195
616.567670,-370.102971,-11399.171507,612.876398
616.567994,-1184.329507,-9548.656652,0.000000
616.568318,-1480.411884,-10807.006753,-612.876398
616.568642,0.000000,-10436.903782,-1302.362347
616.568966,1480.411884,-8290.306550,-1532.190996
616.569290,2664.741391,-7772.162391,-459.657299
616.569614,2664.741391,-9622.677246,-766.095498
616.569939,3256.906145,-9696.697840,76.609550
616.570263,3701.029710,-9400.615463,1455.581446
616.570587,4219.173869,-9696.697840,2604.724693
616.570911,5033.400406,-9400.615463,2374.896044
616.571235,3627.009116,-9918.759623,2834.553343
616.571559,1776.494261,-11177.109724,3677.258390
616.571883,740.205942,-11251.130318,2451.505594
616.572207,148.041188,-9770.718434,1685.410096
616.572531,-1258.350101,-8882.471304,1838.629195
616.572855,-1480.411884,-10510.924376,1302.362347
616.573179,-518.144159,-9474.636058,-459.657299
616.573503,1110.308913,-6809.894666,-766.095498
616.573828,666.185348,-6735.874072,0.000000
616.574152,2368.659014,-7920.203579,-1072.533697
616.574476,4145.153275,-8216.285956,-306.438199
616.574800,5403.503377,-7994.224174,2145.067394
616.575124,6217.729913,-8586.388927,2681.334243
616.575448,4959.379811,-9918.759623,2068.457845
616.575772,3478.967927,-10214.842000,2757.943793
616.576096,2442.679609,-8956.491898,3447.429741
616.576420,2368.659014,-9622.677246,3140.991542
616.576744,592.164754,-11399.171507,2987.772442
616.577068,-1036.288319,-10510.924376,2068.457845
616.577392,-2220.617826,-9474.636058,842.705048
616.577717,-2664.741391,-8586.388927,459.657299
616.578041,-1332.370696,-9030.512492,-689.485948
616.578365,-740.205942,-10807.006753,612.876398
616.578689,1184.329507,-10807.006753,766.095498
616.579013,1998.556043,-9918.759623,229.828649
616.579337,1406.391290,-10214.842000,229.828649
616.579661,1332.370696,-10214.842000,229.828649
616.579985,2368.659014,-11325.150913,995.924147
616.580309,2886.803174,-11621.233289,1608.800546
616.580633,3034.844362,-10658.965565,2681.334243
616.580957,2072.576638,-10066.800811,3064.381992
616.581281,1480.411884,-9622.677246,3217.601092
616.581605,1258.350101,-9992.780217,3524.039291
616.581930,518.144159,-10362.883188,2604.724693
616.582254,-2072.576638,-8956.491898,2604.724693
616.582578,-3256.906145,-8142.265362,2528.115143
616.582902,-1850.514855,-7402.059420,1378.971896
616.583226,888.247130,-7476.080014,1149.143247
616.583550,148.041188,-6883.915261,0.000000
616.583874,-1332.370696,-7476.080014,-1149.143247
616.584198,-1924.535449,-8438.347739,-2298.286494
616.584522,-1036.288319,-9030.512492,-842.705048
616.584846,518.144159,-9474.636058,306.438199
616.585170,962.267725,-10807.006753,1302.362347
616.585494,0.000000,-10881.027347,1455.581446
616.585819,296.082377,-10584.944971,766.095498
616.586143,2294.638420,-10658.965565,2451.505594
616.586467,3997.112087,-11547.212695,2987.772442
616.586791,3701.029710,-10658.965565,2604.724693
616.587115,1998.556043,-9474.636058,2528.115143
616.587439,444.123565,-9474.636058,1302.362347
616.587763,-814.226536,-9104.533087,-612.876398
616.588087,-2664.741391,-8142.265362,-2834.553343
616.588411,-3627.009116,-7920.203579,-2604.724693
616.588735,-4145.153275,-7920.203579,-3447.429741
616.589059,-2960.823768,-9326.594869,-2604.724693
616.589383,-1776.494261,-9400.615463,-1225.752797
616.589708,0.000000,-9400.615463,-766.095498
616.590032,962.267725,-10214.842000,-536.266849
616.590356,888.247130,-9918.759623,0.000000
616.590680,1258.350101,-9918.759623,-383.047749
616.591004,2220.617826,-10881.027347,995.924147
616.591328,3330.926739,-11917.315666,1685.410096
616.591652,2960.823768,-12361.439231,1455.581446
616.591976,1628.453072,-11843.295072,842.705048
616.592300,0.000000,-10881.027347,-612.876398
616.592624,-814.226536,-9178.553681,-2374.896044
616.592948,-1480.411884,-8512.368333,-3983.696590
616.593272,-2146.597232,-9030.512492,-4060.306139
616.593597,-2516.700203,-9548.656652,-3140.991542
616.593921,-1332.370696,-9696.697840,-1915.238745
616.594245,222.061783,-9252.574275,-842.705048
616.594569,1480.411884,-9400.615463,-842.705048
616.594893,962.267725,-9474.636058,-1302.362347
616.595217,-296.082377,-9400.615463,-842.705048
616.595541,-740.205942,-11029.068536,0.000000
616.595865,-592.164754,-11769.274478,689.485948
616.596189,-1258.350101,-10658.965565,229.828649
616.596513,-1332.370696,-10214.842000,-306.438199
616.596837,-1850.514855,-9696.697840,-1378.971896
616.597161,-962.267725,-9474.636058,-2528.115143
616.597485,-962.267725,-9548.656652,-1838.629195
616.597810,-518.144159,-10288.862594,-1455.581446
616.598134,518.144159,-9918.759623,-1225.752797
616.598458,1036.288319,-9030.512492,-229.828649
616.598782,740.205942,-9252.574275,-383.047749
616.599106,888.247130,-9622.677246,-383.047749
616.599430,222.061783,-11251.130318,0.000000
616.599754,-370.102971,-11251.130318,995.924147
616.600078,-518.144159,-9770.718434,1149.143247
616.600402,-740.205942,-8586.388927,1072.533697
616.600726,-1036.288319,-8734.430116,919.314598
616.601050,222.061783,-9844.739029,995.924147
616.601374,518.144159,-10288.862594,536.266849
616.601699,-370.102971,-8660.409521,229.828649
616.602023,-1628.453072,-7994.224174,383.047749
616.602347,-1480.411884,-8586.388927,689.485948
616.602671,-518.144159,-9252.574275,0.000000
616.602995,-444.123565,-8956.491898,306.438199
616.603319,-1184.329507,-8734.430116,0.000000
616.603643,-1184.329507,-8808.450710,-919.314598
616.603967,-148.041188,-9178.553681,229.828649
616.604291,1628.453072,-9696.697840,1225.752797
616.604615,1850.514855,-9992.780217,1455.581446
616.604939,296.082377,-9474.636058,1455.581446
616.605263,-592.164754,-9178.553681,1762.019645
616.605588,-370.102971,-9474.636058,995.924147
616.605912,518.144159,-9622.677246,1762.019645
616.606236,962.267725,-9400.615463,1991.848295
616.606560,518.144159,-8660.409521,1685.410096
616.606884,444.123565,-8660.409521,689.485948
616.607208,444.123565,-8734.430116,-306.438199
616.607532,148.041188,-9474.636058,-229.828649
616.607856,-666.185348,-9326.594869,-1685.410096
616.608180,-1258.350101,-9030.512492,-1685.410096
616.608504,-1628.453072,-8956.491898,-1608.800546
616.608828,-518.144159,-9622.677246,-1149.143247
616.609152,962.267725,-11103.089130,-919.314598
616.609477,1776.494261,-11177.109724,-306.438199
616.609801,1850.514855,-10436.903782,612.876398
616.610125,2220.617826,-10214.842000,536.266849
616.610449,3034.844362,-10807.006753,1532.190996
616.610773,3256.906145,-11177.109724,919.314598
616.611097,2368.659014,-11695.253884,689.485948
616.611421,814.226536,-11325.150913,153.219100
616.611745,0.000000,-11103.089130,0.000000
616.612069,222.061783,-11177.109724,0.000000
616.612393,-666.185348,-10584.944971,-153.219100
616.612717,-1850.514855,-9918.759623,-459.657299
616.613041,-2738.761985,-9474.636058,-1072.533697
616.613365,-3330.926739,-10436.903782,-1225.752797
616.613690,-2146.597232,-9400.615463,-842.705048
616.614014,-1036.288319,-8882.471304,842.705048
616.614338,-592.164754,-9400.615463,995.924147
616.614662,148.041188,-8290.306550,1072.533697
616.614986,1110.308913,-7550.100608,1378.971896
616.615310,1776.494261,-7846.182985,1302.362347
616.615634,1702.473667,-8660.409521,842.705048
616.615958,1110.308913,-8734.430116,612.876398
616.616282,148.041188,-8364.327145,689.485948
616.616606,74.020594,-8586.388927,919.314598
616.616930,370.102971,-8882.471304,-306.438199
616.617254,370.102971,-9030.512492,0.000000
616.617579,-666.185348,-8512.368333,0.000000
616.617903,-1184.329507,-8512.368333,-306.438199
616.618227,-1258.350101,-8438.347739,-612.876398
616.618551,-1554.432478,-9030.512492,-383.047749
616.618875,-1258.350101,-9622.677246,0.000000
616.619199,-1332.370696,-10362.883188,0.000000
616.619523,-1850.514855,-10214.842000,-459.657299
616.619847,-2368.659014,-9918.759623,-612.876398
616.620171,-1924.535449,-10066.800811,-459.657299
616.620495,-1184.329507,-9770.718434,-919.314598
616.620819,-222.061783,-9548.656652,-229.828649
616.621143,0.000000,-9696.697840,-536.266849
616.621468,-148.041188,-9252.574275,-995.924147
616.621792,-444.123565,-9770.718434,-383.047749
616.622116,444.123565,-11103.089130,-612.876398
616.622440,1850.514855,-11251.130318,-766.095498
616.622764,1258.350101,-9474.636058,-1762.019645
616.623088,148.041188,-9400.615463,-1378.971896
616.623412,74.020594,-10881.027347,-1608.800546
616.623736,296.082377,-11399.171507,-1915.238745
616.624060,0.000000,-10066.800811,-1608.800546
616.624384,1110.308913,-9326.594869,-1378.971896
616.624708,2516.700203,-9622.677246,-766.095498
616.625032,3701.029710,-11325.150913,0.000000
616.625357,3478.967927,-11917.315666,842.705048
616.625681,2442.679609,-11399.171507,76.609550
616.626005,296.082377,-9918.759623,-1762.019645
616.626329,-1036.288319,-10066.800811,-2451.505594
616.626653,-962.267725,-11547.212695,-919.314598
616.626977,0.000000,-12361.439231,-229.828649
616.627301,0.000000,-11621.233289,383.047749
616.627625,-1184.329507,-9548.656652,-153.219100
616.627949,-962.267725,-8734.430116,-153.219100
616.628273,296.082377,-9474.636058,-842.705048
616.628597,814.226536,-10584.944971,0.000000
616.628921,0.000000,-9918.759623,1302.362347
616.629246,-888.247130,-9104.533087,1532.190996
616.629570,-1110.308913,-9030.512492,1991.848295
616.629894,-740.205942,-7920.203579,1455.581446
616.630218,0.000000,-7476.080014,536.266849
616.630542,0.000000,-7920.203579,0.000000
616.630866,592.164754,-9548.656652,459.657299
616.631190,1480.411884,-9474.636058,1378.971896
616.631514,1924.535449,-7698.141797,1838.629195
616.631838,0.000000,-6809.894666,2221.676944
616.632162,-1332.370696,-7031.956449,1838.629195
616.632486,-1554.432478,-8586.388927,536.266849
616.632810,-1998.556043,-8808.450710,1072.533697
616.633134,-962.267725,-8512.368333,1532.190996
616.633459,-148.041188,-8364.327145,1762.019645
616.633783,-962.267725,-8290.306550,1225.752797
616.634107,-2590.720797,-8216.285956,1149.143247
616.634431,-2590.720797,-8882.471304,0.000000
616.634755,-1776.494261,-10362.883188,-153.219100
616.635079,-962.267725,-11325.150913,612.876398
616.635403,296.082377,-10436.903782,689.485948
616.635727,1406.391290,-9770.718434,612.876398
616.636051,1184.329507,-10288.862594,383.047749
616.636375,0.000000,-11029.068536,306.438199
616.636699,74.020594,-12213.398043,0.000000
616.637023,-518.144159,-11695.253884,995.924147
616.637348,-148.041188,-10732.986159,153.219100
616.637672,296.082377,-10140.821405,76.609550
616.637996,962.267725,-10066.800811,0.000000
616.638320,962.267725,-10066.800811,-459.657299
616.638644,222.061783,-9104.533087,-1455.581446
616.638968,148.041188,-8142.265362,-1302.362347
616.639292,740.205942,-8956.491898,-1072.533697
616.639616,1702.473667,-9548.656652,-689.485948
616.639940,1776.494261,-9844.739029,-383.047749
616.640264,-148.041188,-10066.800811,-1072.533697
616.640588,-592.164754,-9474.636058,-1762.019645
616.640912,888.247130,-9770.718434,-1149.143247
616.641237,3108.864956,-11251.130318,-229.828649
616.641561,3182.885551,-10658.965565,153.219100
616.641885,2072.576638,-10436.903782,153.219100
616.642209,296.082377,-10881.027347,0.000000
616.642533,-1332.370696,-11843.295072,-1302.362347
616.642857,-1036.288319,-11843.295072,-1302.362347
616.643181,-1110.308913,-10658.965565,-766.095498
616.643505,-1332.370696,-9992.780217,-1302.362347
616.643829,-1480.411884,-9326.594869,-536.266849
616.644153,-1036.288319,-9030.512492,-1149.143247
616.644477,-296.082377,-9326.594869,-536.266849
616.644801,74.020594,-9770.718434,76.609550
616.645126,148.041188,-8808.450710,-153.219100
616.645450,0.000000,-7624.121203,0.000000
616.645774,-370.102971,-7402.059420,-153.219100
616.646098,0.000000,-8586.388927,153.219100
616.646422,-518.144159,-8438.347739,536.266849
616.646746,-1332.370696,-7846.182985,459.657299
616.647070,-1406.391290,-7846.182985,1225.752797
616.647394,296.082377,-8142.265362,842.705048
616.647718,1924.535449,-9326.594869,766.095498
616.648042,1480.411884,-9474.636058,229.828649
616.648366,-296.082377,-9474.636058,-383.047749
616.648690,-1036.288319,-9992.780217,-229.828649
616.649014,-1332.370696,-10881.027347,0.000000
616.649339,-444.123565,-11399.171507,919.314598
616.649663,0.000000,-10584.944971,536.266849
616.649987,-1036.288319,-10362.883188,-306.438199
616.650311,-1702.473667,-9918.759623,-766.095498
616.650635,-1184.329507,-9844.739029,-229.828649
616.650959,222.061783,-10881.027347,-383.047749
616.651283,666.185348,-10214.842000,0.000000
616.651607,296.082377,-8364.327145,536.266849
616.651931,814.226536,-8956.491898,689.485948
616.652255,444.123565,-9030.512492,-229.828649
616.652579,-1110.308913,-8956.491898,-306.438199
616.652903,-2368.659014,-9474.636058,0.000000
616.653228,-2738.761985,-10362.883188,-689.485948
616.653552,-962.267725,-9844.739029,-689.485948
616.653876,74.020594,-8660.409521,-229.828649
616.654200,740.205942,-8734.430116,-306.438199
616.654524,666.185348,-9548.656652,-536.266849
616.654848,1110.308913,-9622.677246,-153.219100
616.655172,1776.494261,-9400.615463,383.047749
616.655496,1850.514855,-9474.636058,383.047749
616.655820,1332.370696,-10140.821405,0.000000
616.656144,222.061783,-10288.862594,-153.219100
616.656468,-148.041188,-10881.027347,-1455.581446
616.656792,74.020594,-10658.965565,-383.047749
616.657117,740.205942,-11695.253884,306.438199
616.657441,1480.411884,-12287.418637,536.266849
616.657765,1554.432478,-11251.130318,383.047749
616.658089,740.205942,-10140.821405,536.266849
616.658413,0.000000,-10214.842000,0.000000
616.658737,222.061783,-10955.047942,76.609550
616.659061,0.000000,-10362.883188,0.000000
616.659385,-518.144159,-8660.409521,459.657299
616.659709,-1184.329507,-8512.368333,-383.047749
616.660033,-1258.350101,-8734.430116,-153.219100
616.660357,-518.144159,-8882.471304,-306.438199
616.660681,0.000000,-8956.491898,229.828649
616.661006,518.144159,-8068.244768,766.095498
616.661330,740.205942,-7698.141797,536.266849
616.661654,962.267725,-8216.285956,0.000000
616.661978,740.205942,-8660.409521,612.876398
616.662302,1036.288319,-9770.718434,1455.581446
616.662626,0.000000,-9326.594869,1149.143247
616.662950,-1332.370696,-8586.388927,919.314598
616.663274,-1258.350101,-7772.162391,306.438199
616.663598,0.000000,-7994.224174,-383.047749
616.663922,222.061783,-9400.615463,383.047749
616.664246,-370.102971,-9474.636058,612.876398
616.664570,-148.041188,-9770.718434,612.876398
616.664894,-740.205942,-9992.780217,1149.143247
616.665219,-296.082377,-9696.697840,0.000000
616.665543,-296.082377,-10214.842000,-612.876398
616.665867,-1406.391290,-10881.027347,-995.924147
616.666191,-1776.494261,-11843.295072,76.609550
616.666515,-592.164754,-11917.315666,689.485948
616.666839,592.164754,-11695.253884,153.219100
616.667163,962.267725,-10288.862594,153.219100
616.667488,1924.535449,-9992.780217,-229.828649
616.667812,1480.411884,-10955.047942,-383.047749
616.668136,1258.350101,-11547.212695,842.705048
616.668460,888.247130,-10881.027347,1455.581446
616.668784,1554.432478,-10510.924376,459.657299
616.669109,-148.041188,-8734.430116,0.000000
616.669433,-1036.288319,-9252.574275,-153.219100
616.669757,-1258.350101,-9104.533087,-383.047749
616.670081,-1850.514855,-9992.780217,-612.876398
616.670405,-2072.576638,-8586.388927,-306.438199
616.670729,-1702.473667,-7031.956449,-766.095498
616.671054,-740.205942,-7772.162391,-1225.752797
616.671378,518.144159,-8586.388927,-919.314598
616.671702,2220.617826,-8882.471304,-383.047749
616.672026,1628.453072,-9844.739029,0.000000
616.672350,148.041188,-9474.636058,-383.047749
616.672674,-666.185348,-8956.491898,-383.047749
616.672999,-370.102971,-9844.739029,-306.438199
616.673323,666.185348,-11177.109724,-459.657299
616.673647,962.267725,-11029.068536,-689.485948
616.673971,888.247130,-10436.903782,229.828649
616.674295,888.247130,-10510.924376,-229.828649
616.674620,1184.329507,-10288.862594,-383.047749
616.674944,1110.308913,-9622.677246,-1378.971896
616.675268,0.000000,-9918.759623,-1532.190996
616.675592,-1480.411884,-9622.677246,-2528.115143
616.675916,-2368.659014,-9474.636058,-2604.724693
616.676240,-1628.453072,-8438.347739,-2528.115143
616.676565,-370.102971,-8660.409521,-1378.971896
616.676889,0.000000,-9696.697840,-459.657299
616.677213,0.000000,-9696.697840,-995.924147
616.677537,-148.041188,-9104.533087,-689.485948
616.677861,-296.082377,-8364.327145,-383.047749
616.678185,74.020594,-9400.615463,-153.219100
616.678510,0.000000,-10140.821405,383.047749
616.678834,-222.061783,-9696.697840,536.266849
616.679158,-814.226536,-10066.800811,612.876398
616.679482,0.000000,-9918.759623,383.047749
616.679806,148.041188,-10510.924376,-229.828649
616.680131,148.041188,-10510.924376,-383.047749
616.680455,-962.267725,-10214.842000,-1225.752797
616.680779,-1702.473667,-9548.656652,-1762.019645
616.681103,-370.102971,-9918.759623,-1762.019645
616.681427,1110.308913,-10955.047942,689.485948
616.681751,1776.494261,-11473.192101,459.657299
616.682076,1258.350101,-10658.965565,76.609550
616.682400,148.041188,-9326.594869,153.219100
616.682724,-666.185348,-9474.636058,153.219100
616.683048,-666.185348,-10955.047942,919.314598
616.683372,0.000000,-10214.842000,1762.019645
616.683696,666.185348,-9400.615463,1915.238745
616.684021,222.061783,-8364.327145,1455.581446
616.684345,0.000000,-8290.306550,842.705048
616.684669,-592.164754,-8734.430116,689.485948
616.684993,-1258.350101,-9474.636058,536.266849
616.685317,-2146.597232,-9178.553681,229.828649
616.685642,-1998.556043,-8438.347739,153.219100
616.685966,-2146.597232,-8586.388927,0.000000
616.686290,-2146.597232,-9178.553681,306.438199
616.686614,-1036.288319,-8438.347739,-459.657299
616.686938,-1332.370696,-8438.347739,-76.609550
616.687262,-592.164754,-9474.636058,612.876398
616.687587,814.226536,-9770.718434,536.266849
616.687911,1554.432478,-9252.574275,1149.143247
616.688235,1332.370696,-8290.306550,383.047749
616.688559,888.247130,-8290.306550,0.000000
616.688883,592.164754,-9770.718434,-153.219100
616.689207,1036.288319,-9992.780217,0.000000
616.689532,1702.473667,-10732.986159,229.828649
616.689856,1924.535449,-10214.842000,229.828649
616.690180,1776.494261,-9918.759623,153.219100
616.690504,1258.350101,-10214.842000,-612.876398
616.690828,592.164754,-11325.150913,-919.314598
616.691153,370.102971,-10807.006753,-842.705048
616.691477,740.205942,-10066.800811,-1225.752797
616.691801,0.000000,-10510.924376,-919.314598
616.692125,148.041188,-10807.006753,0.000000
616.692449,1036.288319,-10732.986159,0.000000
616.692773,444.123565,-10732.986159,-153.219100
616.693098,-1258.350101,-10362.883188,-612.876398
616.693422,-2294.638420,-9770.718434,-1455.581446
616.693746,-2590.720797,-9548.656652,-1532.190996
616.694070,-814.226536,-9178.553681,-383.047749
616.694394,148.041188,-9918.759623,383.047749
616.694719,592.164754,-9400.615463,0.000000
616.695043,222.061783,-8734.430116,-153.219100
616.695367,370.102971,-8586.388927,383.047749
616.695691,2072.576638,-9252.574275,229.828649
616.696015,1036.288319,-9992.780217,689.485948
616.696339,-370.102971,-9252.574275,153.219100
616.696664,-1332.370696,-8364.327145,76.609550
616.696988,-740.205942,-8586.388927,0.000000
616.697312,0.000000,-9326.594869,0.000000
616.697636,0.000000,-9474.636058,689.485948
616.697960,666.185348,-8808.450710,0.000000
616.698284,148.041188,-9030.512492,0.000000
616.698609,-222.061783,-9252.574275,612.876398
616.698933,74.020594,-9918.759623,0.000000
616.699257,-1184.329507,-10436.903782,536.266849
616.699581,-1776.494261,-9844.739029,0.000000
616.699905,-1554.432478,-9770.718434,76.609550
616.700230,74.020594,-10436.903782,1149.143247
616.700554,1406.391290,-11399.171507,1915.238745
616.700878,1036.288319,-11325.150913,612.876398
616.701202,-370.102971,-9400.615463,153.219100
616.701526,-2146.597232,-8512.368333,-612.876398
616.701850,-2442.679609,-9622.677246,-153.219100
616.702175,-1036.288319,-10066.800811,0.000000
616.702499,0.000000,-10214.842000,229.828649
616.702823,-518.144159,-8956.491898,0.000000
616.703147,-740.205942,-8512.368333,-1149.143247
616.703471,-370.102971,-8216.285956,-612.876398
616.703795,740.205942,-9844.739029,-229.828649
616.704120,962.267725,-9770.718434,-612.876398
616.704444,1406.391290,-9030.512492,-919.314598
616.704768,888.247130,-9030.512492,229.828649
616.705092,1554.432478,-9992.780217,-306.438199
616.705416,2294.638420,-10140.821405,0.000000
616.705741,1480.411884,-10066.800811,229.828649
616.706065,666.185348,-10362.883188,-383.047749
616.706389,0.000000,-10066.800811,-1302.362347
616.706713,-296.082377,-10140.821405,-459.657299
616.707037,0.000000,-10732.986159,-536.266849
616.707361,-370.102971,-10955.047942,-1072.533697
616.707686,-1776.494261,-10362.883188,-1378.971896
616.708010,-2590.720797,-10140.821405,-1532.190996
616.708334,-1924.535449,-9548.656652,-1302.362347
616.708658,0.000000,-9770.718434,-1072.533697
616.708982,0.000000,-10584.944971,-536.266849
616.709306,-666.185348,-9918.759623,-1455.581446
616.709631,-1998.556043,-9326.594869,-1991.848295
616.709955,-2220.617826,-8956.491898,-2298.286494
616.710279,-740.205942,-9770.718434,-1532.190996
616.710603,1406.391290,-10807.006753,-306.438199
616.710927,3404.947333,-10066.800811,1149.143247
616.711252,3478.967927,-9030.512492,153.219100
616.711576,2886.803174,-8438.347739,-229.828649
616.711900,1998.556043,-9474.636058,-612.876398
616.712224,1184.329507,-10066.800811,-919.314598
616.712548,1332.370696,-10510.924376,-612.876398
616.712872,666.185348,-9474.636058,-153.219100
616.713197,592.164754,-9178.553681,-306.438199
616.713521,814.226536,-10362.883188,766.095498
616.713845,666.185348,-11029.068536,-536.266849
616.714169,-370.102971,-9770.718434,-1455.581446
616.714493,-1924.535449,-9548.656652,-766.095498
616.714817,-1332.370696,-10658.965565,-689.485948
616.715142,-148.041188,-11177.109724,383.047749
616.715466,-518.144159,-10140.821405,1378.971896
616.715790,-296.082377,-9770.718434,1685.410096
616.716114,-1036.288319,-9992.780217,459.657299
616.716438,-1110.308913,-9326.594869,842.705048
616.716763,-962.267725,-9474.636058,1915.238745
616.717087,-1406.391290,-9696.697840,1455.581446
616.717411,-2146.597232,-8512.368333,1225.752797
616.717735,-1998.556043,-7031.956449,1302.362347
616.718059,-1406.391290,-7698.141797,1685.410096
616.718383,-222.061783,-8586.388927,459.657299
616.718708,-296.082377,-7846.182985,919.314598
616.719032,-370.102971,-6735.874072,919.314598
616.719356,0.000000,-7105.977043,766.095498
616.719680,296.082377,-7624.121203,689.485948
616.720004,0.000000,-8512.368333,919.314598
616.720329,-962.267725,-8216.285956,536.266849
616.720653,-1036.288319,-8364.327145,306.438199
616.720977,0.000000,-8734.430116,459.657299
616.721301,1702.473667,-9474.636058,842.705048
616.721625,2368.659014,-10732.986159,919.314598
616.721949,1628.453072,-10807.006753,842.705048
616.722274,1036.288319,-10881.027347,229.828649
616.722598,296.082377,-11325.150913,-306.438199
616.722922,0.000000,-11547.212695,-689.485948
616.723246,-518.144159,-11843.295072,0.000000
616.723570,-444.123565,-12805.562797,-459.657299
616.723894,-1036.288319,-12361.439231,-1915.238745
616.724219,-1776.494261,-11399.171507,-2068.457845
616.724543,-1332.370696,-10955.047942,-2221.676944
616.724867,148.041188,-11769.274478,-1532.190996
616.725191,1406.391290,-11843.295072,-689.485948
616.725515,1258.350101,-10510.924376,-842.705048
616.725840,814.226536,-9696.697840,-612.876398
616.726164,1036.288319,-10658.965565,-919.314598
616.726488,1480.411884,-10732.986159,-383.047749
616.726812,1406.391290,-9918.759623,0.000000
616.727136,592.164754,-9400.615463,153.219100
616.727460,518.144159,-8438.347739,229.828649
616.727785,1628.453072,-8586.388927,76.609550
616.728109,1554.432478,-8660.409521,-306.438199
616.728433,1406.391290,-8364.327145,-1302.362347
616.728757,-370.102971,-8216.285956,-995.924147
616.729081,-518.144159,-8512.368333,-383.047749
616.729405,0.000000,-9030.512492,-153.219100
616.729730,-222.061783,-9474.636058,76.609550
616.730054,-1258.350101,-8956.491898,-689.485948
616.730378,-2294.638420,-9104.533087,-612.876398
616.730702,-1480.411884,-9252.574275,-689.485948
616.731026,-1480.411884,-9474.636058,0.000000
616.731351,-1110.308913,-9400.615463,536.266849
616.731675,-814.226536,-8808.450710,306.438199
616.731999,-962.267725,-8734.430116,229.828649
616.732323,-962.267725,-8956.491898,689.485948
616.732647,-1332.370696,-9178.553681,76.609550
616.732971,-1110.308913,-9326.594869,689.485948
616.733296,-1628.453072,-8734.430116,0.000000
616.733620,-1628.453072,-8660.409521,459.657299
616.733944,-740.205942,-9178.553681,229.828649
616.734268,74.020594,-9030.512492,153.219100
616.734592,1258.350101,-9178.553681,1302.362347
616.734916,1850.514855,-9252.574275,1532.190996
616.735241,2146.597232,-8882.471304,842.705048
616.735565,1110.308913,-8142.265362,76.609550
616.735889,518.144159,-7698.141797,-536.266849
616.736213,888.247130,-8956.491898,-689.485948
616.736537,222.061783,-10436.903782,-842.705048
616.736862,-1036.288319,-10510.924376,-689.485948
616.737186,-1850.514855,-10140.821405,0.000000
616.737510,-444.123565,-9844.739029,-995.924147
616.737834,592.164754,-10732.986159,-459.657299
616.738158,666.185348,-11473.192101,-153.219100
616.738482,962.267725,-11473.192101,-766.095498
616.738807,592.164754,-11769.274478,-766.095498
616.739131,-222.061783,-12065.356855,0.000000
616.739455,-370.102971,-12953.603985,76.609550
616.739779,-1480.411884,-12287.418637,-1225.752797
616.740103,-2146.597232,-11177.109724,-1838.629195
616.740427,-1554.432478,-11177.109724,-995.924147
616.740752,-444.123565,-11547.212695,-1378.971896
616.741076,740.205942,-12065.356855,-153.219100
616.741400,1110.308913,-11029.068536,76.609550
616.741724,1924.535449,-9474.636058,-229.828649
616.742048,1258.350101,-8438.347739,-842.705048
616.742373,0.000000,-9548.656652,153.219100
616.742697,296.082377,-10510.924376,919.314598
616.743021,222.061783,-8660.409521,612.876398
616.743345,-962.267725,-7179.997637,153.219100
616.743669,-1480.411884,-7179.997637,153.219100
616.743993,-148.041188,-7846.182985,0.000000
616.744318,1184.329507,-7994.224174,612.876398
616.744642,0.000000,-7698.141797,459.657299
616.744966,-370.102971,-6809.894666,-153.219100
616.745290,-444.123565,-6661.853478,-383.047749
616.745614,-444.123565,-8142.265362,-536.266849
616.745938,0.000000,-8882.471304,-459.657299
616.746263,0.000000,-9178.553681,0.000000
616.746587,148.041188,-10140.821405,919.314598
616.746911,0.000000,-10214.842000,76.609550
616.747235,0.000000,-10140.821405,1378.971896
616.747559,444.123565,-10288.862594,1149.143247
616.747884,0.000000,-10881.027347,306.438199
616.748208,-740.205942,-10807.006753,306.438199
616.748532,0.000000,-9770.718434,536.266849
616.748856,1258.350101,-9622.677246,766.095498
616.749180,1628.453072,-9030.512492,995.924147
616.749504,74.020594,-9030.512492,689.485948
616.749829,-1332.370696,-9030.512492,-229.828649
616.750153,-2368.659014,-8734.430116,-995.924147
616.750477,-1850.514855,-9178.553681,-229.828649
616.750801,-296.082377,-8956.491898,-383.047749
616.751125,666.185348,-8290.306550,0.000000
616.751450,888.247130,-8586.388927,612.876398
616.751774,1554.432478,-8660.409521,-229.828649
616.752098,1184.329507,-9400.615463,229.828649
616.752422,222.061783,-9918.759623,229.828649
616.752746,-1258.350101,-10584.944971,229.828649
616.753070,-1850.514855,-10658.965565,383.047749
616.753395,-1110.308913,-10362.883188,153.219100
616.753719,0.000000,-11251.130318,-153.219100
616.754043,888.247130,-11251.130318,-842.705048
616.754367,1258.350101,-10955.047942,-306.438199
616.754691,2220.617826,-11695.253884,153.219100
616.755015,2368.659014,-10658.965565,0.000000
616.755340,1554.432478,-10584.944971,-229.828649
616.755664,0.000000,-10584.944971,-459.657299
616.755988,-1110.308913,-11399.171507,-1149.143247
616.756312,-1924.535449,-11621.233289,0.000000
616.756636,-1406.391290,-10732.986159,-306.438199
616.756961,-740.205942,-9326.594869,153.219100
616.757285,-444.123565,-9104.533087,0.000000
616.757609,-888.247130,-9252.574275,-153.219100
616.757933,-1184.329507,-9400.615463,-229.828649
616.758257,-888.247130,-8956.491898,-536.266849
616.758581,-518.144159,-8660.409521,919.314598
616.758906,-518.144159,-8512.368333,383.047749
616.759230,-148.041188,-7402.059420,0.000000
616.759554,592.164754,-8142.265362,383.047749
616.759878,1924.535449,-9326.594869,612.876398
616.760202,2368.659014,-10214.842000,306.438199
616.760526,1776.494261,-10140.821405,612.876398
616.760851,222.061783,-9252.574275,383.047749
616.761175,-444.123565,-8142.265362,-153.219100
616.761499,0.000000,-9770.718434,-153.219100
616.761823,444.123565,-11399.171507,612.876398
616.762147,-518.144159,-10436.903782,0.000000
616.762472,-1554.432478,-9622.677246,459.657299
616.762796,-2072.576638,-9252.574275,153.219100
616.763120,-1998.556043,-9326.594869,0.000000
616.763444,-1628.453072,-9400.615463,-229.828649
616.763768,-1258.350101,-8364.327145,-153.219100
616.764092,-1480.411884,-8290.306550,0.000000
616.764417,-962.267725,-8438.347739,-766.095498
616.764741,0.000000,-7994.224174,-1072.533697
616.765065,370.102971,-8734.430116,-536.266849
616.765389,1184.329507,-9326.594869,-536.266849
616.765713,1258.350101,-9548.656652,-689.485948
616.766037,444.123565,-9696.697840,0.000000
616.766362,74.020594,-9918.759623,153.219100
616.766686,370.102971,-10584.944971,-306.438199
616.767010,740.205942,-10214.842000,0.000000
616.767334,1406.391290,-10362.883188,459.657299
616.767658,2812.782580,-10510.924376,766.095498
616.767982,3034.844362,-11621.233289,1149.143247
616.768306,1628.453072,-11177.109724,1532.190996
616.768630,518.144159,-9918.759623,0.000000
616.768955,-1702.473667,-9696.697840,-1608.800546
616.769279,-2590.720797,-10214.842000,-2911.162892
616.769603,-1184.329507,-9474.636058,-2451.505594
616.769927,-148.041188,-10510.924376,-1149.143247
616.770251,370.102971,-11621.233289,229.828649
616.770575,666.185348,-11103.089130,0.000000
616.770899,296.082377,-9770.718434,0.000000
616.771223,-444.123565,-9474.636058,-306.438199
616.771547,370.102971,-10362.883188,76.609550
616.771872,1258.350101,-11177.109724,536.266849
616.772196,1480.411884,-9918.759623,842.705048
616.772520,666.185348,-8660.409521,1149.143247
616.772844,296.082377,-8956.491898,1149.143247
616.773168,666.185348,-9770.718434,229.828649
616.773492,0.000000,-9918.759623,383.047749
616.773816,-1406.391290,-8364.327145,-153.219100
616.774140,-2220.617826,-7698.141797,-612.876398
616.774464,-2368.659014,-8734.430116,-229.828649
616.774789,-2072.576638,-9696.697840,-153.219100
616.775113,-1406.391290,-9400.615463,-153.219100
616.775437,-962.267725,-8290.306550,-153.219100
616.775761,-370.102971,-8364.327145,76.609550
616.776085,962.267725,-9030.512492,459.657299
616.776409,518.144159,-9474.636058,766.095498
616.776733,-962.267725,-9474.636058,1225.752797
616.777057,-1924.535449,-8882.471304,459.657299
616.777381,-1554.432478,-8364.327145,76.609550
616.777706,-666.185348,-9548.656652,153.219100
616.778030,222.061783,-9622.677246,766.095498
616.778354,1184.329507,-9326.594869,536.266849
616.778678,962.267725,-9326.594869,612.876398
616.779002,296.082377,-9252.574275,-306.438199
616.779326,296.082377,-9178.553681,-995.924147
616.779650,-296.082377,-9474.636058,-766.095498
616.779974,74.020594,-10214.842000,-153.219100
616.780298,518.144159,-11029.068536,76.609550
616.780623,962.267725,-10510.924376,306.438199
616.780947,0.000000,-9474.636058,0.000000
616.781271,74.020594,-10214.842000,229.828649
616.781595,0.000000,-9622.677246,-459.657299
616.781919,-592.164754,-10362.883188,-383.047749
616.782243,-1406.391290,-9770.718434,-306.438199
616.782567,-1110.308913,-9696.697840,-689.485948
616.782891,-444.123565,-10807.006753,76.609550
616.783215,1036.288319,-10288.862594,-153.219100
616.783540,1480.411884,-9548.656652,0.000000
616.783864,1776.494261,-9918.759623,383.047749
616.784188,2368.659014,-9770.718434,-1302.362347
616.784512,2146.597232,-10214.842000,-459.657299
616.784836,592.164754,-10436.903782,-383.047749
616.785160,-222.061783,-11251.130318,-919.314598
616.785484,-222.061783,-11177.109724,-229.828649
616.785808,592.164754,-10362.883188,-153.219100
616.786132,1480.411884,-10140.821405,-153.219100
616.786457,1110.308913,-9548.656652,0.000000
616.786781,0.000000,-9252.574275,-153.219100
616.787105,-740.205942,-10362.883188,76.609550
616.787429,-1036.288319,-10510.924376,-153.219100
616.787753,-592.164754,-8956.491898,0.000000
616.788077,-444.123565,-8216.285956,689.485948
616.788401,0.000000,-9030.512492,689.485948
616.788725,592.164754,-8882.471304,229.828649
616.789049,962.267725,-8364.327145,229.828649
616.789374,148.041188,-7994.224174,383.047749
616.789698,-1184.329507,-7846.182985,-459.657299
616.790022,-2294.638420,-7846.182985,-536.266849
616.790346,-2368.659014,-8068.244768,-229.828649
616.790670,-1924.535449,-9474.636058,306.438199
616.790994,-1110.308913,-8586.388927,0.000000
616.791318,148.041188,-7698.141797,842.705048
616.791642,592.164754,-7772.162391,842.705048
616.791966,1184.329507,-8808.450710,0.000000
616.792291,1110.308913,-9474.636058,0.000000
616.792615,370.102971,-10066.800811,766.095498
616.792939,-518.144159,-9844.739029,0.000000
616.793263,-814.226536,-10362.883188,-306.438199
616.793587,-740.205942,-9770.718434,-459.657299
616.793911,0.000000,-11103.089130,0.000000
616.794235,222.061783,-12287.418637,-383.047749
616.794559,-296.082377,-11843.295072,-306.438199
616.794883,-148.041188,-11029.068536,-229.828649
616.795208,148.041188,-10732.986159,0.000000
616.795532,222.061783,-11029.068536,-229.828649
616.795856,-444.123565,-10807.006753,76.609550
616.796180,-962.267725,-10881.027347,-919.314598
616.796504,-814.226536,-10584.944971,-1149.143247
616.796828,-666.185348,-9844.739029,-1149.143247
616.797152,-592.164754,-9400.615463,-766.095498
616.797476,-592.164754,-9178.553681,-153.219100
616.797800,-296.082377,-9400.615463,153.219100
616.798125,-370.102971,-9474.636058,229.828649
616.798449,-518.144159,-8142.265362,-459.657299
616.798773,296.082377,-8364.327145,306.438199
616.799097,1184.329507,-8956.491898,306.438199
616.799421,1998.556043,-8734.430116,383.047749
616.799745,1776.494261,-8438.347739,0.000000
616.800069,666.185348,-8734.430116,-153.219100
616.800393,74.020594,-9992.780217,0.000000
616.800718,-296.082377,-10510.924376,0.000000
616.801042,-814.226536,-10362.883188,689.485948
616.801366,-296.082377,-10362.883188,153.219100
616.801690,296.082377,-10436.903782,-536.266849
616.802014,888.247130,-10510.924376,0.000000
616.802338,1480.411884,-10066.800811,459.657299
616.802662,1554.432478,-10140.821405,536.266849
616.802986,1110.308913,-9104.533087,-229.828649
616.803310,-296.082377,-8586.388927,76.609550
616.803635,-1332.370696,-9918.759623,0.000000
616.803959,-1480.411884,-10140.821405,-306.438199
616.804283,-814.226536,-9474.636058,0.000000
616.804607,0.000000,-8142.265362,229.828649
616.804931,1036.288319,-8068.244768,612.876398
616.805255,1702.473667,-8734.430116,459.657299
616.805579,1406.391290,-9104.533087,842.705048
616.805903,962.267725,-9030.512492,1455.581446
616.806227,148.041188,-9474.636058,76.609550
616.806552,-888.247130,-9326.594869,-459.657299
616.806876,-1036.288319,-9030.512492,0.000000
616.807200,-148.041188,-9326.594869,0.000000
616.807524,518.144159,-10214.842000,-383.047749
616.807848,-148.041188,-10140.821405,0.000000
616.808172,0.000000,-9696.697840,-306.438199
616.808496,592.164754,-9252.574275,-153.219100
616.808820,666.185348,-9474.636058,153.219100
616.809144,0.000000,-10436.903782,0.000000
616.809469,-1258.350101,-11103.089130,0.000000
616.809793,-1998.556043,-10881.027347,383.047749
616.810117,-2294.638420,-10510.924376,459.657299
616.810441,-1628.453072,-10658.965565,153.219100
616.810765,-1554.432478,-10510.924376,919.314598
616.811089,-1110.308913,-10955.047942,153.219100
616.811413,-592.164754,-9844.739029,-383.047749
616.811737,0.000000,-9326.594869,0.000000
616.812061,592.164754,-9030.512492,153.219100
616.812386,1184.329507,-9252.574275,0.000000
616.812710,814.226536,-9400.615463,0.000000
616.813034,592.164754,-8586.388927,306.438199
616.813358,-296.082377,-9548.656652,-153.219100
616.813682,-444.123565,-10140.821405,-842.705048
616.814006,-740.205942,-9844.739029,-612.876398
616.814330,-740.205942,-9474.636058,229.828649
616.814654,-1036.288319,-9030.512492,-383.047749
616.814978,-1258.350101,-10066.800811,-153.219100
616.815303,-666.185348,-10362.883188,-153.219100
616.815627,740.205942,-9104.533087,-229.828649
616.815951,1332.370696,-8660.409521,-459.657299
616.816275,1036.288319,-9400.615463,0.000000
616.816599,814.226536,-9918.759623,-689.485948
616.816923,1406.391290,-9548.656652,-766.095498
616.817247,-148.041188,-9326.594869,-1532.190996
616.817571,-1702.473667,-9548.656652,-2221.676944
616.817895,-1036.288319,-10214.842000,-1378.971896
616.818220,1184.329507,-11177.109724,-383.047749
616.818544,3478.967927,-11325.150913,383.047749
616.818868,3256.906145,-10288.862594,383.047749
616.819192,1480.411884,-9622.677246,0.000000
616.819516,0.000000,-10510.924376,-536.266849
616.819840,-222.061783,-11177.109724,-919.314598
616.820164,-592.164754,-10436.903782,-229.828649
616.820488,-740.205942,-9770.718434,153.219100
616.820812,-592.164754,-9770.718434,766.095498
616.821137,888.247130,-9326.594869,76.609550
616.821461,1332.370696,-8586.388927,0.000000
616.821785,888.247130,-8438.347739,0.000000
616.822109,0.000000,-8882.471304,-842.705048
616.822433,-592.164754,-8512.368333,-995.924147
616.822757,-814.226536,-8068.244768,0.000000
616.823081,-666.185348,-9326.594869,689.485948
616.823405,-1110.308913,-9326.594869,536.266849
616.823729,-1406.391290,-8956.491898,689.485948
616.824054,-1110.308913,-8660.409521,919.314598
616.824378,-148.041188,-9622.677246,1149.143247
616.824702,148.041188,-9548.656652,919.314598
616.825026,-370.102971,-8438.347739,1072.533697
616.825350,-962.267725,-8660.409521,1532.190996
616.825674,0.000000,-9474.636058,0.000000
616.825998,222.061783,-10288.862594,919.314598
616.826322,148.041188,-9770.718434,153.219100
616.826646,-592.164754,-9696.697840,-612.876398
616.826971,-1850.514855,-10584.944971,-536.266849
616.827295,-1924.535449,-10732.986159,-612.876398
616.827619,-1702.473667,-10510.924376,-459.657299
616.827943,-1110.308913,-10732.986159,383.047749
616.828267,-740.205942,-10214.842000,306.438199
616.828591,74.020594,-10436.903782,229.828649
616.828915,148.041188,-10140.821405,-229.828649
616.829239,296.082377,-9770.718434,76.609550
616.829563,148.041188,-10214.842000,-306.438199
616.829888,-444.123565,-10066.800811,-536.266849
616.830212,-814.226536,-9326.594869,-459.657299
616.830536,-740.205942,-9326.594869,383.047749
616.830860,222.061783,-9770.718434,-306.438199
616.831184,666.185348,-10140.821405,0.000000
616.831508,1110.308913,-9474.636058,0.000000
616.831832,1332.370696,-9326.594869,-536.266849
616.832156,1480.411884,-9178.553681,-383.047749
616.832480,2220.617826,-9104.533087,-306.438199
616.832805,1184.329507,-9474.636058,-459.657299
616.833129,222.061783,-9252.574275,0.000000
616.833453,-962.267725,-9474.636058,-229.828649
616.833777,-666.185348,-9548.656652,-153.219100
616.834101,740.205942,-9622.677246,383.047749
616.834425,1554.432478,-9992.780217,689.485948
616.834749,1776.494261,-9474.636058,536.266849
616.835073,1480.411884,-8216.285956,-919.314598
616.835397,740.205942,-8586.388927,-689.485948
616.835722,444.123565,-9252.574275,-1532.190996
616.836046,444.123565,-9992.780217,-1149.143247
616.836370,0.000000,-10658.965565,76.609550
616.836694,0.000000,-10066.800811,-153.219100
616.837018,0.000000,-9400.615463,-536.266849
616.837342,74.020594,-8956.491898,0.000000
616.837666,740.205942,-9770.718434,842.705048
616.837990,592.164754,-10436.903782,612.876398
616.838314,-1036.288319,-9770.718434,383.047749
616.838639,-1628.453072,-8586.388927,1149.143247
616.838963,-592.164754,-9696.697840,919.314598
616.839287,-222.061783,-9770.718434,612.876398
616.839611,-888.247130,-9474.636058,0.000000
616.839935,-1850.514855,-8290.306550,0.000000
616.840259,-2146.597232,-8882.471304,0.000000
616.840583,-1924.535449,-9696.697840,76.609550
616.840907,-2146.597232,-9992.780217,383.047749
616.841231,-1702.473667,-9696.697840,76.609550
616.841556,-1110.308913,-9474.636058,-306.438199
616.841880,0.000000,-9622.677246,0.000000
616.842204,1406.391290,-10066.800811,1378.971896
616.842528,1924.535449,-10214.842000,1991.848295
616.842852,1258.350101,-9622.677246,1225.752797
616.843176,-444.123565,-9474.636058,842.705048
616.843500,-962.267725,-9548.656652,306.438199
616.843824,-518.144159,-10584.944971,0.000000
616.844148,-666.185348,-10288.862594,306.438199
616.844473,-1036.288319,-8882.471304,76.609550
616.844797,-592.164754,-8956.491898,383.047749
616.845121,0.000000,-9844.739029,-536.266849
616.845445,592.164754,-9992.780217,-689.485948
616.845769,74.020594,-8290.306550,-689.485948
616.846093,-962.267725,-8956.491898,-919.314598
616.846417,-1776.494261,-10584.944971,-459.657299
616.846741,-1110.308913,-10362.883188,-153.219100
616.847065,296.082377,-10288.862594,-76.609550
616.847390,592.164754,-9400.615463,-229.828649
616.847714,1258.350101,-9104.533087,-1225.752797
616.848038,1702.473667,-9992.780217,-536.266849
616.848362,1776.494261,-9770.718434,-689.485948
616.848686,1554.432478,-9548.656652,-229.828649
616.849010,1036.288319,-9992.780217,-383.047749
616.849334,592.164754,-11251.130318,-766.095498
616.849658,518.144159,-11547.212695,-689.485948
616.849982,1184.329507,-10436.903782,-536.266849
616.850307,1258.350101,-10362.883188,-459.657299
616.850631,814.226536,-10584.944971,-1302.362347
616.850955,-740.205942,-9992.780217,-1608.800546
616.851279,-370.102971,-9770.718434,76.609550
616.851603,1110.308913,-9992.780217,-612.876398
616.851927,1332.370696,-9992.780217,-919.314598
616.852251,592.164754,-8512.368333,-612.876398
616.852575,222.061783,-8660.409521,-383.047749
616.852899,518.144159,-9548.656652,-919.314598
616.853224,444.123565,-9178.553681,-1378.971896
616.853548,222.061783,-8882.471304,612.876398
616.853872,74.020594,-9548.656652,0.000000
616.854196,-296.082377,-9548.656652,-153.219100
616.854520,-1332.370696,-8438.347739,383.047749
616.854844,-1924.535449,-9030.512492,536.266849
616.855168,-1184.329507,-10066.800811,689.485948
616.855492,-814.226536,-9918.759623,689.485948
616.855816,-888.247130,-7550.100608,612.876398
616.856141,-1036.288319,-6735.874072,766.095498
616.856465,-444.123565,-8882.471304,612.876398
616.856789,-518.144159,-10066.800811,536.266849
616.857113,-1332.370696,-10066.800811,842.705048
616.857437,-1850.514855,-8956.491898,383.047749
616.857761,-1480.411884,-8586.388927,153.219100
616.858085,-592.164754,-9992.780217,842.705048
616.858409,0.000000,-10955.047942,766.095498
616.858734,444.123565,-10584.944971,1302.362347
616.859058,148.041188,-10214.842000,536.266849
616.859382,74.020594,-9696.697840,689.485948
616.859706,444.123565,-10510.924376,1225.752797
616.860030,-370.102971,-11029.068536,1455.581446
616.860354,-296.082377,-9696.697840,919.314598
616.860678,-518.144159,-9474.636058,459.657299
616.861002,-592.164754,-9474.636058,229.828649
616.861326,0.000000,-10362.883188,0.000000
616.861651,-370.102971,-9622.677246,-153.219100
616.861975,-444.123565,-9030.512492,153.219100
616.862299,-518.144159,-9622.677246,229.828649
616.862623,-740.205942,-9918.759623,-995.924147
616.862947,-1258.350101,-8586.388927,-995.924147
616.863271,-1258.350101,-8956.491898,-383.047749
616.863595,-518.144159,-9474.636058,-995.924147
616.863919,222.061783,-9992.780217,-153.219100
616.864243,962.267725,-10288.862594,689.485948
616.864568,1702.473667,-9474.636058,306.438199
616.864892,2294.638420,-9030.512492,383.047749
616.865216,2294.638420,-9844.739029,459.657299
616.865540,1924.535449,-10436.903782,-76.609550
616.865864,1258.350101,-10436.903782,-1072.533697
616.866188,74.020594,-9696.697840,-459.657299
616.866512,962.267725,-10510.924376,0.000000
616.866836,1332.370696,-11177.109724,-536.266849
616.867160,148.041188,-10214.842000,-1762.019645
616.867485,-814.226536,-9252.574275,-1302.362347
616.867809,-962.267725,-9252.574275,-1532.190996
616.868133,370.102971,-10807.006753,-1149.143247
616.868457,-370.102971,-10288.862594,-536.266849
616.868781,-1036.288319,-8512.368333,-766.095498
616.869105,-1332.370696,-7698.141797,-1532.190996
616.869429,-888.247130,-9252.574275,-1532.190996
616.869753,740.205942,-10807.006753,-612.876398
616.870077,1258.350101,-10510.924376,229.828649
616.870402,740.205942,-9474.636058,306.438199
616.870726,1184.329507,-8956.491898,766.095498
616.871050,518.144159,-10584.944971,536.266849
616.871374,740.205942,-9400.615463,-306.438199
616.871698,1036.288319,-7772.162391,-383.047749
616.872022,370.102971,-9030.512492,306.438199
616.872347,74.020594,-9844.739029,0.000000
616.872671,-370.102971,-9178.553681,1149.143247
616.872995,-1110.308913,-9178.553681,1225.752797
616.873319,-2812.782580,-7698.141797,-306.438199
616.873643,-4145.153275,-8586.388927,-1455.581446
616.873968,-3849.070898,-9548.656652,-306.438199
616.874292,-1480.411884,-11029.068536,612.876398
616.874616,518.144159,-11325.150913,842.705048
616.874940,1036.288319,-9326.594869,1378.971896
616.875264,1184.329507,-8882.471304,383.047749
616.875588,518.144159,-9696.697840,919.314598
616.875913,814.226536,-9992.780217,1072.533697
616.876237,814.226536,-10140.821405,1225.752797
616.876561,740.205942,-10140.821405,1532.190996
616.876885,1184.329507,-10362.883188,1455.581446
616.877209,592.164754,-9622.677246,1072.533697
616.877533,0.000000,-9030.512492,76.609550
616.877858,-1702.473667,-9474.636058,153.219100
616.878182,-3108.864956,-10140.821405,-842.705048
616.878506,-3108.864956,-9474.636058,-1455.581446
616.878830,-1924.535449,-8586.388927,153.219100
616.879154,222.061783,-9178.553681,153.219100
616.879478,1406.391290,-10362.883188,229.828649
616.879803,1776.494261,-9548.656652,153.219100
616.880127,1924.535449,-9696.697840,1072.533697
616.880451,2220.617826,-10732.986159,1378.971896
616.880775,2738.761985,-10955.047942,1072.533697
616.881099,2368.659014,-10658.965565,1838.629195
616.881424,814.226536,-10436.903782,766.095498
616.881748,-444.123565,-10214.842000,-153.219100
616.882072,-444.123565,-10214.842000,-612.876398
616.882396,0.000000,-10140.821405,0.000000
616.882720,592.164754,-9770.718434,0.000000
616.883044,1184.329507,-9474.636058,-842.705048
616.883369,0.000000,-9104.533087,-689.485948
616.883693,-1184.329507,-9326.594869,-1532.190996
616.884017,-1036.288319,-10436.903782,-766.095498
616.884341,-222.061783,-10436.903782,-766.095498
616.884665,740.205942,-9474.636058,-306.438199
616.884989,296.082377,-8364.327145,0.000000
616.885314,1924.535449,-8956.491898,76.609550
616.885638,2516.700203,-9992.780217,383.047749
616.885962,2516.700203,-10214.842000,612.876398
616.886286,666.185348,-9030.512492,0.000000
616.886610,-1628.453072,-7402.059420,-919.314598
616.886935,-2960.823768,-7550.100608,-1532.190996
616.887259,-3330.926739,-9400.615463,-1378.971896
616.887583,-2664.741391,-9770.718434,153.219100
616.887907,-2072.576638,-8734.430116,-766.095498
616.888231,-2072.576638,-8068.244768,-383.047749
616.888555,-888.247130,-8438.347739,-229.828649
616.888880,666.185348,-9326.594869,-229.828649
616.889204,740.205942,-9696.697840,76.609550
616.889528,0.000000,-10066.800811,0.000000
616.889852,74.020594,-10436.903782,76.609550
616.890176,222.061783,-10807.006753,919.314598
616.890500,888.247130,-11473.192101,306.438199
616.890825,222.061783,-11325.150913,536.266849
616.891149,-592.164754,-11177.109724,-229.828649
616.891473,-1036.288319,-10436.903782,-383.047749
616.891797,-518.144159,-9992.780217,-153.219100
616.892121,-592.164754,-9548.656652,-612.876398
616.892446,-592.164754,-9770.718434,0.000000
616.892770,0.000000,-9474.636058,306.438199
616.893094,370.102971,-9178.553681,-536.266849
616.893418,0.000000,-8216.285956,-229.828649
616.893742,-592.164754,-8216.285956,0.000000
616.894066,-296.082377,-8734.430116,-306.438199
616.894391,-592.164754,-10140.821405,459.657299
616.894715,-296.082377,-10214.842000,459.657299
616.895039,1110.308913,-9474.636058,76.609550
616.895363,1628.453072,-9400.615463,0.000000
616.895687,1850.514855,-9400.615463,-153.219100
616.896011,1554.432478,-9474.636058,-689.485948
616.896336,296.082377,-9400.615463,-1455.581446
616.896660,222.061783,-9696.697840,-919.314598
616.896984,296.082377,-11029.068536,-536.266849
616.897308,74.020594,-10658.965565,-995.924147
616.897632,148.041188,-10362.883188,-229.828649
616.897956,-518.144159,-10881.027347,229.828649
616.898281,370.102971,-11843.295072,-306.438199
616.898605,148.041188,-11473.192101,-459.657299
616.898929,-148.041188,-10214.842000,0.000000
616.899253,592.164754,-9696.697840,0.000000
616.899577,1702.473667,-10214.842000,0.000000
616.899902,1184.329507,-9992.780217,229.828649
616.900226,74.020594,-9770.718434,76.609550
616.900550,-1554.432478,-9548.656652,-229.828649
616.900874,-1702.473667,-9844.739029,-1149.143247
616.901198,-1258.350101,-9622.677246,-1072.533697
616.901522,-1036.288319,-8882.471304,-995.924147
616.901847,0.000000,-8142.265362,-306.438199
616.902171,740.205942,-8216.285956,76.609550
616.902495,74.020594,-8216.285956,-689.485948
616.902819,-888.247130,-8142.265362,0.000000
616.903143,-1184.329507,-8290.306550,612.876398
616.903467,-814.226536,-9326.594869,995.924147
616.903792,-370.102971,-9770.718434,842.705048
616.904116,0.000000,-8512.368333,306.438199
616.904440,222.061783,-7698.141797,306.438199
616.904764,444.123565,-9474.636058,919.314598
616.905088,888.247130,-10881.027347,612.876398
616.905413,370.102971,-9770.718434,536.266849
616.905737,444.123565,-9252.574275,766.095498
616.906061,-296.082377,-8956.491898,-459.657299
616.906385,-666.185348,-10658.965565,-153.219100
616.906709,-2072.576638,-11103.089130,153.219100
616.907033,-2368.659014,-10658.965565,383.047749
616.907358,-1702.473667,-10066.800811,0.000000
616.907682,-1184.329507,-9178.553681,766.095498
616.908006,-370.102971,-9918.759623,0.000000
616.908330,370.102971,-9548.656652,766.095498
616.908654,888.247130,-9474.636058,306.438199
616.908978,296.082377,-9400.615463,612.876398
616.909303,370.102971,-9992.780217,766.095498
616.909627,888.247130,-10510.924376,383.047749
616.909951,1332.370696,-10510.924376,842.705048
616.910275,1628.453072,-9992.780217,842.705048
616.910599,1332.370696,-10955.047942,306.438199
616.910923,222.061783,-11029.068536,0.000000
616.911248,1406.391290,-9918.759623,76.609550
616.911572,1332.370696,-9548.656652,995.924147
616.911896,592.164754,-9400.615463,842.705048
616.912220,0.000000,-8882.471304,0.000000
616.912544,0.000000,-8364.327145,-536.266849
616.912869,814.226536,-8586.388927,153.219100
616.913193,1332.370696,-8808.450710,536.266849
616.913517,0.000000,-9030.512492,842.705048
616.913841,-1332.370696,-9400.615463,995.924147
616.914165,-1554.432478,-9326.594869,459.657299
616.914489,-888.247130,-9548.656652,-229.828649
616.914814,-222.061783,-9696.697840,-229.828649
616.915138,0.000000,-9326.594869,-383.047749
616.915462,962.267725,-9474.636058,-306.438199
616.915786,1998.556043,-10214.842000,0.000000
616.916110,2368.659014,-10214.842000,229.828649
616.916434,1628.453072,-10288.862594,153.219100
616.916759,296.082377,-10066.800811,-766.095498
616.917083,-444.123565,-9770.718434,-2221.676944
616.917407,-888.247130,-9770.718434,-2221.676944
616.917731,-666.185348,-10881.027347,-766.095498
616.918055,814.226536,-11399.171507,0.000000
616.918380,592.164754,-9548.656652,-306.438199
616.918704,0.000000,-8586.388927,-306.438199
616.919028,-1036.288319,-8808.450710,-842.705048
616.919352,-1554.432478,-9844.739029,-689.485948
616.919676,-2072.576638,-9622.677246,-842.705048
616.920000,-2738.761985,-9104.533087,-919.314598
616.920325,-1702.473667,-8882.471304,-689.485948
616.920649,-814.226536,-9474.636058,-1072.533697
616.920973,-1036.288319,-9622.677246,-842.705048
616.921297,-1406.391290,-9474.636058,-766.095498
616.921621,-1332.370696,-9252.574275,-1762.019645
616.921945,-1554.432478,-9252.574275,-1762.019645
616.922270,-296.082377,-9474.636058,-842.705048
616.922594,1480.411884,-9918.759623,-1302.362347
616.922918,1998.556043,-11473.192101,536.266849
616.923242,1554.432478,-11029.068536,-153.219100
616.923566,1036.288319,-11547.212695,306.438199
616.923890,296.082377,-10658.965565,459.657299
616.924215,-222.061783,-10955.047942,-76.609550
616.924539,-1850.514855,-11251.130318,689.485948
616.924863,-1998.556043,-10214.842000,76.609550
616.925187,-1406.391290,-9918.759623,-153.219100
616.925511,-1258.350101,-8808.450710,689.485948
616.925836,-888.247130,-8438.347739,76.609550
616.926160,-814.226536,-7994.224174,229.828649
616.926484,-1554.432478,-8364.327145,0.000000
616.926808,-2072.576638,-8290.306550,-153.219100
616.927132,-1480.411884,-7920.203579,76.609550
616.927456,-592.164754,-8364.327145,459.657299
616.927781,666.185348,-8734.430116,919.314598
616.928105,2146.597232,-8438.347739,612.876398
616.928429,2664.741391,-8586.388927,459.657299
616.928753,2146.597232,-8808.450710,459.657299
616.929077,1110.308913,-9622.677246,383.047749
616.929401,1184.329507,-9548.656652,0.000000
616.929726,1258.350101,-9474.636058,306.438199
616.930050,1110.308913,-10658.965565,229.828649
616.930374,1036.288319,-9548.656652,0.000000
616.930698,0.000000,-10584.944971,0.000000
616.931022,444.123565,-11103.089130,-229.828649
616.931347,666.185348,-11103.089130,0.000000
616.931671,444.123565,-10362.883188,-383.047749
616.931995,-74.020594,-9548.656652,-612.876398
616.932319,-814.226536,-10066.800811,-919.314598
616.932643,-222.061783,-10807.006753,-306.438199
616.932967,0.000000,-11177.109724,-612.876398
616.933292,0.000000,-10881.027347,-766.095498
616.933616,740.205942,-9844.739029,-76.609550
616.933940,1628.453072,-10066.800811,229.828649
616.934264,1480.411884,-10362.883188,-153.219100
616.934588,518.144159,-9844.739029,-306.438199
616.934912,0.000000,-9622.677246,-459.657299
616.935237,296.082377,-9474.636058,0.000000
616.935561,518.144159,-9622.677246,-383.047749
616.935885,1184.329507,-8808.450710,-383.047749
616.936209,1332.370696,-8216.285956,76.609550
616.936533,962.267725,-8660.409521,459.657299
616.936858,0.000000,-9104.533087,-689.485948
616.937182,-1924.535449,-8956.491898,-536.266849
616.937506,-2738.761985,-8512.368333,-229.828649
616.937830,-1702.473667,-9474.636058,0.000000
616.938154,-740.205942,-9918.759623,-306.438199
616.938478,-592.164754,-9474.636058,536.266849
616.938803,-296.082377,-10732.986159,1762.019645
616.939127,740.205942,-11473.192101,1378.971896
616.939451,962.267725,-9992.780217,995.924147
616.939775,0.000000,-8660.409521,689.485948
616.940099,-1332.370696,-8808.450710,-612.876398
616.940423,-2072.576638,-9326.594869,-1072.533697
616.940748,-1924.535449,-9992.780217,612.876398
616.941072,-962.267725,-9844.739029,1149.143247
616.941396,-148.041188,-9400.615463,766.095498
616.941720,-148.041188,-8364.327145,306.438199
616.942044,-666.185348,-8216.285956,229.828649
616.942368,-370.102971,-8364.327145,0.000000
616.942693,-592.164754,-9548.656652,0.000000
616.943017,-1850.514855,-9474.636058,76.609550
616.943341,-1702.473667,-8956.491898,1225.752797
616.943665,-444.123565,-8882.471304,1378.971896
616.943989,-148.041188,-8438.347739,689.485948
616.944314,148.041188,-8438.347739,766.095498
616.944638,222.061783,-8882.471304,0.000000
616.944962,888.247130,-9548.656652,0.000000
616.945286,740.205942,-9474.636058,383.047749
616.945610,444.123565,-9252.574275,766.095498
616.945934,518.144159,-9992.780217,0.000000
616.946259,814.226536,-10510.924376,-995.924147
616.946583,1184.329507,-11029.068536,-459.657299
616.946907,1702.473667,-11473.192101,-306.438199
616.947231,2294.638420,-12213.398043,-689.485948
616.947555,2220.617826,-12065.356855,-383.047749
616.947879,2072.576638,-10955.047942,-383.047749
616.948204,962.267725,-11473.192101,-383.047749
616.948528,-888.247130,-11843.295072,-536.266849
616.948852,-1554.432478,-10658.965565,-536.266849
616.949176,-814.226536,-9918.759623,-536.266849
616.949500,1184.329507,-9030.512492,-536.266849
616.949825,518.144159,-9474.636058,-766.095498
616.950149,-592.164754,-9030.512492,-459.657299
616.950473,-1036.288319,-7994.224174,-1455.581446
616.950797,-1924.535449,-9104.533087,-1072.533697
616.951121,-1702.473667,-9844.739029,-1302.362347
616.951445,-888.247130,-9252.574275,-1378.971896
616.951770,148.041188,-8364.327145,-459.657299
616.952094,1332.370696,-8660.409521,-536.266849
616.952418,1554.432478,-9844.739029,-766.095498
616.952742,1036.288319,-8734.430116,-919.314598
616.953066,0.000000,-8956.491898,-612.876398
616.953390,0.000000,-9918.759623,0.000000
616.953715,814.226536,-11103.089130,0.000000
616.954039,444.123565,-10436.903782,-229.828649
616.954363,-518.144159,-9548.656652,0.000000
616.954687,-370.102971,-10066.800811,-229.828649
616.955011,0.000000,-10214.842000,-383.047749
616.955335,148.041188,-10362.883188,0.000000
616.955660,-222.061783,-9918.759623,-153.219100
616.955984,0.000000,-9474.636058,-306.438199
616.956308,-370.102971,-9622.677246,-459.657299
616.956632,-1110.308913,-9474.636058,-383.047749
616.956956,-1924.535449,-8512.368333,-689.485948
616.957281,-1702.473667,-8734.430116,-459.657299
616.957605,-1480.411884,-9696.697840,153.219100
616.957929,-1702.473667,-9474.636058,0.000000
616.958253,-1702.473667,-8808.450710,459.657299
616.958577,-1702.473667,-8882.471304,919.314598
616.958901,-1480.411884,-9474.636058,612.876398
616.959226,-1184.329507,-8586.388927,612.876398
616.959550,-888.247130,-8068.244768,1225.752797
616.959874,814.226536,-8438.347739,689.485948
616.960198,1628.453072,-8956.491898,919.314598
616.960522,1554.432478,-8808.450710,689.485948
616.960846,666.185348,-8956.491898,306.438199
616.961171,0.000000,-9548.656652,-153.219100
616.961495,-666.185348,-10510.924376,-383.047749
616.961819,-1184.329507,-10362.883188,-536.266849
616.962143,296.082377,-9992.780217,153.219100
616.962467,1850.514855,-9770.718434,689.485948
616.962792,2368.659014,-10955.047942,919.314598
616.963116,1702.473667,-10436.903782,536.266849
616.963440,444.123565,-9770.718434,76.609550
616.963764,-296.082377,-10140.821405,766.095498
616.964088,222.061783,-11103.089130,-306.438199
616.964412,444.123565,-10881.027347,842.705048
616.964737,-222.061783,-9474.636058,306.438199
616.965061,-518.144159,-9918.759623,0.000000
616.965385,0.000000,-10436.903782,-383.047749
616.965709,888.247130,-10288.862594,-459.657299
616.966033,1184.329507,-11029.068536,612.876398
616.966357,1332.370696,-9696.697840,-153.219100
616.966682,592.164754,-8290.306550,-612.876398
616.967006,-1110.308913,-9474.636058,383.047749
616.967330,-888.247130,-10807.006753,-229.828649
616.967654,-444.123565,-10288.862594,-383.047749
616.967978,0.000000,-9400.615463,229.828649
616.968303,814.226536,-8290.306550,306.438199
616.968627,1702.473667,-8216.285956,-306.438199
616.968951,1554.432478,-8364.327145,-842.705048
616.969275,814.226536,-8586.388927,0.000000
616.969599,444.123565,-9622.677246,0.000000
616.969923,0.000000,-9844.739029,-766.095498
616.970248,-296.082377,-9178.553681,0.000000
616.970572,74.020594,-9474.636058,536.266849
616.970896,888.247130,-10807.006753,0.000000
616.971220,74.020594,-10881.027347,0.000000
616.971544,-1480.411884,-10140.821405,306.438199
616.971868,-2146.597232,-9992.780217,-612.876398
616.972192,-1776.494261,-9770.718434,-306.438199
616.972517,-296.082377,-9548.656652,76.609550
616.972841,296.082377,-9622.677246,0.000000
616.973165,-222.061783,-9400.615463,-1455.581446
616.973489,-1036.288319,-8660.409521,-766.095498
616.973813,-814.226536,-9548.656652,-536.266849
616.974137,74.020594,-9844.739029,-229.828649
616.974462,-444.123565,-8808.450710,0.000000
616.974786,-1258.350101,-9178.553681,-153.219100
616.975110,-1554.432478,-9474.636058,-689.485948
616.975434,-962.267725,-10362.883188,-383.047749
616.975758,-666.185348,-10066.800811,689.485948
616.976082,592.164754,-9252.574275,-459.657299
616.976406,592.164754,-8364.327145,-383.047749
616.976731,444.123565,-8290.306550,-536.266849
616.977055,592.164754,-9326.594869,-383.047749
616.977379,518.144159,-10584.944971,0.000000
616.977703,-222.061783,-10288.862594,383.047749
616.978027,-592.164754,-10066.800811,306.438199
616.978351,0.000000,-9770.718434,306.438199
616.978676,518.144159,-10214.842000,0.000000
616.979000,1332.370696,-11547.212695,1302.362347
616.979324,962.267725,-11547.212695,689.485948
616.979648,740.205942,-10658.965565,-229.828649
616.979972,296.082377,-9622.677246,306.438199
616.980296,-370.102971,-9696.697840,-612.876398
616.980620,-740.205942,-9844.739029,-1302.362347
616.980945,-1184.329507,-8586.388927,-919.314598
616.981269,-888.247130,-9400.615463,536.266849
616.981593,-74.020594,-10214.842000,0.000000
616.981917,1036.288319,-9770.718434,153.219100
616.982241,1258.350101,-9252.574275,842.705048
616.982565,740.205942,-8734.430116,842.705048
616.982889,444.123565,-8956.491898,-766.095498
616.983214,-296.082377,-9326.594869,-153.219100
616.983538,444.123565,-9104.533087,1225.752797
616.983862,888.247130,-9252.574275,0.000000
616.984186,888.247130,-9178.553681,0.000000
616.984510,0.000000,-9030.512492,153.219100
616.984834,370.102971,-9844.739029,-459.657299
616.985159,444.123565,-10066.800811,-229.828649
616.985483,-740.205942,-9918.759623,229.828649
616.985807,-1554.432478,-9178.553681,536.266849
616.986131,-1480.411884,-8586.388927,-1532.190996
616.986455,-1702.473667,-9326.594869,-995.924147
616.986779,-1184.329507,-9992.780217,-536.266849
616.987103,-148.041188,-10584.944971,-459.657299
616.987428,-1702.473667,-10732.986159,-306.438199
616.987752,-3256.906145,-10214.842000,-766.095498
616.988076,-3108.864956,-9844.739029,-612.876398
616.988400,-962.267725,-10288.862594,-766.095498
616.988724,518.144159,-10881.027347,-229.828649
616.989048,1036.288319,-10881.027347,536.266849
616.989373,2368.659014,-9844.739029,76.609550
616.989697,3182.885551,-9400.615463,919.314598
616.990021,2960.823768,-10140.821405,919.314598
616.990345,1628.453072,-10066.800811,-229.828649
616.990669,296.082377,-8808.450710,0.000000
616.990993,-740.205942,-9178.553681,-229.828649
616.991317,-740.205942,-9326.594869,-766.095498
616.991642,148.041188,-9474.636058,-1149.143247
616.991966,-444.123565,-8808.450710,0.000000
616.992290,-592.164754,-8216.285956,0.000000
616.992614,-148.041188,-8512.368333,-536.266849
616.992938,74.020594,-8290.306550,-229.828649
616.993262,0.000000,-7920.203579,0.000000
616.993586,0.000000,-8882.471304,0.000000
616.993911,-296.082377,-9474.636058,306.438199
616.994235,0.000000,-9770.718434,383.047749
616.994559,222.061783,-10288.862594,306.438199
616.994883,518.144159,-10658.965565,383.047749
616.995207,1110.308913,-11029.068536,229.828649
616.995531,1702.473667,-10288.862594,229.828649
616.995856,2146.597232,-10658.965565,689.485948
616.996180,962.267725,-10584.944971,229.828649
616.996504,814.226536,-10214.842000,0.000000
616.996828,370.102971,-9474.636058,-229.828649
616.997152,-888.247130,-9770.718434,0.000000
616.997476,-962.267725,-9918.759623,0.000000
616.997800,-1480.411884,-9252.574275,0.000000
616.998125,-1480.411884,-8660.409521,76.609550
616.998449,-2368.659014,-8660.409521,-459.657299
616.998773,-2220.617826,-8586.388927,-536.266849
616.999097,-1258.350101,-8956.491898,-229.828649
616.999421,-740.205942,-8808.450710,153.219100
616.999745,-296.082377,-9474.636058,229.828649
617.000069,0.000000,-9326.594869,459.657299
617.000394,0.000000,-9252.574275,459.657299
617.000718,-814.226536,-9548.656652,-229.828649
617.001042,-1036.288319,-9252.574275,-536.266849
617.001366,-1332.370696,-10510.924376,-536.266849
617.001690,-1628.453072,-11103.089130,-306.438199
617.002014,-1036.288319,-10214.842000,-689.485948
617.002339,222.061783,-9770.718434,-612.876398
617.002663,814.226536,-9844.739029,-842.705048
617.002987,1184.329507,-10510.924376,-689.485948
617.003311,1110.308913,-10362.883188,-612.876398
617.003635,296.082377,-10658.965565,-1225.752797
617.003959,-592.164754,-11103.089130,-612.876398
617.004283,-962.267725,-11103.089130,-153.219100
617.004608,-444.123565,-11547.212695,-229.828649
617.004932,74.020594,-11251.130318,536.266849
617.005256,370.102971,-10214.842000,612.876398
617.005580,222.061783,-9030.512492,153.219100
617.005904,-222.061783,-8438.347739,-229.828649
617.006228,296.082377,-8586.388927,-919.314598
617.006553,0.000000,-8734.430116,-842.705048
617.006877,-296.082377,-8142.265362,-612.876398
617.007201,-1036.288319,-7994.224174,-1072.533697
617.007525,-1702.473667,-8364.327145,-1225.752797
617.007849,-888.247130,-9252.574275,-459.657299
617.008173,296.082377,-9104.533087,-995.924147
617.008497,1776.494261,-8364.327145,-383.047749
617.008822,2220.617826,-7846.182985,0.000000
617.009146,2220.617826,-9252.574275,0.000000
617.009470,1850.514855,-9844.739029,229.828649
617.009794,1776.494261,-9918.759623,383.047749
617.010118,1850.514855,-10955.047942,1149.143247
617.010442,1924.535449,-10732.986159,153.219100
617.010766,1332.370696,-10362.883188,-229.828649
617.011091,962.267725,-10807.006753,842.705048
617.011415,1110.308913,-11029.068536,383.047749
617.011739,666.185348,-11177.109724,-612.876398
617.012063,-592.164754,-10214.842000,-229.828649
617.012387,-1110.308913,-9474.636058,0.000000
617.012711,-888.247130,-9918.759623,-306.438199
617.013036,-1480.411884,-9696.697840,-153.219100
617.013360,-1554.432478,-9622.677246,612.876398
617.013684,-1258.350101,-9474.636058,0.000000
617.014008,-1258.350101,-9030.512492,229.828649
617.014332,-1184.329507,-8808.450710,919.314598
617.014656,-1036.288319,-8586.388927,536.266849
617.014980,-1480.411884,-8512.368333,76.609550
617.015305,-1036.288319,-8438.347739,536.266849
617.015629,-296.082377,-8882.471304,1149.143247
617.015953,74.020594,-8586.388927,153.219100
617.016277,222.061783,-7550.100608,383.047749
617.016601,-148.041188,-8512.368333,689.485948
617.016925,0.000000,-10584.944971,689.485948
617.017250,1036.288319,-10807.006753,-229.828649
617.017574,296.082377,-10436.903782,1608.800546
617.017898,-666.185348,-10362.883188,1532.190996
617.018222,-1184.329507,-10288.862594,-689.485948
617.018546,-1554.432478,-11029.068536,459.657299
617.018870,-1480.411884,-11103.089130,459.657299
617.019194,-1332.370696,-11103.089130,-153.219100
617.019519,-1480.411884,-10288.862594,76.609550
617.019843,-1036.288319,-10732.986159,76.609550
617.020167,-518.144159,-10658.965565,-536.266849
617.020491,666.185348,-10214.842000,-229.828649
617.020815,1110.308913,-10288.862594,229.828649
617.021139,1184.329507,-10436.903782,153.219100
617.021463,2072.576638,-9844.739029,-306.438199
617.021788,2516.700203,-8882.471304,-153.219100
617.022112,2590.720797,-8660.409521,76.609550
617.022436,2664.741391,-9178.553681,-229.828649
617.022760,1554.432478,-9178.553681,383.047749
617.023084,0.000000,-8216.285956,-842.705048
617.023408,-1258.350101,-7698.141797,-766.095498
617.023733,-1702.473667,-7920.203579,-689.485948
617.024057,-888.247130,-8882.471304,-766.095498
617.024381,-370.102971,-8808.450710,0.000000
617.024705,-592.164754,-8364.327145,-536.266849
617.025029,-148.041188,-8068.244768,-612.876398
617.025353,444.123565,-9770.718434,-459.657299
617.025677,1332.370696,-10732.986159,-76.609550
617.026002,740.205942,-10436.903782,-536.266849
617.026326,-444.123565,-10510.924376,-766.095498
617.026650,-148.041188,-10732.986159,-1455.581446
617.026974,1258.350101,-10881.027347,-995.924147
617.027298,2368.659014,-11547.212695,0.000000
617.027622,1776.494261,-10955.047942,76.609550
617.027946,296.082377,-10881.027347,-612.876398
617.028271,-370.102971,-10658.965565,-306.438199
617.028595,-888.247130,-10881.027347,0.000000
617.028919,-1110.308913,-10658.965565,-306.438199
617.029243,-1554.432478,-8956.491898,-995.924147
617.029567,-1110.308913,-7846.182985,-766.095498
617.029891,592.164754,-8660.409521,0.000000
617.030216,1702.473667,-9326.594869,0.000000
617.030540,1258.350101,-9548.656652,-229.828649
617.030864,-592.164754,-7846.182985,-536.266849
617.031188,-1332.370696,-9400.615463,-383.047749
617.031512,-1110.308913,-10955.047942,-536.266849
617.031836,-592.164754,-10510.924376,-153.219100
617.032160,-592.164754,-9326.594869,612.876398
617.032485,-296.082377,-9696.697840,229.828649
617.032809,-222.061783,-10436.903782,-153.219100
617.033133,296.082377,-9992.780217,536.266849
617.033457,444.123565,-9474.636058,842.705048
617.033781,148.041188,-9770.718434,689.485948
617.034105,-1480.411884,-9696.697840,0.000000
617.034430,-2442.679609,-9474.636058,-76.609550
617.034754,-2294.638420,-10362.883188,153.219100
617.035078,-1184.329507,-9474.636058,-153.219100
617.035402,-740.205942,-8956.491898,0.000000
617.035726,-1036.288319,-9474.636058,229.828649
617.036050,-296.082377,-9030.512492,-153.219100
617.036374,740.205942,-9030.512492,383.047749
617.036699,888.247130,-9844.739029,536.266849
617.037023,888.247130,-10066.800811,536.266849
617.037347,444.123565,-9622.677246,536.266849
617.037671,148.041188,-9474.636058,995.924147
617.037995,666.185348,-9770.718434,536.266849
617.038319,518.144159,-9992.780217,76.609550
617.038643,-444.123565,-8586.388927,-536.266849
617.038968,-1480.411884,-7550.100608,-306.438199
617.039292,-1258.350101,-7772.162391,-306.438199
617.039616,-666.185348,-8586.388927,153.219100
617.039940,-444.123565,-9474.636058,0.000000
617.040264,-740.205942,-9104.533087,0.000000
617.040588,-444.123565,-7550.100608,0.000000
617.040913,74.020594,-8068.244768,-306.438199
617.041237,0.000000,-9178.553681,-229.828649
617.041561,0.000000,-10362.883188,0.000000
617.041885,74.020594,-11547.212695,-306.438199
617.042209,-370.102971,-11399.171507,0.000000
617.042533,1036.288319,-11251.130318,153.219100
617.042857,2072.576638,-11251.130318,229.828649
617.043182,2072.576638,-11029.068536,-766.095498
617.043506,1776.494261,-10584.944971,-1378.971896
617.043830,1110.308913,-10658.965565,-1072.533697
617.044154,1258.350101,-11325.150913,-306.438199
617.044478,740.205942,-11769.274478,-919.314598
617.044802,-148.041188,-11029.068536,-229.828649
617.045127,-1480.411884,-9474.636058,-536.266849
617.045451,-1776.494261,-9770.718434,-1532.190996
617.045775,-1702.473667,-10214.842000,-1685.410096
617.046099,-1036.288319,-9770.718434,-995.924147
617.046423,-222.061783,-8956.491898,-612.876398
617.046747,1184.329507,-9104.533087,383.047749
617.047071,666.185348,-8660.409521,-612.876398
617.047396,0.000000,-8956.491898,-229.828649
617.047720,-814.226536,-10214.842000,689.485948
617.048044,0.000000,-10807.006753,-306.438199
617.048368,296.082377,-10140.821405,0.000000
617.048692,518.144159,-9252.574275,1072.533697
617.049016,1924.535449,-8956.491898,459.657299
617.049340,2294.638420,-9918.759623,689.485948
617.049665,1998.556043,-9770.718434,919.314598
617.049989,1110.308913,-9622.677246,76.609550
617.050313,-148.041188,-9696.697840,383.047749
617.050637,-1110.308913,-9474.636058,-383.047749
617.050961,-1776.494261,-8734.430116,-536.266849
617.051285,-2294.638420,-8882.471304,-612.876398
617.051610,-1998.556043,-9918.759623,-229.828649
617.051934,-1924.535449,-9918.759623,612.876398
617.052258,-1332.370696,-8808.450710,229.828649
617.052582,-592.164754,-8290.306550,919.314598
617.052906,0.000000,-8882.471304,153.219100
617.053230,148.041188,-9326.594869,0.000000
617.053554,518.144159,-8956.491898,1149.143247
617.053879,444.123565,-8956.491898,842.705048
617.054203,0.000000,-9326.594869,-689.485948
617.054527,-666.185348,-9252.574275,0.000000
617.054851,-1110.308913,-9252.574275,383.047749
617.055175,-666.185348,-10066.800811,-459.657299
617.055499,-1036.288319,-11029.068536,-383.047749
617.055823,-1406.391290,-10288.862594,-383.047749
617.056148,-1332.370696,-9252.574275,-383.047749
617.056472,-740.205942,-8956.491898,-459.657299
617.056796,444.123565,-9474.636058,76.609550
617.057120,296.082377,-9030.512492,-766.095498
617.057444,296.082377,-9474.636058,-383.047749
617.057768,-222.061783,-10066.800811,0.000000
617.058093,-296.082377,-10066.800811,-536.266849
617.058417,-666.185348,-10066.800811,-689.485948
617.058741,-148.041188,-9696.697840,-459.657299
617.059065,1184.329507,-10807.006753,-536.266849
617.059389,2220.617826,-10881.027347,-306.438199
617.059713,2886.803174,-10510.924376,-306.438199
617.060037,2220.617826,-10881.027347,-383.047749
617.060362,1850.514855,-11325.150913,-536.266849
617.060686,1480.411884,-11621.233289,-612.876398
617.061010,814.226536,-10881.027347,0.000000
617.061334,370.102971,-9918.759623,-153.219100
617.061658,-814.226536,-9622.677246,-689.485948
617.061982,-1258.350101,-9622.677246,-383.047749
617.062307,-1258.350101,-10362.883188,229.828649
617.062631,-518.144159,-10362.883188,153.219100
617.062955,-222.061783,-8364.327145,0.000000
617.063279,-296.082377,-7476.080014,0.000000
617.063603,-444.123565,-8956.491898,-383.047749
617.063927,-592.164754,-9326.594869,-153.219100
617.064251,-1480.411884,-9104.533087,-306.438199
617.064576,-1480.411884,-8956.491898,0.000000
617.064900,-296.082377,-9252.574275,229.828649
617.065224,962.267725,-9622.677246,0.000000
617.065548,1258.350101,-9918.759623,459.657299
617.065872,1702.473667,-10066.800811,1302.362347
617.066196,1628.453072,-9918.759623,612.876398
617.066520,1406.391290,-9770.718434,1225.752797
617.066845,962.267725,-8512.368333,1072.533697
617.067169,1406.391290,-9104.533087,766.095498
617.067493,962.267725,-9992.780217,153.219100
617.067817,-296.082377,-10140.821405,383.047749
617.068141,-1258.350101,-9548.656652,153.219100
617.068465,-1776.494261,-8882.471304,0.000000
617.068790,-1480.411884,-9252.574275,612.876398
617.069114,-1850.514855,-9030.512492,0.000000
617.069438,-1332.370696,-8512.368333,-766.095498
617.069762,-962.267725,-9178.553681,153.219100
617.070086,-222.061783,-10214.842000,689.485948
617.070410,296.082377,-9252.574275,153.219100
617.070734,-740.205942,-8956.491898,536.266849
617.071059,-1924.535449,-9696.697840,612.876398
617.071383,-1406.391290,-10732.986159,76.609550
617.071707,-1406.391290,-10066.800811,76.609550
617.072031,-444.123565,-9030.512492,383.047749
617.072355,222.061783,-8364.327145,383.047749
617.072679,1184.329507,-8586.388927,-766.095498
617.073004,1332.370696,-8438.347739,-383.047749
617.073328,1332.370696,-9030.512492,153.219100
617.073652,2146.597232,-10362.883188,995.924147
617.073976,2220.617826,-10807.006753,1455.581446
617.074300,518.144159,-9844.739029,229.828649
617.074624,-740.205942,-7920.203579,-689.485948
617.074948,-962.267725,-8216.285956,-1302.362347
617.075273,-222.061783,-11029.068536,-919.314598
617.075597,592.164754,-11621.233289,153.219100
617.075921,1110.308913,-10140.821405,1378.971896
617.076245,1776.494261,-8882.471304,306.438199
617.076569,1332.370696,-8364.327145,-1762.019645
617.076893,370.102971,-9770.718434,-1149.143247
617.077218,888.247130,-11251.130318,-459.657299
617.077542,1110.308913,-12361.439231,-612.876398
617.077866,666.185348,-11695.253884,306.438199
617.078190,222.061783,-10066.800811,153.219100
617.078514,370.102971,-10732.986159,0.000000
617.078838,370.102971,-11473.192101,-229.828649
617.079163,370.102971,-11473.192101,76.609550
617.079487,-518.144159,-10362.883188,229.828649
617.079811,-1036.288319,-9548.656652,-995.924147
617.080135,-1702.473667,-8586.388927,-689.485948
617.080459,-1036.288319,-8438.347739,-689.485948
617.080783,-1110.308913,-9474.636058,-536.266849
617.081107,-1628.453072,-10584.944971,-536.266849
617.081432,-1924.535449,-9696.697840,-689.485948
617.081756,-2072.576638,-8660.409521,-383.047749
617.082080,-1480.411884,-8808.450710,-383.047749
617.082404,-1258.350101,-8956.491898,-766.095498
617.082728,-814.226536,-9548.656652,-306.438199
617.083052,-296.082377,-9474.636058,459.657299
617.083377,666.185348,-10436.903782,229.828649
617.083701,1036.288319,-10214.842000,1455.581446
617.084025,1554.432478,-9696.697840,1915.238745
617.084349,962.267725,-9252.574275,842.705048
617.084673,-370.102971,-8808.450710,-306.438199
617.084997,-1924.535449,-9030.512492,-536.266849
617.085322,-2590.720797,-8586.388927,-1225.752797
617.085646,-2738.761985,-7994.224174,-1762.019645
617.085970,-2664.741391,-7179.997637,-1532.190996
617.086294,-2368.659014,-7846.182985,-1149.143247
617.086618,-2294.638420,-8216.285956,-1455.581446
617.086942,-2960.823768,-7624.121203,-1762.019645
617.087266,-2738.761985,-7179.997637,-919.314598
617.087591,-1554.432478,-8142.265362,-1225.752797
617.087915,222.061783,-8956.491898,-995.924147
617.088239,222.061783,-9400.615463,0.000000
617.088563,0.000000,-10288.862594,383.047749
617.088887,222.061783,-11029.068536,-919.314598
617.089211,296.082377,-10881.027347,-1225.752797
617.089536,740.205942,-10066.800811,-1225.752797
617.089860,1258.350101,-10510.924376,-2145.067394
617.090184,1332.370696,-11547.212695,-2068.457845
617.090508,296.082377,-11917.315666,-1838.629195
617.090832,-444.123565,-11695.253884,-2221.676944
617.091156,-296.082377,-10955.047942,-2528.115143
617.091480,-296.082377,-11251.130318,-1991.848295
617.091805,-962.267725,-11547.212695,-2298.286494
617.092129,-1406.391290,-11843.295072,-2834.553343
617.092453,-3849.070898,-10955.047942,-2987.772442
617.092777,-3627.009116,-9992.780217,-3447.429741
617.093101,-2738.761985,-10584.944971,-3217.601092
617.093425,-2368.659014,-11177.109724,-3064.381992
617.093750,-2664.741391,-10140.821405,-1915.238745
617.094074,-2516.700203,-10584.944971,-1608.800546
617.094398,-1480.411884,-10584.944971,-1455.581446
617.094722,-222.061783,-9696.697840,-1455.581446
617.095046,1036.288319,-10066.800811,-995.924147
617.095370,1110.308913,-9918.759623,-919.314598
617.095695,0.000000,-9770.718434,-1302.362347
617.096019,-2146.597232,-9474.636058,-2145.067394
617.096343,-3256.906145,-8586.388927,-2145.067394
617.096667,-4071.132681,-8586.388927,-2451.505594
617.096991,-4441.235652,-8438.347739,-2757.943793
617.097315,-5847.626942,-7624.121203,-2987.772442
617.097639,-7476.080014,-8808.450710,-2604.724693
617.097964,-7105.977043,-9326.594869,-2298.286494
617.098288,-5699.585753,-8956.491898,-1608.800546
617.098612,-4293.194464,-8660.409521,-1072.533697
617.098936,-3552.988522,-8734.430116,-1149.143247
617.099260,-3404.947333,-9326.594869,-995.924147
617.099584,-3701.029710,-11103.089130,-612.876398
617.099909,-2590.720797,-10658.965565,-153.219100
617.100233,-666.185348,-9992.780217,306.438199
617.100557,1110.308913,-9844.739029,0.000000
617.100881,2072.576638,-8216.285956,-842.705048
617.101205,1036.288319,-7994.224174,-612.876398
617.101529,0.000000,-8364.327145,-766.095498
617.101854,-666.185348,-8956.491898,-1608.800546
617.102178,-1924.535449,-8068.244768,-1608.800546
617.102502,-2664.741391,-7624.121203,-1225.752797
617.102826,-2886.803174,-8586.388927,-1838.629195
617.103150,-3330.926739,-9252.574275,-2374.896044
617.103474,-4219.173869,-8586.388927,-1685.410096
617.103798,-4737.318029,-7846.182985,-2451.505594
617.104123,-5107.421000,-9474.636058,-3830.477490
617.104447,-4959.379811,-11399.171507,-2987.772442
617.104771,-3256.906145,-11917.315666,-3217.601092
617.105095,-1924.535449,-11325.150913,-3294.210641
617.105419,-2294.638420,-11103.089130,-2681.334243
617.105743,-370.102971,-10066.800811,-3294.210641
617.106068,1480.411884,-10362.883188,-2834.553343
617.106392,2960.823768,-10066.800811,-1991.848295
617.106716,3108.864956,-10436.903782,-1455.581446
617.107040,2664.741391,-11843.295072,-612.876398
617.107364,814.226536,-12361.439231,-1455.581446
617.107688,-1702.473667,-10807.006753,-2451.505594
617.108013,-4959.379811,-9178.553681,-3140.991542
617.108337,-6661.853478,-10066.800811,-3907.087040
617.108661,-6661.853478,-10584.944971,-5132.839837
617.108985,-5033.400406,-9474.636058,-4213.525239
617.109309,-4071.132681,-8734.430116,-3370.820191
617.109633,-3404.947333,-9400.615463,-3677.258390
617.109957,-3627.009116,-9400.615463,-3907.087040
617.110282,-2590.720797,-9252.574275,-3140.991542
617.110606,-518.144159,-10066.800811,-2911.162892
617.110930,1554.432478,-11103.089130,-1991.848295
617.111254,3552.988522,-10881.027347,-459.657299
617.111578,5181.441594,-11325.150913,0.000000
617.111902,5773.606348,-12361.439231,153.219100
617.112227,3404.947333,-12139.377449,-536.266849
617.112551,148.041188,-11325.150913,-1915.238745
617.112875,-3552.988522,-9992.780217,-2528.115143
617.113199,-5403.503377,-9474.636058,-3140.991542
617.113523,-6365.771101,-8808.450710,-3600.648841
617.113847,-6957.935855,-7550.100608,-3294.210641
617.114171,-7179.997637,-5921.647536,-2987.772442
617.114496,-5551.544565,-6587.832884,-2987.772442
617.114820,-3701.029710,-7476.080014,-3064.381992
617.115144,-3775.050304,-7402.059420,-2221.676944
617.115468,-4515.256246,-7920.203579,-1685.410096
617.115792,-3330.926739,-9918.759623,-842.705048
617.116116,-592.164754,-10658.965565,-842.705048
617.116441,666.185348,-9622.677246,0.000000
617.116765,444.123565,-10436.903782,76.609550
617.117089,962.267725,-11177.109724,0.000000
617.117413,2220.617826,-11473.192101,0.000000
617.117737,1776.494261,-10510.924376,0.000000
617.118061,-1924.535449,-10510.924376,-842.705048
617.118386,-5625.565159,-10807.006753,-1762.019645
617.118710,-6365.771101,-11029.068536,-2374.896044
617.119034,-6217.729913,-9474.636058,-2604.724693
617.119358,-5551.544565,-8660.409521,-2451.505594
617.119682,-6143.709319,-9326.594869,-2451.505594
617.120006,-6069.688724,-9400.615463,-2298.286494
617.120330,-4515.256246,-7846.182985,-1915.238745
617.120655,-3034.844362,-7105.977043,-1762.019645
617.120979,-2664.741391,-8290.306550,-1608.800546
617.121303,-2886.803174,-9770.718434,-1608.800546
617.121627,-2738.761985,-9474.636058,-1915.238745
617.121951,-2516.700203,-9030.512492,-1072.533697
617.122275,-2294.638420,-9474.636058,-1225.752797
617.122600,-1184.329507,-11103.089130,-689.485948
617.122924,148.041188,-11177.109724,-536.266849
617.123248,370.102971,-10288.862594,-766.095498
617.123572,-444.123565,-9770.718434,-1302.362347
617.123896,-2146.597232,-10214.842000,-766.095498
617.124220,-2664.741391,-10732.986159,-1149.143247
617.124545,-1480.411884,-9622.677246,-919.314598
617.124869,-666.185348,-8290.306550,-1991.848295
617.125193,-2146.597232,-8142.265362,-3983.696590
617.125517,-5477.523971,-11695.253884,-3064.381992
617.125841,-6069.688724,-13915.871710,-3140.991542
617.126165,-3256.906145,-11399.171507,-4596.572988
617.126489,-1998.556043,-9252.574275,-2681.334243
617.126814,-666.185348,-9474.636058,-1225.752797
617.127138,1258.350101,-10066.800811,-2451.505594
617.127462,1702.473667,-9252.574275,-2221.676944
617.127786,1184.329507,-7550.100608,-1915.238745
617.128110,1332.370696,-7624.121203,-1455.581446
617.128434,1924.535449,-8882.471304,-1532.190996
617.128759,1184.329507,-8142.265362,-306.438199
617.129083,740.205942,-7994.224174,-842.705048
617.129407,-2146.597232,-9548.656652,-3524.039291
617.129731,-5255.462188,-12139.377449,-4060.306139
617.130055,-6291.750507,-12361.439231,-4366.744339
617.130379,-4959.379811,-10066.800811,-4213.525239
617.130704,-3701.029710,-9104.533087,-3064.381992
617.131028,-2294.638420,-9474.636058,-2604.724693
617.131352,-370.102971,-9696.697840,-2681.334243
617.131676,1776.494261,-9548.656652,-1915.238745
617.132000,2072.576638,-8956.491898,-2374.896044
617.132324,1184.329507,-9104.533087,-1762.019645
617.132648,222.061783,-10214.842000,-1838.629195
617.132973,-1110.308913,-11399.171507,-1838.629195
617.133297,-2886.803174,-11991.336260,-2221.676944
617.133621,-5773.606348,-10881.027347,-3064.381992
617.133945,-5773.606348,-10510.924376,-3447.429741
617.134269,-4959.379811,-9992.780217,-2834.553343
617.134593,-3256.906145,-9622.677246,-2681.334243
617.134918,-1702.473667,-9474.636058,-2604.724693
617.135242,-1924.535449,-9474.636058,-2451.505594
617.135566,-2664.741391,-9770.718434,-2451.505594
617.135890,-3478.967927,-9770.718434,-2221.676944
617.136214,-3997.112087,-9474.636058,-2221.676944
617.136538,-3775.050304,-9474.636058,-1762.019645
617.136862,-2960.823768,-9844.739029,-1991.848295
617.137187,-1554.432478,-9918.759623,-1838.629195
617.137511,-666.185348,-9844.739029,-1915.238745
617.137835,-518.144159,-9104.533087,-1838.629195
617.138159,-1702.473667,-8734.430116,-2221.676944
617.138483,-2368.659014,-9400.615463,-2604.724693
617.138807,-2516.700203,-9992.780217,-1608.800546
617.139132,-3923.091493,-9622.677246,-1991.848295
617.139456,-4441.235652,-9844.739029,-1991.848295
617.139780,-4737.318029,-9992.780217,-1762.019645
617.140104,-5181.441594,-10658.965565,-1608.800546
617.140428,-5699.585753,-10881.027347,-1072.533697
617.140752,-5403.503377,-10732.986159,-1072.533697
617.141077,-4811.338623,-10584.944971,-1991.848295
617.141401,-2960.823768,-10362.883188,-1455.581446
617.141725,-1184.329507,-9918.759623,-1762.019645
617.142049,888.247130,-8586.388927,-1455.581446
617.142373,1998.556043,-7624.121203,-1762.019645
617.142697,1702.473667,-7550.100608,-1378.971896
617.143021,888.247130,-7624.121203,-1455.581446
617.143346,0.000000,-9400.615463,-1685.410096
617.143670,-1628.453072,-8808.450710,-1685.410096
617.143994,-3997.112087,-9326.594869,-3064.381992
617.144318,-5477.523971,-10214.842000,-3064.381992
617.144642,-5699.585753,-10732.986159,-2834.553343
617.144966,-4737.318029,-10955.047942,-2451.505594
617.145291,-3478.967927,-10436.903782,-1532.190996
617.145615,-1998.556043,-10510.924376,-383.047749
617.145939,148.041188,-10140.821405,-459.657299
617.146263,1702.473667,-9400.615463,-1378.971896
617.146587,3330.926739,-8438.347739,-459.657299
617.146911,4367.215058,-8734.430116,-459.657299
617.147236,4811.338623,-9622.677246,-766.095498
617.147560,4293.194464,-10140.821405,-459.657299
617.147884,2738.761985,-10436.903782,-1302.362347
617.148208,148.041188,-11103.089130,-2221.676944
617.148532,-3330.926739,-11769.274478,-3064.381992
617.148856,-5847.626942,-12879.583391,-3830.477490
617.149180,-7920.203579,-11991.336260,-3600.648841
617.149505,-7772.162391,-11103.089130,-3140.991542
617.149829,-6661.853478,-9918.759623,-2451.505594
617.150153,-4737.318029,-8660.409521,-1762.019645
617.150477,-2442.679609,-7402.059420,-1532.190996
617.150801,-370.102971,-7179.997637,-536.266849
617.151125,1110.308913,-8216.285956,689.485948
617.151450,2368.659014,-9252.574275,536.266849
617.151774,3404.947333,-9622.677246,842.705048
617.152098,3330.926739,-9400.615463,689.485948
617.152422,2220.617826,-9400.615463,0.000000
617.152746,0.000000,-9696.697840,-1378.971896
617.153070,-2368.659014,-9992.780217,-1915.238745
617.153395,-4885.359217,-10658.965565,-2911.162892
617.153719,-7031.956449,-10066.800811,-3064.381992
617.154043,-8586.388927,-9400.615463,-4060.306139
617.154367,-9548.656652,-9104.533087,-4290.134789
617.154691,-9178.553681,-8660.409521,-4060.306139
617.155015,-8142.265362,-7846.182985,-3447.429741
617.155339,-5773.606348,-8660.409521,-2834.553343
617.155664,-2960.823768,-9326.594869,-1685.410096
617.155988,74.020594,-9104.533087,-536.266849
617.156312,1998.556043,-9622.677246,0.000000
617.156636,2368.659014,-10214.842000,0.000000
617.156960,2072.576638,-11473.192101,-1455.581446
617.157284,1332.370696,-11399.171507,-1149.143247
617.157609,444.123565,-11177.109724,-1762.019645
617.157933,-962.267725,-10658.965565,-2681.334243
617.158257,-2812.782580,-10881.027347,-3217.601092
617.158581,-5181.441594,-10140.821405,-4519.963438
617.158905,-6809.894666,-9474.636058,-5439.278036
617.159229,-8364.327145,-8142.265362,-5592.497135
617.159553,-7920.203579,-7254.018232,-5822.325785
617.159878,-5995.668130,-6809.894666,-4903.011187
617.160202,-3552.988522,-7328.038826,-3677.258390
617.160526,-1036.288319,-8586.388927,-2911.162892
617.160850,370.102971,-9696.697840,-2757.943793
617.161174,592.164754,-10066.800811,-2604.724693
617.161498,74.020594,-11251.130318,-2451.505594
617.161823,-666.185348,-11991.336260,-1608.800546
617.162147,-1628.453072,-13175.665768,-1685.410096
617.162471,-2072.576638,-13989.892304,-2221.676944
617.162795,-1776.494261,-14211.954086,-2528.115143
617.163119,-1480.411884,-11695.253884,-4136.915689
617.163443,-814.226536,-9474.636058,-4213.525239
617.163768,-370.102971,-9400.615463,-3677.258390
617.164092,-222.061783,-9252.574275,-4213.525239
617.164416,-1332.370696,-8512.368333,-4443.353888
617.164740,-3478.967927,-7402.059420,-3907.087040
617.165064,-4959.379811,-7031.956449,-4213.525239
617.165388,-5403.503377,-7105.977043,-4749.792088
617.165712,-4737.318029,-6883.915261,-3907.087040
617.166037,-2886.803174,-7550.100608,-2145.067394
617.166361,-1480.411884,-9326.594869,-1608.800546
617.166685,-444.123565,-10436.903782,-842.705048
617.167009,0.000000,-11473.192101,-612.876398
617.167333,-222.061783,-11843.295072,-612.876398
617.167657,-296.082377,-12953.603985,-842.705048
617.167982,-888.247130,-13323.706956,-689.485948
617.168306,148.041188,-11177.109724,-766.095498
617.168630,1480.411884,-9252.574275,-1149.143247
617.168954,2886.803174,-9030.512492,-306.438199
617.169278,2886.803174,-9474.636058,-1378.971896
617.169602,888.247130,-9548.656652,-1532.190996
617.169927,-2812.782580,-9622.677246,-2298.286494
617.170251,-6587.832884,-9030.512492,-3217.601092
617.170575,-9030.512492,-7698.141797,-3830.477490
617.170899,-9104.533087,-7550.100608,-3830.477490
617.171223,-7772.162391,-8512.368333,-2451.505594
617.171547,-6291.750507,-10362.883188,-1915.238745
617.171871,-5033.400406,-11029.068536,-612.876398
617.172195,-4145.153275,-10881.027347,-153.219100
617.172520,-3034.844362,-10362.883188,153.219100
617.172844,-1258.350101,-10362.883188,459.657299
617.173168,1036.288319,-10362.883188,612.876398
617.173492,3330.926739,-10140.821405,383.047749
617.173816,4441.235652,-9770.718434,0.000000
617.174140,3997.112087,-8290.306550,-306.438199
617.174464,3552.988522,-7550.100608,-612.876398
617.174788,1924.535449,-7476.080014,-1762.019645
617.175112,-296.082377,-8290.306550,-1378.971896
617.175436,-4145.153275,-9474.636058,-1608.800546
617.175760,-9030.512492,-11029.068536,-2681.334243
617.176084,-10510.924376,-11103.089130,-3064.381992
617.176408,-9622.677246,-8956.491898,-3677.258390
617.176732,-7105.977043,-7550.100608,-2757.943793
617.177057,-5995.668130,-8734.430116,-2451.505594
617.177381,-5699.585753,-10362.883188,-1762.019645
617.177705,-5551.544565,-10955.047942,-1225.752797
617.178029,-3478.967927,-10881.027347,-383.047749
617.178353,0.000000,-11325.150913,306.438199
617.178677,4515.256246,-10436.903782,-459.657299
617.179001,7476.080014,-8660.409521,-229.828649
617.179325,7920.203579,-8216.285956,0.000000
617.179649,6291.750507,-10732.986159,-383.047749
617.179973,3997.112087,-12657.521608,-153.219100
617.180297,370.102971,-11399.171507,-1378.971896
617.180621,-3923.091493,-9474.636058,-2068.457845
617.180945,-7772.162391,-8290.306550,-3830.477490
617.181270,-9770.718434,-8586.388927,-5286.058936
617.181594,-9992.780217,-8808.450710,-5439.278036
617.181918,-9178.553681,-7624.121203,-5286.058936
617.182242,-7550.100608,-7328.038826,-4136.915689
617.182566,-5995.668130,-7846.182985,-2451.505594
617.182890,-3627.009116,-8216.285956,-2451.505594
617.183214,-2738.761985,-7624.121203,-2911.162892
617.183538,-2072.576638,-9252.574275,-2145.067394
617.183862,-740.205942,-11325.150913,-2068.457845
617.184186,2664.741391,-12583.501014,-689.485948
617.184510,5477.523971,-12509.480420,76.609550
617.184834,6809.894666,-12583.501014,0.000000
617.185158,5699.585753,-12805.562797,-995.924147
617.185483,2516.700203,-13397.727550,-2068.457845
617.185807,-2220.617826,-11843.295072,-3600.648841
617.186131,-6513.812290,-10214.842000,-3370.820191
617.186455,-8660.409521,-10658.965565,-3907.087040
617.186779,-8512.368333,-10288.862594,-5056.230287
617.187103,-7328.038826,-6735.874072,-5439.278036
617.187427,-6957.935855,-4663.297435,-4826.401637
617.187751,-5921.647536,-6587.832884,-4596.572988
617.188075,-4737.318029,-7846.182985,-3983.696590
617.188399,-3923.091493,-6809.894666,-3370.820191
617.188723,-2516.700203,-7179.997637,-2145.067394
617.189047,-962.267725,-10214.842000,-2068.457845
617.189371,1702.473667,-12361.439231,-1225.752797
617.189695,3256.906145,-11399.171507,-1225.752797
617.190020,2664.741391,-10214.842000,-1225.752797
617.190344,1184.329507,-12953.603985,-1072.533697
617.190668,148.041188,-14211.954086,-995.924147
617.190992,74.020594,-12805.562797,-1685.410096
617.191316,-888.247130,-10362.883188,-2451.505594
617.191640,-2368.659014,-10436.903782,-2987.772442
617.191964,-2960.823768,-10510.924376,-3370.820191
617.192288,-3034.844362,-9252.574275,-2987.772442
617.192612,-3034.844362,-8142.265362,-3064.381992
617.192936,-3627.009116,-7105.977043,-3753.867940
617.193260,-3108.864956,-7624.121203,-3064.381992
617.193584,-3478.967927,-7772.162391,-2681.334243
617.193908,-4071.132681,-8956.491898,-2451.505594
617.194233,-3775.050304,-9474.636058,-3600.648841
617.194557,-4515.256246,-9918.759623,-3140.991542
617.194881,-4219.173869,-10362.883188,-2145.067394
617.195205,-1554.432478,-11251.130318,-2528.115143
617.195529,-444.123565,-10807.006753,-1532.190996
617.195853,-148.041188,-11325.150913,0.000000
617.196177,1184.329507,-10140.821405,-1685.410096
617.196501,1110.308913,-8734.430116,-1149.143247
617.196825,1184.329507,-8068.244768,-1608.800546
617.197149,1924.535449,-7698.141797,-1915.238745
617.197473,1702.473667,-8586.388927,-2374.896044
617.197797,-740.205942,-9696.697840,-1685.410096
617.198121,-3108.864956,-10881.027347,0.000000
617.198445,-4737.318029,-10955.047942,-2374.896044
617.198770,-6291.750507,-9622.677246,-2451.505594
617.199094,-7772.162391,-8068.244768,-3217.601092
617.199418,-7328.038826,-8512.368333,-4136.915689
617.199742,-7402.059420,-10732.986159,-3064.381992
617.200066,-7328.038826,-11325.150913,-3064.381992
617.200390,-5329.482782,-9178.553681,-2374.896044
617.200714,-2516.700203,-7698.141797,-1302.362347
617.201038,740.205942,-8364.327145,-842.705048
617.201362,1998.556043,-7698.141797,-1149.143247
617.201686,1850.514855,-8512.368333,-459.657299
617.202010,2294.638420,-10732.986159,459.657299
617.202334,3552.988522,-12435.459826,536.266849
617.202658,3108.864956,-11843.295072,1149.143247
617.202983,666.185348,-10510.924376,153.219100
617.203307,-592.164754,-10658.965565,766.095498
617.203631,-2294.638420,-11917.315666,-612.876398
617.203955,-3627.009116,-12139.377449,-1378.971896
617.204279,-4737.318029,-8882.471304,-3064.381992
617.204603,-4515.256246,-8512.368333,-2757.943793
617.204927,-3997.112087,-10288.862594,-1685.410096
617.205251,-2220.617826,-10584.944971,-2145.067394
617.205575,-2738.761985,-9770.718434,-995.924147
617.205899,-3552.988522,-8216.285956,-1072.533697
617.206223,-2738.761985,-7624.121203,-2068.457845
617.206547,-1406.391290,-8364.327145,-1608.800546
617.206871,592.164754,-8586.388927,0.000000
617.207195,1554.432478,-9104.533087,229.828649
617.207520,1406.391290,-10066.800811,0.000000
617.207844,888.247130,-9918.759623,995.924147
617.208168,1258.350101,-9992.780217,1455.581446
617.208492,962.267725,-10066.800811,1149.143247
617.208816,-1554.432478,-10066.800811,-766.095498
617.209140,-3849.070898,-9622.677246,-1762.019645
617.209464,-4071.132681,-10510.924376,-1608.800546
617.209788,-2442.679609,-10955.047942,-1685.410096
617.210112,-1110.308913,-9622.677246,-1685.410096
617.210436,-370.102971,-8438.347739,-536.266849
617.210760,740.205942,-9178.553681,0.000000
617.211084,2590.720797,-9474.636058,-1072.533697
617.211408,3182.885551,-10510.924376,229.828649
617.211733,4589.276840,-10510.924376,0.000000
617.212057,5773.606348,-9992.780217,459.657299
617.212381,5403.503377,-10362.883188,383.047749
617.212705,3849.070898,-9992.780217,306.438199
617.213029,740.205942,-9918.759623,383.047749
617.213353,-1998.556043,-10807.006753,-1455.581446
617.213677,-4589.276840,-10584.944971,-1838.629195
617.214001,-4811.338623,-9178.553681,-1915.238745
617.214325,-2664.741391,-8512.368333,-766.095498
617.214649,-296.082377,-9104.533087,-306.438199
617.214973,1924.535449,-8068.244768,536.266849
617.215297,2368.659014,-7698.141797,0.000000
617.215621,888.247130,-8734.430116,612.876398
617.215946,666.185348,-9474.636058,536.266849
617.216270,888.247130,-9622.677246,842.705048
617.216594,592.164754,-9770.718434,459.657299
617.216918,0.000000,-9844.739029,-383.047749
617.217242,-814.226536,-10066.800811,-1225.752797
617.217566,-740.205942,-9992.780217,-1991.848295
617.217890,-740.205942,-9992.780217,-1378.971896
617.218214,-1850.514855,-9474.636058,-1302.362347
617.218538,-1776.494261,-8956.491898,-536.266849
617.218862,-1406.391290,-9474.636058,-612.876398
617.219186,-1110.308913,-8882.471304,-536.266849
617.219510,-1628.453072,-8290.306550,0.000000
617.219834,-1554.432478,-9252.574275,-383.047749
617.220158,-148.041188,-9992.780217,919.314598
617.220483,1480.411884,-10214.842000,306.438199
617.220807,2220.617826,-9622.677246,-383.047749
617.221131,444.123565,-9770.718434,-1149.143247
617.221455,-814.226536,-11695.253884,-1149.143247
617.221779,-592.164754,-13915.871710,-995.924147
617.222103,-740.205942,-13841.851115,-1302.362347
617.222427,-1480.411884,-11695.253884,-689.485948
617.222751,-666.185348,-9844.739029,-995.924147
617.223075,740.205942,-10214.842000,-1302.362347
617.223399,888.247130,-9918.759623,-1378.971896
617.223723,-296.082377,-9548.656652,-612.876398
617.224047,-1850.514855,-9622.677246,-383.047749
617.224371,-2146.597232,-9844.739029,995.924147
617.224696,-1110.308913,-9696.697840,1225.752797
617.225020,-592.164754,-8512.368333,1225.752797
617.225344,-1776.494261,-8142.265362,0.000000
617.225668,-1850.514855,-8438.347739,-1072.533697
617.225992,-1628.453072,-9030.512492,-919.314598
617.226316,-888.247130,-9030.512492,0.000000
617.226640,-444.123565,-9474.636058,842.705048
617.226964,222.061783,-9400.615463,536.266849
617.227288,1628.453072,-8586.388927,0.000000
617.227612,3108.864956,-8808.450710,612.876398
617.227936,3627.009116,-8734.430116,229.828649
617.228260,3997.112087,-8734.430116,612.876398
617.228584,3404.947333,-8438.347739,1378.971896
617.228908,2960.823768,-9474.636058,1532.190996
617.229233,1702.473667,-10732.986159,1072.533697
617.229557,-666.185348,-9474.636058,766.095498
617.229881,-2368.659014,-8438.347739,459.657299
617.230205,-2664.741391,-8808.450710,-153.219100
617.230529,-1554.432478,-8586.388927,-459.657299
617.230853,-444.123565,-8364.327145,459.657299
617.231177,666.185348,-8438.347739,1072.533697
617.231501,740.205942,-7920.203579,459.657299
617.231825,518.144159,-7994.224174,612.876398
617.232149,740.205942,-7994.224174,0.000000
617.232473,1258.350101,-9178.553681,-842.705048
617.232797,1184.329507,-10214.842000,306.438199
617.233121,148.041188,-10584.944971,919.314598
617.233446,-962.267725,-10510.924376,-306.438199
617.233770,-1110.308913,-10066.800811,-1149.143247
617.234094,-1036.288319,-10362.883188,-1072.533697
617.234418,222.061783,-10658.965565,-919.314598
617.234742,1184.329507,-10881.027347,-383.047749
617.235066,1184.329507,-11029.068536,-383.047749
617.235390,1480.411884,-10881.027347,459.657299
617.235714,1998.556043,-10584.944971,229.828649
617.236038,1776.494261,-10510.924376,76.609550
617.236362,1406.391290,-11325.150913,0.000000
617.236686,1184.329507,-11621.233289,0.000000
617.237010,740.205942,-10732.986159,306.438199
617.237334,-148.041188,-11251.130318,-995.924147
617.237659,-1406.391290,-11177.109724,-842.705048
617.237983,-1628.453072,-10807.006753,-842.705048
617.238307,-1850.514855,-10066.800811,-1378.971896
617.238631,-2368.659014,-9474.636058,-1608.800546
617.238955,-1406.391290,-8734.430116,-995.924147
617.239279,-592.164754,-8586.388927,-689.485948
617.239603,-1332.370696,-9548.656652,-842.705048
617.239927,-2146.597232,-9918.759623,536.266849
617.240251,-2294.638420,-9770.718434,306.438199
617.240575,-1036.288319,-10214.842000,76.609550
617.240899,-1036.288319,-9326.594869,0.000000
617.241223,-1776.494261,-9030.512492,0.000000
617.241547,-1776.494261,-9474.636058,-229.828649
617.241871,-1110.308913,-9696.697840,0.000000
617.242196,0.000000,-9770.718434,153.219100
617.242520,74.020594,-8512.368333,383.047749
617.242844,518.144159,-8364.327145,536.266849
617.243168,370.102971,-8364.327145,-766.095498
617.243492,-592.164754,-8438.347739,-536.266849
617.243816,-740.205942,-8290.306550,-842.705048
617.244140,370.102971,-8290.306550,-459.657299
617.244464,962.267725,-8882.471304,0.000000
617.244788,1554.432478,-7920.203579,76.609550
617.245112,1924.535449,-8290.306550,459.657299
617.245436,1110.308913,-9474.636058,0.000000
617.245760,74.020594,-9474.636058,-229.828649
617.246084,0.000000,-8734.430116,-383.047749
617.246409,444.123565,-8512.368333,229.828649
617.246733,1776.494261,-9770.718434,689.485948
617.247057,2072.576638,-10214.842000,-306.438199
617.247381,1628.453072,-9622.677246,0.000000
617.247705,222.061783,-9252.574275,-1072.533697
617.248029,-444.123565,-9992.780217,-1302.362347
617.248353,666.185348,-10584.944971,-1302.362347
617.248677,1406.391290,-11473.192101,-1072.533697
617.249001,1554.432478,-11843.295072,-536.266849
617.249325,1332.370696,-11621.233289,-766.095498
617.249649,-148.041188,-10881.027347,-2451.505594
617.249973,-1628.453072,-11029.068536,-2604.724693
617.250297,-2368.659014,-12065.356855,-1378.971896
617.250621,-1036.288319,-12361.439231,-766.095498
617.250946,148.041188,-11325.150913,0.000000
617.251270,148.041188,-10066.800811,306.438199
617.251594,296.082377,-9474.636058,-766.095498
617.251918,888.247130,-9474.636058,-536.266849
617.252242,1480.411884,-10362.883188,-459.657299
617.252566,2220.617826,-10807.006753,76.609550
617.252890,1850.514855,-10436.903782,229.828649
617.253214,1406.391290,-9992.780217,0.000000
617.253538,-222.061783,-10066.800811,-153.219100
617.253862,-2220.617826,-10066.800811,-536.266849
617.254186,-3552.988522,-10214.842000,-612.876398
617.254510,-3330.926739,-9030.512492,-995.924147
617.254834,-2590.720797,-8438.347739,-383.047749
617.255159,-962.267725,-7772.162391,0.000000
617.255483,-1036.288319,-7402.059420,-383.047749
617.255807,-2072.576638,-7772.162391,0.000000
617.256131,-2220.617826,-8586.388927,306.438199
617.256455,-1184.329507,-9548.656652,612.876398
617.256779,-666.185348,-9104.533087,995.924147
617.257103,-518.144159,-9178.553681,1225.752797
617.257427,-1332.370696,-9474.636058,842.705048
617.257751,-1480.411884,-10288.862594,-536.266849
617.258075,-1184.329507,-11029.068536,306.438199
617.258399,444.123565,-11843.295072,2145.067394
617.258723,2442.679609,-10955.047942,1838.629195
617.259047,1924.535449,-8586.388927,1225.752797
617.259372,592.164754,-7698.141797,842.705048
617.259696,-592.164754,-10066.800811,-383.047749
617.260020,-592.164754,-11103.089130,-536.266849
617.260344,-740.205942,-9474.636058,536.266849
617.260668,0.000000,-7920.203579,995.924147
617.260992,962.267725,-7846.182985,1149.143247
617.261316,1184.329507,-9326.594869,995.924147
617.261640,740.205942,-9178.553681,612.876398
617.261964,370.102971,-7994.224174,0.000000
617.262288,666.185348,-7105.977043,0.000000
617.262612,1924.535449,-7105.977043,229.828649
617.262936,2960.823768,-8512.368333,1072.533697
617.263260,2886.803174,-9548.656652,995.924147
617.263584,1184.329507,-9104.533087,76.609550
617.263909,-1110.308913,-8734.430116,-459.657299
617.264233,-2072.576638,-9252.574275,-153.219100
617.264557,148.041188,-10584.944971,-229.828649
617.264881,1480.411884,-10732.986159,842.705048
617.265205,1702.473667,-10436.903782,383.047749
617.265529,444.123565,-10066.800811,-919.314598
617.265853,-592.164754,-9992.780217,-1532.190996
617.266177,-962.267725,-10658.965565,-1072.533697
617.266501,-666.185348,-11029.068536,-1149.143247
617.266825,-962.267725,-10510.924376,-842.705048
617.267149,-1110.308913,-10955.047942,-612.876398
617.267473,-1036.288319,-11103.089130,-1225.752797
617.267797,-222.061783,-10658.965565,-1302.362347
617.268122,0.000000,-9844.739029,-612.876398
617.268446,0.000000,-10214.842000,-536.266849
617.268770,592.164754,-10807.006753,0.000000
617.269094,296.082377,-10955.047942,-306.438199
617.269418,518.144159,-10881.027347,76.609550
617.269742,-370.102971,-10066.800811,-612.876398
617.270066,-1258.350101,-9918.759623,-1302.362347
617.270390,-1924.535449,-9770.718434,-995.924147
617.270714,-962.267725,-9548.656652,-766.095498
617.271038,0.000000,-10436.903782,-76.609550
617.271362,-1036.288319,-9548.656652,-766.095498
617.271686,-1850.514855,-8438.347739,-1915.238745
617.272010,-2072.576638,-8882.471304,-1455.581446
617.272334,-1554.432478,-9400.615463,-1455.581446
617.272658,-814.226536,-9992.780217,-383.047749
617.272982,-1110.308913,-9548.656652,229.828649
617.273306,-1924.535449,-9474.636058,-229.828649
617.273631,-2812.782580,-9696.697840,-229.828649
617.273955,-1850.514855,-9474.636058,-229.828649
617.274279,0.000000,-9696.697840,0.000000
617.274603,1480.411884,-9252.574275,-153.219100
617.274927,2738.761985,-9474.636058,612.876398
617.275251,3997.112087,-9474.636058,1225.752797
617.275575,4293.194464,-9918.759623,1149.143247
617.275899,3404.947333,-10066.800811,459.657299
617.276223,2146.597232,-9474.636058,0.000000
617.276547,1110.308913,-9178.553681,383.047749
617.276871,148.041188,-9252.574275,-306.438199
617.277195,-592.164754,-9696.697840,153.219100
617.277519,-1110.308913,-9474.636058,0.000000
617.277843,-1554.432478,-8808.450710,-842.705048
617.278167,-1554.432478,-8882.471304,-689.485948
617.278491,-592.164754,-8364.327145,-766.095498
617.278815,1110.308913,-7994.224174,-536.266849
617.279139,1406.391290,-8364.327145,612.876398
617.279463,0.000000,-9252.574275,0.000000
617.279787,-1924.535449,-9548.656652,-383.047749
617.280111,-1406.391290,-9252.574275,-153.219100
617.280435,0.000000,-10362.883188,153.219100
617.280759,1036.288319,-11399.171507,153.219100
617.281083,1850.514855,-10732.986159,919.314598
617.281407,2368.659014,-11325.150913,1455.581446
617.281731,1628.453072,-11251.130318,919.314598
617.282055,1628.453072,-11103.089130,-153.219100
617.282379,962.267725,-10288.862594,459.657299
617.282703,-296.082377,-10807.006753,306.438199
617.283027,-1628.453072,-10732.986159,-612.876398
617.283351,-2368.659014,-9770.718434,-1225.752797
617.283675,-2368.659014,-9030.512492,-919.314598
617.283999,-1628.453072,-10140.821405,-995.924147
617.284323,-222.061783,-10288.862594,-459.657299
617.284647,222.061783,-9548.656652,0.000000
617.284971,0.000000,-8882.471304,153.219100
617.285295,-518.144159,-9696.697840,459.657299
617.285619,-592.164754,-10362.883188,612.876398
617.285943,-518.144159,-9622.677246,459.657299
617.286267,-296.082377,-8438.347739,1072.533697
617.286591,518.144159,-9326.594869,919.314598
617.286915,1406.391290,-10214.842000,1762.019645
617.287239,666.185348,-10288.862594,1685.410096
617.287563,-814.226536,-9844.739029,1455.581446
617.287887,-1184.329507,-9474.636058,766.095498
617.288211,-370.102971,-9178.553681,0.000000
617.288535,-148.041188,-8882.471304,-383.047749
617.288859,-740.205942,-8364.327145,-383.047749
617.289183,-1480.411884,-8364.327145,-1225.752797
617.289507,-1998.556043,-8290.306550,-1685.410096
617.289831,-2294.638420,-8068.244768,-1685.410096
617.290155,-1258.350101,-9474.636058,-383.047749
617.290479,518.144159,-10288.862594,383.047749
617.290804,1036.288319,-9474.636058,76.609550
617.291128,370.102971,-9400.615463,842.705048
617.291452,1036.288319,-9770.718434,1302.362347
617.291776,2886.803174,-10288.862594,919.314598
617.292100,4219.173869,-9918.759623,1532.190996
617.292424,3701.029710,-9252.574275,1149.143247
617.292748,3404.947333,-9696.697840,1149.143247
617.293072,2886.803174,-10807.006753,229.828649
617.293396,1480.411884,-10881.027347,612.876398
617.293720,-222.061783,-10510.924376,-306.438199
617.294044,-1554.432478,-9770.718434,-2298.286494
617.294368,-2960.823768,-8808.450710,-1991.848295
617.294692,-2146.597232,-8882.471304,-995.924147
617.295016,370.102971,-9400.615463,-766.095498
617.295340,1110.308913,-9474.636058,0.000000
617.295664,0.000000,-8438.347739,-306.438199
617.295988,-1480.411884,-8068.244768,0.000000
617.296312,-740.205942,-10436.903782,229.828649
617.296636,-296.082377,-11103.089130,-306.438199
617.296960,296.082377,-9770.718434,689.485948
617.297284,-444.123565,-9474.636058,306.438199
617.297608,-814.226536,-10066.800811,153.219100
617.297932,-592.164754,-10732.986159,0.000000
617.298256,-370.102971,-11399.171507,0.000000
617.298580,444.123565,-11251.130318,0.000000
617.298904,444.123565,-10955.047942,-1149.143247
617.299228,-222.061783,-9844.739029,-1378.971896
617.299552,-962.267725,-9030.512492,-1072.533697
617.299876,-666.185348,-10362.883188,-1302.362347
617.300200,-1036.288319,-10955.047942,-1072.533697
617.300524,-1036.288319,-10955.047942,-536.266849
617.300848,-1036.288319,-10140.821405,0.000000
617.301172,370.102971,-9474.636058,-459.657299
617.301496,0.000000,-9326.594869,76.609550
617.301820,-370.102971,-9548.656652,-612.876398
617.302144,-1036.288319,-10510.924376,-612.876398
617.302468,-888.247130,-9474.636058,0.000000
617.302792,0.000000,-8882.471304,306.438199
617.303116,444.123565,-9252.574275,229.828649
617.303440,0.000000,-9178.553681,-306.438199
617.303764,-1036.288319,-9030.512492,0.000000
617.304088,-1554.432478,-9030.512492,-306.438199
617.304412,-740.205942,-8956.491898,-1225.752797
617.304736,-370.102971,-8882.471304,-842.705048
617.305060,0.000000,-8216.285956,-612.876398
617.305384,444.123565,-8956.491898,-536.266849
617.305708,296.082377,-9844.739029,76.609550
617.306032,1036.288319,-9474.636058,153.219100
617.306356,296.082377,-9474.636058,1302.362347
617.306680,0.000000,-9548.656652,919.314598
617.307004,-296.082377,-9400.615463,0.000000
617.307328,-592.164754,-8882.471304,-306.438199
617.307653,-148.041188,-9696.697840,0.000000
617.307977,518.144159,-10288.862594,229.828649
617.308301,1406.391290,-10214.842000,842.705048
617.308625,1036.288319,-9030.512492,1072.533697
617.308949,1110.308913,-8438.347739,459.657299
617.309273,1332.370696,-9030.512492,-766.095498
617.309597,0.000000,-9844.739029,-612.876398
617.309921,-814.226536,-10066.800811,-229.828649
617.310245,-370.102971,-10066.800811,0.000000
617.310569,0.000000,-9030.512492,229.828649
617.310893,1628.453072,-9252.574275,0.000000
617.311217,2590.720797,-9474.636058,383.047749
617.311541,2146.597232,-9696.697840,153.219100
617.311865,962.267725,-10288.862594,229.828649
617.312189,0.000000,-9770.718434,229.828649
617.312513,-296.082377,-9622.677246,-536.266849
617.312837,0.000000,-9844.739029,-153.219100
617.313161,0.000000,-10807.006753,0.000000
617.313485,444.123565,-11399.171507,383.047749
617.313809,-1184.329507,-10510.924376,0.000000
617.314133,-2664.741391,-10140.821405,-995.924147
617.314457,-3034.844362,-9918.759623,-1762.019645
617.314781,-2220.617826,-10436.903782,-1149.143247
617.315105,-1184.329507,-10881.027347,-1072.533697
617.315429,-148.041188,-10066.800811,-612.876398
617.315753,74.020594,-9474.636058,-1149.143247
617.316077,666.185348,-10362.883188,689.485948
617.316401,1628.453072,-11325.150913,1378.971896
617.316725,1850.514855,-11917.315666,1608.800546
617.317049,1258.350101,-11177.109724,1608.800546
617.317373,592.164754,-9622.677246,229.828649
617.317697,-814.226536,-9178.553681,0.000000
617.318021,-1628.453072,-8512.368333,229.828649
