#time,accel_x,accel_y,accel_z
787.124370,-5699.585753,-11325.150913,2451.505594
787.124694,-2294.638420,-8364.327145,2451.505594
787.125018,-1554.432478,-5107.421000,3447.429741
787.125343,592.164754,-4367.215058,2374.896044
787.125667,3256.906145,-7179.997637,1838.629195
787.125991,3775.050304,-8586.388927,2911.162892
787.126316,4071.132681,-9400.615463,4443.353888
787.126640,3330.926739,-10955.047942,4596.572988
787.126964,1332.370696,-11917.315666,3140.991542
787.127289,-2220.617826,-12361.439231,1991.848295
787.127613,-4737.318029,-12805.562797,459.657299
787.127937,-5773.606348,-13323.706956,-1072.533697
787.128262,-6661.853478,-12213.398043,-1991.848295
787.128586,-5477.523971,-10214.842000,-1072.533697
787.128910,-3256.906145,-8142.265362,-383.047749
787.129234,-2146.597232,-8734.430116,306.438199
787.129559,-2516.700203,-9178.553681,-229.828649
787.129883,-2960.823768,-9030.512492,0.000000
787.130207,-1924.535449,-8364.327145,0.000000
787.130532,-888.247130,-7920.203579,0.000000
787.130856,-148.041188,-8216.285956,229.828649
787.131180,0.000000,-9474.636058,0.000000
787.131505,-592.164754,-12435.459826,-153.219100
787.131829,-1406.391290,-14063.912898,-383.047749
787.132153,-1480.411884,-13249.686362,306.438199
787.132478,-888.247130,-12287.418637,1608.800546
787.132802,-444.123565,-11843.295072,1455.581446
787.133126,-1258.350101,-10955.047942,995.924147
787.133450,-2368.659014,-9918.759623,766.095498
787.133775,-1702.473667,-9326.594869,689.485948
787.134099,-888.247130,-9548.656652,383.047749
787.134423,-1554.432478,-8808.450710,153.219100
787.134748,-3108.864956,-7698.141797,306.438199
787.135072,-4367.215058,-8364.327145,-1302.362347
787.135396,-6735.874072,-10140.821405,-1838.629195
787.135721,-7402.059420,-11843.295072,-1838.629195
787.136045,-6661.853478,-11769.274478,-1072.533697
787.136369,-4959.379811,-11695.253884,689.485948
787.136693,-3404.947333,-10510.924376,1685.410096
787.137018,-2072.576638,-9474.636058,2681.334243
787.137342,-888.247130,-9030.512492,3140.991542
787.137666,-740.205942,-8808.450710,3217.601092
787.137991,74.020594,-9252.574275,4290.134789
787.138315,1924.535449,-9400.615463,6052.154434
787.138639,3997.112087,-9400.615463,6971.469032
787.138964,4515.256246,-8808.450710,7124.688131
787.139288,2220.617826,-8216.285956,6205.373534
787.139612,-888.247130,-7624.121203,4826.401637
787.139937,-3627.009116,-7920.203579,3370.820191
787.140261,-4441.235652,-6883.915261,2298.286494
787.140585,-4737.318029,-4663.297435,0.000000
787.140909,-5773.606348,-6069.688724,76.609550
787.141234,-7105.977043,-9844.739029,1455.581446
787.141558,-5033.400406,-11325.150913,689.485948
787.141882,-3256.906145,-10140.821405,2298.286494
787.142207,-2516.700203,-8290.306550,5132.839837
787.142531,666.185348,-8512.368333,6128.763984
787.142855,4145.153275,-9178.553681,6741.640382
787.143180,6069.688724,-9474.636058,8427.050478
787.143504,7179.997637,-11103.089130,9039.926876
787.143828,6217.729913,-12953.603985,7967.393179
787.144152,3552.988522,-11991.336260,6894.859482
787.144477,740.205942,-8142.265362,5592.497135
787.144801,-1258.350101,-6587.832884,3983.696590
787.145125,-4367.215058,-6883.915261,1072.533697
787.145450,-6069.688724,-6069.688724,-2145.067394
787.145774,-7105.977043,-6069.688724,-3524.039291
787.146098,-5699.585753,-7254.018232,-2834.553343
787.146423,-2146.597232,-8068.244768,-3370.820191
787.146747,0.000000,-8438.347739,-153.219100
787.147071,1554.432478,-9030.512492,2068.457845
787.147396,3404.947333,-9474.636058,229.828649
787.147720,2590.720797,-11029.068536,1532.190996
787.148044,2590.720797,-11843.295072,1762.019645
787.148368,4219.173869,-11695.253884,2528.115143
787.148693,4737.318029,-12139.377449,1762.019645
787.149017,2368.659014,-11843.295072,689.485948
787.149341,592.164754,-10658.965565,-919.314598
787.149666,-518.144159,-9992.780217,-3753.867940
787.149990,-1554.432478,-10362.883188,-5898.935335
787.150314,-2442.679609,-10881.027347,-6435.202183
787.150639,-2368.659014,-9844.739029,-7354.516781
787.150963,-1924.535449,-10658.965565,-6818.249932
787.151287,-2516.700203,-11991.336260,-6281.983084
787.151611,-2368.659014,-11695.253884,-5745.716235
787.151936,-2516.700203,-11029.068536,-4979.620737
787.152260,-1110.308913,-11843.295072,-3524.039291
787.152584,444.123565,-11325.150913,-1991.848295
787.152909,3775.050304,-10066.800811,-2068.457845
787.153233,4737.318029,-9548.656652,-1378.971896
787.153557,4441.235652,-11251.130318,-1225.752797
787.153882,3997.112087,-11103.089130,-2451.505594
787.154206,3034.844362,-8882.471304,-2911.162892
787.154530,296.082377,-6365.771101,-5515.887586
787.154855,-2146.597232,-8142.265362,-6281.983084
787.155179,-3627.009116,-11769.274478,-6511.811733
787.155503,-2220.617826,-12805.562797,-6665.030833
787.155828,-1036.288319,-11473.192101,-4366.744339
787.156152,-518.144159,-10658.965565,-2604.724693
787.156476,962.267725,-9918.759623,-2528.115143
787.156800,1332.370696,-9548.656652,-2604.724693
787.157125,1036.288319,-8808.450710,-536.266849
787.157449,666.185348,-8808.450710,0.000000
787.157773,296.082377,-9844.739029,-536.266849
787.158098,-962.267725,-10362.883188,612.876398
787.158422,-1332.370696,-8734.430116,536.266849
787.158746,-1998.556043,-7105.977043,-1225.752797
787.159071,-3256.906145,-7179.997637,-2298.286494
787.159395,-3701.029710,-9844.739029,-1378.971896
787.159719,-1036.288319,-10658.965565,-1532.190996
787.160044,1332.370696,-9030.512492,-842.705048
787.160368,1702.473667,-9030.512492,1915.238745
787.160692,1628.453072,-9548.656652,2221.676944
787.161016,1036.288319,-10140.821405,1302.362347
787.161341,0.000000,-9844.739029,1838.629195
787.161665,0.000000,-8734.430116,2681.334243
787.161989,1184.329507,-8364.327145,3524.039291
787.162314,2146.597232,-8216.285956,4290.134789
787.162638,1850.514855,-7846.182985,5439.278036
787.162962,1036.288319,-7105.977043,4596.572988
787.163287,-222.061783,-7846.182985,3600.648841
787.163611,-1628.453072,-8808.450710,2834.553343
787.163935,-1998.556043,-8290.306550,3064.381992
787.164260,-1110.308913,-8068.244768,2911.162892
787.164584,-1332.370696,-8808.450710,3370.820191
787.164908,-2146.597232,-9400.615463,3677.258390
787.165233,-2072.576638,-9622.677246,3064.381992
787.165557,-740.205942,-9696.697840,2681.334243
787.165881,222.061783,-9548.656652,3677.258390
787.166205,2072.576638,-9992.780217,4060.306139
787.166530,3997.112087,-9992.780217,4596.572988
787.166854,3849.070898,-10881.027347,3753.867940
787.167178,1924.535449,-11547.212695,3140.991542
787.167503,-814.226536,-11029.068536,2068.457845
787.167827,-3108.864956,-10658.965565,1532.190996
787.168151,-3997.112087,-10436.903782,1378.971896
787.168476,-3923.091493,-10214.842000,919.314598
787.168800,-3108.864956,-9918.759623,612.876398
787.169124,-1924.535449,-9918.759623,1225.752797
787.169449,-444.123565,-9474.636058,1838.629195
787.169773,1554.432478,-9178.553681,2298.286494
787.170097,1628.453072,-9252.574275,2068.457845
787.170421,814.226536,-9474.636058,2145.067394
787.170746,0.000000,-9696.697840,1149.143247
787.171070,-1184.329507,-9622.677246,383.047749
787.171394,-1850.514855,-10066.800811,-1072.533697
787.171719,-962.267725,-9992.780217,-1608.800546
787.172043,444.123565,-10288.862594,-1072.533697
787.172367,962.267725,-9474.636058,-842.705048
787.172692,1406.391290,-9474.636058,-1149.143247
787.173016,1184.329507,-9474.636058,-1685.410096
787.173340,296.082377,-9548.656652,-1762.019645
787.173665,-666.185348,-9030.512492,-1838.629195
787.173989,-888.247130,-9252.574275,-1762.019645
787.174313,-1406.391290,-9104.533087,-1608.800546
787.174638,-1036.288319,-9548.656652,-1378.971896
787.174962,-1184.329507,-9400.615463,-1149.143247
787.175286,0.000000,-9178.553681,-995.924147
787.175610,1406.391290,-9252.574275,-842.705048
787.175935,2368.659014,-9252.574275,-766.095498
787.176259,3182.885551,-8808.450710,-1149.143247
787.176583,2442.679609,-9030.512492,-1225.752797
787.176908,1110.308913,-9030.512492,-1532.190996
787.177232,-814.226536,-9104.533087,-2604.724693
787.177556,-1850.514855,-9400.615463,-3524.039291
787.177881,-2146.597232,-9918.759623,-3983.696590
787.178205,-1332.370696,-10362.883188,-3753.867940
787.178529,222.061783,-10214.842000,-3140.991542
787.178854,2294.638420,-10140.821405,-2528.115143
787.179178,2738.761985,-9844.739029,-2068.457845
787.179502,2368.659014,-10214.842000,-2451.505594
787.179826,1924.535449,-10807.006753,-1991.848295
787.180151,888.247130,-11029.068536,-1532.190996
787.180475,-148.041188,-11103.089130,-1762.019645
787.180799,-740.205942,-11251.130318,-1532.190996
787.181124,-1110.308913,-10732.986159,-1072.533697
787.181448,-370.102971,-10510.924376,-919.314598
787.181772,444.123565,-11251.130318,-1072.533697
787.182097,1258.350101,-10732.986159,-842.705048
787.182421,1406.391290,-10584.944971,-1149.143247
787.182745,1110.308913,-10288.862594,-1072.533697
787.183070,296.082377,-10362.883188,-1532.190996
787.183394,-814.226536,-10214.842000,-842.705048
787.183718,-1998.556043,-10436.903782,-1608.800546
787.184043,-2442.679609,-10732.986159,-1685.410096
787.184367,-2738.761985,-10658.965565,-1455.581446
787.184691,-1332.370696,-10436.903782,-1378.971896
787.185015,0.000000,-10362.883188,-612.876398
787.185340,1184.329507,-9844.739029,0.000000
787.185664,1702.473667,-9400.615463,153.219100
787.185988,1480.411884,-9178.553681,842.705048
787.186313,1258.350101,-9474.636058,1225.752797
787.186637,740.205942,-9474.636058,1072.533697
787.186961,-444.123565,-9178.553681,153.219100
787.187286,-1332.370696,-9326.594869,536.266849
787.187610,-1480.411884,-9252.574275,612.876398
787.187934,-1184.329507,-9178.553681,919.314598
787.188259,-888.247130,-9104.533087,1378.971896
787.188583,0.000000,-8438.347739,1762.019645
787.188907,666.185348,-8142.265362,1685.410096
787.189231,814.226536,-8142.265362,1838.629195
787.189556,888.247130,-8290.306550,1915.238745
787.189880,148.041188,-8586.388927,1762.019645
787.190204,-962.267725,-8438.347739,1532.190996
787.190529,-1776.494261,-8808.450710,1225.752797
787.190853,-1924.535449,-8734.430116,995.924147
787.191177,-1036.288319,-9474.636058,1608.800546
787.191502,-518.144159,-9104.533087,1991.848295
787.191826,444.123565,-8956.491898,1991.848295
787.192150,1702.473667,-9400.615463,2068.457845
787.192475,2220.617826,-9252.574275,2145.067394
787.192799,1406.391290,-9326.594869,1838.629195
787.193123,222.061783,-9474.636058,1685.410096
787.193448,-666.185348,-9918.759623,1072.533697
787.193772,-1332.370696,-9918.759623,1532.190996
787.194096,-1332.370696,-10066.800811,1532.190996
787.194420,-1480.411884,-9696.697840,1608.800546
787.194745,-370.102971,-9696.697840,1685.410096
787.195069,444.123565,-9770.718434,2068.457845
787.195393,814.226536,-9844.739029,1838.629195
787.195718,962.267725,-9696.697840,1838.629195
787.196042,222.061783,-9992.780217,1532.190996
787.196366,-814.226536,-10288.862594,919.314598
787.196691,-2146.597232,-10658.965565,766.095498
787.197015,-3034.844362,-10362.883188,0.000000
787.197339,-2960.823768,-9844.739029,0.000000
787.197664,-1406.391290,-9992.780217,0.000000
787.197988,0.000000,-9474.636058,459.657299
787.198312,1406.391290,-9474.636058,612.876398
787.198637,2664.741391,-9474.636058,919.314598
787.198961,2812.782580,-9844.739029,612.876398
787.199285,1776.494261,-9696.697840,459.657299
787.199609,444.123565,-9770.718434,0.000000
787.199934,-666.185348,-9992.780217,-536.266849
787.200258,-1258.350101,-9918.759623,153.219100
787.200582,-1480.411884,-9696.697840,-459.657299
787.200907,-814.226536,-8956.491898,-383.047749
787.201231,-148.041188,-8882.471304,0.000000
787.201555,962.267725,-9178.553681,-153.219100
787.201880,1258.350101,-8808.450710,-383.047749
787.202204,1258.350101,-8512.368333,-766.095498
787.202528,592.164754,-8734.430116,-995.924147
787.202853,222.061783,-8956.491898,-1225.752797
787.203177,-518.144159,-9326.594869,-1685.410096
787.203501,-814.226536,-9696.697840,-1991.848295
787.203825,-592.164754,-10066.800811,-2068.457845
787.204150,518.144159,-10140.821405,-2145.067394
787.204474,1776.494261,-10510.924376,-1762.019645
787.204798,2368.659014,-10807.006753,-1838.629195
787.205123,2146.597232,-10658.965565,-2068.457845
787.205447,1332.370696,-10732.986159,-1915.238745
787.205771,222.061783,-10732.986159,-2298.286494
787.206096,-296.082377,-10881.027347,-2298.286494
787.206420,-1554.432478,-10288.862594,-2145.067394
787.206744,-2220.617826,-10066.800811,-2298.286494
787.207069,-2072.576638,-10140.821405,-1991.848295
787.207393,-888.247130,-10214.842000,-1455.581446
787.207717,370.102971,-10066.800811,-383.047749
787.208042,1480.411884,-10288.862594,0.000000
787.208366,1850.514855,-10066.800811,-383.047749
787.208690,1258.350101,-9622.677246,-459.657299
787.209014,-222.061783,-10066.800811,-1149.143247
787.209339,-1406.391290,-10066.800811,-1608.800546
787.209663,-2516.700203,-10066.800811,-1915.238745
787.209987,-2664.741391,-9844.739029,-2374.896044
787.210312,-2294.638420,-9770.718434,-1455.581446
787.210636,-962.267725,-10066.800811,-1378.971896
787.210960,222.061783,-9548.656652,-459.657299
787.211285,1332.370696,-9622.677246,-306.438199
787.211609,1628.453072,-9696.697840,76.609550
787.211933,1554.432478,-9844.739029,459.657299
787.212258,666.185348,-9992.780217,612.876398
787.212582,-148.041188,-9844.739029,306.438199
787.212906,-666.185348,-9844.739029,1072.533697
787.213230,-2146.597232,-9474.636058,612.876398
787.213555,-1924.535449,-9548.656652,536.266849
787.213879,-1628.453072,-9104.533087,689.485948
787.214203,-444.123565,-9104.533087,1302.362347
787.214528,444.123565,-8734.430116,1302.362347
787.214852,1110.308913,-8660.409521,1455.581446
787.215176,1036.288319,-8364.327145,1915.238745
787.215501,592.164754,-8438.347739,1532.190996
787.215825,74.020594,-9030.512492,1455.581446
787.216149,-814.226536,-9030.512492,1302.362347
787.216474,-1184.329507,-9326.594869,1149.143247
787.216798,-518.144159,-9400.615463,842.705048
787.217122,592.164754,-9474.636058,1302.362347
787.217447,1776.494261,-9548.656652,2374.896044
787.217771,2294.638420,-9252.574275,1378.971896
787.218095,2368.659014,-9400.615463,1608.800546
787.218419,1850.514855,-9178.553681,1225.752797
787.218744,962.267725,-9474.636058,1225.752797
787.219068,-444.123565,-9918.759623,995.924147
787.219392,-1628.453072,-9844.739029,919.314598
787.219717,-2294.638420,-9696.697840,383.047749
787.220041,-1258.350101,-9474.636058,1302.362347
787.220365,-444.123565,-9474.636058,2451.505594
787.220690,814.226536,-9474.636058,1915.238745
787.221014,814.226536,-9030.512492,2298.286494
787.221338,1480.411884,-9474.636058,1608.800546
787.221663,518.144159,-9548.656652,919.314598
787.221987,-740.205942,-9770.718434,459.657299
787.222311,-2220.617826,-9622.677246,383.047749
787.222635,-2442.679609,-10066.800811,-153.219100
787.222960,-2738.761985,-9474.636058,-689.485948
787.223284,-2072.576638,-9326.594869,-612.876398
787.223608,-740.205942,-9622.677246,-536.266849
787.223933,666.185348,-9992.780217,0.000000
787.224257,1924.535449,-9696.697840,0.000000
787.224581,2072.576638,-9548.656652,-306.438199
787.224906,1406.391290,-9548.656652,0.000000
787.225230,296.082377,-9770.718434,-536.266849
787.225554,-518.144159,-10140.821405,-842.705048
787.225879,-1554.432478,-9918.759623,-766.095498
787.226203,-1924.535449,-10214.842000,-1225.752797
787.226527,-1776.494261,-9918.759623,-1225.752797
787.226852,-592.164754,-9992.780217,-995.924147
787.227176,370.102971,-9918.759623,0.000000
787.227500,1184.329507,-9400.615463,-919.314598
787.227824,1554.432478,-9696.697840,-612.876398
787.228149,1332.370696,-9696.697840,-459.657299
787.228473,444.123565,-10066.800811,-919.314598
787.228797,-148.041188,-9992.780217,-1149.143247
787.229122,-888.247130,-9992.780217,-1225.752797
787.229446,-666.185348,-9918.759623,-1991.848295
787.229770,-296.082377,-9548.656652,-1685.410096
787.230095,592.164754,-9696.697840,-1608.800546
787.230419,1480.411884,-9918.759623,-1072.533697
787.230743,2072.576638,-9622.677246,-2068.457845
787.231068,2368.659014,-9844.739029,-1532.190996
787.231392,1776.494261,-10214.842000,-1149.143247
787.231716,444.123565,-10140.821405,-1378.971896
787.232040,-592.164754,-10362.883188,-1072.533697
787.232365,-1480.411884,-10362.883188,-1149.143247
787.232689,-1480.411884,-10140.821405,-612.876398
787.233013,-962.267725,-9770.718434,0.000000
787.233338,0.000000,-9696.697840,306.438199
787.233662,1628.453072,-9622.677246,766.095498
787.233986,2294.638420,-9622.677246,919.314598
787.234311,1480.411884,-9622.677246,383.047749
787.234635,296.082377,-9918.759623,-229.828649
787.234959,-1554.432478,-9548.656652,-612.876398
787.235284,-2960.823768,-9400.615463,-1455.581446
787.235608,-3627.009116,-9474.636058,-1532.190996
787.235932,-3404.947333,-9622.677246,-1225.752797
787.236257,-2146.597232,-9770.718434,-919.314598
787.236581,-148.041188,-9474.636058,-306.438199
787.236905,1184.329507,-9252.574275,612.876398
787.237229,2220.617826,-9326.594869,995.924147
787.237554,2368.659014,-9252.574275,1149.143247
787.237878,1258.350101,-9474.636058,1225.752797
787.238202,0.000000,-9918.759623,919.314598
787.238527,-1110.308913,-10362.883188,766.095498
787.238851,-1998.556043,-9696.697840,766.095498
787.239175,-1924.535449,-9844.739029,153.219100
787.239500,-888.247130,-9918.759623,153.219100
787.239824,-370.102971,-9622.677246,842.705048
787.240148,370.102971,-9474.636058,1225.752797
787.240473,1036.288319,-9474.636058,1072.533697
787.240797,888.247130,-9030.512492,1225.752797
787.241121,666.185348,-9030.512492,995.924147
787.241446,-148.041188,-9474.636058,919.314598
787.241770,-888.247130,-9844.739029,383.047749
787.242094,-1776.494261,-9844.739029,76.609550
787.242418,-1702.473667,-9992.780217,0.000000
787.242743,-888.247130,-10066.800811,0.000000
787.243067,148.041188,-10214.842000,383.047749
787.243391,1258.350101,-10066.800811,229.828649
787.243716,1628.453072,-9770.718434,689.485948
787.244040,1776.494261,-9770.718434,383.047749
787.244364,1480.411884,-9474.636058,689.485948
787.244689,518.144159,-9918.759623,689.485948
787.245013,-740.205942,-10066.800811,612.876398
787.245337,-1110.308913,-9992.780217,383.047749
787.245662,-962.267725,-9474.636058,612.876398
787.245986,-148.041188,-9400.615463,995.924147
787.246310,814.226536,-9474.636058,919.314598
787.246634,2072.576638,-9030.512492,1455.581446
787.246959,1998.556043,-8734.430116,919.314598
787.247283,1258.350101,-8956.491898,459.657299
787.247607,-148.041188,-9252.574275,0.000000
787.247932,-1406.391290,-9326.594869,-153.219100
787.248256,-2146.597232,-9696.697840,-536.266849
787.248580,-2368.659014,-9474.636058,-689.485948
787.248905,-2368.659014,-9178.553681,-612.876398
787.249229,-1036.288319,-9104.533087,-766.095498
787.249553,740.205942,-9104.533087,0.000000
787.249878,2368.659014,-9178.553681,536.266849
787.250202,2960.823768,-9326.594869,536.266849
787.250526,2368.659014,-9400.615463,612.876398
787.250851,1110.308913,-9030.512492,459.657299
787.251175,-444.123565,-9548.656652,-689.485948
787.251499,-1480.411884,-9548.656652,-842.705048
787.251823,-2368.659014,-10066.800811,-1149.143247
787.252148,-2220.617826,-9844.739029,-1532.190996
787.252472,-1110.308913,-9696.697840,-919.314598
787.252796,0.000000,-9252.574275,-689.485948
787.253121,814.226536,-9178.553681,-689.485948
787.253445,888.247130,-9252.574275,-153.219100
787.253769,740.205942,-9474.636058,-229.828649
787.254094,222.061783,-9696.697840,-459.657299
787.254418,-296.082377,-10436.903782,-919.314598
787.254742,-740.205942,-10658.965565,-1225.752797
787.255067,-592.164754,-10658.965565,-1072.533697
787.255391,0.000000,-10510.924376,-689.485948
787.255716,1036.288319,-10436.903782,-995.924147
787.256040,1332.370696,-10658.965565,-612.876398
787.256364,1776.494261,-10436.903782,-842.705048
787.256689,1628.453072,-10807.006753,-1149.143247
787.257013,888.247130,-10510.924376,-1455.581446
787.257337,-370.102971,-10214.842000,-1762.019645
787.257662,-1184.329507,-10214.842000,-1455.581446
787.257986,-1628.453072,-9622.677246,-1455.581446
787.258310,-1702.473667,-10066.800811,-1225.752797
787.258635,-740.205942,-9770.718434,-459.657299
787.258959,-370.102971,-9474.636058,-612.876398
787.259283,962.267725,-9770.718434,153.219100
787.259608,1850.514855,-9622.677246,229.828649
787.259932,2442.679609,-9548.656652,689.485948
787.260257,1554.432478,-9474.636058,459.657299
787.260581,814.226536,-9770.718434,536.266849
787.260905,-592.164754,-9696.697840,0.000000
787.261230,-2220.617826,-9474.636058,-766.095498
787.261554,-2960.823768,-9326.594869,-1378.971896
787.261878,-2146.597232,-9474.636058,-995.924147
787.262203,-962.267725,-9326.594869,-842.705048
787.262527,296.082377,-9104.533087,-153.219100
787.262851,1480.411884,-8808.450710,459.657299
787.263176,2294.638420,-9104.533087,459.657299
787.263500,1776.494261,-8956.491898,689.485948
787.263825,296.082377,-9474.636058,919.314598
787.264149,-962.267725,-9474.636058,459.657299
787.264473,-2220.617826,-9770.718434,459.657299
787.264798,-2294.638420,-9696.697840,383.047749
787.265122,-1628.453072,-9474.636058,459.657299
787.265446,-518.144159,-9178.553681,919.314598
787.265771,370.102971,-9178.553681,1685.410096
787.266095,1406.391290,-9178.553681,1149.143247
787.266419,962.267725,-8808.450710,919.314598
787.266744,592.164754,-9474.636058,1072.533697
787.267068,0.000000,-9622.677246,995.924147
787.267393,-740.205942,-9622.677246,842.705048
787.267717,-1554.432478,-9548.656652,459.657299
787.268041,-1776.494261,-9696.697840,459.657299
787.268366,-592.164754,-9770.718434,0.000000
787.268690,592.164754,-10140.821405,919.314598
787.269014,1480.411884,-9844.739029,766.095498
787.269339,1702.473667,-9770.718434,766.095498
787.269663,1258.350101,-9844.739029,383.047749
787.269987,592.164754,-9622.677246,536.266849
787.270312,-148.041188,-10214.842000,229.828649
787.270636,-1258.350101,-9918.759623,76.609550
787.270961,-2072.576638,-10214.842000,306.438199
787.271285,-1998.556043,-9844.739029,306.438199
787.271609,-1184.329507,-9770.718434,459.657299
787.271934,0.000000,-9770.718434,766.095498
787.272258,1110.308913,-9770.718434,1455.581446
787.272582,2072.576638,-10066.800811,1991.848295
787.272907,2072.576638,-9770.718434,1455.581446
787.273231,962.267725,-9844.739029,919.314598
787.273555,-296.082377,-10214.842000,76.609550
787.273880,-1554.432478,-10140.821405,-536.266849
787.274204,-2368.659014,-9992.780217,-1225.752797
787.274528,-2664.741391,-9770.718434,-1378.971896
787.274853,-2220.617826,-9622.677246,-1149.143247
787.275177,-592.164754,-9104.533087,-536.266849
787.275502,1110.308913,-8734.430116,0.000000
787.275826,1924.535449,-9400.615463,0.000000
787.276150,1998.556043,-9326.594869,0.000000
787.276475,1702.473667,-9696.697840,383.047749
787.276799,592.164754,-9622.677246,153.219100
787.277123,-592.164754,-9548.656652,-153.219100
787.277448,-1702.473667,-9696.697840,-153.219100
787.277772,-1702.473667,-9548.656652,-459.657299
787.278096,-1036.288319,-9326.594869,-842.705048
787.278421,518.144159,-9326.594869,-153.219100
787.278745,1036.288319,-9178.553681,-306.438199
787.279070,1480.411884,-9030.512492,-689.485948
787.279394,1258.350101,-8882.471304,-689.485948
787.279718,666.185348,-9030.512492,-689.485948
787.280043,-518.144159,-9252.574275,-1072.533697
787.280367,-1850.514855,-9030.512492,-1762.019645
787.280691,-1924.535449,-9622.677246,-1685.410096
787.281016,-814.226536,-9844.739029,-1378.971896
787.281340,74.020594,-9918.759623,-1149.143247
787.281664,1184.329507,-9844.739029,-689.485948
787.281989,1850.514855,-10140.821405,-536.266849
787.282313,2220.617826,-9770.718434,-689.485948
787.282638,1850.514855,-9992.780217,-842.705048
787.282962,1406.391290,-10584.944971,-995.924147
787.283286,-222.061783,-10140.821405,-1302.362347
787.283611,-1406.391290,-10658.965565,-1302.362347
787.283935,-1776.494261,-10436.903782,-1149.143247
787.284259,-1406.391290,-10214.842000,-1149.143247
787.284584,-518.144159,-9844.739029,-383.047749
787.284908,518.144159,-9770.718434,76.609550
787.285232,1628.453072,-9844.739029,229.828649
787.285557,1850.514855,-9844.739029,0.000000
787.285881,1184.329507,-9696.697840,0.000000
787.286205,0.000000,-9918.759623,-383.047749
787.286530,-888.247130,-10066.800811,-766.095498
787.286854,-1924.535449,-10140.821405,-1149.143247
787.287179,-2368.659014,-10214.842000,-1455.581446
787.287503,-2516.700203,-9622.677246,-1149.143247
787.287827,-888.247130,-9770.718434,-153.219100
787.288152,814.226536,-9622.677246,-306.438199
787.288476,1850.514855,-9622.677246,383.047749
787.288800,2664.741391,-9770.718434,612.876398
787.289125,2442.679609,-9622.677246,612.876398
787.289449,1480.411884,-9770.718434,536.266849
787.289773,518.144159,-10214.842000,306.438199
787.290098,-666.185348,-9696.697840,0.000000
787.290422,-1998.556043,-9918.759623,-153.219100
787.290747,-1554.432478,-9622.677246,306.438199
787.291071,-1110.308913,-9548.656652,383.047749
787.291395,-370.102971,-9326.594869,766.095498
787.291720,444.123565,-9104.533087,842.705048
787.292044,740.205942,-8808.450710,1072.533697
787.292368,1258.350101,-8808.450710,1072.533697
787.292693,0.000000,-8808.450710,995.924147
787.293017,-518.144159,-9474.636058,842.705048
787.293341,-1480.411884,-9474.636058,306.438199
787.293666,-1776.494261,-9696.697840,76.609550
787.293990,-1406.391290,-9474.636058,0.000000
787.294315,-370.102971,-9400.615463,153.219100
787.294639,814.226536,-9696.697840,76.609550
787.294963,1332.370696,-9696.697840,0.000000
787.295288,1702.473667,-9696.697840,229.828649
787.295612,1184.329507,-9474.636058,76.609550
787.295936,148.041188,-9770.718434,229.828649
787.296261,-740.205942,-10066.800811,153.219100
787.296585,-1776.494261,-10066.800811,153.219100
787.296909,-2072.576638,-9696.697840,306.438199
787.297234,-1554.432478,-9622.677246,842.705048
787.297558,-444.123565,-9548.656652,1302.362347
787.297882,296.082377,-9178.553681,1149.143247
787.298207,962.267725,-9326.594869,1378.971896
787.298531,1036.288319,-9474.636058,995.924147
787.298856,518.144159,-9548.656652,536.266849
787.299180,-370.102971,-9696.697840,76.609550
787.299504,-1480.411884,-10066.800811,0.000000
787.299829,-1850.514855,-9844.739029,-229.828649
787.300153,-2294.638420,-9844.739029,-612.876398
787.300477,-1332.370696,-9474.636058,-229.828649
787.300802,74.020594,-9622.677246,-306.438199
787.301126,1702.473667,-9696.697840,0.000000
787.301450,2664.741391,-9992.780217,459.657299
787.301775,2664.741391,-9696.697840,766.095498
787.302099,2072.576638,-9696.697840,306.438199
787.302424,962.267725,-10140.821405,383.047749
787.302748,-222.061783,-9992.780217,-383.047749
787.303072,-1554.432478,-10214.842000,-459.657299
787.303397,-1850.514855,-9992.780217,-383.047749
787.303721,-1406.391290,-9770.718434,-306.438199
787.304045,-370.102971,-9918.759623,153.219100
787.304370,666.185348,-9252.574275,76.609550
787.304694,1184.329507,-9326.594869,919.314598
787.305018,1554.432478,-9030.512492,612.876398
787.305343,1110.308913,-8956.491898,306.438199
787.305667,444.123565,-9548.656652,-153.219100
787.305992,-592.164754,-9770.718434,-536.266849
787.306316,-1184.329507,-9622.677246,-842.705048
787.306640,-1036.288319,-9696.697840,-1225.752797
787.306965,-666.185348,-9770.718434,-536.266849
787.307289,222.061783,-9844.739029,-1608.800546
787.307613,1258.350101,-9474.636058,-383.047749
787.307938,1702.473667,-9992.780217,-612.876398
787.308262,1628.453072,-9696.697840,-612.876398
787.308586,962.267725,-9474.636058,-306.438199
787.308911,0.000000,-9696.697840,-612.876398
787.309235,-1036.288319,-9696.697840,-842.705048
787.309560,-1776.494261,-9918.759623,459.657299
787.309884,-1776.494261,-9696.697840,-766.095498
787.310208,-1258.350101,-9770.718434,-612.876398
787.310533,-444.123565,-9548.656652,-459.657299
787.310857,666.185348,-9474.636058,-153.219100
787.311181,1702.473667,-9474.636058,0.000000
787.311506,1332.370696,-9474.636058,229.828649
787.311830,148.041188,-9400.615463,-153.219100
787.312154,-296.082377,-9844.739029,-842.705048
787.312479,-1554.432478,-9548.656652,-1302.362347
787.312803,-1998.556043,-10066.800811,-1915.238745
787.313127,-1776.494261,-10214.842000,-1685.410096
787.313452,-1110.308913,-9844.739029,-1149.143247
787.313776,74.020594,-10140.821405,-612.876398
787.314101,1258.350101,-9400.615463,-229.828649
787.314425,2368.659014,-9622.677246,76.609550
787.314749,2516.700203,-9770.718434,-383.047749
787.315074,1554.432478,-10288.862594,-766.095498
787.315398,518.144159,-10214.842000,-459.657299
787.315722,-740.205942,-10288.862594,-383.047749
787.316047,-1628.453072,-10140.821405,-459.657299
787.316371,-1406.391290,-10140.821405,-306.438199
787.316695,-740.205942,-9918.759623,0.000000
787.317020,148.041188,-9400.615463,383.047749
787.317344,814.226536,-9400.615463,459.657299
787.317669,1184.329507,-9474.636058,0.000000
787.317993,1480.411884,-9252.574275,766.095498
787.318317,962.267725,-9770.718434,536.266849
787.318642,-148.041188,-9696.697840,153.219100
787.318966,-1406.391290,-9770.718434,-383.047749
787.319290,-2072.576638,-9548.656652,-153.219100
787.319615,-1850.514855,-9178.553681,0.000000
787.319939,-740.205942,-9326.594869,153.219100
787.320263,370.102971,-9252.574275,0.000000
787.320588,1480.411884,-9030.512492,612.876398
787.320912,1776.494261,-9178.553681,766.095498
787.321237,1554.432478,-9474.636058,612.876398
787.321561,666.185348,-9474.636058,536.266849
787.321885,-370.102971,-9474.636058,229.828649
787.322210,-1628.453072,-9622.677246,459.657299
787.322534,-2072.576638,-9696.697840,229.828649
787.322858,-2294.638420,-9696.697840,0.000000
787.323183,-1554.432478,-9474.636058,153.219100
787.323507,-296.082377,-9474.636058,919.314598
787.323831,888.247130,-9252.574275,1149.143247
787.324156,1628.453072,-9326.594869,995.924147
787.324480,1184.329507,-9548.656652,995.924147
787.324804,0.000000,-9474.636058,995.924147
787.325129,-1184.329507,-10140.821405,-229.828649
787.325453,-1998.556043,-10214.842000,-536.266849
787.325778,-2442.679609,-9918.759623,-459.657299
787.326102,-1628.453072,-9844.739029,-306.438199
787.326426,-666.185348,-9844.739029,-229.828649
787.326751,740.205942,-9918.759623,153.219100
787.327075,1776.494261,-9474.636058,0.000000
787.327399,2516.700203,-9918.759623,842.705048
787.327724,1554.432478,-9474.636058,383.047749
787.328048,740.205942,-9770.718434,383.047749
787.328372,0.000000,-10214.842000,0.000000
787.328697,-888.247130,-10066.800811,-306.438199
787.329021,-1406.391290,-9844.739029,0.000000
787.329346,-370.102971,-9918.759623,0.000000
787.329670,-296.082377,-9770.718434,-766.095498
787.329994,740.205942,-9474.636058,383.047749
787.330319,1554.432478,-9548.656652,689.485948
787.330643,1406.391290,-9622.677246,383.047749
787.330967,1036.288319,-9474.636058,153.219100
787.331292,0.000000,-9326.594869,76.609550
787.331616,-666.185348,-9326.594869,0.000000
787.331940,-1258.350101,-9918.759623,-612.876398
787.332265,-1998.556043,-9548.656652,-536.266849
787.332589,-1406.391290,-9326.594869,-842.705048
787.332914,-518.144159,-9178.553681,-919.314598
787.333238,666.185348,-9770.718434,-536.266849
787.333562,1332.370696,-9622.677246,-229.828649
787.333887,1924.535449,-9548.656652,0.000000
787.334211,1776.494261,-9474.636058,306.438199
787.334535,444.123565,-9030.512492,0.000000
787.334860,-444.123565,-9844.739029,-153.219100
787.335184,-1850.514855,-9622.677246,-383.047749
787.335508,-2738.761985,-9770.718434,-612.876398
787.335833,-2368.659014,-9252.574275,-383.047749
787.336157,-1036.288319,-9474.636058,76.609550
787.336481,148.041188,-9252.574275,536.266849
787.336806,1332.370696,-9474.636058,306.438199
787.337130,1776.494261,-8882.471304,689.485948
787.337455,814.226536,-9252.574275,153.219100
787.337779,-222.061783,-9252.574275,-383.047749
787.338103,-1332.370696,-9548.656652,-842.705048
787.338428,-2368.659014,-9770.718434,-1532.190996
787.338752,-2590.720797,-9770.718434,-1762.019645
787.339076,-2220.617826,-9992.780217,-1378.971896
787.339401,-592.164754,-9770.718434,-689.485948
787.339725,1332.370696,-9770.718434,-536.266849
787.340049,2368.659014,-9622.677246,0.000000
787.340374,2812.782580,-10140.821405,0.000000
787.340698,2368.659014,-10362.883188,0.000000
787.341023,1406.391290,-10510.924376,0.000000
787.341347,0.000000,-10510.924376,-153.219100
787.341671,-740.205942,-10436.903782,-383.047749
787.341996,-1332.370696,-10584.944971,-995.924147
787.342320,-1332.370696,-10436.903782,-612.876398
787.342644,-444.123565,-10288.862594,-1072.533697
787.342969,74.020594,-9844.739029,-229.828649
787.343293,592.164754,-9918.759623,0.000000
787.343617,1036.288319,-9844.739029,0.000000
787.343942,518.144159,-9622.677246,-229.828649
787.344266,0.000000,-9770.718434,0.000000
787.344591,-666.185348,-9844.739029,0.000000
787.344915,-1332.370696,-9696.697840,-536.266849
787.345239,-1332.370696,-10066.800811,-306.438199
787.345564,-370.102971,-10140.821405,-306.438199
787.345888,814.226536,-10436.903782,-306.438199
787.346212,1850.514855,-10140.821405,-153.219100
787.346537,2294.638420,-9844.739029,0.000000
787.346861,2368.659014,-9844.739029,0.000000
787.347185,1480.411884,-9474.636058,-689.485948
787.347510,370.102971,-9474.636058,0.000000
787.347834,-740.205942,-9474.636058,0.000000
787.348158,-1776.494261,-9400.615463,0.000000
787.348483,-1628.453072,-9474.636058,76.609550
787.348807,-962.267725,-8882.471304,0.000000
787.349132,74.020594,-8142.265362,995.924147
787.349456,814.226536,-8438.347739,995.924147
787.349780,1110.308913,-8364.327145,1149.143247
787.350105,666.185348,-8290.306550,1225.752797
787.350429,296.082377,-8734.430116,612.876398
787.350753,-814.226536,-8734.430116,0.000000
787.351078,-1850.514855,-9030.512492,-459.657299
787.351402,-2368.659014,-9400.615463,-842.705048
787.351726,-2368.659014,-9696.697840,-919.314598
787.352051,-1924.535449,-9548.656652,-383.047749
787.352375,-444.123565,-9622.677246,-229.828649
787.352700,1036.288319,-9548.656652,229.828649
787.353024,2220.617826,-9696.697840,229.828649
787.353348,2738.761985,-9918.759623,842.705048
787.353673,1702.473667,-10214.842000,766.095498
787.353997,666.185348,-10362.883188,229.828649
787.354321,-1554.432478,-9918.759623,-306.438199
787.354645,-2368.659014,-9696.697840,-1225.752797
787.354970,-2368.659014,-10214.842000,-766.095498
787.355294,-2072.576638,-10066.800811,-766.095498
787.355618,-1332.370696,-10066.800811,0.000000
787.355942,-222.061783,-9844.739029,-306.438199
787.356266,1036.288319,-9548.656652,0.000000
787.356590,1110.308913,-9474.636058,0.000000
787.356915,592.164754,-9622.677246,-383.047749
787.357239,-518.144159,-10214.842000,0.000000
787.357563,-1332.370696,-10140.821405,-306.438199
787.357887,-1776.494261,-10510.924376,-536.266849
787.358211,-1184.329507,-10584.944971,-842.705048
787.358535,0.000000,-10510.924376,-229.828649
787.358860,1332.370696,-10436.903782,-919.314598
787.359184,2146.597232,-10362.883188,153.219100
787.359508,2738.761985,-10288.862594,0.000000
787.359832,2072.576638,-10214.842000,76.609550
787.360156,1036.288319,-10288.862594,-153.219100
787.360480,-296.082377,-9844.739029,0.000000
787.360805,-1480.411884,-9696.697840,0.000000
787.361129,-1480.411884,-9844.739029,-842.705048
787.361453,-1480.411884,-8882.471304,-612.876398
787.361777,-740.205942,-8660.409521,0.000000
787.362101,740.205942,-8660.409521,842.705048
787.362425,1036.288319,-8734.430116,612.876398
787.362750,1258.350101,-8882.471304,1149.143247
787.363074,740.205942,-8808.450710,842.705048
787.363398,-296.082377,-9030.512492,-229.828649
787.363722,-1628.453072,-8882.471304,-459.657299
787.364046,-2590.720797,-9252.574275,-536.266849
787.364370,-2368.659014,-9326.594869,-612.876398
787.364695,-1628.453072,-9474.636058,-459.657299
787.365019,-296.082377,-9474.636058,-383.047749
787.365343,1110.308913,-9474.636058,0.000000
787.365667,1998.556043,-9252.574275,612.876398
787.365991,2368.659014,-9400.615463,689.485948
787.366315,2220.617826,-9622.677246,383.047749
787.366640,1184.329507,-9770.718434,0.000000
787.366964,0.000000,-9622.677246,0.000000
787.367288,-1332.370696,-10214.842000,-229.828649
787.367612,-2294.638420,-9992.780217,-536.266849
787.367936,-2368.659014,-9918.759623,-689.485948
787.368260,-1702.473667,-9548.656652,-383.047749
787.368585,-814.226536,-9104.533087,0.000000
787.368909,814.226536,-9474.636058,536.266849
787.369233,1628.453072,-9474.636058,0.000000
787.369557,1406.391290,-9474.636058,153.219100
787.369881,888.247130,-9548.656652,0.000000
787.370205,0.000000,-9844.739029,-612.876398
787.370530,-962.267725,-10214.842000,-919.314598
787.370854,-1628.453072,-10436.903782,-1149.143247
787.371178,-1036.288319,-10658.965565,-766.095498
787.371502,148.041188,-10955.047942,-842.705048
787.371826,1110.308913,-10510.924376,-766.095498
787.372150,1850.514855,-10288.862594,-689.485948
787.372475,1998.556043,-10584.944971,-536.266849
787.372799,1628.453072,-10288.862594,-536.266849
787.373123,222.061783,-10140.821405,-383.047749
787.373447,-1036.288319,-10066.800811,-536.266849
787.373771,-2442.679609,-9696.697840,-689.485948
787.374095,-1924.535449,-9548.656652,-229.828649
787.374420,-1628.453072,-9474.636058,-229.828649
787.374744,-740.205942,-9400.615463,0.000000
787.375068,888.247130,-9326.594869,229.828649
787.375392,1850.514855,-9030.512492,689.485948
787.375716,1850.514855,-9030.512492,229.828649
787.376040,1332.370696,-9326.594869,766.095498
787.376365,148.041188,-9400.615463,-153.219100
787.376689,-814.226536,-9548.656652,-612.876398
787.377013,-2072.576638,-9696.697840,-919.314598
787.377337,-2220.617826,-9548.656652,-995.924147
787.377661,-1332.370696,-9548.656652,-766.095498
787.377985,0.000000,-9326.594869,-229.828649
787.378310,1258.350101,-9252.574275,76.609550
787.378634,2072.576638,-9030.512492,383.047749
787.378958,1998.556043,-8956.491898,612.876398
787.379282,1554.432478,-9178.553681,459.657299
787.379606,592.164754,-9770.718434,229.828649
787.379931,-370.102971,-9770.718434,0.000000
787.380255,-1184.329507,-9770.718434,0.000000
787.380579,-1332.370696,-9474.636058,0.000000
787.380903,-1554.432478,-9178.553681,0.000000
787.381227,-814.226536,-9178.553681,306.438199
787.381551,370.102971,-9474.636058,459.657299
787.381876,1110.308913,-9400.615463,612.876398
787.382200,1110.308913,-9104.533087,536.266849
787.382524,666.185348,-9400.615463,229.828649
787.382848,-222.061783,-9474.636058,0.000000
787.383172,-814.226536,-9844.739029,-229.828649
787.383496,-1406.391290,-9770.718434,-536.266849
787.383821,-1332.370696,-9844.739029,-995.924147
787.384145,-592.164754,-10066.800811,-383.047749
787.384469,740.205942,-10288.862594,0.000000
787.384793,1776.494261,-10436.903782,0.000000
787.385117,2368.659014,-10140.821405,0.000000
787.385441,2072.576638,-10510.924376,-229.828649
787.385766,1628.453072,-10214.842000,306.438199
787.386090,222.061783,-9474.636058,306.438199
787.386414,-814.226536,-9844.739029,-229.828649
787.386738,-1776.494261,-10140.821405,-459.657299
787.387062,-2146.597232,-9992.780217,-306.438199
787.387386,-1406.391290,-9474.636058,-229.828649
787.387711,222.061783,-9326.594869,306.438199
787.388035,666.185348,-8882.471304,842.705048
787.388359,1998.556043,-9030.512492,306.438199
787.388683,1702.473667,-8956.491898,1225.752797
787.389007,740.205942,-9622.677246,383.047749
787.389331,-444.123565,-9844.739029,0.000000
787.389656,-1332.370696,-9696.697840,-536.266849
787.389980,-1924.535449,-9474.636058,-689.485948
787.390304,-1702.473667,-9252.574275,-842.705048
787.390628,-888.247130,-9844.739029,-689.485948
787.390952,-222.061783,-9474.636058,-689.485948
787.391276,1332.370696,-9770.718434,-536.266849
787.391601,1702.473667,-9622.677246,0.000000
787.391925,1776.494261,-9548.656652,0.000000
787.392249,1110.308913,-9474.636058,-153.219100
787.392573,-222.061783,-9548.656652,-306.438199
787.392897,-1110.308913,-9918.759623,-383.047749
787.393221,-1554.432478,-9918.759623,-536.266849
787.393546,-1998.556043,-9548.656652,-536.266849
787.393870,-1258.350101,-9252.574275,-383.047749
787.394194,0.000000,-9548.656652,0.000000
787.394518,444.123565,-9622.677246,306.438199
787.394842,1110.308913,-9474.636058,0.000000
787.395166,666.185348,-9474.636058,153.219100
787.395491,0.000000,-9474.636058,459.657299
787.395815,-814.226536,-9474.636058,0.000000
787.396139,-1332.370696,-9918.759623,-689.485948
787.396463,-1850.514855,-10066.800811,-842.705048
787.396787,-1332.370696,-10362.883188,-919.314598
787.397111,-444.123565,-10214.842000,-919.314598
787.397436,444.123565,-9770.718434,-536.266849
787.397760,1332.370696,-9918.759623,-306.438199
787.398084,1850.514855,-9918.759623,-459.657299
787.398408,1480.411884,-9992.780217,0.000000
787.398732,666.185348,-10288.862594,-536.266849
787.399056,-148.041188,-10140.821405,-383.047749
787.399381,-1332.370696,-9992.780217,-459.657299
787.399705,-1924.535449,-10436.903782,-306.438199
787.400029,-1702.473667,-10288.862594,0.000000
787.400353,-740.205942,-9622.677246,153.219100
787.400677,296.082377,-9548.656652,536.266849
787.401001,1776.494261,-9178.553681,842.705048
787.401326,2220.617826,-9326.594869,995.924147
787.401650,2072.576638,-9474.636058,766.095498
787.401974,814.226536,-9474.636058,459.657299
787.402298,-592.164754,-9696.697840,-229.828649
787.402622,-1702.473667,-9696.697840,-306.438199
787.402946,-2368.659014,-9474.636058,-919.314598
787.403271,-2220.617826,-9474.636058,-919.314598
787.403595,-666.185348,-9474.636058,-459.657299
787.403919,666.185348,-9474.636058,0.000000
787.404243,1628.453072,-9178.553681,459.657299
787.404567,2146.597232,-9400.615463,612.876398
787.404891,1776.494261,-9400.615463,612.876398
787.405216,1036.288319,-9252.574275,536.266849
787.405540,0.000000,-10066.800811,1149.143247
787.405864,-1554.432478,-10066.800811,536.266849
787.406188,-1924.535449,-9770.718434,153.219100
787.406512,-1924.535449,-9474.636058,76.609550
787.406837,-888.247130,-9326.594869,229.828649
787.407161,0.000000,-9326.594869,383.047749
787.407485,888.247130,-9104.533087,229.828649
787.407809,888.247130,-9252.574275,229.828649
787.408133,888.247130,-9400.615463,229.828649
787.408457,518.144159,-10066.800811,0.000000
787.408782,-666.185348,-9696.697840,153.219100
787.409106,-1480.411884,-9474.636058,-995.924147
787.409430,-1998.556043,-9622.677246,-842.705048
787.409754,-1258.350101,-9696.697840,-766.095498
787.410078,0.000000,-10140.821405,-459.657299
787.410402,1036.288319,-9696.697840,0.000000
787.410727,1776.494261,-9770.718434,-153.219100
787.411051,1924.535449,-9474.636058,0.000000
787.411375,1406.391290,-9770.718434,-153.219100
787.411699,0.000000,-10066.800811,-612.876398
787.412023,-888.247130,-10214.842000,-459.657299
787.412347,-1406.391290,-10362.883188,-459.657299
787.412672,-1110.308913,-10288.862594,-459.657299
787.412996,-814.226536,-9474.636058,-919.314598
787.413320,-222.061783,-9252.574275,-919.314598
787.413644,592.164754,-9770.718434,-383.047749
787.413968,1776.494261,-9696.697840,0.000000
787.414292,1702.473667,-9696.697840,229.828649
787.414617,814.226536,-9474.636058,76.609550
787.414941,-518.144159,-9474.636058,-383.047749
787.415265,-1628.453072,-9622.677246,-459.657299
787.415589,-2146.597232,-9770.718434,-766.095498
787.415913,-1850.514855,-9992.780217,-1225.752797
787.416237,-1406.391290,-9622.677246,-1302.362347
787.416562,-296.082377,-9548.656652,-766.095498
787.416886,1480.411884,-9474.636058,-153.219100
787.417210,2664.741391,-9474.636058,0.000000
787.417534,2812.782580,-9474.636058,76.609550
787.417858,2220.617826,-9474.636058,-306.438199
787.418182,1184.329507,-10140.821405,306.438199
787.418507,0.000000,-9770.718434,0.000000
787.418831,-962.267725,-9918.759623,-229.828649
787.419155,-1702.473667,-9770.718434,-536.266849
787.419479,-1258.350101,-9474.636058,-536.266849
787.419803,-444.123565,-9326.594869,0.000000
787.420127,296.082377,-9030.512492,383.047749
787.420452,888.247130,-8808.450710,842.705048
787.420776,1332.370696,-9030.512492,383.047749
787.421100,740.205942,-9030.512492,383.047749
787.421424,-222.061783,-9474.636058,-229.828649
787.421748,-1184.329507,-9548.656652,-459.657299
787.422072,-1628.453072,-9696.697840,-612.876398
787.422397,-1776.494261,-9918.759623,-766.095498
787.422721,-592.164754,-9696.697840,-842.705048
787.423045,296.082377,-9992.780217,-306.438199
787.423369,1480.411884,-9770.718434,0.000000
787.423693,1480.411884,-9770.718434,-459.657299
787.424017,1258.350101,-9844.739029,0.000000
787.424342,962.267725,-9992.780217,-229.828649
787.424666,0.000000,-10288.862594,0.000000
787.424990,-1036.288319,-10436.903782,0.000000
787.425314,-1998.556043,-10140.821405,0.000000
787.425638,-2812.782580,-10066.800811,-306.438199
787.425962,-1924.535449,-10214.842000,-153.219100
787.426287,-1184.329507,-9918.759623,153.219100
787.426611,222.061783,-9918.759623,612.876398
787.426935,1258.350101,-9918.759623,689.485948
787.427259,1184.329507,-9770.718434,689.485948
787.427583,518.144159,-9844.739029,-459.657299
787.427907,-518.144159,-10140.821405,-919.314598
787.428232,-1628.453072,-10584.944971,-459.657299
787.428556,-2220.617826,-10288.862594,-842.705048
787.428880,-2294.638420,-10214.842000,-459.657299
787.429204,-1110.308913,-10066.800811,-306.438199
787.429528,74.020594,-9992.780217,229.828649
787.429852,1480.411884,-9992.780217,689.485948
787.430177,2442.679609,-9696.697840,919.314598
787.430501,2368.659014,-9326.594869,766.095498
787.430825,1776.494261,-8660.409521,1225.752797
787.431149,148.041188,-9326.594869,995.924147
787.431473,-592.164754,-9400.615463,612.876398
787.431797,-1258.350101,-9178.553681,459.657299
787.432122,-1258.350101,-8882.471304,612.876398
787.432446,-666.185348,-8808.450710,919.314598
787.432770,-148.041188,-8364.327145,1225.752797
787.433094,444.123565,-8512.368333,1685.410096
787.433418,1554.432478,-8882.471304,1608.800546
787.433743,1480.411884,-8660.409521,1762.019645
787.434067,666.185348,-8882.471304,1608.800546
787.434391,-518.144159,-8882.471304,842.705048
787.434715,-1480.411884,-9178.553681,76.609550
787.435039,-1924.535449,-9178.553681,153.219100
787.435363,-1924.535449,-8586.388927,306.438199
787.435688,-1258.350101,-8956.491898,383.047749
787.436012,-74.020594,-9548.656652,229.828649
787.436336,888.247130,-9474.636058,306.438199
787.436660,1628.453072,-9696.697840,229.828649
787.436984,1332.370696,-9696.697840,-459.657299
787.437308,1036.288319,-9918.759623,0.000000
787.437633,0.000000,-9918.759623,306.438199
787.437957,-1110.308913,-10436.903782,-842.705048
787.438281,-2072.576638,-9844.739029,0.000000
787.438605,-1702.473667,-10140.821405,-383.047749
787.438929,-370.102971,-10066.800811,0.000000
787.439253,370.102971,-10066.800811,153.219100
787.439578,1406.391290,-9622.677246,459.657299
787.439902,1924.535449,-9252.574275,306.438199
787.440226,1332.370696,-9326.594869,0.000000
787.440550,222.061783,-9992.780217,-229.828649
787.440874,-1110.308913,-10140.821405,-1685.410096
787.441198,-1998.556043,-9918.759623,-1608.800546
787.441523,-2072.576638,-10436.903782,-2221.676944
787.441847,-1332.370696,-10288.862594,-1991.848295
787.442171,74.020594,-9992.780217,-1072.533697
787.442495,1406.391290,-10140.821405,-1608.800546
787.442819,2294.638420,-10288.862594,-153.219100
787.443143,2960.823768,-10362.883188,-612.876398
787.443468,2516.700203,-10288.862594,-383.047749
787.443792,1554.432478,-10288.862594,-536.266849
787.444116,222.061783,-10214.842000,-919.314598
787.444440,-740.205942,-10362.883188,-995.924147
787.444764,-1480.411884,-10066.800811,-1149.143247
787.445088,-1850.514855,-9178.553681,-1685.410096
787.445413,-370.102971,-9252.574275,-766.095498
787.445737,296.082377,-9474.636058,-766.095498
787.446061,962.267725,-9030.512492,-536.266849
787.446385,1332.370696,-8882.471304,-459.657299
787.446709,1110.308913,-8882.471304,-229.828649
787.447033,222.061783,-8956.491898,-766.095498
787.447358,-370.102971,-9104.533087,-229.828649
787.447682,-1110.308913,-9030.512492,-766.095498
787.448006,-1184.329507,-9252.574275,-689.485948
787.448330,-888.247130,-9696.697840,-536.266849
787.448654,74.020594,-9696.697840,-383.047749
787.448978,962.267725,-9696.697840,0.000000
787.449303,1480.411884,-9178.553681,0.000000
787.449627,1850.514855,-9474.636058,0.000000
787.449951,1036.288319,-9696.697840,0.000000
787.450275,0.000000,-9992.780217,0.000000
787.450599,-1406.391290,-9770.718434,-306.438199
787.450923,-2368.659014,-9696.697840,-459.657299
787.451248,-2738.761985,-9918.759623,-306.438199
787.451572,-2294.638420,-9770.718434,0.000000
787.451896,-1110.308913,-9548.656652,766.095498
787.452220,444.123565,-9548.656652,995.924147
787.452544,1554.432478,-9474.636058,1302.362347
787.452868,1850.514855,-9622.677246,1378.971896
787.453193,814.226536,-9474.636058,995.924147
787.453517,-148.041188,-9622.677246,536.266849
787.453841,-1184.329507,-9918.759623,229.828649
787.454165,-1850.514855,-9474.636058,0.000000
787.454489,-2294.638420,-9844.739029,0.000000
787.454814,-1702.473667,-9770.718434,0.000000
787.455138,0.000000,-10066.800811,0.000000
787.455462,1258.350101,-9770.718434,459.657299
787.455786,2072.576638,-9400.615463,766.095498
787.456110,2368.659014,-9548.656652,689.485948
787.456435,2220.617826,-9622.677246,1455.581446
787.456759,1110.308913,-9844.739029,1378.971896
787.457083,-888.247130,-9696.697840,536.266849
787.457407,-962.267725,-10214.842000,612.876398
787.457731,-1702.473667,-9992.780217,536.266849
787.458056,-1184.329507,-9844.739029,689.485948
787.458380,-740.205942,-9474.636058,919.314598
787.458704,74.020594,-9474.636058,1072.533697
787.459028,814.226536,-9474.636058,995.924147
787.459352,1036.288319,-9400.615463,766.095498
787.459677,370.102971,-8734.430116,612.876398
787.460001,-222.061783,-9030.512492,383.047749
787.460325,-814.226536,-9474.636058,229.828649
787.460649,-1332.370696,-9622.677246,0.000000
787.460973,-1258.350101,-9474.636058,0.000000
787.461298,-814.226536,-9844.739029,306.438199
787.461622,74.020594,-9770.718434,459.657299
787.461946,1406.391290,-9548.656652,919.314598
787.462270,1850.514855,-9548.656652,459.657299
787.462594,1776.494261,-9400.615463,536.266849
787.462919,740.205942,-9474.636058,229.828649
787.463243,-518.144159,-9474.636058,-229.828649
787.463567,-1554.432478,-9474.636058,-306.438199
787.463891,-2960.823768,-9400.615463,-842.705048
787.464215,-2960.823768,-9178.553681,-766.095498
787.464540,-2220.617826,-8586.388927,0.000000
787.464864,-296.082377,-9178.553681,153.219100
787.465188,962.267725,-9400.615463,842.705048
787.465512,1702.473667,-9622.677246,842.705048
787.465836,1406.391290,-9622.677246,689.485948
787.466161,740.205942,-9770.718434,153.219100
787.466485,-592.164754,-9844.739029,-383.047749
787.466809,-2146.597232,-9474.636058,-842.705048
787.467133,-2442.679609,-9844.739029,-1225.752797
787.467457,-1998.556043,-10214.842000,-1378.971896
787.467782,-1332.370696,-10066.800811,-1302.362347
787.468106,0.000000,-9844.739029,-1302.362347
787.468430,1258.350101,-9696.697840,-766.095498
787.468754,2590.720797,-9622.677246,-536.266849
787.469079,2442.679609,-9770.718434,-689.485948
787.469403,1924.535449,-9918.759623,-153.219100
787.469727,962.267725,-10288.862594,0.000000
787.470051,0.000000,-10214.842000,-612.876398
787.470375,-740.205942,-10362.883188,-919.314598
787.470700,-814.226536,-9992.780217,-995.924147
787.471024,-444.123565,-9770.718434,-766.095498
787.471348,592.164754,-9918.759623,-383.047749
787.471672,1110.308913,-9252.574275,-306.438199
787.471996,1554.432478,-9252.574275,0.000000
787.472321,814.226536,-9178.553681,0.000000
787.472645,518.144159,-9474.636058,-536.266849
787.472969,0.000000,-9918.759623,-383.047749
787.473293,-740.205942,-9992.780217,-995.924147
787.473617,-962.267725,-10140.821405,-383.047749
787.473942,-1110.308913,-9548.656652,-536.266849
787.474266,148.041188,-9844.739029,-766.095498
787.474590,1110.308913,-9770.718434,-459.657299
787.474914,1628.453072,-9918.759623,0.000000
787.475238,2072.576638,-9918.759623,0.000000
787.475563,1628.453072,-9844.739029,306.438199
787.475887,592.164754,-9622.677246,-229.828649
787.476211,-666.185348,-9548.656652,-536.266849
787.476535,-2368.659014,-9548.656652,-229.828649
787.476859,-2590.720797,-9548.656652,-153.219100
787.477184,-2886.803174,-9030.512492,-153.219100
787.477508,-1406.391290,-8956.491898,76.609550
787.477832,0.000000,-8956.491898,383.047749
787.478156,888.247130,-9104.533087,536.266849
787.478480,1628.453072,-8808.450710,1149.143247
787.478805,1406.391290,-9104.533087,612.876398
787.479129,-592.164754,-9252.574275,229.828649
787.479453,-1184.329507,-9474.636058,0.000000
787.479777,-2368.659014,-9696.697840,-536.266849
787.480101,-2516.700203,-10066.800811,-689.485948
787.480426,-2220.617826,-10214.842000,-689.485948
787.480750,-1036.288319,-10288.862594,-612.876398
787.481074,74.020594,-9548.656652,229.828649
787.481398,1850.514855,-9474.636058,536.266849
787.481723,2664.741391,-9400.615463,842.705048
787.482047,2516.700203,-9622.677246,229.828649
787.482371,1258.350101,-10066.800811,383.047749
787.482695,0.000000,-10436.903782,-229.828649
787.483019,-1036.288319,-10436.903782,-383.047749
787.483344,-1480.411884,-10140.821405,-306.438199
787.483668,-888.247130,-9918.759623,-153.219100
787.483992,74.020594,-9770.718434,0.000000
787.484316,1184.329507,-9622.677246,459.657299
787.484640,962.267725,-9252.574275,842.705048
787.484965,1406.391290,-9400.615463,842.705048
787.485289,1184.329507,-9178.553681,842.705048
787.485613,518.144159,-9252.574275,919.314598
787.485937,74.020594,-9548.656652,229.828649
787.486261,-1036.288319,-9400.615463,0.000000
787.486586,-1702.473667,-9474.636058,-459.657299
787.486910,-1110.308913,-9178.553681,-229.828649
787.487234,-592.164754,-9622.677246,-229.828649
787.487558,222.061783,-9474.636058,0.000000
787.487882,1258.350101,-9770.718434,0.000000
787.488207,1924.535449,-9696.697840,306.438199
787.488531,1332.370696,-9622.677246,153.219100
787.488855,0.000000,-9622.677246,536.266849
787.489179,-370.102971,-9474.636058,0.000000
787.489503,-1480.411884,-9770.718434,0.000000
787.489828,-1850.514855,-9844.739029,229.828649
787.490152,-1776.494261,-9548.656652,459.657299
787.490476,-962.267725,-9548.656652,1072.533697
787.490800,74.020594,-9992.780217,1072.533697
787.491124,1110.308913,-9400.615463,1532.190996
787.491449,1036.288319,-9104.533087,1149.143247
787.491773,370.102971,-9400.615463,766.095498
787.492097,-592.164754,-9400.615463,229.828649
787.492421,-1850.514855,-9474.636058,0.000000
787.492745,-2590.720797,-9622.677246,-689.485948
787.493070,-2738.761985,-9474.636058,-919.314598
787.493394,-1776.494261,-9474.636058,-306.438199
787.493718,-444.123565,-9400.615463,-229.828649
787.494042,1554.432478,-9622.677246,536.266849
787.494366,2368.659014,-9844.739029,536.266849
787.494691,2664.741391,-10140.821405,689.485948
787.495015,1924.535449,-10214.842000,536.266849
787.495339,666.185348,-10214.842000,306.438199
787.495663,-370.102971,-10658.965565,0.000000
787.495988,-1406.391290,-10436.903782,-459.657299
787.496312,-1480.411884,-10214.842000,0.000000
787.496636,-1776.494261,-9548.656652,0.000000
787.496960,-592.164754,-9696.697840,76.609550
787.497284,592.164754,-9770.718434,383.047749
787.497609,1406.391290,-9474.636058,612.876398
787.497933,1850.514855,-9400.615463,612.876398
787.498257,1258.350101,-9548.656652,153.219100
787.498581,0.000000,-9474.636058,76.609550
787.498905,-1480.411884,-9326.594869,-76.609550
787.499230,-2294.638420,-9622.677246,-1149.143247
787.499554,-1924.535449,-9474.636058,-1302.362347
787.499878,-1184.329507,-9474.636058,-1072.533697
787.500202,74.020594,-9326.594869,-766.095498
787.500526,1480.411884,-9474.636058,-383.047749
787.500851,2220.617826,-9252.574275,-229.828649
787.501175,1702.473667,-8956.491898,-229.828649
787.501499,1258.350101,-9178.553681,153.219100
787.501823,296.082377,-9400.615463,-306.438199
787.502147,222.061783,-9918.759623,-153.219100
787.502472,-1036.288319,-9622.677246,-153.219100
787.502796,-1332.370696,-9252.574275,-459.657299
787.503120,-740.205942,-9326.594869,-383.047749
787.503444,222.061783,-9474.636058,-459.657299
787.503768,1110.308913,-9104.533087,153.219100
787.504093,1554.432478,-8956.491898,0.000000
787.504417,1924.535449,-9252.574275,0.000000
787.504741,814.226536,-9252.574275,-995.924147
787.505065,-222.061783,-9622.677246,-995.924147
787.505389,-1554.432478,-10066.800811,-1302.362347
787.505714,-2368.659014,-10288.862594,-1608.800546
787.506038,-2368.659014,-10584.944971,-1225.752797
787.506362,-740.205942,-10362.883188,-919.314598
787.506686,370.102971,-10066.800811,-459.657299
787.507010,1776.494261,-10288.862594,-459.657299
787.507335,2368.659014,-10732.986159,0.000000
787.507659,2072.576638,-10732.986159,153.219100
787.507983,1110.308913,-10214.842000,0.000000
787.508307,148.041188,-10214.842000,0.000000
787.508631,-1036.288319,-9770.718434,-842.705048
787.508956,-1628.453072,-9770.718434,-995.924147
787.509280,-1924.535449,-9770.718434,-612.876398
787.509604,-888.247130,-9696.697840,-153.219100
787.509928,148.041188,-9252.574275,0.000000
787.510253,962.267725,-9252.574275,306.438199
787.510577,1480.411884,-9178.553681,689.485948
787.510901,1406.391290,-9030.512492,689.485948
787.511225,0.000000,-8882.471304,842.705048
787.511549,-666.185348,-9400.615463,229.828649
787.511874,-1480.411884,-9326.594869,0.000000
787.512198,-1998.556043,-9178.553681,-153.219100
787.512522,-1554.432478,-9326.594869,-153.219100
787.512846,-444.123565,-9548.656652,0.000000
787.513170,370.102971,-9548.656652,76.609550
787.513495,1258.350101,-9474.636058,919.314598
787.513819,2220.617826,-9400.615463,612.876398
787.514143,1776.494261,-9252.574275,536.266849
787.514467,1406.391290,-10066.800811,766.095498
787.514791,0.000000,-9770.718434,612.876398
787.515116,-962.267725,-9844.739029,536.266849
787.515440,-1998.556043,-9696.697840,153.219100
787.515764,-2516.700203,-9548.656652,153.219100
787.516088,-1480.411884,-9178.553681,689.485948
787.516412,-666.185348,-9104.533087,1455.581446
787.516737,740.205942,-9474.636058,995.924147
787.517061,1036.288319,-9178.553681,1072.533697
787.517385,444.123565,-8956.491898,842.705048
787.517709,-222.061783,-9326.594869,612.876398
787.518033,-1332.370696,-9400.615463,306.438199
787.518358,-1702.473667,-10066.800811,-153.219100
787.518682,-2220.617826,-9696.697840,-612.876398
787.519006,-1998.556043,-9622.677246,-612.876398
787.519330,-962.267725,-10066.800811,-1149.143247
787.519654,666.185348,-9992.780217,0.000000
787.519979,2220.617826,-10066.800811,383.047749
787.520303,2368.659014,-10066.800811,383.047749
787.520627,2220.617826,-10140.821405,689.485948
787.520951,888.247130,-10140.821405,306.438199
787.521275,-148.041188,-9918.759623,229.828649
787.521600,-1554.432478,-9918.759623,-383.047749
787.521924,-2072.576638,-9622.677246,-383.047749
787.522248,-1702.473667,-9622.677246,-306.438199
787.522572,-1036.288319,-9696.697840,-153.219100
787.522896,222.061783,-9326.594869,383.047749
787.523221,1480.411884,-9030.512492,1072.533697
787.523545,2072.576638,-9104.533087,306.438199
787.523869,1406.391290,-9252.574275,383.047749
787.524193,592.164754,-8956.491898,459.657299
787.524518,-370.102971,-9326.594869,-536.266849
787.524842,-1184.329507,-9622.677246,-459.657299
787.525166,-1702.473667,-9474.636058,-689.485948
787.525490,-888.247130,-9474.636058,-1072.533697
787.525814,74.020594,-9474.636058,-536.266849
787.526139,1184.329507,-9622.677246,-536.266849
787.526463,1776.494261,-9622.677246,-153.219100
787.526787,1628.453072,-9400.615463,0.000000
787.527111,1258.350101,-9326.594869,-459.657299
787.527435,814.226536,-9918.759623,-229.828649
787.527760,-518.144159,-10288.862594,-306.438199
787.528084,-1184.329507,-10510.924376,-383.047749
787.528408,-1702.473667,-10362.883188,-153.219100
787.528732,-1628.453072,-10436.903782,-229.828649
787.529056,-888.247130,-9474.636058,153.219100
787.529381,0.000000,-9770.718434,612.876398
787.529705,1406.391290,-10288.862594,383.047749
787.530029,1406.391290,-9844.739029,383.047749
787.530353,592.164754,-9844.739029,0.000000
787.530677,-370.102971,-9992.780217,-766.095498
787.531002,-1628.453072,-9992.780217,-1072.533697
787.531326,-2220.617826,-9696.697840,-1225.752797
787.531650,-2516.700203,-9326.594869,-1455.581446
787.531974,-1628.453072,-9548.656652,-919.314598
787.532298,-370.102971,-9844.739029,-766.095498
787.532623,1628.453072,-9770.718434,-153.219100
787.532947,2812.782580,-9844.739029,76.609550
787.533271,2886.803174,-9770.718434,153.219100
787.533595,2516.700203,-10066.800811,306.438199
787.533919,666.185348,-9992.780217,0.000000
787.534244,0.000000,-10436.903782,-229.828649
787.534568,-1036.288319,-10140.821405,-153.219100
787.534892,-1924.535449,-9770.718434,-536.266849
787.535216,-1480.411884,-9548.656652,-459.657299
787.535540,-888.247130,-9326.594869,-153.219100
787.535865,148.041188,-9104.533087,0.000000
787.536189,592.164754,-8734.430116,0.000000
787.536513,740.205942,-8660.409521,383.047749
787.536837,148.041188,-8660.409521,612.876398
787.537161,0.000000,-9474.636058,76.609550
787.537486,-1184.329507,-9548.656652,-229.828649
787.537810,-1702.473667,-9474.636058,-689.485948
787.538134,-1628.453072,-9474.636058,-689.485948
787.538458,-1184.329507,-9474.636058,-383.047749
787.538783,-148.041188,-9400.615463,229.828649
787.539107,1628.453072,-9400.615463,76.609550
787.539431,2368.659014,-9622.677246,-459.657299
787.539755,2368.659014,-9400.615463,306.438199
787.540079,1998.556043,-9548.656652,536.266849
787.540404,888.247130,-9548.656652,383.047749
787.540728,0.000000,-9548.656652,153.219100
787.541052,-1110.308913,-9400.615463,0.000000
787.541376,-1702.473667,-9252.574275,153.219100
787.541700,-1702.473667,-9326.594869,76.609550
787.542025,148.041188,-9548.656652,153.219100
787.542349,814.226536,-10066.800811,919.314598
787.542673,1258.350101,-9770.718434,766.095498
787.542997,814.226536,-9548.656652,306.438199
787.543321,-518.144159,-9918.759623,229.828649
787.543646,-888.247130,-10288.862594,-306.438199
787.543970,-1702.473667,-10066.800811,0.000000
787.544294,-2368.659014,-9992.780217,-689.485948
787.544618,-1998.556043,-10066.800811,-536.266849
787.544942,-518.144159,-10140.821405,-383.047749
787.545267,1258.350101,-10214.842000,76.609550
787.545591,2294.638420,-10214.842000,612.876398
787.545915,2812.782580,-9844.739029,689.485948
787.546239,2886.803174,-9770.718434,612.876398
787.546563,1258.350101,-9918.759623,0.000000
787.546888,-518.144159,-9844.739029,306.438199
787.547212,-1924.535449,-10214.842000,-383.047749
787.547536,-2590.720797,-10066.800811,-383.047749
787.547860,-2960.823768,-9548.656652,-612.876398
787.548184,-2368.659014,-8882.471304,-229.828649
787.548509,-666.185348,-9178.553681,0.000000
787.548833,74.020594,-9178.553681,536.266849
787.549157,1110.308913,-9104.533087,842.705048
787.549481,1110.308913,-9104.533087,689.485948
787.549805,518.144159,-9400.615463,383.047749
787.550130,-518.144159,-9474.636058,0.000000
787.550454,-1258.350101,-9844.739029,-306.438199
787.550778,-1924.535449,-9622.677246,-766.095498
787.551102,-1554.432478,-10436.903782,-766.095498
787.551426,-888.247130,-10140.821405,-766.095498
787.551751,0.000000,-9622.677246,0.000000
787.552075,1184.329507,-9622.677246,0.000000
787.552399,1776.494261,-9622.677246,0.000000
787.552723,1702.473667,-9696.697840,0.000000
787.553048,1036.288319,-9400.615463,0.000000
787.553372,518.144159,-9326.594869,383.047749
787.553696,-592.164754,-8586.388927,153.219100
787.554020,-1184.329507,-9326.594869,0.000000
787.554344,-1332.370696,-9252.574275,-153.219100
787.554669,-740.205942,-9104.533087,0.000000
787.554993,666.185348,-9474.636058,383.047749
787.555319,1850.514855,-9474.636058,383.047749
787.555643,2368.659014,-9252.574275,612.876398
787.555967,1776.494261,-9474.636058,536.266849
787.556291,444.123565,-9770.718434,0.000000
787.556615,-592.164754,-9844.739029,-995.924147
787.556940,-1702.473667,-9696.697840,-995.924147
787.557264,-2072.576638,-9770.718434,-1149.143247
787.557588,-1332.370696,-9992.780217,-1149.143247
787.557912,0.000000,-9770.718434,-536.266849
787.558236,1554.432478,-9992.780217,0.000000
787.558560,2590.720797,-9992.780217,153.219100
787.558885,2960.823768,-10066.800811,-383.047749
787.559209,1776.494261,-10214.842000,0.000000
787.559533,814.226536,-10288.862594,0.000000
787.559857,-518.144159,-10362.883188,-536.266849
787.560181,-2146.597232,-10066.800811,-995.924147
787.560506,-2442.679609,-9770.718434,-919.314598
787.560830,-1702.473667,-9474.636058,-536.266849
787.561154,-592.164754,-9844.739029,-153.219100
787.561478,444.123565,-8956.491898,536.266849
787.561802,1036.288319,-9474.636058,536.266849
787.562127,1332.370696,-9400.615463,612.876398
787.562451,814.226536,-9400.615463,459.657299
787.562775,0.000000,-9326.594869,383.047749
787.563099,-1110.308913,-9918.759623,-153.219100
787.563423,-2590.720797,-9622.677246,-459.657299
787.563748,-2590.720797,-10288.862594,-383.047749
787.564072,-2294.638420,-9992.780217,-995.924147
787.564396,-1332.370696,-9770.718434,-612.876398
787.564720,222.061783,-9918.759623,-383.047749
787.565044,1406.391290,-9770.718434,76.609550
787.565369,2146.597232,-9326.594869,0.000000
787.565693,2294.638420,-9696.697840,459.657299
787.566017,1332.370696,-9844.739029,153.219100
787.566341,-296.082377,-9770.718434,536.266849
787.566665,-1554.432478,-9918.759623,153.219100
787.566990,-1776.494261,-9474.636058,459.657299
787.567314,-1406.391290,-9474.636058,459.657299
787.567638,-592.164754,-9252.574275,766.095498
787.567962,444.123565,-8956.491898,842.705048
787.568286,1258.350101,-8956.491898,842.705048
787.568610,1628.453072,-8882.471304,459.657299
787.568935,814.226536,-8512.368333,229.828649
787.569259,-518.144159,-8808.450710,306.438199
787.569583,-1184.329507,-9326.594869,0.000000
787.569907,-2072.576638,-9474.636058,-689.485948
787.570231,-1776.494261,-9474.636058,-919.314598
787.570556,-1036.288319,-9770.718434,-612.876398
787.570880,740.205942,-9696.697840,-383.047749
787.571204,2516.700203,-9844.739029,766.095498
787.571528,2886.803174,-9992.780217,919.314598
787.571852,2664.741391,-9992.780217,536.266849
787.572177,1776.494261,-9844.739029,229.828649
787.572501,370.102971,-9770.718434,0.000000
787.572825,-1258.350101,-9696.697840,-536.266849
787.573149,-2368.659014,-9844.739029,-766.095498
787.573473,-2072.576638,-9696.697840,-842.705048
787.573798,-1406.391290,-9474.636058,-612.876398
787.574122,-814.226536,-9178.553681,-383.047749
787.574446,-296.082377,-9178.553681,383.047749
787.574770,1332.370696,-9474.636058,76.609550
787.575094,1850.514855,-9326.594869,383.047749
787.575419,1332.370696,-9474.636058,153.219100
787.575743,518.144159,-9918.759623,0.000000
787.576067,-370.102971,-9992.780217,-306.438199
787.576391,-1406.391290,-10066.800811,-766.095498
787.576715,-1258.350101,-10362.883188,-689.485948
787.577040,-1110.308913,-9992.780217,-689.485948
787.577364,148.041188,-10140.821405,-459.657299
787.577688,1332.370696,-10288.862594,-383.047749
787.578012,1776.494261,-9696.697840,0.000000
787.578336,2146.597232,-10066.800811,-459.657299
787.578661,1258.350101,-9992.780217,-459.657299
787.578985,0.000000,-9918.759623,-766.095498
787.579309,-1332.370696,-9696.697840,-1072.533697
787.579633,-2664.741391,-9696.697840,-1149.143247
787.579957,-2590.720797,-9548.656652,-1149.143247
787.580281,-1110.308913,-9696.697840,-689.485948
787.580606,0.000000,-9770.718434,0.000000
787.580930,1110.308913,-9548.656652,306.438199
787.581254,1850.514855,-9474.636058,229.828649
787.581578,1924.535449,-9696.697840,306.438199
787.581902,1406.391290,-9770.718434,689.485948
787.582227,-444.123565,-9622.677246,0.000000
787.582551,-1332.370696,-9918.759623,-306.438199
787.582875,-2294.638420,-9474.636058,-1149.143247
787.583199,-1924.535449,-9992.780217,-1302.362347
787.583523,-888.247130,-9918.759623,-1225.752797
787.583848,370.102971,-9918.759623,-919.314598
787.584172,1480.411884,-9474.636058,-536.266849
787.584496,2220.617826,-9474.636058,-153.219100
787.584820,1924.535449,-9548.656652,0.000000
787.585144,1480.411884,-9844.739029,0.000000
787.585469,74.020594,-10066.800811,0.000000
787.585793,-1258.350101,-9918.759623,0.000000
787.586117,-1924.535449,-9770.718434,0.000000
787.586441,-1628.453072,-9696.697840,306.438199
787.586765,-740.205942,-9548.656652,76.609550
787.587090,0.000000,-9178.553681,536.266849
787.587414,592.164754,-9252.574275,1072.533697
787.587738,1036.288319,-9252.574275,689.485948
787.588062,370.102971,-9252.574275,612.876398
787.588386,-370.102971,-9474.636058,0.000000
787.588711,-1184.329507,-9474.636058,-383.047749
787.589035,-1850.514855,-9622.677246,-689.485948
787.589359,-1924.535449,-9548.656652,-766.095498
787.589683,-1258.350101,-9622.677246,-612.876398
787.590007,0.000000,-9770.718434,-153.219100
787.590331,1036.288319,-9844.739029,76.609550
787.590656,1776.494261,-9992.780217,383.047749
787.590980,2146.597232,-10288.862594,459.657299
787.591304,2146.597232,-10214.842000,842.705048
787.591628,1480.411884,-10288.862594,995.924147
787.591952,0.000000,-9918.759623,383.047749
787.592277,-1702.473667,-9918.759623,0.000000
787.592601,-2442.679609,-9400.615463,0.000000
787.592925,-2146.597232,-9770.718434,0.000000
787.593249,-1480.411884,-9770.718434,536.266849
787.593573,-222.061783,-9548.656652,919.314598
787.593898,814.226536,-9178.553681,1072.533697
787.594222,1406.391290,-9104.533087,919.314598
787.594546,1776.494261,-9030.512492,1378.971896
787.594870,518.144159,-9474.636058,459.657299
787.595194,-1110.308913,-9548.656652,536.266849
787.595519,-2072.576638,-9770.718434,0.000000
787.595843,-2220.617826,-9622.677246,-306.438199
787.596167,-1924.535449,-9400.615463,-383.047749
787.596491,-740.205942,-9622.677246,-689.485948
787.596815,888.247130,-9326.594869,-229.828649
787.597140,2368.659014,-9400.615463,229.828649
787.597464,2368.659014,-9104.533087,536.266849
787.597788,1998.556043,-9252.574275,383.047749
787.598112,1110.308913,-9474.636058,229.828649
787.598436,74.020594,-9622.677246,0.000000
787.598761,-1184.329507,-9696.697840,-229.828649
787.599085,-1480.411884,-9696.697840,-536.266849
787.599409,-1776.494261,-9178.553681,-383.047749
787.599733,0.000000,-9178.553681,76.609550
787.600057,518.144159,-9326.594869,229.828649
787.600381,888.247130,-9400.615463,0.000000
787.600706,962.267725,-9326.594869,0.000000
787.601030,740.205942,-9474.636058,0.000000
787.601354,-518.144159,-9252.574275,-306.438199
787.601678,-1184.329507,-9400.615463,-842.705048
787.602002,-1924.535449,-10066.800811,-995.924147
787.602327,-1628.453072,-10140.821405,-1149.143247
787.602651,-888.247130,-10066.800811,-1302.362347
787.602975,444.123565,-10584.944971,-689.485948
787.603299,1480.411884,-10362.883188,-536.266849
787.603623,2368.659014,-10436.903782,-689.485948
787.603948,2664.741391,-10510.924376,-536.266849
787.604272,1776.494261,-9770.718434,-1072.533697
787.604596,1184.329507,-10584.944971,-689.485948
787.604920,-592.164754,-10140.821405,-766.095498
787.605244,-1480.411884,-10288.862594,-1225.752797
787.605569,-1776.494261,-9918.759623,-1532.190996
787.605893,-1332.370696,-10140.821405,-1149.143247
787.606217,-666.185348,-9770.718434,0.000000
787.606541,444.123565,-9770.718434,-383.047749
787.606865,1850.514855,-9622.677246,459.657299
787.607190,2072.576638,-9622.677246,612.876398
787.607514,1258.350101,-10066.800811,0.000000
787.607838,74.020594,-10140.821405,-536.266849
787.608162,-888.247130,-9844.739029,-766.095498
787.608486,-2072.576638,-9696.697840,-1225.752797
787.608811,-2294.638420,-9696.697840,-1762.019645
787.609135,-1406.391290,-9844.739029,-1225.752797
787.609459,-222.061783,-10066.800811,-1072.533697
787.609783,1110.308913,-9474.636058,0.000000
787.610107,2072.576638,-9696.697840,76.609550
787.610432,2368.659014,-9622.677246,153.219100
787.610756,1406.391290,-9548.656652,229.828649
787.611080,666.185348,-9622.677246,612.876398
787.611404,-814.226536,-9474.636058,76.609550
787.611728,-1480.411884,-9178.553681,0.000000
787.612052,-2146.597232,-8882.471304,459.657299
787.612377,-1406.391290,-9104.533087,153.219100
787.612701,-148.041188,-9326.594869,383.047749
787.613025,370.102971,-8956.491898,842.705048
787.613349,814.226536,-9030.512492,919.314598
787.613673,888.247130,-8808.450710,1302.362347
787.613998,814.226536,-8586.388927,1072.533697
787.614322,0.000000,-8660.409521,536.266849
787.614646,-1036.288319,-9474.636058,612.876398
787.614970,-2146.597232,-9474.636058,0.000000
787.615294,-1998.556043,-9474.636058,-153.219100
787.615619,-1184.329507,-9474.636058,0.000000
787.615943,148.041188,-9548.656652,536.266849
787.616267,1184.329507,-9770.718434,995.924147
787.616591,2220.617826,-9474.636058,459.657299
787.616915,2072.576638,-9474.636058,1378.971896
787.617240,1628.453072,-9696.697840,383.047749
787.617564,222.061783,-9770.718434,689.485948
787.617888,-888.247130,-10066.800811,383.047749
787.618212,-1776.494261,-9992.780217,0.000000
787.618536,-1850.514855,-9770.718434,-153.219100
787.618861,-1258.350101,-9252.574275,306.438199
787.619185,-518.144159,-9178.553681,383.047749
787.619509,148.041188,-9622.677246,1378.971896
787.619833,592.164754,-9474.636058,766.095498
787.620157,518.144159,-9622.677246,536.266849
787.620482,0.000000,-9770.718434,153.219100
787.620806,-740.205942,-10066.800811,153.219100
787.621130,-2664.741391,-9548.656652,-229.828649
787.621454,-2664.741391,-10362.883188,-536.266849
787.621778,-2294.638420,-10066.800811,-1149.143247
787.622102,-1184.329507,-10436.903782,-919.314598
787.622427,370.102971,-10140.821405,-459.657299
787.622751,1554.432478,-10066.800811,-306.438199
787.623075,2220.617826,-10140.821405,-153.219100
787.623399,1850.514855,-9770.718434,-153.219100
787.623723,1332.370696,-10214.842000,0.000000
787.624048,148.041188,-10436.903782,-459.657299
787.624372,-1258.350101,-10066.800811,-766.095498
787.624696,-2442.679609,-9992.780217,-842.705048
787.625020,-2146.597232,-9844.739029,-766.095498
787.625344,-1258.350101,-9474.636058,-383.047749
787.625669,296.082377,-9178.553681,0.000000
787.625993,1702.473667,-9400.615463,306.438199
787.626317,2368.659014,-9030.512492,842.705048
787.626641,2220.617826,-9400.615463,459.657299
787.626965,1332.370696,-9400.615463,0.000000
787.627290,-222.061783,-9622.677246,-612.876398
787.627614,-1332.370696,-9622.677246,-919.314598
787.627938,-1702.473667,-9474.636058,-995.924147
787.628262,-1480.411884,-9474.636058,-995.924147
787.628586,0.000000,-9326.594869,-919.314598
787.628911,1258.350101,-9474.636058,0.000000
787.629235,2368.659014,-9548.656652,-383.047749
787.629559,2368.659014,-9326.594869,0.000000
787.629883,2072.576638,-9474.636058,0.000000
787.630207,1258.350101,-9474.636058,0.000000
787.630532,222.061783,-9178.553681,76.609550
787.630856,-592.164754,-9696.697840,-229.828649
787.631180,-2072.576638,-9326.594869,-536.266849
787.631504,-2072.576638,-9178.553681,-229.828649
787.631828,-1406.391290,-9252.574275,-306.438199
787.632152,-222.061783,-9474.636058,0.000000
787.632477,592.164754,-9474.636058,306.438199
787.632801,1110.308913,-9622.677246,612.876398
787.633125,814.226536,-9474.636058,689.485948
787.633449,296.082377,-9622.677246,-306.438199
787.633773,-740.205942,-9474.636058,-383.047749
787.634098,-1776.494261,-9918.759623,-919.314598
787.634422,-2442.679609,-10140.821405,-1072.533697
787.634746,-2072.576638,-10140.821405,-1225.752797
787.635070,-666.185348,-10140.821405,-689.485948
787.635394,444.123565,-9918.759623,-842.705048
787.635719,1406.391290,-9918.759623,-459.657299
787.636043,1924.535449,-9992.780217,0.000000
787.636367,1554.432478,-9918.759623,-229.828649
787.636691,740.205942,-10140.821405,0.000000
787.637015,-370.102971,-10214.842000,-229.828649
787.637340,-1628.453072,-9918.759623,-536.266849
787.637664,-2146.597232,-9992.780217,-306.438199
787.637988,-1702.473667,-9844.739029,76.609550
787.638312,-370.102971,-9548.656652,0.000000
787.638636,888.247130,-9104.533087,76.609550
787.638961,1628.453072,-9178.553681,383.047749
787.639285,1924.535449,-9474.636058,306.438199
787.639609,1480.411884,-9622.677246,153.219100
787.639933,296.082377,-9992.780217,153.219100
787.640257,-1110.308913,-9992.780217,0.000000
787.640582,-2146.597232,-9918.759623,-842.705048
787.640906,-2368.659014,-9992.780217,76.609550
787.641230,-666.185348,-10066.800811,0.000000
787.641554,370.102971,-9992.780217,306.438199
787.641878,1554.432478,-9844.739029,536.266849
787.642203,2294.638420,-9474.636058,612.876398
787.642527,2368.659014,-9326.594869,689.485948
787.642851,2146.597232,-9622.677246,612.876398
787.643175,888.247130,-9178.553681,612.876398
787.643499,-740.205942,-9252.574275,0.000000
787.643823,-2220.617826,-9326.594869,-153.219100
787.644148,-2368.659014,-9474.636058,-383.047749
787.644472,-1850.514855,-9252.574275,153.219100
787.644796,-592.164754,-9474.636058,153.219100
787.645120,444.123565,-9104.533087,383.047749
787.645444,1332.370696,-8512.368333,1838.629195
787.645769,1702.473667,-8660.409521,1302.362347
787.646093,1480.411884,-9548.656652,1225.752797
787.646417,370.102971,-9326.594869,1072.533697
787.646741,-1110.308913,-9104.533087,153.219100
787.647065,-1850.514855,-9326.594869,-229.828649
787.647390,-2146.597232,-9548.656652,-612.876398
787.647714,-1480.411884,-9400.615463,-689.485948
787.648038,-740.205942,-9548.656652,-306.438199
787.648362,0.000000,-9400.615463,-459.657299
787.648686,1406.391290,-9400.615463,0.000000
787.649011,2072.576638,-9622.677246,153.219100
787.649335,1480.411884,-9548.656652,0.000000
787.649659,518.144159,-9770.718434,153.219100
787.649983,-444.123565,-9918.759623,76.609550
787.650307,-1184.329507,-9770.718434,0.000000
787.650632,-1776.494261,-9992.780217,0.000000
787.650956,-1628.453072,-10214.842000,-153.219100
787.651280,-592.164754,-10066.800811,153.219100
787.651604,0.000000,-10066.800811,383.047749
787.651928,740.205942,-9844.739029,153.219100
787.652253,962.267725,-10140.821405,0.000000
787.652577,444.123565,-10140.821405,0.000000
787.652901,-518.144159,-10362.883188,-995.924147
787.653225,-1480.411884,-10436.903782,-995.924147
787.653549,-1850.514855,-10214.842000,-1225.752797
787.653873,-1554.432478,-10140.821405,-766.095498
787.654198,-296.082377,-10214.842000,-919.314598
787.654522,1110.308913,-10362.883188,-459.657299
787.654846,2220.617826,-10362.883188,0.000000
787.655170,2738.761985,-10362.883188,0.000000
787.655494,2590.720797,-10214.842000,0.000000
787.655819,1480.411884,-9770.718434,0.000000
787.656143,296.082377,-9918.759623,-306.438199
787.656467,-1110.308913,-9770.718434,-1072.533697
787.656791,-2146.597232,-9696.697840,-766.095498
787.657115,-2664.741391,-9400.615463,-612.876398
787.657440,-1480.411884,-8882.471304,-995.924147
787.657764,-296.082377,-9474.636058,229.828649
787.658088,740.205942,-9030.512492,919.314598
787.658412,1554.432478,-9104.533087,995.924147
787.658736,1702.473667,-8956.491898,842.705048
787.659060,962.267725,-9104.533087,383.047749
787.659385,0.000000,-8660.409521,0.000000
787.659709,-1036.288319,-9178.553681,-766.095498
787.660033,-1924.535449,-9474.636058,-383.047749
787.660357,-2516.700203,-9178.553681,-1072.533697
787.660681,-1850.514855,-9474.636058,-919.314598
787.661005,-296.082377,-9474.636058,-306.438199
787.661329,1258.350101,-9400.615463,-229.828649
787.661653,1776.494261,-9104.533087,0.000000
787.661977,2368.659014,-8808.450710,536.266849
787.662301,1850.514855,-9178.553681,459.657299
787.662625,740.205942,-9548.656652,229.828649
787.662949,-740.205942,-9622.677246,0.000000
787.663273,-1332.370696,-9622.677246,0.000000
787.663597,-1554.432478,-9844.739029,-153.219100
787.663922,-962.267725,-9696.697840,-153.219100
787.664246,-222.061783,-9770.718434,0.000000
787.664570,666.185348,-9770.718434,76.609550
787.664894,1554.432478,-9696.697840,306.438199
787.665218,1036.288319,-9696.697840,-383.047749
787.665542,222.061783,-9770.718434,0.000000
787.665866,-444.123565,-10214.842000,-383.047749
787.666190,-1332.370696,-10436.903782,-919.314598
787.666514,-1480.411884,-10362.883188,-766.095498
787.666838,-814.226536,-10214.842000,-1149.143247
787.667162,0.000000,-9844.739029,-229.828649
787.667486,1406.391290,-10214.842000,229.828649
787.667810,2442.679609,-10288.862594,153.219100
787.668134,2960.823768,-10362.883188,76.609550
787.668458,2072.576638,-10362.883188,0.000000
787.668783,666.185348,-10362.883188,-229.828649
787.669107,-814.226536,-9992.780217,-153.219100
787.669431,-2368.659014,-9844.739029,-612.876398
787.669755,-2960.823768,-9548.656652,-459.657299
787.670079,-2442.679609,-9252.574275,-459.657299
787.670403,-1258.350101,-9326.594869,229.828649
787.670727,296.082377,-9104.533087,459.657299
787.671051,1184.329507,-9252.574275,766.095498
787.671375,1036.288319,-9104.533087,689.485948
787.671699,592.164754,-9252.574275,919.314598
787.672023,0.000000,-9178.553681,766.095498
787.672347,-1258.350101,-9548.656652,-306.438199
787.672671,-2220.617826,-9474.636058,-153.219100
787.672995,-2368.659014,-9474.636058,-995.924147
787.673320,-1776.494261,-8956.491898,-689.485948
787.673644,-592.164754,-9030.512492,-383.047749
787.673968,592.164754,-9326.594869,-153.219100
787.674292,962.267725,-9030.512492,76.609550
787.674616,1480.411884,-8956.491898,383.047749
787.674940,1776.494261,-9252.574275,0.000000
787.675264,1258.350101,-9474.636058,76.609550
787.675588,222.061783,-9548.656652,229.828649
787.675912,-740.205942,-9770.718434,0.000000
787.676236,-1406.391290,-9696.697840,383.047749
787.676560,-1332.370696,-9474.636058,76.609550
787.676884,-518.144159,-9400.615463,383.047749
787.677208,370.102971,-9474.636058,383.047749
787.677532,1110.308913,-9474.636058,536.266849
787.677857,1332.370696,-9474.636058,383.047749
787.678181,962.267725,-9696.697840,306.438199
787.678505,74.020594,-9992.780217,0.000000
787.678829,-1110.308913,-10066.800811,-459.657299
787.679153,-1702.473667,-10214.842000,-153.219100
787.679477,-2146.597232,-10066.800811,-995.924147
787.679801,-1332.370696,-9992.780217,-536.266849
787.680125,0.000000,-10436.903782,-689.485948
787.680449,1554.432478,-10362.883188,-229.828649
787.680773,2812.782580,-10288.862594,0.000000
787.681097,2812.782580,-10436.903782,383.047749
787.681421,2220.617826,-10140.821405,612.876398
787.681745,962.267725,-9992.780217,0.000000
787.682069,-592.164754,-9770.718434,-766.095498
787.682393,-1776.494261,-10066.800811,-383.047749
787.682718,-2294.638420,-10066.800811,-459.657299
787.683042,-1924.535449,-9474.636058,0.000000
787.683366,-666.185348,-9474.636058,459.657299
787.683690,740.205942,-9252.574275,689.485948
787.684014,1554.432478,-8956.491898,1149.143247
787.684338,962.267725,-8956.491898,689.485948
787.684662,296.082377,-9326.594869,306.438199
787.684986,-666.185348,-9474.636058,-229.828649
787.685310,-1628.453072,-9474.636058,-842.705048
787.685634,-2146.597232,-9696.697840,-842.705048
787.685958,-1776.494261,-9548.656652,-919.314598
787.686282,-888.247130,-9622.677246,-766.095498
787.686606,370.102971,-9918.759623,-689.485948
787.686930,518.144159,-9548.656652,0.000000
787.687255,1924.535449,-9992.780217,153.219100
787.687579,2220.617826,-9992.780217,383.047749
787.687903,1776.494261,-9474.636058,459.657299
787.688227,962.267725,-9844.739029,612.876398
787.688551,-444.123565,-9992.780217,229.828649
787.688875,-962.267725,-9844.739029,229.828649
787.689199,-1998.556043,-9326.594869,0.000000
787.689523,-1554.432478,-9178.553681,0.000000
787.689847,-888.247130,-9104.533087,0.000000
787.690171,0.000000,-9326.594869,-229.828649
787.690495,814.226536,-9252.574275,0.000000
787.690819,1110.308913,-9548.656652,536.266849
787.691143,888.247130,-9474.636058,-459.657299
787.691467,0.000000,-9622.677246,-536.266849
787.691791,-1184.329507,-10066.800811,-689.485948
787.692116,-1554.432478,-10214.842000,-536.266849
787.692440,-1332.370696,-10288.862594,-536.266849
787.692764,-592.164754,-10214.842000,-306.438199
787.693088,666.185348,-10288.862594,76.609550
787.693412,1776.494261,-9918.759623,76.609550
787.693736,2590.720797,-9918.759623,306.438199
787.694060,2294.638420,-9844.739029,229.828649
787.694384,962.267725,-10214.842000,306.438199
787.694708,-666.185348,-10214.842000,-383.047749
787.695032,-2294.638420,-10288.862594,-459.657299
787.695356,-3108.864956,-10066.800811,-612.876398
787.695680,-2960.823768,-9696.697840,0.000000
787.696004,-2146.597232,-9474.636058,0.000000
787.696328,-592.164754,-8882.471304,153.219100
787.696653,518.144159,-8660.409521,1072.533697
787.696977,1332.370696,-8882.471304,842.705048
787.697301,1850.514855,-9104.533087,1149.143247
787.697625,1406.391290,-9400.615463,766.095498
787.697949,74.020594,-9474.636058,689.485948
787.698273,-1036.288319,-9474.636058,229.828649
787.698597,-2072.576638,-9252.574275,-306.438199
787.698921,-1332.370696,-10066.800811,-612.876398
787.699245,-666.185348,-9474.636058,-1149.143247
787.699569,296.082377,-9770.718434,-306.438199
787.699893,1628.453072,-9474.636058,0.000000
787.700217,2294.638420,-9400.615463,0.000000
787.700541,2664.741391,-9252.574275,-306.438199
787.700865,1776.494261,-9474.636058,306.438199
787.701190,1110.308913,-9178.553681,306.438199
787.701514,0.000000,-9918.759623,536.266849
787.701838,-888.247130,-9992.780217,76.609550
787.702162,-1258.350101,-9844.739029,153.219100
787.702486,-592.164754,-9844.739029,229.828649
787.702810,0.000000,-9844.739029,306.438199
787.703134,814.226536,-9622.677246,536.266849
787.703458,888.247130,-9844.739029,306.438199
787.703782,296.082377,-9696.697840,-229.828649
787.704106,0.000000,-9474.636058,229.828649
787.704430,-740.205942,-9474.636058,-612.876398
787.704754,-1628.453072,-9844.739029,-995.924147
787.705078,-1776.494261,-9918.759623,-995.924147
787.705402,-1776.494261,-9918.759623,-842.705048
787.705726,-296.082377,-9770.718434,-459.657299
787.706051,1332.370696,-9696.697840,0.000000
787.706375,2516.700203,-10066.800811,766.095498
787.706699,2812.782580,-10362.883188,76.609550
787.707023,1776.494261,-10140.821405,-229.828649
787.707347,444.123565,-10140.821405,-383.047749
787.707671,-962.267725,-9992.780217,-689.485948
787.707995,-2072.576638,-9918.759623,-1455.581446
787.708319,-2294.638420,-9400.615463,-153.219100
787.708643,-2072.576638,-9104.533087,-229.828649
787.708967,-1258.350101,-9030.512492,-459.657299
787.709291,74.020594,-9474.636058,153.219100
787.709615,1406.391290,-9326.594869,919.314598
787.709939,1924.535449,-9326.594869,689.485948
787.710263,1702.473667,-9400.615463,536.266849
787.710588,740.205942,-9474.636058,536.266849
787.710912,-814.226536,-9474.636058,-229.828649
787.711236,-1776.494261,-9696.697840,-536.266849
787.711560,-2220.617826,-10288.862594,-1225.752797
787.711884,-1776.494261,-9770.718434,-1608.800546
787.712208,-962.267725,-9696.697840,-1149.143247
787.712532,74.020594,-9548.656652,-612.876398
787.712856,1924.535449,-9918.759623,-306.438199
787.713180,2146.597232,-9474.636058,-153.219100
787.713504,2368.659014,-9030.512492,306.438199
787.713828,1554.432478,-9548.656652,0.000000
787.714152,666.185348,-9622.677246,76.609550
787.714476,-222.061783,-9770.718434,229.828649
787.714800,-962.267725,-9918.759623,153.219100
787.715125,-1406.391290,-9400.615463,-153.219100
787.715449,-962.267725,-9474.636058,229.828649
787.715773,0.000000,-9030.512492,229.828649
787.716097,370.102971,-9104.533087,766.095498
787.716421,370.102971,-9696.697840,-383.047749
787.716745,222.061783,-9696.697840,0.000000
787.717069,-518.144159,-9622.677246,-229.828649
787.717393,-1258.350101,-9696.697840,-459.657299
787.717717,-2220.617826,-9844.739029,-536.266849
787.718041,-2072.576638,-10288.862594,-306.438199
787.718365,-592.164754,-10584.944971,0.000000
787.718689,740.205942,-10140.821405,229.828649
787.719013,2072.576638,-10066.800811,689.485948
787.719337,2812.782580,-10214.842000,842.705048
787.719661,2516.700203,-10066.800811,612.876398
787.719986,1850.514855,-9918.759623,383.047749
787.720310,0.000000,-9696.697840,-306.438199
787.720634,-1554.432478,-9622.677246,-766.095498
787.720958,-2368.659014,-10436.903782,-459.657299
787.721282,-3404.947333,-9474.636058,-766.095498
787.721606,-2590.720797,-9326.594869,-459.657299
787.721930,-1406.391290,-9178.553681,383.047749
787.722254,0.000000,-9178.553681,1072.533697
787.722578,1628.453072,-9474.636058,1225.752797
787.722902,2146.597232,-9474.636058,1838.629195
787.723226,1776.494261,-9696.697840,1455.581446
787.723550,370.102971,-9474.636058,842.705048
787.723874,-740.205942,-9844.739029,153.219100
787.724198,-2072.576638,-9844.739029,-383.047749
787.724523,-2368.659014,-9918.759623,-612.876398
787.724847,-1406.391290,-9844.739029,-689.485948
787.725171,-592.164754,-9844.739029,-689.485948
787.725495,1036.288319,-9696.697840,383.047749
787.725819,1998.556043,-9622.677246,76.609550
787.726143,2368.659014,-9326.594869,306.438199
787.726467,2368.659014,-9474.636058,612.876398
787.726791,1776.494261,-9548.656652,612.876398
787.727115,740.205942,-9622.677246,689.485948
787.727439,-296.082377,-9474.636058,689.485948
787.727763,-666.185348,-8808.450710,-229.828649
787.728087,-814.226536,-9030.512492,306.438199
787.728411,-370.102971,-9326.594869,-153.219100
787.728735,222.061783,-9548.656652,229.828649
787.729059,740.205942,-9030.512492,229.828649
787.729384,1110.308913,-8956.491898,76.609550
787.729708,666.185348,-9622.677246,0.000000
787.730032,-592.164754,-9548.656652,-459.657299
787.730356,-1258.350101,-9992.780217,-842.705048
787.730680,-1702.473667,-9770.718434,-536.266849
787.731004,-1850.514855,-10140.821405,-459.657299
787.731328,-740.205942,-10362.883188,-612.876398
787.731652,666.185348,-10214.842000,0.000000
787.731976,2294.638420,-9770.718434,306.438199
787.732300,3256.906145,-10436.903782,0.000000
787.732624,2442.679609,-10436.903782,0.000000
787.732948,1036.288319,-10214.842000,-383.047749
787.733272,-592.164754,-9844.739029,-995.924147
787.733596,-1924.535449,-9844.739029,-1225.752797
787.733921,-2664.741391,-10066.800811,-1532.190996
787.734245,-2738.761985,-9992.780217,-995.924147
787.734569,-2220.617826,-9548.656652,-766.095498
787.734893,-666.185348,-9474.636058,0.000000
787.735217,592.164754,-9474.636058,459.657299
787.735541,1480.411884,-9548.656652,536.266849
787.735865,1850.514855,-9474.636058,919.314598
787.736189,1110.308913,-9400.615463,-153.219100
787.736513,0.000000,-9696.697840,-306.438199
787.736837,-1184.329507,-9992.780217,-1072.533697
787.737161,-1776.494261,-9844.739029,-1455.581446
787.737485,-1628.453072,-9992.780217,-1685.410096
787.737809,-740.205942,-9992.780217,-1455.581446
787.738133,74.020594,-9696.697840,-1302.362347
787.738458,1110.308913,-9992.780217,-536.266849
787.738782,2590.720797,-9548.656652,-153.219100
787.739106,2368.659014,-9622.677246,-383.047749
787.739430,2072.576638,-9770.718434,0.000000
787.739754,1332.370696,-10066.800811,0.000000
787.740078,444.123565,-9622.677246,-153.219100
787.740402,-222.061783,-9770.718434,-383.047749
787.740726,-444.123565,-9770.718434,0.000000
787.741050,-888.247130,-9474.636058,-153.219100
787.741374,-222.061783,-9400.615463,459.657299
787.741698,888.247130,-9400.615463,612.876398
787.742022,1184.329507,-9474.636058,536.266849
787.742346,444.123565,-9400.615463,153.219100
787.742670,0.000000,-9474.636058,153.219100
787.742994,-962.267725,-9770.718434,-306.438199
787.743319,-1628.453072,-9622.677246,-536.266849
787.743643,-2146.597232,-9770.718434,0.000000
787.743967,-1702.473667,-10066.800811,-383.047749
787.744291,-518.144159,-9622.677246,-306.438199
787.744615,740.205942,-9548.656652,689.485948
787.744939,1776.494261,-10066.800811,383.047749
787.745263,1702.473667,-9622.677246,766.095498
787.745587,1480.411884,-9622.677246,995.924147
787.745911,888.247130,-9844.739029,995.924147
787.746235,-444.123565,-9918.759623,612.876398
787.746559,-2442.679609,-9622.677246,459.657299
787.746883,-3034.844362,-9696.697840,229.828649
787.747207,-2960.823768,-9474.636058,306.438199
787.747531,-2146.597232,-9474.636058,919.314598
787.747856,-814.226536,-9474.636058,1378.971896
787.748180,370.102971,-9326.594869,1991.848295
787.748504,1480.411884,-9326.594869,1685.410096
787.748828,962.267725,-9474.636058,612.876398
787.749152,0.000000,-9104.533087,1302.362347
787.749476,-888.247130,-9474.636058,383.047749
787.749800,-1924.535449,-9548.656652,-229.828649
787.750124,-2220.617826,-9918.759623,-536.266849
787.750448,-1924.535449,-9844.739029,-612.876398
787.750772,-740.205942,-9548.656652,0.000000
787.751096,740.205942,-9696.697840,0.000000
787.751420,2146.597232,-9252.574275,689.485948
787.751744,3108.864956,-9770.718434,995.924147
787.752068,2368.659014,-9696.697840,1072.533697
787.752393,1628.453072,-9548.656652,919.314598
787.752717,592.164754,-9622.677246,306.438199
787.753041,-592.164754,-9474.636058,153.219100
787.753365,-888.247130,-9474.636058,383.047749
787.753689,-2072.576638,-9178.553681,153.219100
787.754013,-148.041188,-9548.656652,153.219100
787.754337,370.102971,-9326.594869,76.609550
787.754661,740.205942,-9474.636058,0.000000
787.754985,814.226536,-9474.636058,229.828649
787.755309,592.164754,-9548.656652,153.219100
787.755633,0.000000,-9474.636058,0.000000
787.755957,-962.267725,-9770.718434,-306.438199
787.756281,-1628.453072,-9918.759623,-536.266849
787.756605,-1554.432478,-9474.636058,-612.876398
787.756929,-740.205942,-10140.821405,-383.047749
787.757254,148.041188,-10288.862594,-229.828649
787.757578,1332.370696,-10362.883188,-306.438199
787.757902,2146.597232,-9770.718434,-229.828649
787.758226,2442.679609,-9844.739029,306.438199
787.758550,2368.659014,-10288.862594,-383.047749
787.758874,888.247130,-9770.718434,-459.657299
787.759198,-666.185348,-9992.780217,-1378.971896
787.759522,-1628.453072,-9770.718434,-919.314598
787.759846,-2146.597232,-9548.656652,-995.924147
787.760170,-2072.576638,-9474.636058,-689.485948
787.760494,-888.247130,-9252.574275,76.609550
787.760818,370.102971,-9400.615463,-306.438199
787.761142,1184.329507,-9474.636058,229.828649
787.761466,962.267725,-9548.656652,536.266849
787.761790,592.164754,-9252.574275,229.828649
787.762114,-444.123565,-9326.594869,-229.828649
787.762438,-1702.473667,-9548.656652,-1225.752797
787.762762,-2960.823768,-9770.718434,-1838.629195
787.763086,-3108.864956,-9548.656652,-1378.971896
787.763410,-1998.556043,-9770.718434,-1991.848295
787.763734,0.000000,-9992.780217,-1225.752797
787.764058,1184.329507,-9474.636058,-536.266849
787.764382,2368.659014,-10140.821405,-383.047749
787.764706,2738.761985,-10066.800811,0.000000
787.765030,2516.700203,-10658.965565,153.219100
787.765354,1406.391290,-10214.842000,153.219100
787.765678,148.041188,-9992.780217,0.000000
787.766002,-740.205942,-9844.739029,-153.219100
787.766326,-1184.329507,-10066.800811,-689.485948
787.766650,-1036.288319,-9400.615463,-459.657299
787.766974,-148.041188,-9474.636058,0.000000
787.767298,370.102971,-9326.594869,0.000000
787.767622,962.267725,-9178.553681,0.000000
787.767946,1332.370696,-9030.512492,0.000000
787.768270,592.164754,-9474.636058,229.828649
787.768594,444.123565,-9178.553681,0.000000
787.768918,-444.123565,-9474.636058,-612.876398
787.769242,-1184.329507,-9548.656652,-383.047749
787.769566,-962.267725,-9770.718434,-153.219100
787.769890,-148.041188,-9918.759623,0.000000
787.770214,444.123565,-9770.718434,459.657299
787.770538,1406.391290,-9844.739029,612.876398
787.770862,1998.556043,-9696.697840,766.095498
787.771186,1850.514855,-9696.697840,459.657299
787.771510,592.164754,-9844.739029,459.657299
787.771834,-444.123565,-9992.780217,229.828649
787.772158,-1850.514855,-10066.800811,-306.438199
787.772482,-2960.823768,-9622.677246,-459.657299
787.772806,-3256.906145,-9400.615463,0.000000
787.773130,-2294.638420,-9474.636058,306.438199
787.773454,-1110.308913,-9844.739029,766.095498
787.773778,740.205942,-8808.450710,1455.581446
787.774102,1184.329507,-9252.574275,1455.581446
787.774426,1406.391290,-9548.656652,1455.581446
787.774750,740.205942,-9548.656652,1149.143247
787.775074,-370.102971,-9622.677246,689.485948
787.775398,-1776.494261,-9474.636058,229.828649
787.775722,-3256.906145,-9030.512492,-459.657299
787.776046,-2368.659014,-9622.677246,0.000000
787.776370,-2072.576638,-9622.677246,-229.828649
787.776694,0.000000,-9696.697840,76.609550
787.777018,1406.391290,-9252.574275,306.438199
787.777343,2368.659014,-9326.594869,766.095498
787.777667,2738.761985,-9326.594869,919.314598
787.777991,1998.556043,-9400.615463,1608.800546
787.778315,1406.391290,-9622.677246,459.657299
787.778639,148.041188,-9548.656652,229.828649
787.778963,-740.205942,-10140.821405,153.219100
787.779287,-1110.308913,-10066.800811,76.609550
787.779611,-814.226536,-9696.697840,-153.219100
787.779935,0.000000,-9400.615463,0.000000
787.780259,444.123565,-9474.636058,76.609550
787.780583,1184.329507,-9400.615463,229.828649
787.780907,1110.308913,-9326.594869,76.609550
787.781231,888.247130,-9844.739029,383.047749
787.781555,0.000000,-9178.553681,459.657299
787.781879,-962.267725,-9474.636058,-459.657299
787.782203,-1110.308913,-10066.800811,-689.485948
787.782527,-962.267725,-9622.677246,-842.705048
787.782851,0.000000,-9770.718434,-612.876398
787.783175,1110.308913,-9918.759623,-536.266849
787.783499,2368.659014,-10362.883188,-153.219100
787.783823,2220.617826,-10362.883188,-229.828649
787.784147,1850.514855,-10436.903782,-919.314598
787.784471,444.123565,-10214.842000,-919.314598
787.784795,-888.247130,-10436.903782,-1072.533697
787.785119,-1924.535449,-10658.965565,-1072.533697
787.785443,-2812.782580,-10288.862594,-766.095498
787.785767,-2368.659014,-9844.739029,-229.828649
787.786091,-1776.494261,-9844.739029,-306.438199
787.786415,-518.144159,-9696.697840,76.609550
787.786739,814.226536,-10140.821405,612.876398
787.787063,1184.329507,-9696.697840,689.485948
787.787387,666.185348,-9992.780217,459.657299
787.787711,-370.102971,-9844.739029,-153.219100
787.788035,-1628.453072,-9030.512492,-459.657299
787.788359,-2590.720797,-9474.636058,-1685.410096
787.788683,-2960.823768,-10066.800811,-1608.800546
787.789007,-1924.535449,-9474.636058,-919.314598
787.789331,-962.267725,-9474.636058,-919.314598
787.789655,814.226536,-9252.574275,-383.047749
787.789979,2516.700203,-9252.574275,153.219100
787.790303,3478.967927,-9326.594869,536.266849
787.790627,3775.050304,-9770.718434,536.266849
787.790951,2516.700203,-9548.656652,766.095498
787.791275,1184.329507,-9474.636058,689.485948
787.791599,-444.123565,-9474.636058,0.000000
787.791923,-1332.370696,-9622.677246,-153.219100
787.792247,-1702.473667,-9474.636058,0.000000
787.792571,-1332.370696,-9474.636058,0.000000
787.792895,-592.164754,-9178.553681,153.219100
787.793219,74.020594,-8956.491898,0.000000
787.793543,1184.329507,-9400.615463,0.000000
787.793867,444.123565,-8882.471304,766.095498
787.794191,74.020594,-9548.656652,153.219100
787.794515,-592.164754,-9696.697840,0.000000
787.794839,-1184.329507,-9918.759623,-153.219100
787.795163,-1406.391290,-9696.697840,-383.047749
787.795487,-592.164754,-9770.718434,-153.219100
787.795811,592.164754,-9992.780217,0.000000
787.796135,1480.411884,-9992.780217,0.000000
787.796459,2294.638420,-9622.677246,0.000000
787.796783,2294.638420,-9548.656652,0.000000
787.797107,1924.535449,-9622.677246,76.609550
787.797431,592.164754,-9548.656652,-459.657299
787.797755,-814.226536,-9696.697840,-306.438199
787.798079,-1850.514855,-9400.615463,-842.705048
787.798403,-2368.659014,-9548.656652,-536.266849
787.798727,-1850.514855,-9400.615463,0.000000
787.799051,-962.267725,-9474.636058,383.047749
787.799375,444.123565,-9696.697840,766.095498
787.799699,1406.391290,-10140.821405,1149.143247
787.800023,1480.411884,-10140.821405,1149.143247
787.800347,814.226536,-9992.780217,459.657299
787.800671,-296.082377,-10807.006753,0.000000
787.800995,-2368.659014,-9992.780217,-842.705048
787.801319,-3108.864956,-9918.759623,-995.924147
787.801643,-3108.864956,-10214.842000,-1225.752797
787.801967,-2368.659014,-10140.821405,-919.314598
787.802291,-962.267725,-10066.800811,-689.485948
787.802615,518.144159,-9326.594869,-306.438199
787.802939,2072.576638,-9918.759623,229.828649
787.803263,2220.617826,-9548.656652,536.266849
787.803587,1924.535449,-9474.636058,612.876398
787.803911,1258.350101,-9474.636058,383.047749
787.804235,148.041188,-9548.656652,153.219100
787.804559,-1036.288319,-9548.656652,-153.219100
787.804883,-1480.411884,-9548.656652,0.000000
787.805207,-1480.411884,-8808.450710,-306.438199
787.805531,-814.226536,-8808.450710,76.609550
787.805855,-222.061783,-8882.471304,153.219100
787.806179,740.205942,-9326.594869,383.047749
787.806503,1110.308913,-9104.533087,383.047749
787.806827,666.185348,-9030.512492,536.266849
787.807151,222.061783,-9474.636058,76.609550
787.807475,-740.205942,-9474.636058,153.219100
787.807799,-1406.391290,-9474.636058,0.000000
787.808123,-1850.514855,-9474.636058,-536.266849
787.808447,-888.247130,-9992.780217,-536.266849
787.808771,74.020594,-10214.842000,-383.047749
787.809095,1036.288319,-10214.842000,0.000000
787.809419,1850.514855,-10214.842000,0.000000
787.809743,2146.597232,-9622.677246,153.219100
787.810067,1628.453072,-9770.718434,-76.609550
787.810391,740.205942,-9770.718434,-383.047749
787.810715,-222.061783,-9548.656652,-229.828649
787.811039,-1480.411884,-9844.739029,76.609550
787.811364,-1406.391290,-9622.677246,0.000000
787.811688,-962.267725,-9548.656652,153.219100
787.812012,0.000000,-9474.636058,842.705048
787.812336,888.247130,-9474.636058,995.924147
787.812660,2072.576638,-9622.677246,919.314598
787.812984,1332.370696,-9178.553681,1149.143247
787.813308,222.061783,-9474.636058,0.000000
787.813632,-1406.391290,-9548.656652,-459.657299
787.813956,-2368.659014,-9622.677246,-919.314598
787.814280,-3108.864956,-9548.656652,-1302.362347
787.814604,-2590.720797,-9918.759623,-1455.581446
787.814928,-1628.453072,-9844.739029,-842.705048
787.815252,74.020594,-10436.903782,-383.047749
787.815576,1850.514855,-10436.903782,689.485948
787.815900,2738.761985,-10140.821405,383.047749
787.816224,2738.761985,-10066.800811,612.876398
787.816548,1776.494261,-10288.862594,612.876398
787.816872,592.164754,-10584.944971,229.828649
787.817196,-814.226536,-10214.842000,0.000000
787.817520,-1850.514855,-9622.677246,0.000000
787.817844,-2146.597232,-8882.471304,-153.219100
787.818168,-1628.453072,-8734.430116,-459.657299
787.818492,-740.205942,-8956.491898,76.609550
787.818816,0.000000,-9030.512492,0.000000
787.819140,666.185348,-9178.553681,229.828649
787.819464,814.226536,-9252.574275,306.438199
787.819788,888.247130,-8882.471304,153.219100
787.820112,222.061783,-9178.553681,0.000000
787.820436,-370.102971,-8956.491898,0.000000
787.820760,-1184.329507,-9622.677246,-153.219100
787.821084,-888.247130,-9474.636058,-689.485948
787.821408,-444.123565,-9474.636058,-536.266849
787.821732,666.185348,-9326.594869,-612.876398
787.822056,1332.370696,-9622.677246,-536.266849
787.822380,1628.453072,-9770.718434,-306.438199
787.822704,1258.350101,-9696.697840,-153.219100
787.823028,518.144159,-9622.677246,0.000000
787.823352,-666.185348,-9918.759623,-306.438199
787.823676,-1702.473667,-10140.821405,-383.047749
787.824000,-2368.659014,-10140.821405,-383.047749
787.824324,-1850.514855,-9992.780217,0.000000
787.824648,-370.102971,-9770.718434,459.657299
787.824972,592.164754,-9770.718434,1225.752797
787.825296,1776.494261,-9770.718434,1455.581446
787.825620,2072.576638,-9474.636058,919.314598
787.825944,1332.370696,-9844.739029,612.876398
787.826268,0.000000,-9770.718434,153.219100
787.826592,-1258.350101,-9918.759623,-383.047749
787.826916,-1998.556043,-9770.718434,-612.876398
787.827240,-2590.720797,-9474.636058,-766.095498
787.827564,-1776.494261,-9770.718434,-1302.362347
787.827888,-370.102971,-9770.718434,-995.924147
787.828212,1406.391290,-9770.718434,-383.047749
787.828536,2516.700203,-9622.677246,76.609550
787.828860,2960.823768,-9918.759623,153.219100
787.829184,2516.700203,-10140.821405,306.438199
787.829508,1554.432478,-9918.759623,383.047749
787.829832,296.082377,-10288.862594,766.095498
787.830156,-1036.288319,-10066.800811,153.219100
787.830480,-1480.411884,-9992.780217,0.000000
787.830804,-2146.597232,-9918.759623,-459.657299
787.831128,-1258.350101,-9548.656652,-306.438199
787.831452,-370.102971,-9474.636058,0.000000
787.831776,370.102971,-9326.594869,459.657299
787.832100,1258.350101,-9030.512492,766.095498
787.832424,814.226536,-8956.491898,459.657299
787.832748,74.020594,-8882.471304,153.219100
787.833072,-666.185348,-9548.656652,0.000000
787.833396,-1924.535449,-8956.491898,-995.924147
787.833720,-2072.576638,-9474.636058,-536.266849
787.834044,-1332.370696,-9696.697840,-766.095498
787.834368,-222.061783,-9548.656652,-306.438199
787.834692,962.267725,-9622.677246,-76.609550
787.835016,1924.535449,-9548.656652,76.609550
787.835340,2368.659014,-9474.636058,153.219100
787.835664,2146.597232,-9918.759623,536.266849
787.835988,1110.308913,-9548.656652,0.000000
787.836312,-148.041188,-9770.718434,-306.438199
787.836636,-1776.494261,-10066.800811,-306.438199
787.836960,-2368.659014,-10214.842000,-229.828649
787.837284,-2146.597232,-10214.842000,0.000000
787.837608,-1258.350101,-9918.759623,766.095498
787.837932,740.205942,-10214.842000,1072.533697
787.838256,1406.391290,-9992.780217,1378.971896
787.838580,1702.473667,-9992.780217,919.314598
787.838904,592.164754,-9844.739029,689.485948
787.839228,-370.102971,-9918.759623,76.609550
787.839552,-1332.370696,-9770.718434,-536.266849
787.839876,-1998.556043,-9696.697840,-919.314598
787.840200,-2146.597232,-9918.759623,-995.924147
787.840524,-1184.329507,-9992.780217,-1225.752797
787.840848,74.020594,-9548.656652,76.609550
787.841172,1702.473667,-9622.677246,153.219100
787.841496,2738.761985,-9474.636058,612.876398
787.841820,3182.885551,-9622.677246,612.876398
787.842144,2812.782580,-9474.636058,383.047749
787.842468,1554.432478,-9474.636058,0.000000
787.842792,666.185348,-9844.739029,0.000000
787.843116,-740.205942,-9548.656652,306.438199
787.843440,-1702.473667,-9104.533087,-459.657299
787.843764,-1924.535449,-9252.574275,-459.657299
787.844088,-1258.350101,-9178.553681,-383.047749
787.844412,-592.164754,-9178.553681,0.000000
787.844736,-148.041188,-8808.450710,229.828649
787.845061,222.061783,-8882.471304,383.047749
787.845385,74.020594,-9030.512492,0.000000
787.845709,-222.061783,-9400.615463,-612.876398
787.846033,-1110.308913,-9770.718434,-383.047749
787.846357,-1406.391290,-9844.739029,-689.485948
787.846681,-1406.391290,-9918.759623,-689.485948
787.847005,-518.144159,-9992.780217,-842.705048
787.847329,888.247130,-10214.842000,0.000000
787.847653,1258.350101,-10362.883188,-766.095498
787.847977,2072.576638,-10362.883188,-689.485948
787.848301,1850.514855,-10140.821405,-1072.533697
787.848625,888.247130,-9844.739029,-919.314598
787.848949,-222.061783,-10140.821405,-995.924147
787.849273,-1406.391290,-10066.800811,-1302.362347
787.849597,-2146.597232,-9770.718434,-995.924147
787.849921,-1702.473667,-10214.842000,-383.047749
787.850245,-740.205942,-9548.656652,0.000000
787.850569,296.082377,-9326.594869,-153.219100
787.850893,1332.370696,-9770.718434,689.485948
787.851217,2146.597232,-9992.780217,766.095498
787.851541,1776.494261,-9992.780217,766.095498
787.851865,740.205942,-10288.862594,612.876398
787.852189,-962.267725,-10288.862594,0.000000
787.852513,-2146.597232,-9844.739029,-919.314598
787.852837,-2886.803174,-9844.739029,-1225.752797
787.853161,-2442.679609,-10066.800811,-1762.019645
787.853485,-1184.329507,-9992.780217,-1378.971896
787.853809,444.123565,-9622.677246,-536.266849
787.854133,2220.617826,-9770.718434,0.000000
787.854457,3034.844362,-9770.718434,229.828649
787.854781,2294.638420,-9474.636058,766.095498
787.855105,1924.535449,-9918.759623,306.438199
787.855429,1184.329507,-9918.759623,383.047749
787.855753,0.000000,-10140.821405,536.266849
787.856077,-1258.350101,-10140.821405,383.047749
787.856401,-1850.514855,-9918.759623,229.828649
787.856725,-1924.535449,-9252.574275,306.438199
787.857049,-740.205942,-9252.574275,842.705048
787.857373,0.000000,-8808.450710,842.705048
787.857697,148.041188,-8512.368333,689.485948
787.858021,888.247130,-8586.388927,842.705048
787.858345,0.000000,-8660.409521,459.657299
787.858669,-740.205942,-9104.533087,153.219100
787.858993,-1480.411884,-9104.533087,0.000000
787.859317,-1924.535449,-9178.553681,-612.876398
787.859641,-1406.391290,-9252.574275,-306.438199
787.859965,-222.061783,-9474.636058,-229.828649
787.860289,814.226536,-9622.677246,229.828649
787.860613,1924.535449,-10140.821405,383.047749
787.860937,2294.638420,-9844.739029,383.047749
787.861261,1924.535449,-9696.697840,229.828649
787.861585,1036.288319,-9770.718434,383.047749
787.861909,0.000000,-9252.574275,919.314598
787.862233,-592.164754,-9992.780217,0.000000
787.862557,-1628.453072,-9696.697840,0.000000
787.862881,-1554.432478,-9622.677246,76.609550
787.863205,-888.247130,-9622.677246,0.000000
787.863529,370.102971,-9474.636058,229.828649
787.863853,1110.308913,-9548.656652,536.266849
787.864178,1480.411884,-9844.739029,306.438199
787.864502,962.267725,-9918.759623,0.000000
787.864826,-148.041188,-10214.842000,-306.438199
787.865150,-1184.329507,-9770.718434,-1149.143247
787.865474,-1628.453072,-10066.800811,-1378.971896
787.865798,-1998.556043,-9770.718434,-1915.238745
787.866122,-1480.411884,-10510.924376,-1762.019645
787.866446,0.000000,-10362.883188,-766.095498
787.866770,1480.411884,-10288.862594,0.000000
787.867094,2442.679609,-10436.903782,229.828649
787.867418,2886.803174,-10881.027347,229.828649
787.867742,2516.700203,-10510.924376,76.609550
787.868066,1480.411884,-10066.800811,-153.219100
787.868390,-296.082377,-9992.780217,-612.876398
787.868714,-1924.535449,-9844.739029,-1302.362347
787.869038,-2738.761985,-9548.656652,-1302.362347
787.869362,-2368.659014,-9104.533087,-1302.362347
787.869686,-1406.391290,-9252.574275,-1072.533697
787.870010,-370.102971,-9030.512492,-459.657299
787.870334,444.123565,-8882.471304,-383.047749
787.870658,1110.308913,-8734.430116,153.219100
787.870982,1110.308913,-8290.306550,0.000000
787.871306,296.082377,-8956.491898,-383.047749
787.871630,0.000000,-9844.739029,459.657299
787.871954,-1184.329507,-9770.718434,-229.828649
787.872279,-1258.350101,-9548.656652,-459.657299
787.872603,-740.205942,-9844.739029,-612.876398
787.872927,-222.061783,-9918.759623,-689.485948
787.873251,370.102971,-9474.636058,153.219100
787.873575,1258.350101,-9844.739029,-1455.581446
787.873899,1258.350101,-9252.574275,-229.828649
787.874223,1184.329507,-9178.553681,-612.876398
787.874547,222.061783,-9548.656652,-536.266849
787.874871,-666.185348,-9548.656652,-536.266849
787.875195,-1628.453072,-9770.718434,-689.485948
787.875519,-2146.597232,-10066.800811,-612.876398
787.875843,-1850.514855,-9622.677246,0.000000
787.876167,-888.247130,-9326.594869,995.924147
787.876491,518.144159,-9992.780217,1149.143247
787.876815,1480.411884,-9918.759623,1072.533697
787.877139,1628.453072,-10066.800811,995.924147
787.877463,888.247130,-10066.800811,919.314598
787.877787,-222.061783,-9844.739029,76.609550
787.878111,-1184.329507,-9474.636058,-306.438199
787.878435,-2072.576638,-9844.739029,-919.314598
787.878759,-2516.700203,-10140.821405,-1072.533697
787.879083,-1924.535449,-9918.759623,-612.876398
787.879407,-370.102971,-10140.821405,-383.047749
787.879731,1628.453072,-10140.821405,153.219100
787.880056,2590.720797,-9770.718434,536.266849
787.880380,3330.926739,-9548.656652,1149.143247
787.880704,2664.741391,-10066.800811,1149.143247
787.881028,1776.494261,-10066.800811,1455.581446
787.881352,222.061783,-9918.759623,842.705048
787.881676,-888.247130,-9326.594869,383.047749
787.882000,-1850.514855,-9252.574275,383.047749
787.882324,-1480.411884,-9326.594869,459.657299
787.882648,-1036.288319,-9252.574275,919.314598
787.882972,370.102971,-9104.533087,1685.410096
787.883296,814.226536,-9030.512492,1378.971896
787.883620,666.185348,-8216.285956,1072.533697
787.883944,666.185348,-8512.368333,766.095498
787.884268,-518.144159,-8882.471304,689.485948
787.884592,-1406.391290,-9474.636058,229.828649
787.884916,-1924.535449,-9326.594869,0.000000
787.885240,-1924.535449,-9326.594869,153.219100
787.885564,-1480.411884,-8808.450710,536.266849
787.885888,0.000000,-9252.574275,-306.438199
787.886212,814.226536,-9696.697840,0.000000
787.886536,1480.411884,-9770.718434,0.000000
787.886860,1628.453072,-9548.656652,0.000000
787.887184,1184.329507,-9622.677246,0.000000
787.887508,444.123565,-9622.677246,-383.047749
787.887832,-296.082377,-9918.759623,0.000000
787.888157,-1702.473667,-9918.759623,-383.047749
787.888481,-1776.494261,-9844.739029,-229.828649
787.888805,-1480.411884,-9918.759623,0.000000
787.889129,-592.164754,-9844.739029,0.000000
787.889453,592.164754,-9770.718434,0.000000
787.889777,1628.453072,-9844.739029,0.000000
787.890101,1258.350101,-10214.842000,-306.438199
787.890425,666.185348,-9696.697840,-612.876398
787.890749,-740.205942,-9474.636058,-1532.190996
787.891073,-1480.411884,-10214.842000,-1072.533697
787.891397,-2368.659014,-10214.842000,-2451.505594
787.891721,-2220.617826,-10140.821405,-2298.286494
787.892045,-1332.370696,-10140.821405,-1532.190996
787.892369,518.144159,-10436.903782,-1072.533697
787.892693,2294.638420,-9992.780217,0.000000
787.893017,3256.906145,-9918.759623,-689.485948
787.893341,3330.926739,-9844.739029,459.657299
787.893665,2590.720797,-10214.842000,-76.609550
787.893989,888.247130,-10658.965565,-459.657299
787.894313,-592.164754,-10510.924376,-766.095498
787.894637,-1924.535449,-9992.780217,-1225.752797
787.894961,-2146.597232,-9326.594869,-842.705048
787.895285,-1110.308913,-9252.574275,-306.438199
787.895609,-296.082377,-8808.450710,-766.095498
787.895934,1110.308913,-8734.430116,0.000000
787.896258,1406.391290,-8882.471304,0.000000
787.896582,1480.411884,-8956.491898,76.609550
787.896906,814.226536,-8956.491898,76.609550
787.897230,-296.082377,-8956.491898,0.000000
787.897554,-1332.370696,-9326.594869,0.000000
787.897878,-1924.535449,-9178.553681,-383.047749
787.898202,-1924.535449,-9474.636058,-306.438199
787.898526,-740.205942,-9622.677246,-306.438199
787.898850,666.185348,-9844.739029,0.000000
787.899174,2220.617826,-10066.800811,229.828649
787.899498,2516.700203,-9844.739029,459.657299
787.899822,2072.576638,-9474.636058,459.657299
787.900146,1628.453072,-9178.553681,306.438199
787.900470,148.041188,-9104.533087,306.438199
787.900794,-1036.288319,-9252.574275,0.000000
787.901118,-1702.473667,-9548.656652,-229.828649
787.901442,-1776.494261,-9696.697840,0.000000
787.901766,-1258.350101,-9400.615463,229.828649
787.902090,0.000000,-9474.636058,842.705048
787.902414,962.267725,-9622.677246,766.095498
787.902738,1036.288319,-9696.697840,459.657299
787.903062,518.144159,-9622.677246,459.657299
787.903386,-370.102971,-9474.636058,612.876398
787.903710,-1628.453072,-10066.800811,0.000000
787.904035,-2590.720797,-10066.800811,-919.314598
787.904359,-2960.823768,-10214.842000,-842.705048
787.904683,-2220.617826,-9844.739029,-459.657299
787.905007,-592.164754,-10362.883188,-459.657299
787.905331,1480.411884,-9992.780217,383.047749
787.905655,2738.761985,-10066.800811,383.047749
787.905979,3330.926739,-10288.862594,612.876398
787.906303,2738.761985,-10362.883188,689.485948
787.906627,1702.473667,-10436.903782,536.266849
787.906951,-148.041188,-10140.821405,229.828649
787.907275,-1258.350101,-10214.842000,-459.657299
787.907599,-2072.576638,-9474.636058,-612.876398
787.907923,-2072.576638,-9104.533087,-766.095498
787.908247,-1554.432478,-9178.553681,0.000000
787.908571,-740.205942,-8734.430116,229.828649
787.908895,444.123565,-8586.388927,612.876398
787.909219,666.185348,-8438.347739,536.266849
787.909543,444.123565,-8586.388927,995.924147
787.909867,370.102971,-9104.533087,612.876398
787.910191,-1036.288319,-8882.471304,612.876398
787.910515,-1258.350101,-9178.553681,76.609550
787.910839,-1110.308913,-9474.636058,-306.438199
787.911163,-518.144159,-9696.697840,-153.219100
787.911487,888.247130,-10140.821405,0.000000
787.911812,2072.576638,-9992.780217,0.000000
787.912136,2442.679609,-9844.739029,459.657299
787.912460,2146.597232,-9474.636058,0.000000
787.912784,1554.432478,-9326.594869,-153.219100
787.913108,444.123565,-9474.636058,0.000000
787.913432,-1184.329507,-9548.656652,-612.876398
787.913756,-2072.576638,-9548.656652,-612.876398
787.914080,-2442.679609,-9548.656652,-383.047749
787.914404,-2368.659014,-9104.533087,-612.876398
787.914728,-1110.308913,-9030.512492,0.000000
787.915052,0.000000,-9252.574275,766.095498
787.915376,592.164754,-8956.491898,689.485948
787.915700,1110.308913,-9622.677246,612.876398
787.916024,888.247130,-9696.697840,229.828649
787.916348,148.041188,-10288.862594,0.000000
787.916672,-1184.329507,-10214.842000,-536.266849
787.916996,-2368.659014,-10066.800811,-1149.143247
787.917320,-2442.679609,-10066.800811,-1378.971896
787.917644,-1554.432478,-10584.944971,-1072.533697
787.917968,148.041188,-10362.883188,-842.705048
787.918292,1554.432478,-10584.944971,0.000000
787.918616,2516.700203,-10732.986159,229.828649
787.918940,2738.761985,-10288.862594,0.000000
787.919264,1776.494261,-9844.739029,536.266849
787.919589,962.267725,-10214.842000,612.876398
787.919913,-148.041188,-10066.800811,153.219100
787.920237,-2294.638420,-10214.842000,-536.266849
787.920561,-2516.700203,-9696.697840,-612.876398
787.920885,-1924.535449,-9622.677246,-536.266849
787.921209,-740.205942,-9474.636058,0.000000
787.921533,296.082377,-9474.636058,153.219100
787.921857,1184.329507,-8808.450710,536.266849
787.922181,1702.473667,-8364.327145,689.485948
787.922505,1776.494261,-9474.636058,689.485948
787.922829,1110.308913,-9474.636058,76.609550
787.923153,-370.102971,-9252.574275,-153.219100
787.923477,-740.205942,-9400.615463,-306.438199
787.923801,-962.267725,-9326.594869,-766.095498
787.924125,74.020594,-9030.512492,-689.485948
787.924449,814.226536,-9400.615463,459.657299
787.924773,1554.432478,-9474.636058,306.438199
787.925097,2368.659014,-9474.636058,612.876398
787.925421,1628.453072,-9252.574275,-229.828649
787.925745,444.123565,-9178.553681,76.609550
787.926069,-296.082377,-9474.636058,0.000000
787.926393,-1258.350101,-9252.574275,-153.219100
787.926717,-2294.638420,-9474.636058,-536.266849
787.927041,-1776.494261,-9326.594869,0.000000
787.927365,-1036.288319,-9548.656652,76.609550
787.927690,0.000000,-9252.574275,229.828649
787.928014,592.164754,-9548.656652,612.876398
787.928338,1036.288319,-9696.697840,459.657299
787.928662,444.123565,-9992.780217,229.828649
787.928986,-296.082377,-10066.800811,-76.609550
787.929310,-1332.370696,-10066.800811,-1072.533697
787.929634,-1776.494261,-9918.759623,-1608.800546
787.929958,-1998.556043,-10066.800811,-1225.752797
787.930282,-2220.617826,-10214.842000,-1608.800546
787.930606,-1184.329507,-10140.821405,-766.095498
787.930930,296.082377,-9918.759623,-383.047749
787.931254,1628.453072,-9992.780217,153.219100
787.931578,2886.803174,-10362.883188,0.000000
787.931902,2812.782580,-9844.739029,0.000000
787.932226,2072.576638,-10214.842000,-229.828649
787.932550,592.164754,-10214.842000,0.000000
787.932874,-1036.288319,-10214.842000,-842.705048
787.933198,-2368.659014,-10140.821405,-1149.143247
787.933522,-2664.741391,-10140.821405,-1302.362347
787.933846,-2072.576638,-9918.759623,-536.266849
787.934170,-444.123565,-9474.636058,-689.485948
787.934494,1036.288319,-9400.615463,229.828649
787.934818,1628.453072,-9030.512492,383.047749
787.935142,1924.535449,-9400.615463,536.266849
787.935467,1332.370696,-9696.697840,612.876398
787.935791,0.000000,-9918.759623,383.047749
787.936115,-1110.308913,-9548.656652,0.000000
787.936439,-1258.350101,-9400.615463,-536.266849
787.936763,-1036.288319,-9696.697840,-995.924147
787.937087,-296.082377,-9844.739029,-842.705048
787.937411,814.226536,-10066.800811,-306.438199
787.937735,1480.411884,-9474.636058,0.000000
787.938059,1628.453072,-9104.533087,76.609550
787.938383,1480.411884,-8882.471304,76.609550
787.938707,1036.288319,-8956.491898,383.047749
787.939031,74.020594,-9474.636058,383.047749
787.939355,-888.247130,-9326.594869,919.314598
787.939679,-1702.473667,-9474.636058,842.705048
787.940003,-1702.473667,-9326.594869,306.438199
787.940327,-740.205942,-9326.594869,919.314598
787.940651,74.020594,-9326.594869,1149.143247
787.940975,962.267725,-9400.615463,1149.143247
787.941299,1184.329507,-8734.430116,842.705048
787.941623,444.123565,-9178.553681,689.485948
787.941947,-518.144159,-8882.471304,612.876398
787.942271,-1776.494261,-9474.636058,0.000000
