#time,accel_x,accel_y,accel_z
810.821457,-3034.844362,-8142.265362,-153.219100
810.821781,-5847.626942,-9474.636058,-612.876398
810.822105,-8438.347739,-11917.315666,-1532.190996
810.822429,-8438.347739,-12361.439231,-995.924147
810.822753,-6661.853478,-10584.944971,689.485948
810.823077,-4219.173869,-9548.656652,459.657299
810.823401,-2516.700203,-8586.388927,919.314598
810.823726,-1628.453072,-5921.647536,-229.828649
810.824050,-740.205942,-4663.297435,-612.876398
810.824374,-296.082377,-5551.544565,153.219100
810.824698,888.247130,-7476.080014,229.828649
810.825022,2664.741391,-8438.347739,689.485948
810.825346,3108.864956,-9326.594869,1072.533697
810.825670,2442.679609,-11325.150913,842.705048
810.825994,666.185348,-13027.624579,0.000000
810.826319,-1332.370696,-13175.665768,-229.828649
810.826643,-2516.700203,-11399.171507,229.828649
810.826967,-2590.720797,-10807.006753,153.219100
810.827291,-2294.638420,-10732.986159,0.000000
810.827615,-1332.370696,-10362.883188,1225.752797
810.827939,-296.082377,-9844.739029,842.705048
810.828263,-814.226536,-9104.533087,842.705048
810.828587,-2442.679609,-9326.594869,766.095498
810.828912,-4219.173869,-9252.574275,229.828649
810.829236,-4959.379811,-9400.615463,-153.219100
810.829560,-5181.441594,-10214.842000,-1225.752797
810.829884,-5107.421000,-11991.336260,-1225.752797
810.830208,-4293.194464,-12953.603985,-536.266849
810.830532,-2442.679609,-13323.706956,0.000000
810.830856,-2072.576638,-11843.295072,1762.019645
810.831180,-1184.329507,-10955.047942,2681.334243
810.831505,-1628.453072,-11325.150913,2451.505594
810.831829,-2294.638420,-10584.944971,2145.067394
810.832153,-2368.659014,-9844.739029,2911.162892
810.832477,-1480.411884,-10510.924376,4060.306139
810.832801,-1258.350101,-11029.068536,4366.744339
810.833125,-2146.597232,-10881.027347,5592.497135
810.833449,-3478.967927,-9918.759623,5515.887586
810.833773,-3849.070898,-9474.636058,5209.449386
810.834098,-3997.112087,-9030.512492,4596.572988
810.834422,-3478.967927,-7846.182985,3524.039291
810.834746,-2664.741391,-7179.997637,3753.867940
810.835070,-1998.556043,-7624.121203,3830.477490
810.835394,-1702.473667,-8364.327145,5056.230287
810.835718,-2516.700203,-7698.141797,4443.353888
810.836042,-3108.864956,-7994.224174,4290.134789
810.836366,-4441.235652,-7846.182985,4060.306139
810.836691,-4293.194464,-8364.327145,4366.744339
810.837015,-3552.988522,-8586.388927,5209.449386
810.837339,-2738.761985,-8586.388927,6741.640382
810.837663,-1850.514855,-8882.471304,7277.907231
810.837987,-740.205942,-8808.450710,7354.516781
810.838311,-296.082377,-8808.450710,7201.297681
810.838635,-518.144159,-7920.203579,7048.078582
810.838959,-444.123565,-7550.100608,6588.421283
810.839284,-296.082377,-7031.956449,5822.325785
810.839608,-444.123565,-6069.688724,4673.182538
810.839932,-1110.308913,-5329.482782,3677.258390
810.840256,-1924.535449,-5477.523971,3217.601092
810.840580,-2516.700203,-5847.626942,1455.581446
810.840904,-2516.700203,-5995.668130,1225.752797
810.841228,-2368.659014,-6661.853478,1455.581446
810.841552,-1924.535449,-8142.265362,1685.410096
810.841877,-1036.288319,-9844.739029,1685.410096
810.842201,-1480.411884,-10658.965565,766.095498
810.842525,-3034.844362,-12065.356855,995.924147
810.842849,-3775.050304,-14137.933492,1225.752797
810.843173,-1406.391290,-14211.954086,766.095498
810.843497,740.205942,-12583.501014,459.657299
810.843821,2590.720797,-11399.171507,612.876398
810.844145,4515.256246,-11473.192101,-689.485948
810.844470,4515.256246,-12509.480420,-2221.676944
810.844794,3478.967927,-12065.356855,-2911.162892
810.845118,1406.391290,-11991.336260,-3677.258390
810.845442,-1258.350101,-12805.562797,-4749.792088
810.845766,-3849.070898,-12435.459826,-5286.058936
810.846090,-3404.947333,-11769.274478,-4290.134789
810.846414,-888.247130,-11473.192101,-4366.744339
810.846738,1702.473667,-11621.233289,-3983.696590
810.847063,3182.885551,-10955.047942,-2604.724693
810.847387,4441.235652,-8586.388927,-2834.553343
810.847711,3775.050304,-7772.162391,-2451.505594
810.848035,148.041188,-8216.285956,-2604.724693
810.848359,-2294.638420,-8956.491898,-3064.381992
810.848683,-1998.556043,-10140.821405,-3677.258390
810.849007,-1184.329507,-11399.171507,-4673.182538
810.849331,-296.082377,-11917.315666,-4443.353888
810.849656,1036.288319,-12953.603985,-4903.011187
810.849980,2072.576638,-13027.624579,-4213.525239
810.850304,1036.288319,-11843.295072,-4060.306139
810.850628,0.000000,-10436.903782,-3830.477490
810.850952,-370.102971,-9400.615463,-3217.601092
810.851276,888.247130,-9178.553681,-2068.457845
810.851600,4071.132681,-7846.182985,-1149.143247
810.851925,6513.812290,-6735.874072,-383.047749
810.852249,5551.544565,-7105.977043,0.000000
810.852573,2516.700203,-7624.121203,-383.047749
810.852897,-2294.638420,-7328.038826,-1302.362347
810.853221,-6439.791695,-7402.059420,-2757.943793
810.853545,-9400.615463,-7698.141797,-3294.210641
810.853869,-9696.697840,-9104.533087,-2757.943793
810.854194,-5921.647536,-9844.739029,-1762.019645
810.854518,-1258.350101,-9104.533087,-766.095498
810.854842,1850.514855,-8438.347739,383.047749
810.855166,2812.782580,-8660.409521,1072.533697
810.855490,2442.679609,-8956.491898,1762.019645
810.855814,2368.659014,-9326.594869,2834.553343
810.856138,2738.761985,-10066.800811,3447.429741
810.856463,3256.906145,-11029.068536,3830.477490
810.856787,4145.153275,-10881.027347,3140.991542
810.857111,3552.988522,-9992.780217,1378.971896
810.857435,740.205942,-10584.944971,689.485948
810.857759,-3182.885551,-10732.986159,-1149.143247
810.858083,-7254.018232,-10658.965565,-1532.190996
810.858407,-8808.450710,-9474.636058,-766.095498
810.858732,-7846.182985,-9252.574275,306.438199
810.859056,-5403.503377,-9178.553681,919.314598
810.859380,-1776.494261,-9474.636058,2068.457845
810.859704,1924.535449,-9696.697840,3753.867940
810.860028,3701.029710,-9696.697840,4366.744339
810.860352,4515.256246,-10510.924376,4826.401637
810.860676,3478.967927,-10732.986159,5975.544884
810.861001,3182.885551,-11325.150913,6205.373534
810.861325,3404.947333,-11695.253884,4826.401637
810.861649,2886.803174,-11399.171507,3370.820191
810.861973,2294.638420,-10732.986159,1685.410096
810.862297,1036.288319,-10807.006753,383.047749
810.862621,0.000000,-10140.821405,0.000000
810.862946,-3552.988522,-8882.471304,-842.705048
810.863270,-6365.771101,-7920.203579,-383.047749
810.863594,-7105.977043,-8142.265362,-536.266849
810.863918,-5773.606348,-8438.347739,919.314598
810.864242,-2368.659014,-8734.430116,2451.505594
810.864566,1480.411884,-8586.388927,3983.696590
810.864890,4293.194464,-8660.409521,4749.792088
810.865215,3849.070898,-8216.285956,5132.839837
810.865539,3182.885551,-8956.491898,5056.230287
810.865863,1998.556043,-9992.780217,5056.230287
810.866187,2516.700203,-10807.006753,4519.963438
810.866511,3256.906145,-9770.718434,4060.306139
810.866835,3256.906145,-7698.141797,1532.190996
810.867159,1554.432478,-5773.606348,-1455.581446
810.867484,-1480.411884,-7550.100608,-2757.943793
810.867808,-4071.132681,-9326.594869,-3753.867940
810.868132,-4885.359217,-8068.244768,-4596.572988
810.868456,-6069.688724,-7254.018232,-2374.896044
810.868780,-5255.462188,-7179.997637,-1149.143247
810.869104,-2590.720797,-8512.368333,-1455.581446
810.869428,-222.061783,-9918.759623,-766.095498
810.869753,1554.432478,-9770.718434,1149.143247
810.870077,2516.700203,-10362.883188,1991.848295
810.870401,3034.844362,-10881.027347,1608.800546
810.870725,2960.823768,-10214.842000,3140.991542
810.871049,4071.132681,-10584.944971,3294.210641
810.871373,4737.318029,-11325.150913,1608.800546
810.871697,3997.112087,-10214.842000,-1608.800546
810.872022,2294.638420,-7254.018232,-5209.449386
810.872346,-740.205942,-8438.347739,-6052.154434
810.872670,-2368.659014,-11695.253884,-6128.763984
810.872994,-2072.576638,-11843.295072,-7431.126331
810.873318,-3701.029710,-10658.965565,-5209.449386
810.873642,-3923.091493,-10658.965565,-4060.306139
810.873966,-2590.720797,-11695.253884,-5056.230287
810.874291,-2072.576638,-12139.377449,-4826.401637
810.874615,-962.267725,-11251.130318,-2068.457845
810.874939,2146.597232,-11251.130318,-612.876398
810.875263,2812.782580,-11399.171507,-1149.143247
810.875587,2368.659014,-11695.253884,995.924147
810.875911,3923.091493,-12361.439231,2451.505594
810.876235,6365.771101,-12583.501014,1378.971896
810.876560,5329.482782,-11769.274478,153.219100
810.876884,2220.617826,-7624.121203,-4749.792088
810.877208,-740.205942,-6069.688724,-7737.564530
810.877532,-4219.173869,-11547.212695,-6665.030833
810.877856,-3478.967927,-13619.789333,-6894.859482
810.878180,-1850.514855,-11473.192101,-5592.497135
810.878504,-2590.720797,-9844.739029,-2068.457845
810.878829,-1036.288319,-9326.594869,-2451.505594
810.879153,-370.102971,-9696.697840,-2451.505594
810.879477,-740.205942,-9252.574275,-1149.143247
810.879801,296.082377,-7920.203579,919.314598
810.880125,2072.576638,-9696.697840,919.314598
810.880449,1332.370696,-10955.047942,3217.601092
810.880773,2812.782580,-9844.739029,5132.839837
810.881098,5477.523971,-8734.430116,3753.867940
810.881422,4145.153275,-8660.409521,2987.772442
810.881746,666.185348,-7772.162391,-919.314598
810.882070,-2220.617826,-4811.338623,-4290.134789
810.882394,-4811.338623,-6735.874072,-3370.820191
810.882718,-4589.276840,-10584.944971,-2221.676944
810.883042,-1850.514855,-10140.821405,-1378.971896
810.883367,-2146.597232,-9918.759623,1072.533697
810.883691,-2368.659014,-9252.574275,1455.581446
810.884015,-1406.391290,-8808.450710,536.266849
810.884339,-1406.391290,-9400.615463,1838.629195
810.884663,-444.123565,-7846.182985,3524.039291
810.884987,1184.329507,-8808.450710,3753.867940
810.885311,1258.350101,-11325.150913,4826.401637
810.885636,1628.453072,-10510.924376,6358.592633
810.885960,3404.947333,-9104.533087,5669.106685
810.886284,3108.864956,-9400.615463,4903.011187
810.886608,962.267725,-9252.574275,2298.286494
810.886932,-1702.473667,-6809.894666,-1991.848295
810.887256,-4663.297435,-6513.812290,-1762.019645
810.887580,-5551.544565,-11103.089130,0.000000
810.887905,-3997.112087,-11843.295072,-383.047749
810.888229,-2516.700203,-10955.047942,1302.362347
810.888553,-2960.823768,-10066.800811,3600.648841
810.888877,-666.185348,-9178.553681,2145.067394
810.889201,444.123565,-10214.842000,2604.724693
810.889525,518.144159,-10140.821405,3830.477490
810.889849,1406.391290,-9178.553681,4903.011187
810.890174,2146.597232,-9696.697840,5209.449386
810.890498,962.267725,-9770.718434,6205.373534
810.890822,2368.659014,-8438.347739,4979.620737
810.891146,2886.803174,-7920.203579,2068.457845
810.891470,1036.288319,-8734.430116,-766.095498
810.891794,-1702.473667,-10436.903782,-1378.971896
810.892118,-2072.576638,-9844.739029,-2068.457845
810.892443,-2146.597232,-8068.244768,-1838.629195
810.892767,-2516.700203,-8808.450710,766.095498
810.893091,-1924.535449,-8956.491898,229.828649
810.893415,-518.144159,-9992.780217,-459.657299
810.893739,740.205942,-10066.800811,766.095498
810.894063,2516.700203,-8956.491898,2757.943793
810.894387,3256.906145,-9326.594869,3217.601092
810.894712,1702.473667,-9178.553681,2757.943793
810.895036,-518.144159,-8660.409521,2757.943793
810.895360,-370.102971,-9992.780217,2604.724693
810.895684,666.185348,-10436.903782,995.924147
810.896008,888.247130,-9400.615463,-1915.238745
810.896332,148.041188,-9178.553681,-3140.991542
810.896656,0.000000,-10066.800811,-4213.525239
810.896981,-814.226536,-10436.903782,-5592.497135
810.897305,-2664.741391,-9178.553681,-4443.353888
810.897629,-3108.864956,-9030.512492,-3600.648841
810.897953,-1406.391290,-9918.759623,-3677.258390
810.898277,148.041188,-10658.965565,-3217.601092
810.898601,1554.432478,-10436.903782,-1378.971896
810.898925,3923.091493,-10510.924376,0.000000
810.899250,3552.988522,-10807.006753,0.000000
810.899574,1184.329507,-9030.512492,-459.657299
810.899898,-1184.329507,-7994.224174,306.438199
810.900222,222.061783,-10658.965565,612.876398
810.900546,2590.720797,-12361.439231,-612.876398
810.900870,3256.906145,-10658.965565,-1838.629195
810.901195,1924.535449,-6957.935855,-5975.544884
810.901519,-1258.350101,-8586.388927,-6818.249932
810.901843,-3552.988522,-12287.418637,-6281.983084
810.902167,-3034.844362,-11843.295072,-7584.345430
810.902491,-3627.009116,-10584.944971,-4519.963438
810.902815,-2664.741391,-10510.924376,-3370.820191
810.903139,-296.082377,-11695.253884,-3217.601092
810.903464,1924.535449,-12065.356855,-2451.505594
810.903788,3701.029710,-10362.883188,-1072.533697
810.904112,4219.173869,-9844.739029,153.219100
810.904436,2072.576638,-10955.047942,-459.657299
810.904760,-370.102971,-11399.171507,2068.457845
810.905084,962.267725,-11251.130318,3217.601092
810.905408,2664.741391,-11251.130318,1685.410096
810.905733,1924.535449,-10510.924376,689.485948
810.906057,74.020594,-7105.977043,-2528.115143
810.906381,-1184.329507,-4293.194464,-5898.935335
810.906705,-4441.235652,-7698.141797,-4366.744339
810.907029,-4589.276840,-10658.965565,-2451.505594
810.907353,-2368.659014,-9844.739029,-1685.410096
810.907677,-2812.782580,-9030.512492,-229.828649
810.908002,-2146.597232,-8290.306550,612.876398
810.908326,0.000000,-8882.471304,-229.828649
810.908650,888.247130,-9400.615463,1302.362347
810.908974,1406.391290,-9400.615463,3370.820191
810.909298,1776.494261,-9178.553681,3370.820191
810.909622,592.164754,-10066.800811,4826.401637
810.909946,222.061783,-9622.677246,5669.106685
810.910271,1702.473667,-9030.512492,4749.792088
810.910595,2146.597232,-9474.636058,4060.306139
810.910919,962.267725,-9548.656652,1608.800546
810.911243,-1036.288319,-6883.915261,-1532.190996
810.911567,-3404.947333,-6439.791695,-1455.581446
810.911891,-4515.256246,-9178.553681,-459.657299
810.912215,-3182.885551,-10288.862594,-919.314598
810.912540,-2664.741391,-10436.903782,536.266849
810.912864,-2664.741391,-9696.697840,2298.286494
810.913188,-296.082377,-9030.512492,1302.362347
810.913512,888.247130,-9622.677246,1838.629195
810.913836,1184.329507,-9696.697840,4136.915689
810.914160,1850.514855,-9770.718434,4903.011187
810.914484,1702.473667,-10214.842000,4290.134789
810.914809,148.041188,-10214.842000,5669.106685
810.915133,1332.370696,-9622.677246,5745.716235
810.915457,2886.803174,-9992.780217,4290.134789
810.915781,1702.473667,-9622.677246,2068.457845
810.916105,-962.267725,-8364.327145,-1608.800546
810.916429,-3330.926739,-8808.450710,-919.314598
810.916753,-3034.844362,-10214.842000,-1838.629195
810.917078,-2590.720797,-10658.965565,-1762.019645
810.917402,-2664.741391,-9770.718434,919.314598
810.917726,-962.267725,-9770.718434,612.876398
810.918050,222.061783,-10066.800811,0.000000
810.918374,962.267725,-10066.800811,1378.971896
810.918698,1480.411884,-8808.450710,2681.334243
810.919022,2146.597232,-9474.636058,3140.991542
810.919347,1406.391290,-9844.739029,3370.820191
810.919671,444.123565,-9770.718434,4519.963438
810.919995,1258.350101,-9326.594869,3524.039291
810.920319,1998.556043,-9178.553681,995.924147
810.920643,666.185348,-9696.697840,-919.314598
810.920967,-814.226536,-10066.800811,-1685.410096
810.921291,0.000000,-9474.636058,-3370.820191
810.921616,-1184.329507,-8438.347739,-3294.210641
810.921940,-2368.659014,-7772.162391,-1838.629195
810.922264,-1258.350101,-8290.306550,-1915.238745
810.922588,296.082377,-9844.739029,-2757.943793
810.922912,814.226536,-10066.800811,-1762.019645
810.923236,1850.514855,-8438.347739,0.000000
810.923560,2664.741391,-8734.430116,229.828649
810.923885,1924.535449,-8956.491898,842.705048
810.924209,-370.102971,-9252.574275,1302.362347
810.924533,-518.144159,-8956.491898,842.705048
810.924857,296.082377,-9400.615463,-306.438199
810.925181,814.226536,-10288.862594,-1608.800546
810.925505,814.226536,-10362.883188,-2987.772442
810.925829,222.061783,-9770.718434,-4290.134789
810.926154,-1406.391290,-9770.718434,-4979.620737
810.926478,-3404.947333,-9918.759623,-5209.449386
810.926802,-3478.967927,-9844.739029,-4749.792088
810.927126,-1628.453072,-10288.862594,-4213.525239
810.927450,222.061783,-11399.171507,-3140.991542
810.927774,2368.659014,-12139.377449,-2374.896044
810.928098,3627.009116,-11473.192101,-1378.971896
810.928423,2664.741391,-11029.068536,-995.924147
810.928747,0.000000,-11177.109724,-612.876398
810.929071,-1924.535449,-10066.800811,-612.876398
810.929395,-1628.453072,-10807.006753,0.000000
810.929719,444.123565,-11695.253884,-536.266849
810.930043,2294.638420,-11399.171507,-2834.553343
810.930367,1332.370696,-10584.944971,-3907.087040
810.930692,0.000000,-10955.047942,-4596.572988
810.931016,-962.267725,-11399.171507,-4903.011187
810.931340,-2590.720797,-10584.944971,-4903.011187
810.931664,-2960.823768,-9770.718434,-3524.039291
810.931988,-1258.350101,-10362.883188,-2528.115143
810.932312,1776.494261,-11399.171507,-1915.238745
810.932636,3923.091493,-11325.150913,0.000000
810.932961,4959.379811,-10362.883188,1838.629195
810.933285,4367.215058,-10214.842000,2145.067394
810.933609,518.144159,-9030.512492,1915.238745
810.933933,-1776.494261,-8068.244768,2374.896044
810.934257,-2146.597232,-8586.388927,2834.553343
810.934581,-444.123565,-10066.800811,2145.067394
810.934905,518.144159,-9252.574275,459.657299
810.935230,0.000000,-6513.812290,-612.876398
810.935554,-1554.432478,-7105.977043,-1149.143247
810.935878,-3182.885551,-8734.430116,-2451.505594
810.936202,-3849.070898,-8586.388927,-1149.143247
810.936526,-4293.194464,-7550.100608,383.047749
810.936850,-2442.679609,-7698.141797,1225.752797
810.937174,592.164754,-9474.636058,1991.848295
810.937499,3034.844362,-9992.780217,3524.039291
810.937823,4811.338623,-9474.636058,4443.353888
810.938147,4441.235652,-9474.636058,4826.401637
810.938471,1110.308913,-9326.594869,4826.401637
810.938795,-2590.720797,-8660.409521,4903.011187
810.939119,-2738.761985,-8734.430116,4903.011187
810.939444,-1628.453072,-9696.697840,4060.306139
810.939768,-370.102971,-9992.780217,3140.991542
810.940092,444.123565,-7994.224174,1532.190996
810.940416,222.061783,-7179.997637,-536.266849
810.940740,-2072.576638,-8068.244768,-612.876398
810.941064,-3478.967927,-9770.718434,-995.924147
810.941388,-3182.885551,-9770.718434,-1225.752797
810.941713,-3108.864956,-10066.800811,536.266849
810.942037,-1110.308913,-10140.821405,1072.533697
810.942361,1998.556043,-10584.944971,1685.410096
810.942685,4441.235652,-11103.089130,2911.162892
810.943009,4811.338623,-10955.047942,3677.258390
810.943333,3701.029710,-10881.027347,3983.696590
810.943657,1924.535449,-9696.697840,3830.477490
810.943982,148.041188,-9104.533087,3983.696590
810.944306,0.000000,-9622.677246,3370.820191
810.944630,0.000000,-9696.697840,919.314598
810.944954,-222.061783,-9548.656652,-1608.800546
810.945278,-1406.391290,-9178.553681,-2145.067394
810.945602,-1998.556043,-9030.512492,-3447.429741
810.945926,-2368.659014,-9104.533087,-4213.525239
810.946251,-3627.009116,-8882.471304,-2911.162892
810.946575,-2664.741391,-9252.574275,-1532.190996
810.946899,222.061783,-10732.986159,-1302.362347
810.947223,2146.597232,-11399.171507,-612.876398
810.947547,3108.864956,-11177.109724,1532.190996
810.947871,4145.153275,-11029.068536,1991.848295
810.948195,3330.926739,-11251.130318,1685.410096
810.948520,1036.288319,-9770.718434,2298.286494
810.948844,-222.061783,-9400.615463,1991.848295
810.949168,592.164754,-10066.800811,1532.190996
810.949492,1480.411884,-10066.800811,-229.828649
810.949816,1036.288319,-8142.265362,-2298.286494
810.950140,0.000000,-7402.059420,-3753.867940
810.950464,-1998.556043,-8734.430116,-4903.011187
810.950788,-3108.864956,-8956.491898,-5592.497135
810.951113,-3775.050304,-8364.327145,-4749.792088
810.951437,-3034.844362,-8290.306550,-3294.210641
810.951761,-740.205942,-9696.697840,-3140.991542
810.952085,1406.391290,-11029.068536,-2298.286494
810.952409,3034.844362,-10288.862594,-383.047749
810.952733,3849.070898,-10288.862594,229.828649
810.953057,2590.720797,-10658.965565,919.314598
810.953381,518.144159,-9770.718434,995.924147
810.953706,148.041188,-9178.553681,995.924147
810.954030,1480.411884,-9696.697840,995.924147
810.954354,2220.617826,-11029.068536,-153.219100
810.954678,1628.453072,-10362.883188,-2604.724693
810.955002,-518.144159,-8956.491898,-3753.867940
810.955326,-2960.823768,-9548.656652,-5056.230287
810.955650,-4219.173869,-10214.842000,-5362.668486
810.955974,-4885.359217,-9770.718434,-4596.572988
810.956299,-3997.112087,-10066.800811,-2604.724693
810.956623,-1480.411884,-11029.068536,-2681.334243
810.956947,444.123565,-11325.150913,-1608.800546
810.957271,2294.638420,-10362.883188,76.609550
810.957595,3108.864956,-10881.027347,919.314598
810.957919,1480.411884,-10436.903782,1072.533697
810.958243,-888.247130,-10066.800811,1685.410096
810.958567,-518.144159,-10881.027347,2681.334243
810.958892,2368.659014,-11843.295072,2681.334243
810.959216,3849.070898,-11473.192101,2451.505594
810.959540,3330.926739,-9474.636058,1378.971896
810.959864,1480.411884,-6365.771101,-2451.505594
810.960188,-2590.720797,-7624.121203,-3677.258390
810.960512,-5847.626942,-10510.924376,-2911.162892
810.960836,-4441.235652,-10140.821405,-2911.162892
810.961160,-2812.782580,-9992.780217,-1225.752797
810.961485,-1702.473667,-9474.636058,383.047749
810.961809,666.185348,-9474.636058,153.219100
810.962133,2812.782580,-10214.842000,995.924147
810.962457,2738.761985,-10066.800811,2298.286494
810.962781,2146.597232,-9400.615463,3677.258390
810.963105,1850.514855,-9326.594869,3524.039291
810.963429,296.082377,-9030.512492,4979.620737
810.963753,518.144159,-8956.491898,5132.839837
810.964078,2072.576638,-9548.656652,3447.429741
810.964402,1628.453072,-9400.615463,1455.581446
810.964726,-296.082377,-8068.244768,-229.828649
810.965050,-2368.659014,-7772.162391,-919.314598
810.965374,-3256.906145,-8808.450710,-766.095498
810.965698,-3849.070898,-8290.306550,-1378.971896
810.966022,-4219.173869,-8068.244768,0.000000
810.966346,-2886.803174,-8882.471304,306.438199
810.966671,-222.061783,-9474.636058,306.438199
810.966995,1332.370696,-9548.656652,2298.286494
810.967319,2664.741391,-8882.471304,3753.867940
810.967643,2886.803174,-8586.388927,3294.210641
810.967967,1628.453072,-9326.594869,3830.477490
810.968291,-148.041188,-9474.636058,4060.306139
810.968615,518.144159,-9326.594869,4213.525239
810.968939,2294.638420,-9918.759623,3294.210641
810.969264,2516.700203,-9770.718434,2298.286494
810.969588,1628.453072,-8068.244768,-153.219100
810.969912,-1702.473667,-8364.327145,-2451.505594
810.970236,-3923.091493,-9548.656652,-2145.067394
810.970560,-4441.235652,-9992.780217,-4290.134789
810.970884,-3627.009116,-9770.718434,-2145.067394
810.971208,-2146.597232,-10066.800811,-1302.362347
810.971532,296.082377,-10732.986159,-766.095498
810.971857,1924.535449,-10955.047942,0.000000
810.972181,3034.844362,-10140.821405,1072.533697
810.972505,2886.803174,-10066.800811,2145.067394
810.972829,2072.576638,-10214.842000,1378.971896
810.973153,962.267725,-9770.718434,2451.505594
810.973477,1776.494261,-9474.636058,2987.772442
810.973801,2664.741391,-9844.739029,1608.800546
810.974125,2220.617826,-9844.739029,-1378.971896
810.974450,74.020594,-9400.615463,-3140.991542
810.974774,-2368.659014,-8660.409521,-4519.963438
810.975098,-2664.741391,-9178.553681,-4826.401637
810.975422,-3775.050304,-9252.574275,-4903.011187
810.975746,-3552.988522,-8882.471304,-2757.943793
810.976070,-1406.391290,-10066.800811,-2604.724693
810.976394,370.102971,-11177.109724,-2757.943793
810.976718,1332.370696,-10658.965565,-536.266849
810.977043,2294.638420,-10288.862594,612.876398
810.977367,1850.514855,-10510.924376,1072.533697
810.977691,222.061783,-10362.883188,536.266849
810.978015,-740.205942,-10066.800811,1302.362347
810.978339,518.144159,-9992.780217,1685.410096
810.978663,2664.741391,-11547.212695,1072.533697
810.978987,2812.782580,-10140.821405,-612.876398
810.979311,1628.453072,-7328.038826,-3677.258390
810.979636,-1850.514855,-8438.347739,-4673.182538
810.979960,-3775.050304,-10510.924376,-4979.620737
810.980284,-4145.153275,-10732.986159,-5362.668486
810.980608,-3478.967927,-10066.800811,-3217.601092
810.980932,-1406.391290,-10288.862594,-1762.019645
810.981256,1258.350101,-11177.109724,-1762.019645
810.981580,3108.864956,-11251.130318,-536.266849
810.981904,4293.194464,-10362.883188,1149.143247
810.982229,3478.967927,-10510.924376,1685.410096
810.982553,1776.494261,-10584.944971,2298.286494
810.982877,518.144159,-9844.739029,2604.724693
810.983201,1184.329507,-9400.615463,3294.210641
810.983525,2812.782580,-9918.759623,1915.238745
810.983849,2072.576638,-9548.656652,-1685.410096
810.984173,-962.267725,-9030.512492,-2681.334243
810.984497,-3627.009116,-9400.615463,-3983.696590
810.984822,-4589.276840,-10658.965565,-4673.182538
810.985146,-5107.421000,-9400.615463,-3370.820191
810.985470,-4885.359217,-9104.533087,-995.924147
810.985794,-2146.597232,-9992.780217,-766.095498
810.986118,518.144159,-11029.068536,-229.828649
810.986442,1924.535449,-10288.862594,2374.896044
810.986766,3552.988522,-9326.594869,3064.381992
810.987090,2738.761985,-9474.636058,3294.210641
810.987415,444.123565,-10658.965565,3370.820191
810.987739,-1184.329507,-9622.677246,4826.401637
810.988063,444.123565,-9474.636058,4060.306139
810.988387,1480.411884,-9622.677246,3294.210641
810.988711,1258.350101,-8142.265362,1685.410096
810.989035,518.144159,-5625.565159,-2451.505594
810.989359,-2886.803174,-7105.977043,-2451.505594
810.989683,-4441.235652,-9918.759623,-1991.848295
810.990008,-4071.132681,-9178.553681,-2987.772442
810.990332,-3849.070898,-8364.327145,-153.219100
810.990656,-2368.659014,-8438.347739,995.924147
810.990980,518.144159,-9252.574275,689.485948
810.991304,2960.823768,-10436.903782,2221.676944
810.991628,4589.276840,-9474.636058,3753.867940
810.991952,5107.421000,-9474.636058,4136.915689
810.992276,3182.885551,-9992.780217,4290.134789
810.992601,518.144159,-9474.636058,4903.011187
810.992925,444.123565,-9030.512492,4673.182538
810.993249,740.205942,-10214.842000,2604.724693
810.993573,-592.164754,-9696.697840,-1225.752797
810.993897,-2072.576638,-9400.615463,-2298.286494
810.994221,-3182.885551,-10140.821405,-2451.505594
810.994545,-2294.638420,-10732.986159,-3677.258390
810.994869,-3404.947333,-9252.574275,-3294.210641
810.995194,-4071.132681,-8290.306550,-995.924147
810.995518,-1924.535449,-9622.677246,-1532.190996
810.995842,222.061783,-10807.006753,-1072.533697
810.996166,2664.741391,-10807.006753,1072.533697
810.996490,4663.297435,-10066.800811,2374.896044
810.996814,4515.256246,-10584.944971,2834.553343
810.997138,1628.453072,-10658.965565,2681.334243
810.997462,-888.247130,-9696.697840,2911.162892
810.997787,148.041188,-9992.780217,2528.115143
810.998111,962.267725,-11103.089130,1225.752797
810.998435,888.247130,-9918.759623,-1685.410096
810.998759,296.082377,-8068.244768,-3983.696590
810.999083,-1776.494261,-9030.512492,-3677.258390
810.999407,-3034.844362,-10584.944971,-5592.497135
810.999731,-3849.070898,-9696.697840,-4903.011187
811.000055,-4145.153275,-8364.327145,-2834.553343
811.000380,-2220.617826,-9326.594869,-2834.553343
811.000704,222.061783,-10955.047942,-2221.676944
811.001028,3108.864956,-10214.842000,-153.219100
811.001352,5625.565159,-9992.780217,1225.752797
811.001676,5255.462188,-10807.006753,1685.410096
811.002000,1628.453072,-10066.800811,1991.848295
811.002324,0.000000,-8512.368333,2451.505594
811.002648,74.020594,-9400.615463,2374.896044
811.002973,518.144159,-10807.006753,306.438199
811.003297,148.041188,-9696.697840,-2374.896044
811.003621,-666.185348,-7846.182985,-3217.601092
811.003945,-1702.473667,-8660.409521,-4749.792088
811.004269,-2664.741391,-9696.697840,-5822.325785
811.004593,-3701.029710,-8142.265362,-4213.525239
811.004917,-3034.844362,-7846.182985,-2451.505594
811.005241,-666.185348,-9548.656652,-2298.286494
811.005566,1702.473667,-11029.068536,-1532.190996
811.005890,3552.988522,-10066.800811,842.705048
811.006214,4589.276840,-9992.780217,2145.067394
811.006538,3330.926739,-11325.150913,1838.629195
811.006862,148.041188,-10955.047942,1762.019645
811.007186,-1998.556043,-9696.697840,2604.724693
811.007510,-814.226536,-10362.883188,2298.286494
811.007834,444.123565,-11325.150913,1378.971896
811.008158,666.185348,-9696.697840,-153.219100
811.008483,74.020594,-6587.832884,-2987.772442
811.008807,-2516.700203,-8808.450710,-3140.991542
811.009131,-4959.379811,-9918.759623,-3830.477490
811.009455,-4441.235652,-9696.697840,-3830.477490
811.009779,-4071.132681,-9326.594869,-1991.848295
811.010103,-2368.659014,-9770.718434,-995.924147
811.010427,814.226536,-10658.965565,-383.047749
811.010751,3775.050304,-11325.150913,1838.629195
811.011076,5033.400406,-11029.068536,2757.943793
811.011400,4145.153275,-10955.047942,3524.039291
811.011724,1776.494261,-10288.862594,2604.724693
811.012048,-740.205942,-9030.512492,3753.867940
811.012372,-962.267725,-9326.594869,3907.087040
811.012696,148.041188,-10214.842000,2451.505594
811.013020,148.041188,-9252.574275,383.047749
811.013344,-592.164754,-8068.244768,-1302.362347
811.013669,-2220.617826,-8734.430116,-1991.848295
811.013993,-2812.782580,-9178.553681,-2757.943793
811.014317,-3552.988522,-8956.491898,-2298.286494
811.014641,-3775.050304,-8216.285956,-153.219100
811.014965,-1554.432478,-9326.594869,-153.219100
811.015289,1036.288319,-10066.800811,536.266849
811.015613,3256.906145,-9918.759623,2451.505594
811.015937,5181.441594,-9696.697840,3753.867940
811.016262,4441.235652,-10732.986159,3677.258390
811.016586,1110.308913,-10436.903782,3294.210641
811.016910,-1184.329507,-9252.574275,3907.087040
811.017234,-1036.288319,-9178.553681,3753.867940
811.017558,-148.041188,-9844.739029,2298.286494
811.017882,-222.061783,-9474.636058,-306.438199
811.018206,-888.247130,-8364.327145,-919.314598
811.018530,-1036.288319,-9400.615463,-1762.019645
811.018855,-1554.432478,-9474.636058,-3294.210641
811.019179,-2812.782580,-7994.224174,-2451.505594
811.019503,-3034.844362,-7698.141797,-1072.533697
811.019827,-814.226536,-9104.533087,-919.314598
811.020151,1480.411884,-10732.986159,-612.876398
811.020475,3849.070898,-10510.924376,1608.800546
811.020799,5551.544565,-10214.842000,2374.896044
811.021123,4515.256246,-10807.006753,2221.676944
811.021448,1406.391290,-10584.944971,2451.505594
811.021772,-592.164754,-9178.553681,2451.505594
811.022096,-814.226536,-9252.574275,2145.067394
811.022420,-666.185348,-10510.924376,536.266849
811.022744,-444.123565,-10288.862594,-1149.143247
811.023068,-296.082377,-9252.574275,-2374.896044
811.023392,-444.123565,-9696.697840,-2757.943793
811.023716,-1998.556043,-9844.739029,-3677.258390
811.024041,-3627.009116,-8660.409521,-3830.477490
811.024365,-3330.926739,-8438.347739,-3064.381992
811.024689,-1776.494261,-9548.656652,-2298.286494
811.025013,592.164754,-11029.068536,-1378.971896
811.025337,3034.844362,-11029.068536,0.000000
811.025661,4441.235652,-10955.047942,1072.533697
811.025985,2960.823768,-10807.006753,1302.362347
811.026309,222.061783,-10066.800811,842.705048
811.026634,-2294.638420,-9252.574275,1302.362347
811.026958,-1850.514855,-9696.697840,1225.752797
811.027282,-444.123565,-10807.006753,842.705048
811.027606,814.226536,-9770.718434,-306.438199
811.027930,1184.329507,-7698.141797,-2374.896044
811.028254,-666.185348,-7994.224174,-3140.991542
811.028578,-2516.700203,-9548.656652,-3983.696590
811.028902,-3330.926739,-9178.553681,-4366.744339
811.029227,-3552.988522,-8660.409521,-2528.115143
811.029551,-1850.514855,-9326.594869,-1685.410096
811.029875,1258.350101,-10510.924376,-1378.971896
811.030199,3182.885551,-10807.006753,383.047749
811.030523,4145.153275,-10510.924376,612.876398
811.030847,3404.947333,-10436.903782,1991.848295
811.031171,1406.391290,-10288.862594,1455.581446
811.031495,-740.205942,-8956.491898,2221.676944
811.031820,-518.144159,-8586.388927,2374.896044
811.032144,518.144159,-9548.656652,459.657299
811.032468,518.144159,-9918.759623,-766.095498
811.032792,-296.082377,-9622.677246,-1149.143247
811.033116,-1184.329507,-9622.677246,-1455.581446
811.033440,-1998.556043,-9622.677246,-2451.505594
811.033764,-3330.926739,-8956.491898,-1608.800546
811.034088,-3404.947333,-8512.368333,-1225.752797
811.034413,-1184.329507,-9474.636058,-1149.143247
811.034737,962.267725,-10288.862594,-383.047749
811.035061,2664.741391,-10066.800811,1685.410096
811.035385,4219.173869,-9696.697840,2604.724693
811.035709,3256.906145,-9622.677246,2451.505594
811.036033,370.102971,-9178.553681,2374.896044
811.036357,-2664.741391,-8290.306550,2145.067394
811.036681,-2442.679609,-9252.574275,1838.629195
811.037006,-1110.308913,-10288.862594,1302.362347
811.037330,148.041188,-9770.718434,459.657299
811.037654,444.123565,-9030.512492,-306.438199
811.037978,0.000000,-9770.718434,-1072.533697
811.038302,-1702.473667,-9770.718434,-1915.238745
811.038626,-3034.844362,-9400.615463,-2221.676944
811.038950,-3478.967927,-8956.491898,-1455.581446
811.039274,-1850.514855,-9992.780217,-919.314598
811.039599,888.247130,-11029.068536,229.828649
811.039923,3404.947333,-11177.109724,1378.971896
811.040247,4441.235652,-10807.006753,1685.410096
811.040571,3182.885551,-10658.965565,2068.457845
811.040895,518.144159,-9992.780217,1608.800546
811.041219,-1776.494261,-9474.636058,1991.848295
811.041543,-1480.411884,-9400.615463,2068.457845
811.041867,-814.226536,-9770.718434,689.485948
811.042192,0.000000,-9918.759623,-536.266849
811.042516,592.164754,-9400.615463,-1225.752797
811.042840,518.144159,-9474.636058,-1915.238745
811.043164,-518.144159,-9104.533087,-1915.238745
811.043488,-1184.329507,-8734.430116,-1838.629195
811.043812,-1998.556043,-8290.306550,-1225.752797
811.044136,-666.185348,-8956.491898,-919.314598
811.044460,1184.329507,-9992.780217,-153.219100
811.044785,3108.864956,-10140.821405,842.705048
811.045109,4145.153275,-10066.800811,1685.410096
811.045433,3034.844362,-9474.636058,1685.410096
811.045757,592.164754,-9326.594869,1915.238745
811.046081,-2072.576638,-8216.285956,1685.410096
811.046405,-2368.659014,-9030.512492,1608.800546
811.046729,-1702.473667,-9548.656652,1149.143247
811.047053,74.020594,-9770.718434,0.000000
811.047378,962.267725,-9104.533087,-842.705048
811.047702,370.102971,-8808.450710,-919.314598
811.048026,-1036.288319,-10066.800811,-1685.410096
811.048350,-2442.679609,-9326.594869,-2451.505594
811.048674,-3034.844362,-8808.450710,-1532.190996
811.048998,-2072.576638,-8956.491898,-1378.971896
811.049322,444.123565,-10066.800811,-919.314598
811.049646,2738.761985,-11103.089130,383.047749
811.049971,3997.112087,-10955.047942,1685.410096
811.050295,3404.947333,-10362.883188,1455.581446
811.050619,518.144159,-9400.615463,1608.800546
811.050943,-1850.514855,-8660.409521,1302.362347
811.051267,-2368.659014,-8734.430116,1225.752797
811.051591,-1258.350101,-9548.656652,459.657299
811.051915,0.000000,-10140.821405,0.000000
811.052239,444.123565,-9844.739029,-1225.752797
811.052563,74.020594,-9622.677246,-1762.019645
811.052887,-1110.308913,-9178.553681,-1991.848295
811.053211,-2368.659014,-9252.574275,-2451.505594
811.053535,-3256.906145,-8956.491898,-2604.724693
811.053859,-2368.659014,-9622.677246,-1762.019645
811.054183,0.000000,-11177.109724,-689.485948
811.054507,2442.679609,-11621.233289,-306.438199
811.054831,3701.029710,-11325.150913,919.314598
811.055155,2590.720797,-10732.986159,1149.143247
811.055479,222.061783,-10436.903782,1608.800546
811.055803,-1924.535449,-9696.697840,1072.533697
811.056127,-2220.617826,-9622.677246,1378.971896
811.056451,-444.123565,-10362.883188,1302.362347
811.056775,1184.329507,-10732.986159,229.828649
811.057099,1776.494261,-10066.800811,-229.828649
811.057423,296.082377,-9474.636058,-1378.971896
811.057747,-1480.411884,-9696.697840,-2374.896044
811.058072,-2886.803174,-9474.636058,-2528.115143
811.058396,-3182.885551,-8734.430116,-2451.505594
811.058720,-1850.514855,-8808.450710,-1455.581446
811.059044,666.185348,-9992.780217,-306.438199
811.059368,3330.926739,-10658.965565,229.828649
811.059692,4589.276840,-9844.739029,1378.971896
811.060016,3701.029710,-9400.615463,1685.410096
811.060340,1554.432478,-9252.574275,2068.457845
811.060664,-592.164754,-8956.491898,2145.067394
811.060988,-1036.288319,-8512.368333,2451.505594
811.061312,-222.061783,-9030.512492,1915.238745
811.061636,740.205942,-9918.759623,76.609550
811.061960,592.164754,-9326.594869,-689.485948
811.062284,-148.041188,-8734.430116,-1455.581446
811.062608,-1332.370696,-8882.471304,-1991.848295
811.062932,-3108.864956,-8512.368333,-2298.286494
811.063256,-3701.029710,-8216.285956,-1991.848295
811.063580,-2368.659014,-8882.471304,-1149.143247
811.063904,-222.061783,-9992.780217,-383.047749
811.064228,2368.659014,-10436.903782,842.705048
811.064552,2960.823768,-9992.780217,1915.238745
811.064876,3182.885551,-9844.739029,2374.896044
811.065200,1036.288319,-9770.718434,2451.505594
811.065524,-814.226536,-9252.574275,2068.457845
811.065848,-1480.411884,-9104.533087,2298.286494
811.066172,-740.205942,-9622.677246,1762.019645
811.066497,592.164754,-9844.739029,612.876398
811.066821,1258.350101,-9400.615463,-766.095498
811.067145,296.082377,-9252.574275,-1455.581446
811.067469,-1406.391290,-9696.697840,-3064.381992
811.067793,-2812.782580,-10214.842000,-3064.381992
811.068117,-3627.009116,-8956.491898,-2681.334243
811.068441,-2516.700203,-9178.553681,-1915.238745
811.068765,0.000000,-10584.944971,-995.924147
811.069089,2590.720797,-11177.109724,229.828649
811.069413,4367.215058,-11103.089130,1455.581446
811.069737,4145.153275,-10955.047942,1915.238745
811.070061,2072.576638,-10584.944971,1762.019645
811.070385,-518.144159,-9770.718434,1915.238745
811.070709,-1184.329507,-9400.615463,1838.629195
811.071033,0.000000,-10066.800811,1302.362347
811.071357,814.226536,-10658.965565,459.657299
811.071681,888.247130,-9992.780217,-1225.752797
811.072005,222.061783,-9474.636058,-2298.286494
811.072329,-1036.288319,-9474.636058,-2987.772442
811.072653,-3034.844362,-9400.615463,-3064.381992
811.072977,-3701.029710,-9104.533087,-2451.505594
811.073301,-2812.782580,-8882.471304,-1915.238745
811.073625,-296.082377,-9918.759623,-1072.533697
811.073949,2664.741391,-10658.965565,612.876398
811.074273,3997.112087,-10288.862594,1915.238745
811.074597,3701.029710,-10288.862594,2221.676944
811.074922,1554.432478,-9474.636058,2221.676944
811.075246,-1110.308913,-9030.512492,2145.067394
811.075570,-1554.432478,-8660.409521,2068.457845
811.075894,-666.185348,-9104.533087,1838.629195
811.076218,814.226536,-9326.594869,383.047749
811.076542,814.226536,-8512.368333,-766.095498
811.076866,-148.041188,-8438.347739,-1532.190996
811.077190,-1480.411884,-9252.574275,-3370.820191
811.077514,-3182.885551,-8956.491898,-3294.210641
811.077838,-3997.112087,-7994.224174,-2834.553343
811.078162,-2738.761985,-8586.388927,-1915.238745
811.078486,-370.102971,-10436.903782,-766.095498
811.078810,2146.597232,-11103.089130,76.609550
811.079134,3478.967927,-10288.862594,1302.362347
811.079458,3478.967927,-10288.862594,1532.190996
811.079782,1554.432478,-10584.944971,2451.505594
811.080106,-814.226536,-9918.759623,2451.505594
811.080430,-1554.432478,-9770.718434,2604.724693
811.080754,-888.247130,-10732.986159,2528.115143
811.081078,518.144159,-10288.862594,1378.971896
811.081402,1332.370696,-8290.306550,-919.314598
811.081726,-444.123565,-7254.018232,-1685.410096
811.082050,-2664.741391,-9400.615463,-3217.601092
811.082374,-3552.988522,-9918.759623,-3753.867940
811.082698,-3997.112087,-9326.594869,-3217.601092
811.083022,-3404.947333,-9252.574275,-1149.143247
811.083346,-444.123565,-10436.903782,0.000000
811.083671,2516.700203,-11621.233289,0.000000
811.083995,3775.050304,-11251.130318,1302.362347
811.084319,3701.029710,-10658.965565,2681.334243
811.084643,2442.679609,-10955.047942,2451.505594
811.084967,518.144159,-10288.862594,2911.162892
811.085291,-370.102971,-9178.553681,3907.087040
811.085615,740.205942,-9696.697840,3524.039291
811.085939,1554.432478,-10584.944971,2374.896044
811.086263,1332.370696,-8290.306550,-995.924147
811.086587,-444.123565,-6661.853478,-2757.943793
811.086911,-2590.720797,-9030.512492,-2298.286494
811.087235,-3256.906145,-10436.903782,-3524.039291
811.087559,-3627.009116,-9178.553681,-2604.724693
811.087883,-4145.153275,-7698.141797,-153.219100
811.088207,-1628.453072,-8956.491898,-459.657299
811.088531,296.082377,-10658.965565,-306.438199
811.088855,1998.556043,-10510.924376,1225.752797
811.089179,3849.070898,-9474.636058,3064.381992
811.089503,4145.153275,-10510.924376,2681.334243
811.089827,1406.391290,-10584.944971,3217.601092
811.090151,-296.082377,-9030.512492,3753.867940
811.090475,1332.370696,-8882.471304,3370.820191
811.090799,1776.494261,-9844.739029,2145.067394
811.091123,814.226536,-8660.409521,-1685.410096
811.091447,-1258.350101,-7550.100608,-2987.772442
811.091771,-2294.638420,-8956.491898,-3294.210641
811.092096,-2294.638420,-10066.800811,-3907.087040
811.092420,-3478.967927,-8512.368333,-3370.820191
811.092744,-3330.926739,-7920.203579,-995.924147
811.093068,-888.247130,-9326.594869,-1378.971896
811.093392,814.226536,-10658.965565,-995.924147
811.093716,2368.659014,-10214.842000,689.485948
811.094040,3997.112087,-9992.780217,2145.067394
811.094364,3552.988522,-10510.924376,1378.971896
811.094688,592.164754,-10584.944971,1532.190996
811.095012,-518.144159,-9474.636058,2834.553343
811.095336,1036.288319,-10436.903782,2528.115143
811.095660,1110.308913,-11399.171507,919.314598
811.095984,222.061783,-9326.594869,-2834.553343
811.096308,-888.247130,-8142.265362,-4366.744339
811.096632,-1924.535449,-10584.944971,-3907.087040
811.096956,-2960.823768,-11473.192101,-5362.668486
811.097280,-3404.947333,-9400.615463,-3677.258390
811.097604,-3034.844362,-8808.450710,-1991.848295
811.097928,-1406.391290,-10288.862594,-2068.457845
811.098252,592.164754,-11547.212695,-1532.190996
811.098576,2442.679609,-10362.883188,383.047749
811.098900,4367.215058,-10214.842000,2068.457845
811.099224,4441.235652,-11547.212695,1838.629195
811.099548,1184.329507,-10658.965565,2221.676944
811.099872,-222.061783,-9030.512492,3217.601092
811.100196,814.226536,-10066.800811,2451.505594
811.100521,814.226536,-11695.253884,1455.581446
811.100845,148.041188,-9252.574275,-1072.533697
811.101169,-1036.288319,-5921.647536,-4213.525239
811.101493,-3256.906145,-8068.244768,-3524.039291
811.101817,-3997.112087,-10732.986159,-4213.525239
811.102141,-2812.782580,-9326.594869,-3677.258390
811.102465,-3256.906145,-8068.244768,-536.266849
811.102789,-1258.350101,-9104.533087,-229.828649
811.103113,888.247130,-10362.883188,-306.438199
811.103437,2664.741391,-10140.821405,1072.533697
811.103761,4145.153275,-9474.636058,2987.772442
811.104085,3997.112087,-10214.842000,3370.820191
811.104409,1332.370696,-10140.821405,3217.601092
811.104733,-1184.329507,-8956.491898,3907.087040
811.105057,-222.061783,-8882.471304,4443.353888
811.105381,888.247130,-10288.862594,3064.381992
811.105705,666.185348,-9400.615463,842.705048
811.106029,-666.185348,-5625.565159,-3064.381992
811.106353,-3256.906145,-6661.853478,-2604.724693
811.106677,-4367.215058,-9918.759623,-2298.286494
811.107001,-3182.885551,-9696.697840,-3524.039291
811.107325,-3404.947333,-7920.203579,-153.219100
811.107649,-2442.679609,-8660.409521,76.609550
811.107973,444.123565,-10140.821405,0.000000
811.108297,2738.761985,-10658.965565,995.924147
811.108621,3997.112087,-9844.739029,2834.553343
811.108946,4071.132681,-9992.780217,4060.306139
811.109270,2738.761985,-10584.944971,2987.772442
811.109594,-296.082377,-10288.862594,4060.306139
811.109918,-592.164754,-10140.821405,4290.134789
811.110242,0.000000,-10881.027347,2834.553343
811.110566,-962.267725,-10214.842000,-612.876398
811.110890,-2220.617826,-8290.306550,-3677.258390
811.111214,-2960.823768,-8956.491898,-2298.286494
811.111538,-2516.700203,-10436.903782,-3677.258390
811.111862,-2220.617826,-10288.862594,-4060.306139
811.112186,-2738.761985,-8956.491898,-1072.533697
811.112510,-1036.288319,-9844.739029,-995.924147
811.112834,1110.308913,-11029.068536,-1149.143247
811.113158,2590.720797,-11029.068536,612.876398
811.113482,4515.256246,-10214.842000,2757.943793
811.113806,5033.400406,-11843.295072,2757.943793
811.114130,2146.597232,-11843.295072,2145.067394
811.114454,-666.185348,-9474.636058,3370.820191
811.114778,-444.123565,-9030.512492,2681.334243
811.115102,592.164754,-10584.944971,1149.143247
811.115426,-148.041188,-10362.883188,-1532.190996
811.115750,-1332.370696,-9178.553681,-2528.115143
811.116074,-888.247130,-8882.471304,-2451.505594
811.116398,-1036.288319,-9622.677246,-3907.087040
811.116722,-2368.659014,-8586.388927,-2834.553343
811.117046,-2442.679609,-7402.059420,-1149.143247
811.117371,-592.164754,-9178.553681,-1915.238745
811.117695,1110.308913,-10732.986159,-1225.752797
811.118019,3108.864956,-10362.883188,1225.752797
811.118343,5181.441594,-9770.718434,2221.676944
811.118667,3849.070898,-10436.903782,2374.896044
811.118991,370.102971,-9696.697840,1991.848295
811.119315,-1850.514855,-8438.347739,2451.505594
811.119639,-1110.308913,-8808.450710,2145.067394
811.119963,222.061783,-10732.986159,1149.143247
811.120287,518.144159,-9400.615463,-919.314598
811.120611,-222.061783,-7328.038826,-2911.162892
811.120935,-1850.514855,-8734.430116,-2987.772442
811.121259,-3478.967927,-9696.697840,-4903.011187
811.121583,-3923.091493,-8808.450710,-3983.696590
811.121907,-3997.112087,-7476.080014,-1838.629195
811.122231,-1628.453072,-9178.553681,-1455.581446
811.122555,1258.350101,-10955.047942,-1225.752797
811.122879,3552.988522,-10510.924376,612.876398
811.123203,4737.318029,-10362.883188,1915.238745
811.123527,3256.906145,-10955.047942,2451.505594
811.123851,370.102971,-10807.006753,1378.971896
811.124175,-1628.453072,-8882.471304,2221.676944
811.124499,-888.247130,-9400.615463,2298.286494
811.124823,370.102971,-11103.089130,766.095498
811.125147,592.164754,-9770.718434,-1608.800546
811.125471,0.000000,-8660.409521,-2681.334243
811.125796,-1332.370696,-9770.718434,-2987.772442
811.126120,-2294.638420,-10732.986159,-4443.353888
811.126444,-3849.070898,-9622.677246,-3907.087040
811.126768,-3923.091493,-8882.471304,-2145.067394
811.127092,-1184.329507,-10584.944971,-1762.019645
811.127416,962.267725,-11325.150913,-1608.800546
811.127740,3775.050304,-11251.130318,842.705048
811.128064,5477.523971,-10807.006753,2451.505594
811.128388,4515.256246,-11399.171507,2374.896044
811.128712,962.267725,-10658.965565,2451.505594
811.129036,-1554.432478,-9178.553681,2604.724693
811.129360,-1998.556043,-9030.512492,2911.162892
811.129684,-666.185348,-10584.944971,1149.143247
811.130008,0.000000,-9918.759623,-1302.362347
811.130332,-296.082377,-9030.512492,-1455.581446
811.130656,-962.267725,-9400.615463,-2068.457845
811.130980,-2146.597232,-9770.718434,-2604.724693
811.131304,-3923.091493,-8734.430116,-1915.238745
811.131628,-3701.029710,-7624.121203,-1149.143247
811.131952,-1628.453072,-8956.491898,-383.047749
811.132276,1406.391290,-10510.924376,612.876398
811.132600,4293.194464,-10066.800811,2987.772442
811.132924,5181.441594,-9918.759623,3524.039291
811.133248,3552.988522,-9770.718434,3217.601092
811.133572,0.000000,-8808.450710,3064.381992
811.133896,-2368.659014,-8216.285956,3907.087040
811.134221,-2220.617826,-8734.430116,3217.601092
811.134545,-296.082377,-10066.800811,2145.067394
811.134869,148.041188,-8512.368333,0.000000
811.135193,0.000000,-7105.977043,-1685.410096
811.135517,-1702.473667,-8586.388927,-1838.629195
811.135841,-2220.617826,-9918.759623,-3140.991542
811.136165,-2960.823768,-8882.471304,-2911.162892
811.136489,-3552.988522,-7254.018232,-842.705048
811.136813,-1628.453072,-9030.512492,-1302.362347
811.137137,888.247130,-10214.842000,0.000000
811.137461,3701.029710,-10807.006753,1685.410096
811.137785,4737.318029,-10436.903782,2987.772442
811.138109,4145.153275,-10955.047942,2757.943793
811.138433,1406.391290,-10436.903782,2374.896044
811.138757,-1110.308913,-8882.471304,3370.820191
811.139081,-74.020594,-9252.574275,2604.724693
811.139405,-370.102971,-10362.883188,766.095498
811.139729,-444.123565,-10066.800811,-1532.190996
811.140053,-1332.370696,-9326.594869,-2451.505594
811.140377,-1258.350101,-9844.739029,-2911.162892
811.140701,-1480.411884,-10955.047942,-3830.477490
811.141025,-2738.761985,-9992.780217,-2987.772442
811.141349,-2590.720797,-8956.491898,-1762.019645
811.141673,-740.205942,-9548.656652,-1685.410096
811.141997,1110.308913,-11177.109724,-842.705048
811.142321,3404.947333,-11399.171507,1072.533697
811.142646,4737.318029,-10955.047942,1685.410096
811.142970,3923.091493,-11547.212695,1991.848295
811.143294,814.226536,-10510.924376,1991.848295
811.143618,-1702.473667,-8882.471304,2145.067394
811.143942,-1258.350101,-8808.450710,1149.143247
811.144266,-444.123565,-10436.903782,0.000000
811.144590,-222.061783,-10510.924376,-1762.019645
811.144914,222.061783,-9474.636058,-2911.162892
811.145238,0.000000,-9400.615463,-3524.039291
811.145562,-1850.514855,-9622.677246,-3983.696590
811.145886,-2886.803174,-8734.430116,-3217.601092
811.146210,-2368.659014,-8290.306550,-2451.505594
811.146534,-740.205942,-9104.533087,-1915.238745
811.146858,1850.514855,-10140.821405,-612.876398
811.147182,4441.235652,-10362.883188,1072.533697
811.147506,5477.523971,-10436.903782,2221.676944
811.147830,3627.009116,-10436.903782,2451.505594
811.148154,518.144159,-9844.739029,2145.067394
811.148478,-1702.473667,-8882.471304,2298.286494
811.148802,-2368.659014,-8956.491898,1608.800546
811.149126,-1702.473667,-9474.636058,1149.143247
811.149450,-962.267725,-9474.636058,-1149.143247
811.149774,-1036.288319,-9178.553681,-2145.067394
811.150098,-1998.556043,-9252.574275,-2757.943793
811.150422,-2886.803174,-9178.553681,-3447.429741
811.150747,-3552.988522,-7994.224174,-2987.772442
811.151071,-2960.823768,-7698.141797,-1455.581446
811.151395,-1184.329507,-9252.574275,-842.705048
811.151719,2072.576638,-10881.027347,76.609550
811.152043,3849.070898,-10658.965565,1838.629195
811.152367,4515.256246,-11029.068536,2757.943793
811.152692,2368.659014,-10955.047942,2374.896044
811.153016,-370.102971,-10436.903782,2298.286494
811.153340,-2294.638420,-9696.697840,2451.505594
811.153664,-2368.659014,-10140.821405,2604.724693
811.153988,-962.267725,-11177.109724,1378.971896
811.154312,0.000000,-9400.615463,-689.485948
811.154637,-888.247130,-8586.388927,-1991.848295
811.154961,-2072.576638,-9770.718434,-2298.286494
811.155285,-2368.659014,-10510.924376,-3753.867940
811.155609,-3182.885551,-9252.574275,-3064.381992
811.155933,-3256.906145,-8438.347739,-1762.019645
811.156258,-888.247130,-9400.615463,-919.314598
811.156582,1850.514855,-10807.006753,76.609550
811.156906,4293.194464,-10955.047942,1302.362347
811.157230,5625.565159,-10807.006753,2757.943793
811.157554,4515.256246,-11251.130318,2528.115143
811.157878,1110.308913,-10288.862594,2451.505594
811.158203,-1480.411884,-8438.347739,3217.601092
811.158527,-1258.350101,-7920.203579,2987.772442
811.158851,-1184.329507,-9252.574275,766.095498
811.159175,-1110.308913,-9474.636058,0.000000
811.159499,-592.164754,-9104.533087,-1378.971896
811.159823,0.000000,-9030.512492,-1762.019645
811.160148,-888.247130,-8956.491898,-2374.896044
811.160472,-3256.906145,-8142.265362,-2068.457845
811.160796,-3627.009116,-7772.162391,-1455.581446
811.161120,-1406.391290,-9770.718434,-995.924147
811.161444,1036.288319,-10436.903782,76.609550
811.161768,3775.050304,-10436.903782,1378.971896
811.162093,5255.462188,-10584.944971,2374.896044
811.162417,3997.112087,-10584.944971,2528.115143
811.162741,592.164754,-9474.636058,2298.286494
811.163065,-1332.370696,-8660.409521,2451.505594
811.163389,-2072.576638,-9104.533087,1762.019645
811.163713,-962.267725,-10140.821405,1149.143247
811.164038,222.061783,-9622.677246,383.047749
811.164362,444.123565,-8734.430116,-612.876398
811.164686,148.041188,-9622.677246,-1838.629195
811.165010,-1258.350101,-9474.636058,-2451.505594
811.165334,-2294.638420,-8660.409521,-2451.505594
811.165658,-2294.638420,-8068.244768,-2068.457845
811.165983,-962.267725,-8956.491898,-1378.971896
811.166307,1776.494261,-9770.718434,-459.657299
811.166631,4145.153275,-10288.862594,229.828649
811.166955,4663.297435,-10807.006753,1532.190996
811.167279,3256.906145,-11029.068536,1532.190996
811.167603,444.123565,-10140.821405,1455.581446
811.167928,-1850.514855,-9326.594869,1685.410096
811.168252,-1924.535449,-9400.615463,1762.019645
811.168576,-1406.391290,-10807.006753,306.438199
811.168900,-1036.288319,-10658.965565,-459.657299
811.169224,-814.226536,-10214.842000,-1532.190996
811.169548,-888.247130,-10362.883188,-2298.286494
811.169873,-1998.556043,-9992.780217,-2834.553343
811.170197,-2442.679609,-9548.656652,-2987.772442
811.170521,-2960.823768,-9252.574275,-2451.505594
811.170845,-1702.473667,-9548.656652,-1532.190996
811.171169,740.205942,-10807.006753,-842.705048
811.171494,2738.761985,-10732.986159,153.219100
811.171818,3701.029710,-10510.924376,1455.581446
811.172142,2738.761985,-9992.780217,1302.362347
811.172466,0.000000,-9622.677246,1072.533697
811.172790,-1480.411884,-8882.471304,1225.752797
811.173114,-2072.576638,-9104.533087,1455.581446
811.173439,-888.247130,-9622.677246,919.314598
811.173763,370.102971,-9252.574275,-306.438199
811.174087,1184.329507,-8586.388927,-1225.752797
811.174411,814.226536,-9030.512492,-1762.019645
811.174735,-518.144159,-9326.594869,-2604.724693
811.175059,-1702.473667,-8660.409521,-3140.991542
811.175384,-2590.720797,-7698.141797,-2451.505594
811.175708,-1110.308913,-8660.409521,-1532.190996
811.176032,1332.370696,-10140.821405,-842.705048
811.176356,3552.988522,-10955.047942,612.876398
811.176680,4515.256246,-10436.903782,1072.533697
811.177004,3256.906145,-10807.006753,766.095498
811.177329,592.164754,-10214.842000,1455.581446
811.177653,-1258.350101,-9474.636058,1838.629195
811.177977,-1850.514855,-9696.697840,1838.629195
811.178301,-1036.288319,-10288.862594,1455.581446
811.178625,-444.123565,-10362.883188,-229.828649
811.178949,222.061783,-9844.739029,-842.705048
811.179274,-296.082377,-9622.677246,-1915.238745
811.179598,-1776.494261,-9474.636058,-2528.115143
811.179922,-3330.926739,-9326.594869,-2604.724693
811.180246,-3478.967927,-8808.450710,-1991.848295
811.180570,-2294.638420,-9400.615463,-1532.190996
811.180894,74.020594,-10584.944971,-229.828649
811.181219,2812.782580,-11103.089130,842.705048
811.181543,3701.029710,-11029.068536,2145.067394
811.181867,2368.659014,-10362.883188,2604.724693
811.182191,0.000000,-9992.780217,2451.505594
811.182515,-1924.535449,-9548.656652,2451.505594
811.182839,-1998.556043,-9474.636058,2987.772442
811.183164,-444.123565,-9844.739029,2451.505594
811.183488,444.123565,-9326.594869,1149.143247
811.183812,1258.350101,-8808.450710,306.438199
811.184136,444.123565,-8882.471304,-1072.533697
811.184460,-222.061783,-9474.636058,-1762.019645
811.184785,-1924.535449,-8586.388927,-2374.896044
811.185109,-2590.720797,-8068.244768,-1072.533697
811.185433,-1924.535449,-8586.388927,-306.438199
811.185757,0.000000,-9474.636058,76.609550
811.186081,2516.700203,-10140.821405,1072.533697
811.186405,3923.091493,-9622.677246,2374.896044
811.186730,3849.070898,-9918.759623,2604.724693
811.187054,2072.576638,-9326.594869,2145.067394
811.187378,-518.144159,-8586.388927,2911.162892
811.187702,-1184.329507,-8364.327145,2911.162892
811.188026,-814.226536,-9252.574275,1991.848295
811.188350,-518.144159,-9400.615463,0.000000
811.188675,-370.102971,-9178.553681,-842.705048
811.188999,-592.164754,-9622.677246,-1532.190996
811.189323,-1036.288319,-10140.821405,-2987.772442
811.189647,-2368.659014,-9474.636058,-2604.724693
811.189971,-2886.803174,-8438.347739,-1685.410096
811.190295,-1776.494261,-8734.430116,-1378.971896
811.190620,-148.041188,-9992.780217,-995.924147
811.190944,2294.638420,-10584.944971,229.828649
811.191268,3182.885551,-10362.883188,1072.533697
811.191592,2664.741391,-10510.924376,1072.533697
811.191916,296.082377,-10066.800811,1072.533697
811.192240,-1702.473667,-9400.615463,1149.143247
811.192565,-1628.453072,-9474.636058,1302.362347
811.192889,-592.164754,-10436.903782,459.657299
811.193213,148.041188,-9992.780217,-1149.143247
811.193537,962.267725,-9474.636058,-1762.019645
811.193861,666.185348,-10140.821405,-2145.067394
811.194185,-444.123565,-10732.986159,-3677.258390
811.194510,-2146.597232,-9992.780217,-3753.867940
811.194834,-3034.844362,-9030.512492,-3217.601092
811.195158,-2294.638420,-9474.636058,-2451.505594
811.195482,0.000000,-10732.986159,-1685.410096
811.195806,2812.782580,-11769.274478,-383.047749
811.196130,4515.256246,-10807.006753,612.876398
811.196455,3775.050304,-11177.109724,1302.362347
811.196779,1850.514855,-10807.006753,1685.410096
811.197103,-222.061783,-9622.677246,1762.019645
811.197427,-1036.288319,-9030.512492,1685.410096
811.197751,-888.247130,-9400.615463,689.485948
811.198076,-296.082377,-9770.718434,-919.314598
811.198400,74.020594,-9844.739029,-2451.505594
811.198724,-222.061783,-9622.677246,-2604.724693
811.199048,-1332.370696,-9622.677246,-2834.553343
811.199372,-2368.659014,-9178.553681,-3140.991542
811.199696,-2960.823768,-8364.327145,-2681.334243
811.200021,-2220.617826,-8660.409521,-1532.190996
811.200345,-148.041188,-9474.636058,-612.876398
811.200669,2146.597232,-9770.718434,842.705048
811.200993,3256.906145,-10658.965565,1991.848295
811.201317,3775.050304,-10732.986159,2757.943793
811.201641,1554.432478,-9992.780217,2834.553343
811.201966,-814.226536,-8808.450710,2604.724693
811.202290,-1924.535449,-9030.512492,2834.553343
811.202614,-814.226536,-10066.800811,2681.334243
811.202938,296.082377,-9474.636058,536.266849
811.203262,0.000000,-7550.100608,-689.485948
811.203586,-740.205942,-7994.224174,-1685.410096
811.203911,-1998.556043,-9696.697840,-2451.505594
811.204235,-2590.720797,-9548.656652,-3294.210641
811.204559,-3330.926739,-7920.203579,-1532.190996
811.204883,-2738.761985,-8068.244768,-919.314598
811.205207,-592.164754,-9770.718434,-459.657299
811.205531,1998.556043,-10584.944971,995.924147
811.205856,3997.112087,-10658.965565,2604.724693
811.206180,4515.256246,-10214.842000,3217.601092
811.206504,2738.761985,-10807.006753,2834.553343
811.206828,0.000000,-9326.594869,3370.820191
811.207152,-1110.308913,-8882.471304,3140.991542
811.207476,-962.267725,-9770.718434,1838.629195
811.207801,-888.247130,-9992.780217,229.828649
811.208125,-1776.494261,-9770.718434,-1302.362347
811.208449,-666.185348,-10140.821405,-2604.724693
811.208773,-1480.411884,-9696.697840,-3217.601092
811.209097,-2886.803174,-9622.677246,-2604.724693
811.209421,-3330.926739,-8734.430116,-1915.238745
811.209746,-2294.638420,-9030.512492,-1378.971896
811.210070,-148.041188,-10066.800811,-536.266849
811.210394,2368.659014,-10584.944971,995.924147
811.210718,4441.235652,-11029.068536,2374.896044
811.211042,4663.297435,-11621.233289,2298.286494
811.211367,1776.494261,-10807.006753,2911.162892
811.211691,-888.247130,-9326.594869,2911.162892
811.212015,-1628.453072,-10214.842000,2911.162892
811.212339,-1480.411884,-10732.986159,2451.505594
811.212663,0.000000,-9918.759623,842.705048
811.212987,666.185348,-7698.141797,-1838.629195
811.213312,148.041188,-8364.327145,-2298.286494
811.213636,-740.205942,-9918.759623,-2757.943793
811.213960,-1628.453072,-9030.512492,-4519.963438
811.214284,-2442.679609,-7846.182985,-2911.162892
811.214608,-2146.597232,-7698.141797,-1302.362347
811.214932,370.102971,-9770.718434,-1302.362347
811.215257,2886.803174,-10807.006753,-383.047749
811.215581,4663.297435,-10658.965565,1608.800546
811.215905,5329.482782,-11177.109724,2528.115143
811.216229,3552.988522,-10881.027347,2298.286494
811.216553,666.185348,-9474.636058,3140.991542
811.216877,-370.102971,-8438.347739,2604.724693
811.217202,-592.164754,-9474.636058,1608.800546
811.217526,-814.226536,-9844.739029,-536.266849
811.217850,-1406.391290,-8956.491898,-2221.676944
811.218174,-1628.453072,-8586.388927,-2604.724693
811.218498,-1628.453072,-9326.594869,-3983.696590
811.218822,-3034.844362,-9326.594869,-4290.134789
811.219147,-3701.029710,-8216.285956,-2834.553343
811.219471,-2886.803174,-8660.409521,-2451.505594
811.219795,-740.205942,-9992.780217,-1915.238745
811.220119,1702.473667,-10881.027347,-153.219100
811.220443,4219.173869,-10955.047942,1838.629195
811.220767,4885.359217,-11029.068536,2298.286494
811.221092,2960.823768,-10881.027347,2451.505594
811.221416,-666.185348,-9844.739029,1915.238745
811.221740,-1850.514855,-10066.800811,2221.676944
811.222064,-666.185348,-11547.212695,2145.067394
811.222388,518.144159,-11399.171507,1762.019645
811.222712,888.247130,-7698.141797,0.000000
811.223037,0.000000,-4959.379811,-3830.477490
811.223361,-2886.803174,-8438.347739,-3983.696590
811.223685,-3849.070898,-10658.965565,-3983.696590
811.224009,-2812.782580,-9770.718434,-4826.401637
811.224333,-3701.029710,-8956.491898,-2145.067394
811.224658,-1554.432478,-9474.636058,-536.266849
811.224982,1702.473667,-11177.109724,-995.924147
811.225306,3330.926739,-11547.212695,0.000000
811.225630,3775.050304,-10584.944971,2145.067394
811.225954,3478.967927,-11103.089130,1685.410096
811.226278,2294.638420,-11325.150913,1762.019645
811.226603,666.185348,-9622.677246,3907.087040
811.226927,740.205942,-9548.656652,3753.867940
811.227251,1406.391290,-10584.944971,1991.848295
811.227575,0.000000,-9918.759623,-2221.676944
811.227899,-2220.617826,-8660.409521,-2681.334243
811.228223,-3182.885551,-8808.450710,-2528.115143
811.228548,-2368.659014,-10214.842000,-4519.963438
811.228872,-3701.029710,-9178.553681,-2681.334243
811.229196,-3701.029710,-8216.285956,-995.924147
811.229520,-1184.329507,-9178.553681,-1532.190996
811.229844,740.205942,-10362.883188,-919.314598
811.230168,2368.659014,-9844.739029,1685.410096
811.230493,4293.194464,-9770.718434,3294.210641
811.230817,4219.173869,-10362.883188,2451.505594
811.231141,1036.288319,-10140.821405,2987.772442
811.231465,-518.144159,-9400.615463,3907.087040
811.231789,296.082377,-9918.759623,3447.429741
811.232113,1184.329507,-10955.047942,2528.115143
811.232438,518.144159,-9030.512492,612.876398
811.232762,0.000000,-5625.565159,-2451.505594
811.233086,-2294.638420,-7698.141797,-2911.162892
811.233410,-3552.988522,-10732.986159,-2528.115143
811.233734,-3775.050304,-9844.739029,-3677.258390
811.234058,-3627.009116,-8290.306550,-1072.533697
811.234383,-1702.473667,-8512.368333,0.000000
811.234707,1258.350101,-10288.862594,-306.438199
811.235031,3330.926739,-10436.903782,919.314598
811.235355,4811.338623,-9770.718434,2451.505594
811.235679,4367.215058,-10436.903782,3064.381992
811.236003,2294.638420,-10732.986159,2528.115143
811.236328,370.102971,-8882.471304,3753.867940
811.236652,0.000000,-8660.409521,3677.258390
811.236976,296.082377,-9770.718434,1762.019645
811.237300,-444.123565,-10066.800811,-1991.848295
811.237624,-2664.741391,-9104.533087,-3140.991542
811.237948,-2664.741391,-9252.574275,-3140.991542
811.238273,-2368.659014,-9844.739029,-4060.306139
811.238597,-3404.947333,-8956.491898,-2451.505594
811.238921,-3256.906145,-8438.347739,-1225.752797
811.239245,-1036.288319,-9474.636058,-1838.629195
811.239569,518.144159,-10584.944971,-995.924147
811.239894,2516.700203,-10436.903782,995.924147
811.240218,5033.400406,-9992.780217,2451.505594
811.240542,4219.173869,-10436.903782,2068.457845
811.240866,592.164754,-10436.903782,2221.676944
811.241190,-1184.329507,-9252.574275,2145.067394
811.241514,-1036.288319,-10140.821405,1915.238745
811.241839,-740.205942,-11029.068536,459.657299
811.242163,-888.247130,-9622.677246,-1762.019645
811.242487,-1036.288319,-8438.347739,-2834.553343
811.242811,-666.185348,-9918.759623,-2834.553343
811.243135,-1924.535449,-11029.068536,-3677.258390
811.243459,-3478.967927,-9400.615463,-2604.724693
811.243784,-3108.864956,-8216.285956,-1608.800546
811.244108,-1110.308913,-9474.636058,-1685.410096
811.244432,1332.370696,-10881.027347,-842.705048
811.244756,4219.173869,-10140.821405,1302.362347
811.245080,6069.688724,-10066.800811,2298.286494
811.245404,4441.235652,-10955.047942,2068.457845
811.245729,1036.288319,-10288.862594,2451.505594
811.246053,-592.164754,-8734.430116,2145.067394
811.246377,-1184.329507,-9030.512492,1608.800546
811.246701,-1702.473667,-10510.924376,0.000000
811.247025,-1776.494261,-10288.862594,-1685.410096
811.247349,-1628.453072,-9548.656652,-2298.286494
811.247674,-1554.432478,-9770.718434,-2911.162892
811.247998,-2516.700203,-9252.574275,-2911.162892
811.248322,-3108.864956,-7254.018232,-2068.457845
811.248646,-2590.720797,-7698.141797,-1532.190996
811.248970,-1480.411884,-9326.594869,-766.095498
811.249294,1332.370696,-10584.944971,306.438199
811.249618,4219.173869,-10362.883188,1915.238745
811.249942,5033.400406,-10362.883188,2528.115143
811.250266,2960.823768,-10584.944971,2528.115143
811.250591,-222.061783,-9474.636058,2068.457845
811.250915,-1850.514855,-8586.388927,2681.334243
811.251239,-1924.535449,-9918.759623,2374.896044
811.251563,-1258.350101,-10140.821405,0.000000
811.251887,-666.185348,-8956.491898,-995.924147
811.252211,-962.267725,-8734.430116,-1608.800546
811.252535,-1554.432478,-9696.697840,-2681.334243
811.252859,-2442.679609,-9252.574275,-3294.210641
811.253183,-3182.885551,-8586.388927,-2374.896044
811.253508,-2664.741391,-7920.203579,-1072.533697
811.253832,-592.164754,-9104.533087,-612.876398
811.254156,2368.659014,-10214.842000,76.609550
811.254480,4663.297435,-10658.965565,2145.067394
811.254804,5329.482782,-11177.109724,2604.724693
811.255128,3849.070898,-11251.130318,2451.505594
811.255452,1406.391290,-9918.759623,2451.505594
811.255776,-1036.288319,-8660.409521,2451.505594
811.256100,-1258.350101,-9474.636058,1762.019645
811.256425,-1036.288319,-9696.697840,1072.533697
811.256749,-814.226536,-9918.759623,-842.705048
811.257073,-370.102971,-9474.636058,-2221.676944
811.257397,-1036.288319,-9548.656652,-2681.334243
811.257721,-2294.638420,-9252.574275,-3064.381992
811.258045,-2960.823768,-8512.368333,-2451.505594
811.258369,-2664.741391,-8734.430116,-2145.067394
811.258693,-1110.308913,-9252.574275,-1072.533697
811.259017,2590.720797,-10807.006753,383.047749
811.259342,5107.421000,-10955.047942,1532.190996
811.259666,5847.626942,-11177.109724,2374.896044
811.259990,3701.029710,-10881.027347,2451.505594
811.260314,740.205942,-10140.821405,2681.334243
811.260638,-666.185348,-9918.759623,2145.067394
811.260962,-1332.370696,-9622.677246,1608.800546
811.261286,-1110.308913,-9770.718434,153.219100
811.261610,-814.226536,-9252.574275,-1455.581446
811.261934,-1332.370696,-9178.553681,-2221.676944
811.262258,-1628.453072,-9474.636058,-2681.334243
811.262583,-2590.720797,-9104.533087,-3447.429741
811.262907,-3552.988522,-7994.224174,-2604.724693
811.263231,-3034.844362,-8290.306550,-2681.334243
811.263555,-888.247130,-9252.574275,-842.705048
811.263879,2146.597232,-10658.965565,306.438199
811.264203,4145.153275,-10955.047942,1378.971896
811.264527,4885.359217,-11251.130318,2374.896044
811.264851,3256.906145,-11251.130318,2145.067394
811.265175,444.123565,-10288.862594,2298.286494
811.265500,-1702.473667,-8956.491898,1838.629195
811.265824,-1480.411884,-9252.574275,2298.286494
811.266148,-1332.370696,-9548.656652,0.000000
811.266472,-666.185348,-9696.697840,-1225.752797
811.266796,-814.226536,-9252.574275,-2068.457845
811.267120,-1480.411884,-9400.615463,-2987.772442
811.267444,-2738.761985,-9030.512492,-3600.648841
811.267768,-3775.050304,-8216.285956,-2987.772442
811.268092,-3108.864956,-8660.409521,-2145.067394
811.268417,-666.185348,-9474.636058,-1225.752797
811.268741,2072.576638,-10510.924376,0.000000
811.269065,5033.400406,-10955.047942,1762.019645
811.269389,6365.771101,-11547.212695,2834.553343
811.269713,4663.297435,-11325.150913,2528.115143
811.270037,1406.391290,-10510.924376,2068.457845
811.270361,-1258.350101,-9252.574275,2451.505594
811.270685,-1998.556043,-9770.718434,2145.067394
811.271009,-1184.329507,-10436.903782,1225.752797
811.271334,-592.164754,-9400.615463,-995.924147
811.271658,-740.205942,-7920.203579,-1762.019645
811.271982,-1332.370696,-9178.553681,-2451.505594
811.272306,-1998.556043,-9548.656652,-3370.820191
811.272630,-3034.844362,-8216.285956,-3524.039291
811.272954,-2960.823768,-7846.182985,-1838.629195
811.273278,-740.205942,-9400.615463,-995.924147
811.273602,1628.453072,-10658.965565,0.000000
811.273926,4071.132681,-11177.109724,1149.143247
811.274250,5403.503377,-11325.150913,2528.115143
811.274575,4589.276840,-11251.130318,2298.286494
811.274899,1406.391290,-10510.924376,2604.724693
811.275223,0.000000,-8956.491898,2604.724693
811.275547,-1036.288319,-9178.553681,2145.067394
811.275871,-518.144159,-10066.800811,1532.190996
811.276195,-1110.308913,-9622.677246,-689.485948
811.276519,-1110.308913,-8734.430116,-1838.629195
811.276843,-1776.494261,-8586.388927,-2757.943793
811.277167,-2590.720797,-8808.450710,-3447.429741
811.277492,-3701.029710,-7994.224174,-2987.772442
811.277816,-3701.029710,-7476.080014,-2451.505594
811.278140,-2072.576638,-8956.491898,-1225.752797
811.278464,1036.288319,-10658.965565,-995.924147
811.278788,3330.926739,-10955.047942,1149.143247
811.279112,4811.338623,-11177.109724,2298.286494
811.279436,3923.091493,-11399.171507,2374.896044
811.279760,1184.329507,-10732.986159,2451.505594
811.280084,-1332.370696,-9696.697840,2911.162892
811.280409,-1332.370696,-10214.842000,2681.334243
811.280733,-1184.329507,-10807.006753,1685.410096
811.281057,-592.164754,-9622.677246,-306.438199
811.281381,-666.185348,-8216.285956,-2145.067394
811.281705,-1702.473667,-8808.450710,-2451.505594
811.282029,-2294.638420,-9992.780217,-2834.553343
811.282353,-2886.803174,-9400.615463,-3294.210641
811.282677,-2738.761985,-8290.306550,-2145.067394
811.283001,-1998.556043,-8512.368333,-383.047749
811.283326,814.226536,-10436.903782,-689.485948
811.283650,3330.926739,-11251.130318,383.047749
811.283974,4811.338623,-11029.068536,2374.896044
811.284298,4515.256246,-11029.068536,2757.943793
811.284622,2590.720797,-10584.944971,2681.334243
811.284946,148.041188,-9104.533087,3217.601092
811.285270,0.000000,-9104.533087,2604.724693
811.285594,74.020594,-9474.636058,1149.143247
811.285918,-592.164754,-9696.697840,-612.876398
811.286242,-1258.350101,-9178.553681,-1991.848295
811.286567,-1184.329507,-8882.471304,-2757.943793
811.286891,-1776.494261,-9178.553681,-3294.210641
811.287215,-2590.720797,-8660.409521,-2681.334243
811.287539,-2738.761985,-7772.162391,-2221.676944
811.287863,-962.267725,-8660.409521,-1378.971896
811.288187,1036.288319,-10214.842000,-383.047749
811.288511,3108.864956,-10436.903782,1072.533697
811.288835,4663.297435,-10955.047942,1915.238745
811.289159,3627.009116,-11103.089130,2451.505594
811.289484,962.267725,-10510.924376,2298.286494
811.289808,-1036.288319,-9474.636058,2451.505594
811.290132,-2220.617826,-9104.533087,2221.676944
811.290456,-962.267725,-10288.862594,1608.800546
811.290780,-148.041188,-9770.718434,-383.047749
811.291104,-370.102971,-8512.368333,-2298.286494
811.291428,-1332.370696,-8956.491898,-2681.334243
811.291752,-2220.617826,-10066.800811,-3370.820191
811.292076,-3108.864956,-9622.677246,-3907.087040
811.292401,-3552.988522,-8956.491898,-3064.381992
811.292725,-1924.535449,-9252.574275,-1532.190996
811.293049,222.061783,-10658.965565,-1149.143247
811.293373,2812.782580,-11325.150913,76.609550
811.293697,4589.276840,-11473.192101,1532.190996
811.294021,4663.297435,-11473.192101,2068.457845
811.294345,2368.659014,-10510.924376,2374.896044
811.294669,74.020594,-9178.553681,1991.848295
811.294993,-1036.288319,-9252.574275,2451.505594
811.295318,-666.185348,-10436.903782,842.705048
811.295642,-740.205942,-9918.759623,-919.314598
811.295966,-962.267725,-9400.615463,-2298.286494
811.296290,-666.185348,-9474.636058,-2068.457845
811.296614,-1332.370696,-9474.636058,-3370.820191
811.296938,-2738.761985,-8512.368333,-2834.553343
811.297262,-3256.906145,-7846.182985,-2298.286494
811.297586,-2368.659014,-8734.430116,-1378.971896
811.297910,0.000000,-9696.697840,-689.485948
811.298234,2516.700203,-9992.780217,689.485948
811.298559,4515.256246,-9918.759623,2068.457845
811.298883,4367.215058,-10436.903782,2221.676944
811.299207,1480.411884,-10066.800811,2221.676944
811.299531,-814.226536,-9622.677246,2451.505594
811.299855,-1628.453072,-9400.615463,2298.286494
811.300179,-1480.411884,-9400.615463,1608.800546
811.300503,-814.226536,-9326.594869,0.000000
811.300827,0.000000,-9252.574275,-612.876398
811.301151,-148.041188,-9474.636058,-1532.190996
811.301476,-1110.308913,-9622.677246,-2221.676944
811.301800,-2664.741391,-8808.450710,-1991.848295
811.302124,-3478.967927,-7920.203579,-1685.410096
811.302448,-2738.761985,-8586.388927,-1302.362347
811.302772,-518.144159,-9696.697840,306.438199
811.303096,2442.679609,-10362.883188,919.314598
811.303420,4737.318029,-10436.903782,2681.334243
811.303744,4219.173869,-10510.924376,2528.115143
811.304068,2220.617826,-10214.842000,2528.115143
811.304393,-518.144159,-9178.553681,2681.334243
811.304717,-1702.473667,-9252.574275,2681.334243
811.305041,-2072.576638,-9992.780217,1225.752797
811.305365,-1332.370696,-10066.800811,-153.219100
811.305689,-666.185348,-9400.615463,-1378.971896
811.306013,-666.185348,-9844.739029,-1915.238745
811.306337,-1776.494261,-9918.759623,-2681.334243
811.306661,-2886.803174,-9252.574275,-2834.553343
811.306985,-3552.988522,-8512.368333,-2145.067394
811.307310,-2368.659014,-8586.388927,-995.924147
811.307634,0.000000,-9548.656652,229.828649
811.307958,2960.823768,-10510.924376,1072.533697
811.308282,4959.379811,-10955.047942,2068.457845
811.308606,5033.400406,-11029.068536,2681.334243
811.308930,2590.720797,-10807.006753,2528.115143
811.309254,74.020594,-9770.718434,2451.505594
811.309578,-1332.370696,-9548.656652,1838.629195
811.309902,-1332.370696,-9918.759623,919.314598
811.310226,-1184.329507,-10288.862594,-919.314598
811.310551,-370.102971,-9992.780217,-1532.190996
811.310875,-444.123565,-9696.697840,-3064.381992
811.311199,-888.247130,-9474.636058,-3140.991542
811.311523,-2146.597232,-8882.471304,-3064.381992
811.311847,-2664.741391,-8068.244768,-2681.334243
811.312171,-1850.514855,-8364.327145,-1838.629195
811.312495,888.247130,-9400.615463,-1302.362347
811.312819,3108.864956,-9844.739029,383.047749
811.313143,4737.318029,-10362.883188,1455.581446
811.313468,4367.215058,-10732.986159,1838.629195
811.313792,2368.659014,-10362.883188,2068.457845
811.314116,222.061783,-9622.677246,2068.457845
811.314440,-888.247130,-9474.636058,1838.629195
811.314764,-518.144159,-10066.800811,1072.533697
811.315088,0.000000,-10066.800811,-612.876398
811.315412,-148.041188,-9696.697840,-1762.019645
811.315736,-962.267725,-9252.574275,-2681.334243
811.316060,-1850.514855,-9474.636058,-2911.162892
811.316385,-2812.782580,-8882.471304,-3294.210641
811.316709,-3478.967927,-7920.203579,-2757.943793
811.317033,-2442.679609,-8068.244768,-1685.410096
811.317357,148.041188,-9622.677246,-536.266849
811.317681,3627.009116,-11029.068536,536.266849
811.318005,4811.338623,-10881.027347,2145.067394
811.318329,4145.153275,-10732.986159,2451.505594
811.318653,1628.453072,-10362.883188,2374.896044
811.318977,-1406.391290,-10140.821405,1838.629195
811.319302,-3108.864956,-10066.800811,1455.581446
811.319626,-2590.720797,-10140.821405,1225.752797
811.319950,-1776.494261,-9992.780217,-306.438199
811.320274,-1110.308913,-9474.636058,-1838.629195
811.320598,-592.164754,-8956.491898,-2221.676944
811.320922,-1036.288319,-9252.574275,-2987.772442
811.321246,-2146.597232,-8882.471304,-2757.943793
811.321570,-2812.782580,-8068.244768,-2221.676944
811.321894,-1924.535449,-8142.265362,-1072.533697
811.322218,222.061783,-9252.574275,0.000000
811.322543,3108.864956,-10288.862594,766.095498
811.322867,4589.276840,-11103.089130,2528.115143
811.323191,4293.194464,-11029.068536,2604.724693
811.323515,1924.535449,-10658.965565,2528.115143
811.323839,-740.205942,-9770.718434,2298.286494
811.324163,-1850.514855,-9474.636058,2374.896044
811.324487,-1628.453072,-9400.615463,1455.581446
811.324811,-962.267725,-9696.697840,-842.705048
811.325135,-740.205942,-9474.636058,-766.095498
811.325460,-518.144159,-9104.533087,-2298.286494
811.325784,-1406.391290,-9252.574275,-2451.505594
811.326108,-2738.761985,-9030.512492,-2911.162892
811.326432,-4145.153275,-8586.388927,-2451.505594
811.326756,-2886.803174,-8586.388927,-1302.362347
811.327080,-370.102971,-9474.636058,0.000000
811.327404,3034.844362,-10955.047942,842.705048
811.327728,5107.421000,-11325.150913,2681.334243
811.328052,4737.318029,-10955.047942,2834.553343
811.328377,2738.761985,-10584.944971,2681.334243
811.328701,296.082377,-9770.718434,2757.943793
811.329025,-962.267725,-9326.594869,3064.381992
811.329349,-962.267725,-9474.636058,2298.286494
811.329673,-592.164754,-9622.677246,842.705048
811.329997,-370.102971,-9104.533087,-1149.143247
811.330321,0.000000,-9178.553681,-1838.629195
811.330645,-592.164754,-9400.615463,-2451.505594
811.330969,-1776.494261,-8734.430116,-2604.724693
811.331294,-3256.906145,-7624.121203,-1991.848295
811.331618,-2516.700203,-7476.080014,-1838.629195
811.331942,-518.144159,-9104.533087,-383.047749
811.332266,2220.617826,-10140.821405,536.266849
811.332590,4515.256246,-10214.842000,1532.190996
811.332914,4737.318029,-10362.883188,2145.067394
811.333238,2590.720797,-10066.800811,2451.505594
811.333562,-370.102971,-9622.677246,2374.896044
811.333886,-2294.638420,-9696.697840,2451.505594
811.334210,-2368.659014,-10436.903782,1915.238745
811.334535,-1850.514855,-10214.842000,-153.219100
811.334859,-1184.329507,-8438.347739,-1762.019645
811.335183,-888.247130,-8882.471304,-2068.457845
811.335507,-1110.308913,-9918.759623,-3217.601092
811.335831,-2072.576638,-9918.759623,-4136.915689
811.336155,-3108.864956,-8512.368333,-2911.162892
811.336479,-2516.700203,-8290.306550,-1762.019645
811.336803,-370.102971,-10436.903782,-1378.971896
811.337127,2738.761985,-11399.171507,-229.828649
811.337452,4441.235652,-10658.965565,1685.410096
811.337776,4811.338623,-11399.171507,1838.629195
811.338100,2812.782580,-11399.171507,1302.362347
811.338424,0.000000,-9992.780217,2374.896044
811.338748,-1776.494261,-9178.553681,1838.629195
811.339072,-1628.453072,-9474.636058,842.705048
811.339396,-1332.370696,-10214.842000,-919.314598
811.339720,-740.205942,-9474.636058,-2374.896044
811.340044,-518.144159,-8882.471304,-2987.772442
811.340369,-148.041188,-9252.574275,-3217.601092
811.340693,-1184.329507,-8956.491898,-3907.087040
811.341017,-2294.638420,-8364.327145,-2681.334243
811.341341,-2072.576638,-8808.450710,-2068.457845
811.341665,0.000000,-10066.800811,-1072.533697
811.341989,2368.659014,-11177.109724,0.000000
811.342313,4663.297435,-11251.130318,1838.629195
811.342637,5181.441594,-11399.171507,2374.896044
811.342961,3330.926739,-11103.089130,2298.286494
811.343286,1036.288319,-9992.780217,1991.848295
811.343610,-888.247130,-8956.491898,2451.505594
811.343934,-1628.453072,-9918.759623,1991.848295
811.344258,-1480.411884,-9622.677246,0.000000
811.344582,-1480.411884,-8364.327145,-1915.238745
811.344906,-1924.535449,-8364.327145,-2451.505594
811.345230,-2368.659014,-9474.636058,-3217.601092
811.345554,-2886.803174,-9104.533087,-3830.477490
811.345878,-3627.009116,-7846.182985,-2451.505594
811.346202,-2738.761985,-8068.244768,-1302.362347
811.346527,-222.061783,-9548.656652,-536.266849
811.346851,2664.741391,-10732.986159,842.705048
811.347175,4737.318029,-11103.089130,2451.505594
811.347499,5181.441594,-11399.171507,3294.210641
811.347823,3256.906145,-10658.965565,3140.991542
811.348147,444.123565,-9770.718434,3217.601092
811.348471,-1110.308913,-9548.656652,3753.867940
811.348795,-1406.391290,-9992.780217,2834.553343
811.349119,-888.247130,-10362.883188,1608.800546
811.349444,-1110.308913,-7772.162391,-995.924147
811.349768,-1554.432478,-7105.977043,-2451.505594
811.350092,-2960.823768,-9474.636058,-2221.676944
811.350416,-3404.947333,-10214.842000,-2757.943793
811.350740,-4219.173869,-9326.594869,-2221.676944
811.351064,-3997.112087,-8586.388927,0.000000
811.351388,-1480.411884,-9400.615463,-306.438199
811.351712,1850.514855,-11029.068536,383.047749
811.352037,4219.173869,-10807.006753,1915.238745
811.352361,5107.421000,-10362.883188,3524.039291
811.352685,4367.215058,-10584.944971,2987.772442
811.353009,1554.432478,-9992.780217,2987.772442
811.353334,-666.185348,-9178.553681,4596.572988
811.353658,-1036.288319,-9030.512492,3294.210641
811.353982,-1480.411884,-10066.800811,1378.971896
811.354306,-1628.453072,-8956.491898,-1378.971896
811.354631,-1554.432478,-7550.100608,-1915.238745
811.354955,-1998.556043,-9030.512492,-2068.457845
811.355279,-2368.659014,-9400.615463,-3524.039291
811.355603,-3478.967927,-8364.327145,-1838.629195
811.355927,-3256.906145,-7476.080014,-689.485948
811.356252,-814.226536,-9030.512492,-1072.533697
811.356576,1332.370696,-10436.903782,-153.219100
811.356900,4145.153275,-9992.780217,1608.800546
811.357224,6439.791695,-10214.842000,2987.772442
811.357549,5847.626942,-11029.068536,2604.724693
811.357873,2590.720797,-10066.800811,2834.553343
811.358197,296.082377,-8956.491898,3064.381992
811.358521,-888.247130,-8882.471304,1838.629195
811.358846,-1332.370696,-10436.903782,0.000000
811.359170,-1998.556043,-10066.800811,-1608.800546
811.359494,-1702.473667,-9252.574275,-2911.162892
811.359818,-1480.411884,-9178.553681,-3447.429741
811.360142,-2220.617826,-9474.636058,-4136.915689
811.360467,-2738.761985,-8068.244768,-2987.772442
811.360791,-2886.803174,-7624.121203,-2298.286494
811.361115,-740.205942,-8882.471304,-2221.676944
811.361439,1998.556043,-10066.800811,-459.657299
811.361764,4959.379811,-10658.965565,919.314598
811.362088,5921.647536,-11399.171507,1915.238745
811.362412,4737.318029,-11917.315666,2451.505594
811.362736,1480.411884,-10732.986159,1302.362347
811.363061,-518.144159,-9474.636058,2451.505594
811.363385,-1332.370696,-9992.780217,1378.971896
811.363709,-1776.494261,-10807.006753,-383.047749
811.364033,-1406.391290,-10214.842000,-2145.067394
811.364357,-1406.391290,-9548.656652,-3064.381992
811.364682,-1924.535449,-9844.739029,-3600.648841
811.365006,-2664.741391,-9622.677246,-4060.306139
811.365330,-3034.844362,-9104.533087,-3753.867940
811.365654,-3775.050304,-8290.306550,-2604.724693
811.365979,-1702.473667,-9696.697840,-1378.971896
811.366303,1776.494261,-11029.068536,-383.047749
811.366627,4515.256246,-11547.212695,1149.143247
811.366951,5477.523971,-11547.212695,2145.067394
811.367276,3849.070898,-11029.068536,2451.505594
811.367600,1184.329507,-10140.821405,1762.019645
811.367924,-740.205942,-9252.574275,2221.676944
811.368248,-1480.411884,-9548.656652,1225.752797
811.368572,-1332.370696,-9844.739029,0.000000
811.368897,-1110.308913,-8956.491898,-1608.800546
811.369221,-1036.288319,-8290.306550,-2451.505594
811.369545,-1184.329507,-9104.533087,-3064.381992
811.369869,-1924.535449,-9030.512492,-3217.601092
811.370194,-3627.009116,-8216.285956,-3447.429741
811.370518,-3404.947333,-7328.038826,-2145.067394
811.370842,-962.267725,-8956.491898,-766.095498
811.371166,2146.597232,-10658.965565,306.438199
811.371490,4959.379811,-10881.027347,2145.067394
811.371815,5699.585753,-10732.986159,2834.553343
811.372139,4145.153275,-10732.986159,3217.601092
811.372463,1406.391290,-10066.800811,3217.601092
811.372787,-740.205942,-9474.636058,3600.648841
811.373112,-1554.432478,-9474.636058,2528.115143
811.373436,-1554.432478,-9992.780217,1302.362347
811.373760,-1332.370696,-8660.409521,-842.705048
811.374084,-1702.473667,-8068.244768,-1991.848295
811.374409,-3108.864956,-8808.450710,-2451.505594
811.374733,-3701.029710,-8956.491898,-3294.210641
811.375057,-4367.215058,-9104.533087,-2757.943793
811.375381,-4219.173869,-7846.182985,-1302.362347
811.375705,-1406.391290,-9104.533087,-306.438199
811.376030,1702.473667,-10362.883188,536.266849
811.376354,4737.318029,-10658.965565,2145.067394
811.376678,6143.709319,-10807.006753,3600.648841
811.377002,4811.338623,-10881.027347,3524.039291
811.377327,1628.453072,-10362.883188,3064.381992
811.377651,-888.247130,-9844.739029,3370.820191
811.377975,-1184.329507,-9696.697840,3217.601092
811.378299,-1036.288319,-10288.862594,1991.848295
811.378624,-814.226536,-8956.491898,-459.657299
811.378948,-1258.350101,-7402.059420,-2221.676944
811.379272,-2220.617826,-8808.450710,-2451.505594
811.379596,-2368.659014,-9992.780217,-3753.867940
811.379920,-3478.967927,-9622.677246,-2911.162892
811.380245,-3552.988522,-8586.388927,-1072.533697
811.380569,-1702.473667,-8956.491898,-995.924147
811.380893,1184.329507,-10362.883188,0.000000
811.381217,3997.112087,-11547.212695,1072.533697
811.381542,5847.626942,-11325.150913,2451.505594
811.381866,5773.606348,-11695.253884,2757.943793
811.382190,2812.782580,-11103.089130,2911.162892
811.382514,148.041188,-9770.718434,2987.772442
811.382839,-814.226536,-9474.636058,3064.381992
811.383163,-1036.288319,-9992.780217,1455.581446
811.383487,-1406.391290,-9178.553681,-1225.752797
811.383811,-1702.473667,-8364.327145,-2911.162892
811.384135,-1998.556043,-8586.388927,-3217.601092
811.384460,-2442.679609,-9474.636058,-4136.915689
811.384784,-3478.967927,-8660.409521,-3217.601092
811.385108,-3108.864956,-7402.059420,-2451.505594
811.385432,-1332.370696,-8808.450710,-1149.143247
811.385757,888.247130,-10436.903782,-766.095498
811.386081,3627.009116,-10658.965565,612.876398
811.386405,5995.668130,-10881.027347,2374.896044
811.386729,5329.482782,-11473.192101,2451.505594
811.387054,2590.720797,-11029.068536,2374.896044
811.387378,-222.061783,-10066.800811,2451.505594
811.387702,-1480.411884,-9252.574275,1915.238745
811.388026,-1036.288319,-9992.780217,536.266849
811.388350,-1110.308913,-9770.718434,-1915.238745
811.388675,-962.267725,-8808.450710,-2987.772442
811.388999,-1036.288319,-8882.471304,-3524.039291
811.389323,-2072.576638,-9474.636058,-4366.744339
811.389647,-3552.988522,-8956.491898,-3830.477490
811.389972,-3775.050304,-7698.141797,-2374.896044
811.390296,-2368.659014,-8956.491898,-1685.410096
811.390620,518.144159,-9992.780217,-536.266849
811.390944,3923.091493,-10732.986159,612.876398
811.391269,5551.544565,-10510.924376,1762.019645
811.391593,5107.421000,-10807.006753,2068.457845
811.391917,2590.720797,-10510.924376,2374.896044
811.392241,-370.102971,-9474.636058,2681.334243
811.392565,-1110.308913,-9326.594869,2298.286494
811.392890,-1036.288319,-10510.924376,1685.410096
811.393214,-962.267725,-9400.615463,-689.485948
811.393538,-1554.432478,-8290.306550,-2298.286494
811.393862,-2146.597232,-8956.491898,-3064.381992
811.394187,-2886.803174,-9844.739029,-3677.258390
811.394511,-3627.009116,-9548.656652,-2987.772442
811.394835,-3627.009116,-8512.368333,-1685.410096
811.395159,-2516.700203,-9178.553681,-689.485948
811.395484,0.000000,-10658.965565,306.438199
811.395808,3108.864956,-11103.089130,306.438199
811.396132,4811.338623,-11325.150913,2298.286494
811.396456,4293.194464,-11399.171507,2528.115143
811.396780,1998.556043,-10658.965565,2757.943793
811.397105,-296.082377,-9770.718434,3140.991542
811.397429,-962.267725,-9474.636058,2757.943793
811.397753,-518.144159,-10214.842000,2374.896044
811.398077,-814.226536,-9548.656652,-1072.533697
811.398402,-1110.308913,-9474.636058,-1608.800546
811.398726,-1036.288319,-9622.677246,-2068.457845
811.399050,-1110.308913,-9252.574275,-2911.162892
811.399374,-2516.700203,-8586.388927,-1991.848295
811.399699,-2886.803174,-7698.141797,-1302.362347
811.400023,-1480.411884,-8290.306550,-689.485948
811.400347,1184.329507,-9474.636058,0.000000
811.400671,4145.153275,-9992.780217,1532.190996
811.400995,5699.585753,-10362.883188,3064.381992
811.401320,4959.379811,-10658.965565,3140.991542
811.401644,2072.576638,-9844.739029,3370.820191
811.401968,-888.247130,-9326.594869,3217.601092
811.402292,-2368.659014,-9400.615463,2834.553343
811.402617,-2368.659014,-9992.780217,2374.896044
811.402941,-2368.659014,-9474.636058,0.000000
811.403265,-2590.720797,-8512.368333,-1225.752797
811.403589,-2072.576638,-9030.512492,-1915.238745
811.403914,-2664.741391,-9178.553681,-2374.896044
811.404238,-3627.009116,-8438.347739,-2068.457845
811.404562,-3404.947333,-7179.997637,-1532.190996
811.404886,-2146.597232,-8142.265362,-766.095498
811.405210,296.082377,-9548.656652,689.485948
811.405535,4145.153275,-10214.842000,1302.362347
811.405859,5847.626942,-10658.965565,2298.286494
811.406183,4441.235652,-10955.047942,2528.115143
811.406507,1480.411884,-10436.903782,2604.724693
811.406832,-1110.308913,-9918.759623,2221.676944
811.407156,-1628.453072,-9622.677246,1762.019645
811.407480,-1554.432478,-9770.718434,229.828649
811.407804,-962.267725,-10214.842000,-1072.533697
811.408129,-296.082377,-9474.636058,-1991.848295
811.408453,-296.082377,-9400.615463,-2834.553343
811.408777,-1258.350101,-8956.491898,-3370.820191
811.409101,-2220.617826,-8512.368333,-3217.601092
811.409425,-2368.659014,-8364.327145,-2451.505594
811.409750,-962.267725,-9104.533087,-1762.019645
811.410074,1924.535449,-10658.965565,0.000000
811.410398,4663.297435,-11399.171507,459.657299
811.410722,5477.523971,-11917.315666,1532.190996
811.411047,4737.318029,-11843.295072,1915.238745
811.411371,2590.720797,-11325.150913,1991.848295
811.411695,0.000000,-10214.842000,1685.410096
811.412019,-1258.350101,-9992.780217,1302.362347
811.412344,-1776.494261,-10362.883188,229.828649
811.412668,-888.247130,-10288.862594,-919.314598
811.412992,-592.164754,-9770.718434,-2221.676944
811.413316,-888.247130,-9622.677246,-2911.162892
811.413640,-2146.597232,-9548.656652,-3217.601092
811.413965,-3108.864956,-9252.574275,-2911.162892
811.414289,-3182.885551,-8364.327145,-2451.505594
811.414613,-2590.720797,-8438.347739,-1302.362347
811.414937,888.247130,-9696.697840,-459.657299
811.415262,3923.091493,-9992.780217,229.828649
811.415586,5107.421000,-10807.006753,1762.019645
811.415910,4145.153275,-10732.986159,2145.067394
811.416234,1702.473667,-9622.677246,1762.019645
811.416559,-1332.370696,-9178.553681,1838.629195
811.416883,-2516.700203,-8956.491898,1532.190996
811.417207,-2368.659014,-9326.594869,229.828649
811.417531,-1628.453072,-9622.677246,-383.047749
811.417855,-444.123565,-9474.636058,-1302.362347
811.418180,-370.102971,-9178.553681,-1762.019645
811.418504,-1110.308913,-8882.471304,-2145.067394
811.418828,-2368.659014,-8364.327145,-2451.505594
811.419152,-2516.700203,-7550.100608,-1915.238745
811.419477,-1850.514855,-8068.244768,-536.266849
811.419801,962.267725,-9474.636058,229.828649
811.420125,3256.906145,-10362.883188,1302.362347
811.420449,4885.359217,-10658.965565,2068.457845
811.420774,4071.132681,-10066.800811,2298.286494
811.421098,1406.391290,-10214.842000,1991.848295
811.421422,-1332.370696,-10214.842000,1685.410096
811.421746,-2442.679609,-9474.636058,2221.676944
811.422070,-1776.494261,-10214.842000,1991.848295
811.422395,-1258.350101,-10066.800811,306.438199
811.422719,-666.185348,-10140.821405,-766.095498
811.423043,-1406.391290,-9474.636058,-1302.362347
811.423367,-2146.597232,-9622.677246,-1991.848295
811.423692,-3034.844362,-9326.594869,-1991.848295
811.424016,-2960.823768,-9030.512492,-1608.800546
811.424340,-2072.576638,-8586.388927,-842.705048
811.424664,518.144159,-9548.656652,0.000000
811.424989,4145.153275,-10732.986159,919.314598
811.425313,5551.544565,-11473.192101,1838.629195
811.425637,5033.400406,-11251.130318,2451.505594
811.425961,2442.679609,-10510.924376,2374.896044
811.426285,-518.144159,-9844.739029,2451.505594
811.426610,-1850.514855,-9622.677246,2298.286494
811.426934,-2220.617826,-9992.780217,1455.581446
811.427258,-1406.391290,-9992.780217,919.314598
811.427582,-148.041188,-9770.718434,-153.219100
811.427907,518.144159,-8956.491898,-1225.752797
811.428231,-444.123565,-8438.347739,-1991.848295
811.428555,-1776.494261,-8512.368333,-1915.238745
811.428879,-2664.741391,-8216.285956,-1762.019645
811.429204,-2368.659014,-8290.306550,-1072.533697
811.429528,-370.102971,-9104.533087,0.000000
811.429852,2812.782580,-10436.903782,612.876398
811.430176,5107.421000,-11325.150913,1455.581446
811.430500,5477.523971,-10732.986159,2221.676944
811.430825,3404.947333,-9918.759623,2528.115143
811.431149,444.123565,-9252.574275,2451.505594
811.431473,-1036.288319,-9474.636058,2374.896044
811.431797,-1776.494261,-9400.615463,1455.581446
811.432122,-1480.411884,-9252.574275,76.609550
811.432446,-1184.329507,-8956.491898,-1455.581446
811.432770,-1480.411884,-8734.430116,-2298.286494
811.433094,-1924.535449,-8438.347739,-2374.896044
811.433419,-2516.700203,-8438.347739,-2757.943793
811.433743,-2886.803174,-8068.244768,-2604.724693
811.434067,-2220.617826,-8142.265362,-1608.800546
811.434391,-74.020594,-9474.636058,-306.438199
811.434715,2442.679609,-10436.903782,383.047749
811.435040,4293.194464,-11621.233289,536.266849
811.435364,4367.215058,-11769.274478,1378.971896
811.435688,2146.597232,-11029.068536,1532.190996
811.436012,-444.123565,-10658.965565,1455.581446
811.436337,-1924.535449,-10288.862594,1072.533697
811.436661,-2146.597232,-10362.883188,612.876398
811.436985,-1554.432478,-10066.800811,-919.314598
811.437309,-444.123565,-9844.739029,-2374.896044
811.437633,-518.144159,-9622.677246,-2834.553343
811.437958,-740.205942,-9770.718434,-3524.039291
811.438282,-2294.638420,-9326.594869,-3447.429741
811.438606,-2738.761985,-8882.471304,-3370.820191
811.438930,-2368.659014,-8808.450710,-2528.115143
811.439255,0.000000,-10140.821405,-1455.581446
811.439579,2368.659014,-11177.109724,0.000000
811.439903,4959.379811,-11695.253884,995.924147
811.440227,4737.318029,-11177.109724,1915.238745
811.440552,3478.967927,-10584.944971,2068.457845
811.440876,962.267725,-9918.759623,1838.629195
811.441200,-814.226536,-9474.636058,1838.629195
811.441524,-888.247130,-9474.636058,995.924147
811.441848,-814.226536,-9104.533087,-153.219100
811.442173,0.000000,-9252.574275,-1685.410096
811.442497,-592.164754,-9400.615463,-2451.505594
811.442821,-1776.494261,-9696.697840,-2834.553343
811.443145,-2812.782580,-9104.533087,-2757.943793
811.443470,-3849.070898,-8364.327145,-2298.286494
811.443794,-3256.906145,-8290.306550,-1455.581446
811.444118,-888.247130,-9400.615463,0.000000
811.444442,1850.514855,-10214.842000,459.657299
811.444767,4145.153275,-10955.047942,2451.505594
811.445091,4145.153275,-10807.006753,2834.553343
811.445415,2812.782580,-10140.821405,3064.381992
811.445739,-370.102971,-9474.636058,2911.162892
811.446063,-2220.617826,-9400.615463,2451.505594
811.446388,-2146.597232,-9400.615463,2451.505594
811.446712,-888.247130,-8734.430116,689.485948
811.447036,-74.020594,-7698.141797,-689.485948
811.447360,-814.226536,-7994.224174,-995.924147
811.447685,-1332.370696,-9030.512492,-2221.676944
811.448009,-2294.638420,-9104.533087,-2911.162892
811.448333,-3552.988522,-8438.347739,-2145.067394
811.448657,-3404.947333,-8068.244768,-919.314598
811.448982,-1110.308913,-9548.656652,-536.266849
811.449306,1702.473667,-10732.986159,689.485948
811.449630,4885.359217,-10584.944971,2451.505594
811.449954,5699.585753,-10881.027347,3370.820191
811.450279,4663.297435,-11325.150913,2911.162892
811.450603,1110.308913,-10214.842000,3370.820191
811.450927,-888.247130,-9400.615463,2987.772442
811.451251,-1628.453072,-9992.780217,1991.848295
811.451576,-2294.638420,-10436.903782,383.047749
811.451900,-1924.535449,-9696.697840,-1455.581446
811.452224,-1184.329507,-9696.697840,-2221.676944
811.452548,-1554.432478,-9844.739029,-2604.724693
811.452873,-2886.803174,-9918.759623,-2528.115143
811.453197,-3923.091493,-8364.327145,-2221.676944
811.453521,-3330.926739,-8142.265362,-1225.752797
811.453845,-1258.350101,-9622.677246,-995.924147
811.454170,1924.535449,-10807.006753,1072.533697
811.454494,4885.359217,-11103.089130,2221.676944
811.454818,5625.565159,-10881.027347,2834.553343
811.455142,3923.091493,-10140.821405,2681.334243
811.455467,888.247130,-9474.636058,2834.553343
811.455791,-1184.329507,-9326.594869,2451.505594
811.456115,-1628.453072,-9474.636058,2221.676944
811.456439,-888.247130,-9622.677246,689.485948
811.456764,0.000000,-8660.409521,-1072.533697
811.457088,518.144159,-8512.368333,-842.705048
811.457412,0.000000,-8512.368333,-1685.410096
811.457736,-1776.494261,-8660.409521,-2681.334243
811.458061,-3182.885551,-8142.265362,-2911.162892
811.458385,-3552.988522,-7772.162391,-2374.896044
811.458709,-1480.411884,-8956.491898,-1455.581446
811.459033,2072.576638,-10140.821405,0.000000
811.459358,5255.462188,-10658.965565,1838.629195
811.459682,5699.585753,-10510.924376,2604.724693
811.460006,4367.215058,-10658.965565,2451.505594
811.460330,1702.473667,-9696.697840,2068.457845
811.460655,-370.102971,-8956.491898,2298.286494
811.460979,-1110.308913,-9696.697840,2068.457845
811.461303,-1110.308913,-10214.842000,612.876398
811.461627,-740.205942,-9030.512492,-1225.752797
811.461952,-1776.494261,-8290.306550,-2374.896044
811.462276,-2886.803174,-9030.512492,-3064.381992
811.462600,-3627.009116,-9104.533087,-4673.182538
811.462924,-4441.235652,-8438.347739,-3600.648841
811.463249,-3775.050304,-8364.327145,-2528.115143
811.463573,-1184.329507,-9400.615463,-1991.848295
811.463897,1776.494261,-10955.047942,-995.924147
811.464221,4441.235652,-10955.047942,612.876398
811.464546,6217.729913,-11473.192101,1455.581446
811.464870,4441.235652,-11103.089130,1608.800546
811.465194,1480.411884,-11029.068536,1455.581446
811.465518,-370.102971,-10288.862594,1838.629195
811.465843,-666.185348,-10584.944971,1608.800546
811.466167,-148.041188,-10881.027347,306.438199
811.466491,-370.102971,-9474.636058,-2451.505594
811.466815,-1480.411884,-8956.491898,-3447.429741
811.467139,-2146.597232,-9992.780217,-4213.525239
811.467464,-3108.864956,-10658.965565,-4979.620737
811.467788,-4441.235652,-9252.574275,-4136.915689
811.468112,-4071.132681,-8438.347739,-3140.991542
811.468436,-1258.350101,-9696.697840,-2298.286494
811.468761,2368.659014,-10881.027347,-842.705048
811.469085,5773.606348,-11473.192101,842.705048
811.469409,7328.038826,-11325.150913,2374.896044
811.469733,6143.709319,-11843.295072,2298.286494
811.470058,3108.864956,-11325.150913,2374.896044
811.470382,814.226536,-9918.759623,2834.553343
811.470706,0.000000,-10140.821405,2451.505594
811.471030,370.102971,-11177.109724,766.095498
811.471355,-740.205942,-9474.636058,-1072.533697
811.471679,-2368.659014,-7624.121203,-2221.676944
811.472003,-3256.906145,-7994.224174,-2604.724693
811.472327,-4663.297435,-9030.512492,-3600.648841
811.472652,-5773.606348,-7846.182985,-2757.943793
811.472976,-5033.400406,-7105.977043,-1455.581446
811.473300,-2146.597232,-7994.224174,-229.828649
811.473624,1184.329507,-9326.594869,919.314598
811.473949,4737.318029,-9992.780217,2451.505594
811.474273,6957.935855,-10436.903782,4443.353888
811.474597,5033.400406,-10436.903782,3677.258390
811.474921,1406.391290,-10214.842000,3830.477490
811.475246,-1258.350101,-9622.677246,3907.087040
811.475570,-1406.391290,-9770.718434,3447.429741
811.475894,-1332.370696,-9474.636058,2451.505594
811.476218,-1036.288319,-9030.512492,1532.190996
811.476543,-962.267725,-6143.709319,-306.438199
811.476867,-2516.700203,-5551.544565,-2221.676944
811.477191,-5033.400406,-7402.059420,-2681.334243
811.477515,-5921.647536,-7846.182985,-2757.943793
811.477840,-4293.194464,-7920.203579,-2834.553343
811.478164,-3108.864956,-8734.430116,0.000000
811.478488,222.061783,-9844.739029,1072.533697
811.478812,3701.029710,-11029.068536,1685.410096
811.479137,5995.668130,-11399.171507,2911.162892
811.479461,6365.771101,-11695.253884,3907.087040
811.479785,4959.379811,-11177.109724,3600.648841
811.480109,2664.741391,-10140.821405,3524.039291
811.480434,740.205942,-10881.027347,3830.477490
811.480758,74.020594,-10955.047942,2298.286494
811.481082,-740.205942,-10066.800811,-1302.362347
811.481406,-2516.700203,-9548.656652,-3447.429741
811.481731,-4071.132681,-9548.656652,-3753.867940
811.482055,-4071.132681,-9770.718434,-4979.620737
811.482379,-3404.947333,-9770.718434,-3677.258390
811.482703,-3849.070898,-8882.471304,-2757.943793
811.483028,-1998.556043,-9622.677246,-1532.190996
811.483352,740.205942,-11103.089130,-1072.533697
811.483676,3256.906145,-11547.212695,459.657299
811.484000,5255.462188,-11473.192101,1915.238745
811.484325,5625.565159,-11547.212695,2604.724693
811.484649,4441.235652,-11177.109724,2911.162892
811.484973,1924.535449,-10140.821405,2451.505594
811.485297,148.041188,-9918.759623,2528.115143
811.485622,0.000000,-10140.821405,1302.362347
811.485946,74.020594,-9252.574275,-1608.800546
811.486270,-1110.308913,-8142.265362,-2834.553343
811.486594,-2368.659014,-8512.368333,-4136.915689
811.486919,-3108.864956,-9548.656652,-4903.011187
811.487243,-4885.359217,-8734.430116,-4673.182538
811.487567,-5477.523971,-7328.038826,-3064.381992
811.487891,-2886.803174,-8290.306550,-2298.286494
811.488216,0.000000,-10066.800811,-1149.143247
811.488540,3034.844362,-10140.821405,76.609550
811.488864,5699.585753,-9770.718434,2374.896044
811.489188,6439.791695,-10658.965565,2451.505594
811.489513,3701.029710,-10658.965565,2604.724693
811.489837,222.061783,-9548.656652,2757.943793
811.490161,-592.164754,-9918.759623,2757.943793
811.490485,-148.041188,-10658.965565,1762.019645
811.490810,-296.082377,-9918.759623,383.047749
811.491134,-814.226536,-6735.874072,-2834.553343
811.491458,-2590.720797,-6587.832884,-4290.134789
811.491782,-4737.318029,-9474.636058,-3524.039291
811.492107,-4737.318029,-9474.636058,-4749.792088
811.492431,-4589.276840,-8882.471304,-3524.039291
811.492755,-4293.194464,-8216.285956,-1532.190996
811.493079,-888.247130,-9696.697840,-1072.533697
811.493404,2368.659014,-11177.109724,-229.828649
811.493728,4959.379811,-10955.047942,919.314598
811.494052,5033.400406,-10881.027347,2911.162892
811.494376,3627.009116,-11473.192101,2451.505594
811.494701,1332.370696,-11029.068536,2911.162892
811.495025,740.205942,-10658.965565,4136.915689
811.495349,1184.329507,-10732.986159,3217.601092
811.495673,962.267725,-10955.047942,1378.971896
811.495998,-296.082377,-8586.388927,-1532.190996
811.496322,-2220.617826,-6735.874072,-3677.258390
811.496646,-4219.173869,-9252.574275,-3294.210641
811.496970,-4737.318029,-10362.883188,-3447.429741
811.497295,-5033.400406,-9400.615463,-3370.820191
811.497619,-4737.318029,-9252.574275,-1072.533697
811.497943,-1702.473667,-9474.636058,-612.876398
811.498267,1702.473667,-10807.006753,229.828649
811.498592,4441.235652,-10732.986159,2298.286494
811.498916,5921.647536,-9770.718434,3294.210641
811.499240,5699.585753,-10436.903782,3983.696590
811.499564,3034.844362,-10066.800811,4443.353888
811.499889,962.267725,-9400.615463,4596.572988
811.500213,962.267725,-9548.656652,3983.696590
811.500537,518.144159,-9326.594869,1072.533697
811.500861,-962.267725,-8364.327145,-2298.286494
811.501186,-2590.720797,-7698.141797,-1762.019645
811.501510,-3108.864956,-8512.368333,-2757.943793
811.501834,-3478.967927,-8660.409521,-3140.991542
811.502158,-4737.318029,-7846.182985,-1915.238745
811.502483,-4219.173869,-7328.038826,-689.485948
811.502807,-1480.411884,-9104.533087,-995.924147
811.503131,1406.391290,-9844.739029,0.000000
811.503455,3404.947333,-9770.718434,1838.629195
811.503780,4515.256246,-10066.800811,3294.210641
811.504104,3182.885551,-10584.944971,3140.991542
811.504428,1036.288319,-10214.842000,3294.210641
811.504752,-592.164754,-9770.718434,3370.820191
811.505077,148.041188,-10436.903782,2834.553343
811.505401,592.164754,-11029.068536,766.095498
811.505725,222.061783,-9104.533087,-1991.848295
811.506049,-1332.370696,-8734.430116,-2451.505594
811.506374,-3108.864956,-10066.800811,-2987.772442
811.506698,-3701.029710,-10807.006753,-3907.087040
811.507022,-4737.318029,-9252.574275,-3064.381992
811.507346,-4145.153275,-7994.224174,-1378.971896
811.507671,-1258.350101,-9770.718434,-1762.019645
811.507995,1924.535449,-11325.150913,-766.095498
811.508319,4663.297435,-10658.965565,842.705048
811.508643,5699.585753,-10436.903782,2451.505594
811.508968,4293.194464,-11695.253884,2221.676944
811.509292,1480.411884,-10807.006753,2451.505594
811.509616,814.226536,-9770.718434,3217.601092
811.509940,1332.370696,-10288.862594,2451.505594
811.510265,962.267725,-10658.965565,-306.438199
811.510589,-518.144159,-9326.594869,-3217.601092
811.510913,-1480.411884,-8438.347739,-3294.210641
811.511237,-1776.494261,-9992.780217,-3753.867940
811.511562,-3034.844362,-9770.718434,-4673.182538
811.511886,-4589.276840,-7254.018232,-2451.505594
811.512210,-3478.967927,-7179.997637,-1838.629195
811.512534,-666.185348,-9696.697840,-1991.848295
811.512859,2072.576638,-10881.027347,-689.485948
811.513183,4293.194464,-9622.677246,1838.629195
811.513507,4811.338623,-9770.718434,2451.505594
811.513831,3182.885551,-10955.047942,2451.505594
811.514156,0.000000,-9770.718434,2604.724693
811.514480,-1554.432478,-9252.574275,3370.820191
811.514804,-888.247130,-10584.944971,2068.457845
811.515128,-296.082377,-10436.903782,-306.438199
811.515453,0.000000,-7698.141797,-2604.724693
811.515777,-666.185348,-7920.203579,-2451.505594
811.516101,-1628.453072,-9252.574275,-3370.820191
811.516425,-2812.782580,-9030.512492,-4060.306139
811.516750,-4441.235652,-7031.956449,-1991.848295
811.517074,-3627.009116,-7476.080014,-1532.190996
811.517398,-592.164754,-9844.739029,-1532.190996
811.517722,2516.700203,-10510.924376,0.000000
811.518047,5255.462188,-9696.697840,2068.457845
811.518371,5921.647536,-10362.883188,3064.381992
811.518695,4145.153275,-11917.315666,2528.115143
811.519019,518.144159,-9992.780217,2834.553343
811.519344,-1110.308913,-9252.574275,3140.991542
811.519668,-222.061783,-10732.986159,2451.505594
811.519992,0.000000,-11251.130318,0.000000
811.520316,-148.041188,-9030.512492,-2145.067394
811.520640,-962.267725,-9030.512492,-2068.457845
811.520965,-1850.514855,-10436.903782,-2834.553343
811.521289,-3849.070898,-9992.780217,-3677.258390
811.521613,-4589.276840,-7772.162391,-2068.457845
811.521937,-3627.009116,-8290.306550,-1225.752797
811.522262,-888.247130,-10510.924376,-766.095498
811.522586,2886.803174,-11473.192101,459.657299
811.522910,5625.565159,-10881.027347,2911.162892
811.523234,5773.606348,-10436.903782,3217.601092
811.523559,2960.823768,-10955.047942,2757.943793
811.523883,-518.144159,-9844.739029,2834.553343
811.524207,-1924.535449,-9326.594869,2681.334243
811.524531,-1628.453072,-10214.842000,1991.848295
811.524856,-1332.370696,-9992.780217,153.219100
811.525180,-962.267725,-7846.182985,-2221.676944
811.525504,-1554.432478,-7698.141797,-2298.286494
811.525828,-2368.659014,-8956.491898,-2451.505594
811.526153,-2590.720797,-9252.574275,-2911.162892
811.526477,-4293.194464,-7772.162391,-1915.238745
811.526801,-3404.947333,-7920.203579,-919.314598
811.527125,-592.164754,-9844.739029,-842.705048
811.527450,1998.556043,-10362.883188,229.828649
811.527774,4959.379811,-10214.842000,2451.505594
811.528098,5847.626942,-11103.089130,3294.210641
811.528422,3552.988522,-10881.027347,1685.410096
811.528747,518.144159,-9178.553681,2451.505594
811.529071,-1110.308913,-8586.388927,2987.772442
811.529395,-740.205942,-9622.677246,1378.971896
811.529719,-962.267725,-10214.842000,-1072.533697
811.530044,-1184.329507,-9400.615463,-2221.676944
811.530368,-1036.288319,-8882.471304,-2221.676944
811.530692,-1184.329507,-9030.512492,-2681.334243
811.531016,-1924.535449,-8660.409521,-2681.334243
811.531341,-3256.906145,-7698.141797,-2451.505594
811.531665,-2146.597232,-8216.285956,-1838.629195
811.531989,74.020594,-9992.780217,-1378.971896
811.532313,3108.864956,-10955.047942,306.438199
811.532638,5477.523971,-11029.068536,2528.115143
811.532962,5625.565159,-11843.295072,2604.724693
811.533286,2738.761985,-11251.130318,2221.676944
811.533610,-444.123565,-10362.883188,2221.676944
811.533935,-2664.741391,-10066.800811,1915.238745
811.534259,-2368.659014,-11177.109724,842.705048
811.534583,-1332.370696,-10584.944971,-383.047749
811.534907,-740.205942,-9400.615463,-1302.362347
811.535232,-592.164754,-9474.636058,-1838.629195
811.535556,-1628.453072,-9918.759623,-2681.334243
811.535880,-3330.926739,-9178.553681,-3217.601092
811.536204,-4515.256246,-7550.100608,-2528.115143
811.536529,-3627.009116,-8216.285956,-2068.457845
811.536853,-962.267725,-9474.636058,-995.924147
811.537177,2812.782580,-10807.006753,383.047749
811.537501,5403.503377,-10807.006753,2068.457845
811.537826,5403.503377,-10807.006753,2604.724693
811.538150,3627.009116,-11473.192101,2374.896044
811.538474,296.082377,-9400.615463,2528.115143
811.538798,-666.185348,-8956.491898,2528.115143
811.539123,-888.247130,-9474.636058,1455.581446
811.539447,-740.205942,-9844.739029,-306.438199
811.539771,-370.102971,-9474.636058,-1532.190996
811.540095,-296.082377,-9030.512492,-2374.896044
811.540420,-1110.308913,-9104.533087,-2374.896044
811.540744,-2960.823768,-8364.327145,-2834.553343
811.541068,-3256.906145,-8364.327145,-2298.286494
811.541392,-2664.741391,-8290.306550,-1455.581446
811.541717,-444.123565,-9622.677246,-459.657299
811.542041,2368.659014,-10288.862594,459.657299
811.542365,4367.215058,-10436.903782,1378.971896
811.542689,4367.215058,-11029.068536,2757.943793
811.543014,2220.617826,-10510.924376,2528.115143
811.543338,-814.226536,-9622.677246,2068.457845
811.543662,-2146.597232,-9548.656652,2221.676944
811.543986,-1628.453072,-10214.842000,1608.800546
811.544311,-592.164754,-9918.759623,-153.219100
811.544635,0.000000,-9178.553681,-1225.752797
811.544959,-444.123565,-9178.553681,-1532.190996
811.545283,-1184.329507,-9992.780217,-2451.505594
811.545608,-2442.679609,-9104.533087,-3370.820191
811.545932,-3627.009116,-8364.327145,-2374.896044
811.546256,-3108.864956,-8660.409521,-1302.362347
811.546580,-814.226536,-9992.780217,-766.095498
811.546905,2368.659014,-10881.027347,153.219100
811.547229,4811.338623,-10881.027347,2374.896044
811.547553,4885.359217,-10288.862594,2451.505594
811.547877,3330.926739,-10807.006753,2374.896044
811.548202,0.000000,-9696.697840,2451.505594
811.548526,-1554.432478,-9030.512492,2298.286494
811.548850,-1480.411884,-9548.656652,1838.629195
811.549174,-1036.288319,-9474.636058,229.828649
811.549499,-666.185348,-8882.471304,-995.924147
811.549823,-518.144159,-9104.533087,-1608.800546
811.550147,-962.267725,-9326.594869,-2068.457845
811.550471,-2442.679609,-9104.533087,-3064.381992
811.550796,-3923.091493,-7698.141797,-2221.676944
811.551120,-3182.885551,-7772.162391,-1455.581446
811.551444,-666.185348,-9474.636058,-459.657299
811.551768,2368.659014,-10362.883188,536.266849
811.552093,4959.379811,-10658.965565,2221.676944
811.552417,5107.421000,-10732.986159,2451.505594
811.552740,2960.823768,-10510.924376,2068.457845
811.553064,0.000000,-10140.821405,2681.334243
811.553388,-1332.370696,-9770.718434,2757.943793
811.553713,-1554.432478,-10140.821405,1838.629195
811.554037,-1110.308913,-10066.800811,0.000000
811.554361,-666.185348,-9696.697840,-1225.752797
811.554685,-296.082377,-9844.739029,-2145.067394
811.555010,-962.267725,-10140.821405,-2604.724693
811.555334,-2368.659014,-9474.636058,-2834.553343
811.555658,-3256.906145,-8068.244768,-2145.067394
811.555982,-2738.761985,-7846.182985,-1378.971896
811.556306,-592.164754,-9178.553681,-842.705048
811.556631,2590.720797,-10510.924376,306.438199
811.556955,5107.421000,-11399.171507,1378.971896
811.557279,5329.482782,-11177.109724,2298.286494
811.557603,3552.988522,-10584.944971,2604.724693
811.557927,444.123565,-9400.615463,2374.896044
811.558252,-1036.288319,-9474.636058,1685.410096
811.558576,-1924.535449,-9696.697840,766.095498
811.558900,-1554.432478,-10510.924376,-383.047749
811.559224,-1036.288319,-10066.800811,-1532.190996
811.559549,-666.185348,-9770.718434,-2298.286494
811.559873,-592.164754,-9326.594869,-2298.286494
811.560197,-1924.535449,-8882.471304,-2451.505594
811.560521,-2738.761985,-8068.244768,-2604.724693
811.560845,-2886.803174,-8734.430116,-1762.019645
811.561170,-1184.329507,-9400.615463,-995.924147
811.561494,1998.556043,-10436.903782,0.000000
811.561818,4293.194464,-11029.068536,1302.362347
811.562142,4885.359217,-11177.109724,2221.676944
811.562466,2294.638420,-10140.821405,2604.724693
811.562791,0.000000,-9178.553681,1455.581446
811.563115,-1702.473667,-8882.471304,1608.800546
811.563439,-1776.494261,-9770.718434,995.924147
811.563763,-666.185348,-9622.677246,0.000000
811.564088,0.000000,-8882.471304,-1302.362347
811.564412,0.000000,-8956.491898,-2068.457845
811.564736,-740.205942,-9030.512492,-2757.943793
811.565060,-2146.597232,-8734.430116,-3600.648841
811.565384,-4071.132681,-8216.285956,-2987.772442
811.565709,-3849.070898,-7846.182985,-2068.457845
811.566033,-1258.350101,-9474.636058,-1302.362347
811.566357,1924.535449,-10807.006753,0.000000
811.566681,4441.235652,-11177.109724,1378.971896
811.567005,4885.359217,-11103.089130,1991.848295
811.567330,3330.926739,-10807.006753,2145.067394
811.567654,1184.329507,-10732.986159,2374.896044
811.567978,-518.144159,-9474.636058,2298.286494
811.568302,-444.123565,-10140.821405,2145.067394
811.568627,-296.082377,-10362.883188,459.657299
811.568951,-666.185348,-9548.656652,-1225.752797
811.569275,-1480.411884,-9326.594869,-1991.848295
811.569599,-2294.638420,-9474.636058,-2757.943793
811.569923,-3256.906145,-9178.553681,-3524.039291
811.570248,-4441.235652,-8216.285956,-2604.724693
811.570572,-3701.029710,-7476.080014,-1915.238745
811.570896,-888.247130,-9474.636058,-766.095498
811.571220,2294.638420,-10955.047942,0.000000
811.571544,4885.359217,-10955.047942,1685.410096
811.571869,5403.503377,-10807.006753,2987.772442
811.572193,4589.276840,-10955.047942,2987.772442
811.572517,1776.494261,-9696.697840,2834.553343
811.572841,0.000000,-9696.697840,3370.820191
811.573166,-666.185348,-10362.883188,2681.334243
811.573490,-518.144159,-10362.883188,612.876398
811.573814,-592.164754,-9252.574275,-1302.362347
811.574138,-1554.432478,-8512.368333,-1915.238745
811.574462,-2664.741391,-9178.553681,-3064.381992
811.574787,-4145.153275,-8808.450710,-3370.820191
811.575111,-5033.400406,-7105.977043,-2604.724693
811.575435,-4515.256246,-7402.059420,-1685.410096
811.575759,-1850.514855,-9104.533087,-1072.533697
811.576083,1406.391290,-10140.821405,0.000000
811.576408,4663.297435,-10362.883188,1991.848295
811.576732,6217.729913,-10732.986159,3370.820191
811.577056,5255.462188,-11029.068536,3140.991542
811.577380,2368.659014,-10584.944971,2834.553343
811.577705,222.061783,-10214.842000,3753.867940
811.578029,0.000000,-10658.965565,2911.162892
811.578353,-148.041188,-10881.027347,1455.581446
811.578677,-740.205942,-8364.327145,-1532.190996
811.579001,-1702.473667,-7550.100608,-2911.162892
811.579326,-2812.782580,-9400.615463,-2834.553343
811.579650,-2738.761985,-10140.821405,-4596.572988
811.579974,-3775.050304,-8068.244768,-3294.210641
811.580298,-4219.173869,-7402.059420,-1762.019645
811.580622,-1776.494261,-9030.512492,-1608.800546
811.580947,1480.411884,-10881.027347,-612.876398
811.581271,4219.173869,-10955.047942,1149.143247
811.581595,5625.565159,-11103.089130,2834.553343
811.581919,4737.318029,-11843.295072,2374.896044
811.582244,2368.659014,-11103.089130,2911.162892
811.582568,0.000000,-9474.636058,3370.820191
811.582892,-296.082377,-10362.883188,2834.553343
811.583216,-296.082377,-10732.986159,1149.143247
811.583540,-814.226536,-9030.512492,-1838.629195
811.583865,-1628.453072,-7179.997637,-2528.115143
811.584189,-2072.576638,-8364.327145,-3140.991542
811.584513,-2812.782580,-9326.594869,-4979.620737
811.584837,-4071.132681,-7772.162391,-3753.867940
811.585161,-4589.276840,-7105.977043,-2298.286494
811.585486,-2368.659014,-8808.450710,-1685.410096
811.585810,296.082377,-10807.006753,-842.705048
811.586134,3330.926739,-10658.965565,1149.143247
811.586458,5921.647536,-10362.883188,2451.505594
811.586783,5477.523971,-11325.150913,2757.943793
811.587107,2664.741391,-11251.130318,2681.334243
811.587431,148.041188,-10436.903782,3524.039291
811.587755,-444.123565,-10214.842000,3064.381992
811.588079,-296.082377,-10955.047942,1762.019645
811.588404,-814.226536,-9474.636058,0.000000
811.588728,-962.267725,-5625.565159,-3294.210641
811.589052,-2516.700203,-7105.977043,-3217.601092
811.589376,-4367.215058,-10362.883188,-3830.477490
811.589700,-4367.215058,-9696.697840,-4596.572988
811.590025,-4663.297435,-8512.368333,-2298.286494
811.590349,-3701.029710,-9030.512492,-766.095498
811.590673,-518.144159,-11029.068536,-689.485948
811.590997,2442.679609,-12065.356855,76.609550
811.591322,4441.235652,-11103.089130,1532.190996
811.591646,4367.215058,-11177.109724,2374.896044
811.591970,2812.782580,-11621.233289,1991.848295
811.592294,1036.288319,-10436.903782,3140.991542
811.592618,740.205942,-10214.842000,3830.477490
811.592943,1184.329507,-10510.924376,2528.115143
811.593267,740.205942,-10066.800811,76.609550
811.593591,-740.205942,-6957.935855,-3370.820191
811.593915,-2516.700203,-7105.977043,-3983.696590
811.594239,-3923.091493,-10214.842000,-2834.553343
811.594564,-3701.029710,-10140.821405,-4060.306139
811.594888,-4515.256246,-8364.327145,-2068.457845
811.595212,-3849.070898,-8290.306550,-995.924147
811.595536,-370.102971,-9622.677246,-1072.533697
811.595861,2516.700203,-10807.006753,76.609550
811.596185,5033.400406,-10140.821405,2068.457845
811.596509,6439.791695,-9474.636058,3677.258390
811.596833,5699.585753,-11029.068536,2145.067394
811.597157,1998.556043,-9622.677246,3830.477490
811.597482,740.205942,-8956.491898,3983.696590
811.597806,1184.329507,-9696.697840,3064.381992
811.598130,592.164754,-10362.883188,1225.752797
811.598454,-444.123565,-7772.162391,-1149.143247
811.598778,-2368.659014,-6143.709319,-3217.601092
811.599103,-4145.153275,-8364.327145,-3370.820191
811.599427,-4145.153275,-9696.697840,-3600.648841
811.599751,-4885.359217,-8364.327145,-2451.505594
811.600075,-4071.132681,-7846.182985,-995.924147
811.600400,-1110.308913,-9400.615463,-919.314598
811.600724,1850.514855,-10362.883188,383.047749
811.601048,4515.256246,-10288.862594,1685.410096
811.601372,5773.606348,-10362.883188,3753.867940
811.601696,4515.256246,-10955.047942,2757.943793
811.602021,2072.576638,-10436.903782,3524.039291
811.602345,1110.308913,-10140.821405,4290.134789
811.602669,1258.350101,-10510.924376,3140.991542
811.602993,592.164754,-10214.842000,842.705048
811.603317,-1036.288319,-8512.368333,-2681.334243
811.603642,-2664.741391,-8808.450710,-3370.820191
811.603966,-3108.864956,-9992.780217,-3524.039291
811.604290,-3997.112087,-9548.656652,-5132.839837
811.604614,-4885.359217,-8364.327145,-2528.115143
811.604939,-4293.194464,-8068.244768,-1915.238745
811.605263,-1406.391290,-10214.842000,-1838.629195
811.605587,1480.411884,-11325.150913,-306.438199
811.605911,3849.070898,-10584.944971,1838.629195
811.606235,4959.379811,-10510.924376,2911.162892
811.606560,2590.720797,-11769.274478,2451.505594
811.606884,444.123565,-11695.253884,2834.553343
811.607208,0.000000,-10881.027347,3524.039291
811.607532,1184.329507,-11621.233289,2757.943793
811.607856,1480.411884,-11325.150913,1149.143247
811.608181,444.123565,-7624.121203,-2451.505594
811.608505,-962.267725,-7550.100608,-3217.601092
811.608829,-2368.659014,-10140.821405,-3217.601092
811.609153,-3256.906145,-10881.027347,-4903.011187
811.609478,-4885.359217,-8734.430116,-3064.381992
811.609802,-4219.173869,-7994.224174,-1762.019645
811.610126,-1406.391290,-9548.656652,-1915.238745
811.610450,1628.453072,-10732.986159,-536.266849
811.610774,4515.256246,-9548.656652,1685.410096
811.611099,5551.544565,-9474.636058,2681.334243
811.611423,3552.988522,-9770.718434,1455.581446
811.611747,740.205942,-10288.862594,2987.772442
811.612071,0.000000,-9992.780217,3983.696590
811.612395,1554.432478,-10436.903782,3294.210641
811.612720,1332.370696,-10436.903782,1455.581446
811.613044,0.000000,-6883.915261,-2681.334243
811.613368,-1776.494261,-6439.791695,-3447.429741
811.613692,-3478.967927,-10066.800811,-3140.991542
811.614017,-3034.844362,-10881.027347,-4826.401637
811.614341,-3997.112087,-8216.285956,-2987.772442
811.614665,-4219.173869,-7328.038826,-842.705048
811.614989,-1110.308913,-9030.512492,-1149.143247
811.615313,1406.391290,-10955.047942,76.609550
811.615638,4515.256246,-9474.636058,1378.971896
811.615962,4959.379811,-9178.553681,2681.334243
811.616286,3478.967927,-10436.903782,2298.286494
811.616610,1184.329507,-10881.027347,2987.772442
811.616934,148.041188,-10214.842000,4136.915689
811.617259,1110.308913,-10436.903782,3140.991542
811.617583,740.205942,-10584.944971,1149.143247
