#time,accel_x,accel_y,accel_z
370.681525,5329.482782,-7846.182985,1991.848295
370.681850,6587.832884,-8882.471304,2911.162892
370.682174,7402.059420,-10658.965565,3064.381992
370.682498,6661.853478,-12953.603985,2298.286494
370.682823,3923.091493,-12953.603985,76.609550
370.683147,1258.350101,-13545.768739,-1455.581446
370.683471,-1258.350101,-13471.748144,-2068.457845
370.683796,-1406.391290,-13471.748144,-1455.581446
370.684120,-1554.432478,-12953.603985,-766.095498
370.684444,-1776.494261,-11621.233289,-1149.143247
370.684769,-1554.432478,-9696.697840,-1762.019645
370.685093,-1628.453072,-8882.471304,-1225.752797
370.685417,-1258.350101,-7698.141797,-1608.800546
370.685742,-962.267725,-7698.141797,-919.314598
370.686066,-518.144159,-7328.038826,-536.266849
370.686390,814.226536,-7105.977043,229.828649
370.686715,3108.864956,-8290.306550,536.266849
370.687039,4589.276840,-9252.574275,0.000000
370.687364,4589.276840,-10584.944971,-1225.752797
370.687688,3849.070898,-11991.336260,-1378.971896
370.688012,2220.617826,-12361.439231,-1378.971896
370.688337,740.205942,-12065.356855,-689.485948
370.688661,-518.144159,-11325.150913,-612.876398
370.688985,-962.267725,-10436.903782,-1685.410096
370.689310,0.000000,-9400.615463,0.000000
370.689634,1998.556043,-8660.409521,0.000000
370.689958,3478.967927,-8142.265362,153.219100
370.690283,3256.906145,-7476.080014,153.219100
370.690607,1998.556043,-8068.244768,459.657299
370.690931,296.082377,-8882.471304,459.657299
370.691256,-444.123565,-8956.491898,-536.266849
370.691580,-740.205942,-9030.512492,0.000000
370.691905,-518.144159,-9474.636058,0.000000
370.692229,740.205942,-10140.821405,0.000000
370.692553,1924.535449,-10066.800811,1072.533697
370.692878,2738.761985,-10066.800811,1685.410096
370.693202,3034.844362,-10288.862594,1762.019645
370.693526,3108.864956,-10066.800811,2221.676944
370.693851,3256.906145,-9548.656652,2451.505594
370.694175,3627.009116,-9622.677246,1991.848295
370.694499,2812.782580,-9696.697840,2145.067394
370.694824,1406.391290,-10436.903782,1838.629195
370.695148,-148.041188,-10436.903782,842.705048
370.695472,-1554.432478,-9474.636058,689.485948
370.695797,-2590.720797,-9030.512492,766.095498
370.696121,-3034.844362,-9030.512492,1455.581446
370.696445,-2368.659014,-9770.718434,2068.457845
370.696770,-2072.576638,-9474.636058,2068.457845
370.697094,-1110.308913,-9474.636058,2451.505594
370.697419,-370.102971,-9104.533087,2834.553343
370.697743,370.102971,-9252.574275,2834.553343
370.698067,0.000000,-9178.553681,2757.943793
370.698392,-1258.350101,-9104.533087,2451.505594
370.698716,-1406.391290,-9178.553681,2374.896044
370.699040,-2442.679609,-10214.842000,1838.629195
370.699365,-1628.453072,-10362.883188,1378.971896
370.699689,-592.164754,-10140.821405,1302.362347
370.700013,666.185348,-9992.780217,1762.019645
370.700338,2072.576638,-9696.697840,2528.115143
370.700662,3108.864956,-9474.636058,3447.429741
370.700986,3330.926739,-9474.636058,3753.867940
370.701311,2590.720797,-9696.697840,3753.867940
370.701635,1702.473667,-10362.883188,3677.258390
370.701960,296.082377,-10436.903782,3064.381992
370.702284,-518.144159,-10288.862594,2451.505594
370.702608,-1702.473667,-9770.718434,1991.848295
370.702933,-2738.761985,-8808.450710,1149.143247
370.703257,-3330.926739,-8068.244768,689.485948
370.703581,-3997.112087,-7254.018232,0.000000
370.703906,-4515.256246,-6957.935855,229.828649
370.704230,-3775.050304,-6735.874072,-229.828649
370.704554,-2294.638420,-6957.935855,0.000000
370.704879,-222.061783,-7179.997637,459.657299
370.705203,1850.514855,-7624.121203,995.924147
370.705527,3330.926739,-8586.388927,1838.629195
370.705852,3997.112087,-9548.656652,1378.971896
370.706176,3552.988522,-10584.944971,1302.362347
370.706500,2738.761985,-10955.047942,612.876398
370.706825,1776.494261,-11843.295072,-459.657299
370.707149,444.123565,-12287.418637,-1149.143247
370.707474,-222.061783,-11843.295072,-1685.410096
370.707798,148.041188,-11399.171507,-1915.238745
370.708122,0.000000,-10140.821405,-2528.115143
370.708447,444.123565,-9992.780217,-2374.896044
370.708771,-148.041188,-8512.368333,-1838.629195
370.709095,0.000000,-8808.450710,-2374.896044
370.709419,0.000000,-8734.430116,-2298.286494
370.709743,-148.041188,-8808.450710,-2298.286494
370.710068,74.020594,-9252.574275,-2221.676944
370.710392,814.226536,-9770.718434,-2298.286494
370.710716,1628.453072,-10066.800811,-3370.820191
370.711040,888.247130,-10066.800811,-2911.162892
370.711364,-148.041188,-9844.739029,-3370.820191
370.711689,-962.267725,-10436.903782,-3983.696590
370.712013,-1554.432478,-10658.965565,-4060.306139
370.712337,-1480.411884,-10658.965565,-3983.696590
370.712661,-1480.411884,-10584.944971,-3677.258390
370.712985,-888.247130,-10436.903782,-2834.553343
370.713309,592.164754,-10955.047942,-3140.991542
370.713634,1036.288319,-11399.171507,-2451.505594
370.713958,962.267725,-12287.418637,-2221.676944
370.714282,962.267725,-12731.542202,-1991.848295
370.714606,740.205942,-12657.521608,-1838.629195
370.714930,296.082377,-12731.542202,-2374.896044
370.715255,0.000000,-12139.377449,-2374.896044
370.715579,296.082377,-11769.274478,-2451.505594
370.715903,740.205942,-10510.924376,-1762.019645
370.716227,592.164754,-9696.697840,-2451.505594
370.716551,74.020594,-8882.471304,-1302.362347
370.716875,-740.205942,-7994.224174,-1302.362347
370.717200,-1036.288319,-7772.162391,-766.095498
370.717524,-1332.370696,-7698.141797,0.000000
370.717848,-2368.659014,-6957.935855,-153.219100
370.718172,-2368.659014,-7402.059420,612.876398
370.718496,-2960.823768,-8068.244768,383.047749
370.718820,-3478.967927,-8290.306550,0.000000
370.719145,-3627.009116,-8808.450710,0.000000
370.719469,-3775.050304,-9474.636058,0.000000
370.719793,-2886.803174,-9844.739029,0.000000
370.720117,-1406.391290,-10288.862594,612.876398
370.720441,148.041188,-10584.944971,1608.800546
370.720766,1850.514855,-10732.986159,2221.676944
370.721090,3256.906145,-10362.883188,2145.067394
370.721414,4441.235652,-10288.862594,2987.772442
370.721738,4367.215058,-10288.862594,3294.210641
370.722062,3478.967927,-10214.842000,2911.162892
370.722386,1480.411884,-9400.615463,3370.820191
370.722711,-222.061783,-9252.574275,2834.553343
370.723035,-2442.679609,-8216.285956,2221.676944
370.723359,-3330.926739,-8142.265362,2298.286494
370.723683,-4293.194464,-7402.059420,1378.971896
370.724007,-4367.215058,-6883.915261,1149.143247
370.724332,-3627.009116,-6735.874072,1149.143247
370.724656,-2664.741391,-6883.915261,1838.629195
370.724980,-1184.329507,-7031.956449,2298.286494
370.725304,370.102971,-7254.018232,1991.848295
370.725628,2146.597232,-7846.182985,2451.505594
370.725952,3478.967927,-9400.615463,2757.943793
370.726277,4737.318029,-10732.986159,2451.505594
370.726601,5329.482782,-11843.295072,2911.162892
370.726925,5255.462188,-12657.521608,2604.724693
370.727249,4367.215058,-12953.603985,2528.115143
370.727573,2664.741391,-12805.562797,1915.238745
370.727897,962.267725,-12657.521608,1838.629195
370.728222,-370.102971,-11991.336260,1225.752797
370.728546,-1258.350101,-10955.047942,919.314598
370.728870,-1850.514855,-9918.759623,766.095498
370.729194,-2146.597232,-8734.430116,536.266849
370.729518,-1850.514855,-7920.203579,842.705048
370.729843,-1776.494261,-7031.956449,153.219100
370.730167,-1776.494261,-7179.997637,383.047749
370.730491,-1776.494261,-6809.894666,0.000000
370.730815,-1110.308913,-6883.915261,-536.266849
370.731139,-518.144159,-7920.203579,-1072.533697
370.731463,-222.061783,-9030.512492,-1302.362347
370.731788,148.041188,-9622.677246,-1225.752797
370.732112,888.247130,-10362.883188,-842.705048
370.732436,1554.432478,-10436.903782,-306.438199
370.732760,1628.453072,-11547.212695,-1225.752797
370.733084,1998.556043,-11251.130318,0.000000
370.733408,2220.617826,-11695.253884,-306.438199
370.733733,2220.617826,-11695.253884,-459.657299
370.734057,1998.556043,-11473.192101,-612.876398
370.734381,1332.370696,-10955.047942,-919.314598
370.734705,666.185348,-10288.862594,-1532.190996
370.735029,-518.144159,-9770.718434,-995.924147
370.735354,-2294.638420,-9252.574275,-2298.286494
370.735678,-3108.864956,-9030.512492,-2604.724693
370.736002,-3256.906145,-8586.388927,-2987.772442
370.736326,-2738.761985,-8142.265362,-2911.162892
370.736650,-2368.659014,-7772.162391,-3064.381992
370.736974,-1850.514855,-7846.182985,-2757.943793
370.737299,-1258.350101,-7698.141797,-2298.286494
370.737623,-1406.391290,-7994.224174,-2374.896044
370.737947,-740.205942,-9252.574275,-1915.238745
370.738271,-1036.288319,-9252.574275,-1608.800546
370.738595,-444.123565,-9770.718434,-1378.971896
370.738920,-148.041188,-10510.924376,-1302.362347
370.739244,296.082377,-11103.089130,-1532.190996
370.739568,592.164754,-12361.439231,-1685.410096
370.739892,1184.329507,-12805.562797,-1149.143247
370.740216,1258.350101,-12953.603985,-766.095498
370.740540,1702.473667,-12583.501014,-995.924147
370.740865,2220.617826,-12287.418637,-842.705048
370.741189,2072.576638,-11621.233289,-689.485948
370.741513,1554.432478,-11103.089130,-536.266849
370.741837,1036.288319,-10066.800811,-229.828649
370.742161,296.082377,-8660.409521,-306.438199
370.742485,0.000000,-8142.265362,-459.657299
370.742810,-296.082377,-8364.327145,-536.266849
370.743134,-1332.370696,-7920.203579,-306.438199
370.743458,-2146.597232,-7328.038826,-459.657299
370.743782,-2590.720797,-7550.100608,-459.657299
370.744106,-3701.029710,-7846.182985,-383.047749
370.744431,-3627.009116,-8142.265362,-612.876398
370.744755,-3034.844362,-8586.388927,0.000000
370.745079,-2368.659014,-9104.533087,0.000000
370.745403,-740.205942,-9918.759623,229.828649
370.745727,666.185348,-10140.821405,536.266849
370.746051,2294.638420,-11177.109724,1532.190996
370.746376,3849.070898,-11843.295072,2221.676944
370.746700,5107.421000,-11991.336260,2298.286494
370.747024,5255.462188,-11547.212695,2528.115143
370.747348,4663.297435,-11177.109724,2451.505594
370.747672,3256.906145,-10881.027347,1838.629195
370.747997,1480.411884,-10362.883188,1532.190996
370.748321,148.041188,-9474.636058,1072.533697
370.748645,-1850.514855,-8956.491898,919.314598
370.748969,-3330.926739,-7846.182985,766.095498
370.749293,-3849.070898,-6883.915261,536.266849
370.749617,-3701.029710,-6513.812290,842.705048
370.749942,-3330.926739,-6513.812290,-153.219100
370.750266,-2664.741391,-5995.668130,612.876398
370.750590,-1850.514855,-6661.853478,919.314598
370.750914,-1258.350101,-7402.059420,995.924147
370.751238,0.000000,-8660.409521,995.924147
370.751562,962.267725,-9548.656652,1149.143247
370.751887,1702.473667,-10807.006753,1378.971896
370.752211,2442.679609,-11695.253884,1685.410096
370.752535,3923.091493,-12435.459826,1762.019645
370.752859,4293.194464,-11991.336260,2145.067394
370.753183,3552.988522,-12583.501014,1378.971896
370.753508,2220.617826,-12805.562797,1378.971896
370.753832,444.123565,-11695.253884,995.924147
370.754156,-962.267725,-10436.903782,919.314598
370.754480,-1850.514855,-9474.636058,612.876398
370.754804,-2516.700203,-8512.368333,1072.533697
370.755128,-3182.885551,-7920.203579,153.219100
370.755453,-2960.823768,-7254.018232,536.266849
370.755777,-2664.741391,-7476.080014,-383.047749
370.756101,-2664.741391,-6883.915261,-459.657299
370.756425,-2294.638420,-6883.915261,-919.314598
370.756749,-2220.617826,-7402.059420,-995.924147
370.757074,-1924.535449,-7994.224174,-612.876398
370.757398,-1110.308913,-8956.491898,-842.705048
370.757722,-444.123565,-9844.739029,-536.266849
370.758046,74.020594,-10584.944971,-689.485948
370.758370,888.247130,-11473.192101,0.000000
370.758694,2368.659014,-11917.315666,0.000000
370.759019,3404.947333,-11917.315666,0.000000
370.759343,3775.050304,-11917.315666,689.485948
370.759667,3552.988522,-11843.295072,766.095498
370.759991,3182.885551,-11695.253884,0.000000
370.760315,2072.576638,-11103.089130,-229.828649
370.760639,740.205942,-10288.862594,-995.924147
370.760964,-518.144159,-9474.636058,-1302.362347
370.761288,-1480.411884,-9030.512492,-1685.410096
370.761612,-1850.514855,-8734.430116,-1915.238745
370.761936,-1998.556043,-8068.244768,-2145.067394
370.762260,-2368.659014,-7328.038826,-2221.676944
370.762585,-2146.597232,-7624.121203,-2374.896044
370.762909,-1332.370696,-7846.182985,-2374.896044
370.763233,-888.247130,-8068.244768,-1915.238745
370.763557,-518.144159,-8512.368333,-1455.581446
370.763881,-296.082377,-9252.574275,-1378.971896
370.764205,296.082377,-9770.718434,-1149.143247
370.764530,740.205942,-10214.842000,-1225.752797
370.764854,1110.308913,-11103.089130,-842.705048
370.765178,1776.494261,-12139.377449,-459.657299
370.765502,2812.782580,-12879.583391,-459.657299
370.765826,3034.844362,-13027.624579,-153.219100
370.766150,3108.864956,-12953.603985,-306.438199
370.766475,2368.659014,-12657.521608,-306.438199
370.766799,1332.370696,-11769.274478,-766.095498
370.767123,148.041188,-10732.986159,-842.705048
370.767447,-888.247130,-9622.677246,-919.314598
370.767771,-1850.514855,-8956.491898,-1915.238745
370.768096,-1850.514855,-8290.306550,-612.876398
370.768420,-2072.576638,-7846.182985,-919.314598
370.768744,-2220.617826,-7476.080014,-612.876398
370.769068,-2294.638420,-7105.977043,-306.438199
370.769392,-2368.659014,-7031.956449,-612.876398
370.769716,-2664.741391,-7105.977043,-306.438199
370.770041,-2738.761985,-7772.162391,-766.095498
370.770365,-2294.638420,-8364.327145,-383.047749
370.770689,-1702.473667,-9400.615463,0.000000
370.771013,-1036.288319,-9918.759623,229.828649
370.771337,-222.061783,-10807.006753,612.876398
370.771662,888.247130,-11621.233289,1378.971896
370.771986,1924.535449,-11769.274478,1072.533697
370.772310,3108.864956,-12361.439231,1378.971896
370.772634,3552.988522,-11991.336260,1991.848295
370.772958,3108.864956,-11843.295072,1762.019645
370.773282,2368.659014,-11621.233289,1532.190996
370.773607,1406.391290,-10510.924376,1532.190996
370.773931,74.020594,-9400.615463,1302.362347
370.774255,-1110.308913,-8364.327145,689.485948
370.774579,-1924.535449,-7550.100608,766.095498
370.774903,-2590.720797,-6883.915261,229.828649
370.775227,-2664.741391,-6809.894666,536.266849
370.775552,-2738.761985,-6883.915261,306.438199
370.775876,-2368.659014,-6809.894666,153.219100
370.776200,-2072.576638,-6587.832884,306.438199
370.776524,-1184.329507,-7254.018232,612.876398
370.776848,-370.102971,-8438.347739,1072.533697
370.777173,74.020594,-9104.533087,995.924147
370.777497,1332.370696,-10362.883188,1225.752797
370.777821,2516.700203,-11325.150913,1455.581446
370.778145,3775.050304,-12139.377449,1838.629195
370.778469,4515.256246,-12435.459826,2068.457845
370.778793,4145.153275,-12879.583391,2068.457845
370.779118,3034.844362,-12509.480420,1378.971896
370.779442,1702.473667,-12361.439231,1455.581446
370.779766,148.041188,-11325.150913,766.095498
370.780090,-1332.370696,-10362.883188,306.438199
370.780414,-1924.535449,-9474.636058,0.000000
370.780739,-2368.659014,-8660.409521,-229.828649
370.781063,-2886.803174,-7846.182985,-536.266849
370.781387,-3034.844362,-7254.018232,-995.924147
370.781711,-3108.864956,-6883.915261,-689.485948
370.782035,-2368.659014,-6809.894666,-612.876398
370.782359,-1850.514855,-7031.956449,-1072.533697
370.782684,-1406.391290,-7402.059420,-153.219100
370.783008,-888.247130,-8216.285956,-995.924147
370.783332,-296.082377,-9326.594869,-612.876398
370.783656,0.000000,-10214.842000,-306.438199
370.783980,1036.288319,-11251.130318,-229.828649
370.784304,2368.659014,-12139.377449,-153.219100
370.784629,3330.926739,-12213.398043,76.609550
370.784953,3997.112087,-12361.439231,0.000000
370.785277,3404.947333,-12361.439231,0.000000
370.785601,2368.659014,-12287.418637,-306.438199
370.785925,1702.473667,-11991.336260,-689.485948
370.786250,666.185348,-10807.006753,-766.095498
370.786574,-518.144159,-10066.800811,-1302.362347
370.786898,-1480.411884,-9474.636058,-1532.190996
370.787222,-1998.556043,-8734.430116,-1762.019645
370.787546,-2368.659014,-8068.244768,-1685.410096
370.787870,-2664.741391,-7772.162391,-1762.019645
370.788195,-2442.679609,-7550.100608,-1685.410096
370.788519,-2072.576638,-7476.080014,-1762.019645
370.788843,-1554.432478,-7698.141797,-1838.629195
370.789167,-962.267725,-8142.265362,-1532.190996
370.789491,-296.082377,-8808.450710,-842.705048
370.789816,0.000000,-9030.512492,-1149.143247
370.790140,74.020594,-9696.697840,-1149.143247
370.790464,888.247130,-10362.883188,-306.438199
370.790788,1924.535449,-11695.253884,0.000000
370.791112,2886.803174,-12065.356855,76.609550
370.791436,3552.988522,-12065.356855,229.828649
370.791761,3256.906145,-12139.377449,306.438199
370.792085,2590.720797,-12213.398043,536.266849
370.792409,1702.473667,-11473.192101,689.485948
370.792733,222.061783,-10881.027347,229.828649
370.793057,-1406.391290,-9548.656652,0.000000
370.793381,-1924.535449,-9104.533087,0.000000
370.793706,-2442.679609,-8216.285956,-153.219100
370.794030,-2886.803174,-7550.100608,-229.828649
370.794354,-2812.782580,-7476.080014,-383.047749
370.794678,-2886.803174,-7031.956449,0.000000
370.795002,-2590.720797,-6809.894666,0.000000
370.795327,-2368.659014,-6661.853478,-459.657299
370.795651,-2442.679609,-7254.018232,0.000000
370.795975,-1924.535449,-8290.306550,0.000000
370.796299,-1406.391290,-9326.594869,306.438199
370.796623,-518.144159,-10214.842000,766.095498
370.796947,888.247130,-10881.027347,1378.971896
370.797272,2516.700203,-11399.171507,1685.410096
370.797596,3849.070898,-12065.356855,1685.410096
370.797920,4219.173869,-12583.501014,1685.410096
370.798244,3701.029710,-12361.439231,1762.019645
370.798568,2812.782580,-12213.398043,1532.190996
370.798893,1998.556043,-11621.233289,1532.190996
370.799217,962.267725,-9992.780217,842.705048
370.799541,-148.041188,-9474.636058,919.314598
370.799865,-1258.350101,-8660.409521,459.657299
370.800189,-2516.700203,-8216.285956,0.000000
370.800513,-3478.967927,-7550.100608,-383.047749
370.800838,-3627.009116,-7328.038826,-612.876398
370.801162,-3108.864956,-7476.080014,-383.047749
370.801486,-2072.576638,-7624.121203,76.609550
370.801810,-1332.370696,-7179.997637,-76.609550
370.802134,-148.041188,-8068.244768,0.000000
370.802458,0.000000,-8660.409521,459.657299
370.802783,222.061783,-9992.780217,383.047749
370.803107,1406.391290,-10955.047942,612.876398
370.803431,2738.761985,-11547.212695,1072.533697
370.803755,4145.153275,-11991.336260,995.924147
370.804079,4737.318029,-12361.439231,1455.581446
370.804404,3775.050304,-12065.356855,1225.752797
370.804728,2442.679609,-12139.377449,766.095498
370.805052,1332.370696,-11769.274478,459.657299
370.805376,-74.020594,-10881.027347,229.828649
370.805700,-1332.370696,-9992.780217,-229.828649
370.806024,-2368.659014,-8956.491898,-536.266849
370.806349,-2738.761985,-8142.265362,-689.485948
370.806673,-3330.926739,-7254.018232,-1532.190996
370.806997,-2664.741391,-7254.018232,-995.924147
370.807321,-2590.720797,-6661.853478,-459.657299
370.807645,-1998.556043,-6513.812290,-766.095498
370.807969,-1554.432478,-6809.894666,-919.314598
370.808294,-1776.494261,-7254.018232,-766.095498
370.808618,-1850.514855,-8216.285956,-919.314598
370.808942,-1554.432478,-8512.368333,-1378.971896
370.809266,-814.226536,-9474.636058,-229.828649
370.809590,0.000000,-10140.821405,-766.095498
370.809914,1036.288319,-11251.130318,-842.705048
370.810238,2146.597232,-12139.377449,-153.219100
370.810562,2590.720797,-12065.356855,-306.438199
370.810886,2960.823768,-11917.315666,-383.047749
370.811210,2590.720797,-12065.356855,0.000000
370.811534,2516.700203,-11695.253884,0.000000
370.811858,1776.494261,-10955.047942,-153.219100
370.812182,592.164754,-9844.739029,-536.266849
370.812506,-222.061783,-9474.636058,-766.095498
370.812830,-1184.329507,-9326.594869,-1378.971896
370.813154,-2072.576638,-8882.471304,-1225.752797
370.813478,-2294.638420,-8216.285956,-1225.752797
370.813802,-1998.556043,-7698.141797,-1608.800546
370.814126,-1850.514855,-7994.224174,-2145.067394
370.814450,-1628.453072,-7772.162391,-1149.143247
370.814774,-1702.473667,-8364.327145,-1378.971896
370.815098,-1406.391290,-8956.491898,-1225.752797
370.815422,-888.247130,-9400.615463,-842.705048
370.815746,-148.041188,-10140.821405,-459.657299
370.816070,444.123565,-10584.944971,-459.657299
370.816394,1480.411884,-11325.150913,-459.657299
370.816718,2368.659014,-11843.295072,306.438199
370.817042,2960.823768,-12583.501014,383.047749
370.817366,3849.070898,-13027.624579,766.095498
370.817690,3701.029710,-12509.480420,1072.533697
370.818014,3108.864956,-12287.418637,1072.533697
370.818338,1850.514855,-11251.130318,689.485948
370.818662,592.164754,-10362.883188,689.485948
370.818986,-740.205942,-8882.471304,612.876398
370.819310,-1628.453072,-7624.121203,0.000000
370.819634,-2072.576638,-7031.956449,0.000000
370.819958,-2072.576638,-6883.915261,153.219100
370.820282,-2146.597232,-6587.832884,459.657299
370.820606,-2294.638420,-6291.750507,0.000000
370.820930,-2146.597232,-6217.729913,-229.828649
370.821254,-1628.453072,-6735.874072,536.266849
370.821578,-1628.453072,-7328.038826,153.219100
370.821902,-1480.411884,-8290.306550,153.219100
370.822226,-1110.308913,-8956.491898,306.438199
370.822550,-370.102971,-10214.842000,919.314598
370.822874,370.102971,-11029.068536,1225.752797
370.823198,1924.535449,-11843.295072,1225.752797
370.823522,2960.823768,-11843.295072,1532.190996
370.823846,3552.988522,-12139.377449,1608.800546
370.824170,3552.988522,-12065.356855,2068.457845
370.824494,2886.803174,-11843.295072,2068.457845
370.824818,1776.494261,-11177.109724,1762.019645
370.825142,222.061783,-10214.842000,1225.752797
370.825466,-1110.308913,-9030.512492,0.000000
370.825790,-2072.576638,-8438.347739,-229.828649
370.826114,-2664.741391,-8142.265362,-306.438199
370.826438,-2738.761985,-7846.182985,-306.438199
370.826762,-2072.576638,-7698.141797,-689.485948
370.827086,-1850.514855,-7254.018232,-612.876398
370.827410,-1776.494261,-7105.977043,-689.485948
370.827734,-1702.473667,-7846.182985,-306.438199
370.828058,-1702.473667,-8438.347739,-766.095498
370.828382,-1110.308913,-9326.594869,-229.828649
370.828706,-666.185348,-10140.821405,-153.219100
370.829030,444.123565,-11103.089130,153.219100
370.829354,1776.494261,-11843.295072,306.438199
370.829678,2664.741391,-12065.356855,536.266849
370.830002,3404.947333,-12583.501014,76.609550
370.830326,3775.050304,-12657.521608,76.609550
370.830650,2886.803174,-12953.603985,306.438199
370.830974,1924.535449,-12509.480420,76.609550
370.831298,666.185348,-11325.150913,-229.828649
370.831622,-222.061783,-10288.862594,-383.047749
370.831946,-1480.411884,-9104.533087,-1225.752797
370.832270,-2072.576638,-8142.265362,-842.705048
370.832594,-2146.597232,-7550.100608,-766.095498
370.832918,-2072.576638,-7254.018232,-1225.752797
370.833242,-1702.473667,-6661.853478,-1149.143247
370.833566,-1480.411884,-6883.915261,-1378.971896
370.833890,-1480.411884,-7031.956449,-995.924147
370.834214,-2220.617826,-7550.100608,-1149.143247
370.834538,-1776.494261,-8364.327145,-1302.362347
370.834862,-1480.411884,-9252.574275,-1072.533697
370.835186,-1184.329507,-9918.759623,-919.314598
370.835510,-296.082377,-10955.047942,-766.095498
370.835834,888.247130,-11621.233289,-153.219100
370.836158,1998.556043,-12139.377449,0.000000
370.836482,2960.823768,-12361.439231,-229.828649
370.836806,3404.947333,-12213.398043,306.438199
370.837130,4071.132681,-11843.295072,919.314598
370.837454,3256.906145,-11695.253884,229.828649
370.837778,2368.659014,-10955.047942,0.000000
370.838102,814.226536,-10362.883188,-229.828649
370.838426,-592.164754,-9696.697840,-536.266849
370.838750,-1628.453072,-8956.491898,-995.924147
370.839075,-2294.638420,-8586.388927,-1072.533697
370.839399,-2442.679609,-8290.306550,-766.095498
370.839723,-2960.823768,-7179.997637,-459.657299
370.840047,-2590.720797,-6587.832884,-536.266849
370.840371,-2146.597232,-6661.853478,-995.924147
370.840695,-1924.535449,-7031.956449,-689.485948
370.841019,-1554.432478,-7772.162391,-612.876398
370.841343,-1258.350101,-8660.409521,-153.219100
370.841667,-444.123565,-9104.533087,-306.438199
370.841991,518.144159,-10214.842000,306.438199
370.842315,1184.329507,-11695.253884,766.095498
370.842639,1998.556043,-12435.459826,536.266849
370.842963,2812.782580,-13027.624579,995.924147
370.843287,3478.967927,-13471.748144,995.924147
370.843611,3108.864956,-13027.624579,1302.362347
370.843935,2294.638420,-12213.398043,536.266849
370.844259,1110.308913,-11399.171507,612.876398
370.844583,-148.041188,-10732.986159,459.657299
370.844907,-1332.370696,-9474.636058,153.219100
370.845231,-2146.597232,-8216.285956,229.828649
370.845555,-2220.617826,-7328.038826,-153.219100
370.845879,-2072.576638,-7179.997637,0.000000
370.846203,-1776.494261,-6439.791695,-383.047749
370.846527,-1924.535449,-6439.791695,76.609550
370.846851,-1850.514855,-6513.812290,-459.657299
370.847175,-1850.514855,-6883.915261,-766.095498
370.847499,-1998.556043,-7846.182985,0.000000
370.847823,-1332.370696,-8882.471304,-153.219100
370.848147,-592.164754,-10214.842000,0.000000
370.848471,148.041188,-11029.068536,459.657299
370.848795,1702.473667,-11917.315666,766.095498
370.849119,2812.782580,-11991.336260,766.095498
370.849443,3330.926739,-12509.480420,1378.971896
370.849767,4071.132681,-12287.418637,1532.190996
370.850091,3923.091493,-12435.459826,1302.362347
370.850415,2886.803174,-12213.398043,1302.362347
370.850739,1998.556043,-11547.212695,842.705048
370.851063,740.205942,-10214.842000,612.876398
370.851387,-370.102971,-9030.512492,76.609550
370.851711,-2146.597232,-8290.306550,-766.095498
370.852035,-2738.761985,-7920.203579,-383.047749
370.852359,-2590.720797,-7402.059420,-919.314598
370.852683,-1998.556043,-7105.977043,-536.266849
370.853007,-1554.432478,-7031.956449,-306.438199
370.853331,-1258.350101,-7105.977043,-689.485948
370.853655,-1628.453072,-7476.080014,-842.705048
370.853979,-962.267725,-8364.327145,0.000000
370.854303,-962.267725,-8956.491898,0.000000
370.854627,-370.102971,-9918.759623,153.219100
370.854951,518.144159,-10955.047942,229.828649
370.855275,1702.473667,-11399.171507,536.266849
370.855599,2442.679609,-12361.439231,766.095498
370.855923,2886.803174,-12509.480420,842.705048
370.856247,2664.741391,-12361.439231,536.266849
370.856571,2368.659014,-11991.336260,536.266849
370.856895,1554.432478,-11251.130318,229.828649
370.857219,370.102971,-10807.006753,0.000000
370.857543,-1036.288319,-9696.697840,-383.047749
370.857867,-1628.453072,-9030.512492,-536.266849
370.858191,-2146.597232,-8438.347739,-689.485948
370.858515,-2072.576638,-7550.100608,-229.828649
370.858839,-1850.514855,-6809.894666,-766.095498
370.859163,-2220.617826,-6365.771101,-995.924147
370.859487,-2516.700203,-7105.977043,-1455.581446
370.859811,-2590.720797,-7402.059420,-1225.752797
370.860135,-2368.659014,-7846.182985,-919.314598
370.860459,-1998.556043,-8364.327145,-995.924147
370.860783,-1924.535449,-9178.553681,-766.095498
370.861107,-444.123565,-9844.739029,-689.485948
370.861431,222.061783,-10584.944971,-995.924147
370.861755,1258.350101,-11547.212695,-153.219100
370.862079,1924.535449,-12287.418637,-536.266849
370.862403,2516.700203,-12879.583391,0.000000
370.862727,3404.947333,-13101.645173,0.000000
370.863051,3849.070898,-12583.501014,459.657299
370.863375,4219.173869,-11843.295072,459.657299
370.863699,2442.679609,-11103.089130,536.266849
370.864023,962.267725,-11325.150913,0.000000
370.864347,-518.144159,-9918.759623,-383.047749
370.864671,-1776.494261,-8808.450710,-766.095498
370.864995,-2220.617826,-8660.409521,-842.705048
370.865319,-2368.659014,-7994.224174,-1455.581446
370.865643,-2220.617826,-7402.059420,-1225.752797
370.865967,-1924.535449,-6883.915261,-1685.410096
370.866291,-1480.411884,-7105.977043,-1455.581446
370.866615,-814.226536,-7698.141797,-995.924147
370.866939,-740.205942,-8512.368333,-383.047749
370.867263,-592.164754,-8882.471304,0.000000
370.867587,0.000000,-9474.636058,0.000000
370.867911,666.185348,-10658.965565,153.219100
370.868235,1184.329507,-11621.233289,229.828649
370.868559,1702.473667,-12509.480420,919.314598
370.868883,2442.679609,-12657.521608,1149.143247
370.869207,3034.844362,-12065.356855,1225.752797
370.869531,3034.844362,-12213.398043,1991.848295
370.869855,2072.576638,-11029.068536,842.705048
370.870179,666.185348,-10288.862594,612.876398
370.870503,0.000000,-9474.636058,306.438199
370.870827,-1036.288319,-8290.306550,229.828649
370.871151,-1850.514855,-7698.141797,-229.828649
370.871475,-2072.576638,-7328.038826,-153.219100
370.871799,-1924.535449,-6661.853478,0.000000
370.872123,-2442.679609,-6143.709319,-306.438199
370.872447,-1924.535449,-6883.915261,0.000000
370.872771,-2442.679609,-7105.977043,-612.876398
370.873095,-2368.659014,-7846.182985,-383.047749
370.873419,-1776.494261,-8438.347739,0.000000
370.873743,-1628.453072,-9474.636058,306.438199
370.874067,-296.082377,-10066.800811,306.438199
370.874391,740.205942,-10362.883188,1378.971896
370.874715,2072.576638,-11473.192101,1225.752797
370.875039,2886.803174,-12213.398043,1225.752797
370.875363,3256.906145,-12583.501014,1378.971896
370.875687,3404.947333,-12583.501014,1225.752797
370.876011,3034.844362,-12435.459826,1072.533697
370.876335,1924.535449,-11769.274478,842.705048
370.876659,740.205942,-10955.047942,536.266849
370.876983,-518.144159,-9992.780217,0.000000
370.877307,-1332.370696,-9548.656652,-612.876398
370.877631,-2294.638420,-8882.471304,-612.876398
370.877955,-2516.700203,-7846.182985,-536.266849
370.878279,-2516.700203,-7328.038826,-459.657299
370.878603,-1924.535449,-7254.018232,-306.438199
370.878927,-1554.432478,-7105.977043,-689.485948
370.879251,-814.226536,-7550.100608,-612.876398
370.879575,-444.123565,-7994.224174,76.609550
370.879899,-222.061783,-8734.430116,76.609550
370.880223,148.041188,-9622.677246,0.000000
370.880547,518.144159,-10807.006753,306.438199
370.880871,1258.350101,-11695.253884,229.828649
370.881195,2590.720797,-11991.336260,459.657299
370.881519,3404.947333,-12213.398043,995.924147
370.881843,3108.864956,-12361.439231,919.314598
370.882167,2442.679609,-12139.377449,842.705048
370.882491,1554.432478,-11843.295072,612.876398
370.882815,0.000000,-10584.944971,536.266849
370.883139,-888.247130,-9622.677246,0.000000
370.883463,-1776.494261,-8660.409521,-306.438199
370.883787,-2072.576638,-8290.306550,153.219100
370.884111,-2664.741391,-7550.100608,-689.485948
370.884435,-2442.679609,-6661.853478,-536.266849
370.884759,-2368.659014,-6661.853478,-995.924147
370.885083,-2146.597232,-6439.791695,-995.924147
370.885407,-1998.556043,-6957.935855,-919.314598
370.885731,-1554.432478,-7550.100608,-689.485948
370.886055,-1258.350101,-8216.285956,-995.924147
370.886379,-1036.288319,-9400.615463,-995.924147
370.886703,-1036.288319,-9474.636058,-1149.143247
370.887027,-222.061783,-10140.821405,0.000000
370.887351,1258.350101,-11695.253884,0.000000
370.887675,2294.638420,-12139.377449,76.609550
370.887999,3108.864956,-12139.377449,76.609550
370.888323,3108.864956,-11991.336260,229.828649
370.888647,3182.885551,-12287.418637,229.828649
370.888971,2738.761985,-11621.233289,459.657299
370.889295,1554.432478,-11621.233289,-459.657299
370.889619,296.082377,-10584.944971,-689.485948
370.889943,-666.185348,-9770.718434,-995.924147
370.890267,-1554.432478,-9326.594869,-1378.971896
370.890591,-2072.576638,-8956.491898,-1378.971896
370.890915,-2294.638420,-7994.224174,-1455.581446
370.891239,-1924.535449,-7772.162391,-1149.143247
370.891563,-1998.556043,-7698.141797,-1225.752797
370.891887,-1850.514855,-7994.224174,-1915.238745
370.892211,-1110.308913,-8290.306550,-919.314598
370.892535,-814.226536,-8882.471304,-612.876398
370.892859,-518.144159,-9474.636058,-459.657299
370.893183,0.000000,-10066.800811,0.000000
370.893507,740.205942,-10807.006753,229.828649
370.893831,1628.453072,-11843.295072,0.000000
370.894155,2960.823768,-12065.356855,306.438199
370.894479,3182.885551,-12509.480420,766.095498
370.894803,3330.926739,-12287.418637,842.705048
370.895127,2664.741391,-12065.356855,842.705048
370.895451,1628.453072,-11547.212695,1225.752797
370.895775,444.123565,-10584.944971,536.266849
370.896099,-740.205942,-10140.821405,612.876398
370.896423,-1776.494261,-8364.327145,383.047749
370.896747,-2368.659014,-7328.038826,153.219100
370.897071,-2664.741391,-7179.997637,0.000000
370.897395,-3108.864956,-6661.853478,0.000000
370.897719,-2664.741391,-6513.812290,0.000000
370.898043,-2516.700203,-5995.668130,0.000000
370.898367,-2072.576638,-6143.709319,-153.219100
370.898691,-2072.576638,-6661.853478,0.000000
370.899015,-1036.288319,-7994.224174,76.609550
370.899339,-888.247130,-9030.512492,383.047749
370.899663,0.000000,-9918.759623,459.657299
370.899987,1258.350101,-11103.089130,766.095498
370.900311,2368.659014,-11695.253884,1225.752797
370.900635,3182.885551,-11843.295072,1225.752797
370.900959,3404.947333,-12213.398043,2145.067394
370.901283,3108.864956,-12139.377449,1378.971896
370.901607,2516.700203,-12583.501014,919.314598
370.901931,1628.453072,-11769.274478,1072.533697
370.902255,740.205942,-10436.903782,536.266849
370.902579,-592.164754,-9696.697840,0.000000
370.902903,-1480.411884,-9104.533087,-459.657299
370.903227,-1776.494261,-8438.347739,0.000000
370.903551,-2368.659014,-7846.182985,-766.095498
370.903875,-2294.638420,-7920.203579,-995.924147
370.904199,-1850.514855,-7846.182985,-766.095498
370.904523,-1406.391290,-7846.182985,-536.266849
370.904847,-1258.350101,-8216.285956,-766.095498
370.905171,-888.247130,-8586.388927,-612.876398
370.905495,-814.226536,-8956.491898,-689.485948
370.905819,-148.041188,-9918.759623,76.609550
370.906143,1036.288319,-10955.047942,0.000000
370.906467,2368.659014,-11399.171507,306.438199
370.906791,2812.782580,-11769.274478,536.266849
370.907115,3404.947333,-12657.521608,689.485948
370.907439,3108.864956,-12361.439231,459.657299
370.907763,2664.741391,-12435.459826,766.095498
370.908087,1850.514855,-11843.295072,383.047749
370.908411,962.267725,-11177.109724,459.657299
370.908735,-370.102971,-9992.780217,-536.266849
370.909059,-2220.617826,-8956.491898,-689.485948
370.909383,-2146.597232,-8808.450710,-995.924147
370.909707,-2294.638420,-8438.347739,-995.924147
370.910031,-2294.638420,-7105.977043,-995.924147
370.910355,-2072.576638,-6587.832884,-842.705048
370.910679,-2072.576638,-6587.832884,-995.924147
370.911003,-1628.453072,-6661.853478,-842.705048
370.911327,-1850.514855,-7550.100608,-842.705048
370.911651,-1850.514855,-7846.182985,-842.705048
370.911975,-1776.494261,-8216.285956,-842.705048
370.912299,-888.247130,-9104.533087,0.000000
370.912624,-148.041188,-9844.739029,0.000000
370.912948,444.123565,-10807.006753,-383.047749
370.913272,1036.288319,-11695.253884,-229.828649
370.913596,1480.411884,-12287.418637,0.000000
370.913920,1924.535449,-12139.377449,0.000000
370.914244,2220.617826,-12139.377449,-153.219100
370.914568,2368.659014,-11843.295072,306.438199
370.914892,2072.576638,-11103.089130,76.609550
370.915216,1036.288319,-10658.965565,-459.657299
370.915540,0.000000,-9992.780217,-689.485948
370.915864,-444.123565,-9474.636058,-689.485948
370.916188,-666.185348,-8586.388927,-842.705048
370.916512,-1036.288319,-8068.244768,-766.095498
370.916836,-1258.350101,-7476.080014,-766.095498
370.917160,-1702.473667,-7624.121203,-612.876398
370.917484,-1776.494261,-7846.182985,-1072.533697
370.917808,-1998.556043,-7772.162391,-536.266849
370.918132,-1554.432478,-8586.388927,-995.924147
370.918456,-1258.350101,-9030.512492,-536.266849
370.918780,-666.185348,-9548.656652,-459.657299
370.919104,-148.041188,-10066.800811,0.000000
370.919428,518.144159,-11103.089130,153.219100
370.919752,1480.411884,-11843.295072,0.000000
370.920076,2368.659014,-12435.459826,612.876398
370.920400,2738.761985,-12731.542202,766.095498
370.920724,3182.885551,-12583.501014,842.705048
370.921048,2738.761985,-12213.398043,995.924147
370.921372,2146.597232,-11621.233289,766.095498
370.921696,1110.308913,-10658.965565,1072.533697
370.922020,370.102971,-9770.718434,459.657299
370.922345,-740.205942,-8438.347739,153.219100
370.922669,-1480.411884,-8364.327145,-229.828649
370.922993,-2368.659014,-7402.059420,0.000000
370.923317,-2294.638420,-6957.935855,0.000000
370.923641,-2368.659014,-6513.812290,-229.828649
370.923965,-2368.659014,-6661.853478,-306.438199
370.924289,-2146.597232,-6587.832884,-153.219100
370.924613,-2072.576638,-7105.977043,229.828649
370.924937,-1332.370696,-8216.285956,76.609550
370.925261,-814.226536,-9178.553681,153.219100
370.925585,-296.082377,-9770.718434,229.828649
370.925909,740.205942,-10436.903782,842.705048
370.926233,2072.576638,-11769.274478,995.924147
370.926557,2738.761985,-11695.253884,1225.752797
370.926881,2738.761985,-11547.212695,1072.533697
370.927205,2960.823768,-12139.377449,1455.581446
370.927529,2220.617826,-11843.295072,1225.752797
370.927853,1702.473667,-11769.274478,995.924147
370.928177,888.247130,-10732.986159,766.095498
370.928501,-296.082377,-9992.780217,153.219100
370.928825,-1036.288319,-9252.574275,0.000000
370.929149,-2146.597232,-8142.265362,0.000000
370.929473,-2368.659014,-7402.059420,0.000000
370.929797,-2368.659014,-7254.018232,-766.095498
370.930121,-2146.597232,-7179.997637,-766.095498
370.930445,-1702.473667,-7105.977043,-612.876398
370.930769,-1184.329507,-7402.059420,-536.266849
370.931093,-518.144159,-7772.162391,-306.438199
370.931417,-444.123565,-8882.471304,0.000000
370.931741,370.102971,-9548.656652,0.000000
370.932066,814.226536,-10510.924376,229.828649
370.932390,1776.494261,-11843.295072,153.219100
370.932714,2220.617826,-12287.418637,76.609550
370.933038,2516.700203,-12805.562797,536.266849
370.933362,2516.700203,-13175.665768,612.876398
370.933686,1998.556043,-12953.603985,459.657299
370.934010,1184.329507,-12435.459826,459.657299
370.934334,518.144159,-11251.130318,842.705048
370.934658,74.020594,-10436.903782,0.000000
370.934982,-888.247130,-9400.615463,-306.438199
370.935306,-1110.308913,-8438.347739,-612.876398
370.935630,-1184.329507,-7772.162391,-689.485948
370.935954,-1480.411884,-7179.997637,-919.314598
370.936278,-1332.370696,-6735.874072,-919.314598
370.936602,-1998.556043,-6513.812290,-1225.752797
370.936926,-1850.514855,-7105.977043,-1072.533697
370.937250,-2072.576638,-7402.059420,-1762.019645
370.937574,-1998.556043,-8068.244768,-995.924147
370.937898,-1702.473667,-8956.491898,-1072.533697
370.938222,-1628.453072,-9622.677246,-919.314598
370.938546,-962.267725,-10436.903782,-612.876398
370.938870,148.041188,-11177.109724,-306.438199
370.939194,1258.350101,-11917.315666,153.219100
370.939518,2294.638420,-11991.336260,383.047749
370.939842,2886.803174,-11991.336260,0.000000
370.940166,3256.906145,-12139.377449,306.438199
370.940490,2886.803174,-11843.295072,76.609550
370.940814,2294.638420,-11621.233289,76.609550
370.941138,1036.288319,-10510.924376,-536.266849
370.941462,0.000000,-9770.718434,-689.485948
370.941786,-1258.350101,-9178.553681,-1225.752797
370.942111,-1924.535449,-8956.491898,-1378.971896
370.942435,-2516.700203,-8068.244768,-1685.410096
370.942759,-2886.803174,-7920.203579,-1378.971896
370.943083,-2738.761985,-7772.162391,-1378.971896
370.943407,-2072.576638,-7402.059420,-1225.752797
370.943731,-1480.411884,-7402.059420,-536.266849
370.944055,-1628.453072,-8142.265362,-153.219100
370.944379,-740.205942,-8956.491898,-76.609550
370.944703,-592.164754,-9474.636058,-383.047749
370.945027,74.020594,-10436.903782,0.000000
370.945351,1184.329507,-11473.192101,76.609550
370.945675,2368.659014,-12065.356855,229.828649
370.945999,3108.864956,-12509.480420,612.876398
370.946323,3256.906145,-12287.418637,76.609550
370.946647,2664.741391,-12953.603985,383.047749
370.946971,1998.556043,-12213.398043,766.095498
370.947295,1036.288319,-11769.274478,536.266849
370.947619,74.020594,-10510.924376,306.438199
370.947943,-148.041188,-9326.594869,536.266849
370.948267,-814.226536,-8364.327145,153.219100
370.948591,-1258.350101,-7179.997637,383.047749
370.948915,-1776.494261,-6883.915261,842.705048
370.949239,-2220.617826,-6069.688724,-229.828649
370.949563,-2294.638420,-6587.832884,0.000000
370.949887,-1998.556043,-7105.977043,-153.219100
370.950211,-1850.514855,-7179.997637,0.000000
370.950535,-1332.370696,-7698.141797,0.000000
370.950859,-740.205942,-8290.306550,153.219100
370.951183,-296.082377,-9992.780217,-383.047749
370.951507,740.205942,-10362.883188,1072.533697
370.951832,1998.556043,-11399.171507,919.314598
370.952156,2664.741391,-11843.295072,1149.143247
370.952480,3034.844362,-12287.418637,1225.752797
370.952804,2886.803174,-12435.459826,1378.971896
370.953128,2146.597232,-12435.459826,1685.410096
370.953452,1850.514855,-11621.233289,1302.362347
370.953776,814.226536,-10807.006753,842.705048
370.954100,444.123565,-10214.842000,612.876398
370.954424,-1110.308913,-9400.615463,306.438199
370.954748,-1702.473667,-8586.388927,0.000000
370.955072,-2294.638420,-8142.265362,-459.657299
370.955396,-2664.741391,-7550.100608,-612.876398
370.955720,-2442.679609,-7105.977043,-842.705048
370.956044,-1702.473667,-7476.080014,-536.266849
370.956368,-962.267725,-7328.038826,-689.485948
370.956692,-148.041188,-8068.244768,-459.657299
370.957016,-222.061783,-8512.368333,-383.047749
370.957340,370.102971,-9548.656652,0.000000
370.957664,814.226536,-10510.924376,383.047749
370.957988,814.226536,-11177.109724,536.266849
370.958312,2146.597232,-12065.356855,842.705048
370.958636,2812.782580,-12361.439231,766.095498
370.958960,2664.741391,-12509.480420,459.657299
370.959284,2294.638420,-12805.562797,536.266849
370.959608,1480.411884,-12287.418637,536.266849
370.959932,370.102971,-11621.233289,229.828649
370.960256,-518.144159,-10584.944971,0.000000
370.960580,-1258.350101,-9474.636058,-995.924147
370.960904,-1258.350101,-8882.471304,-995.924147
370.961228,-1924.535449,-7550.100608,-1149.143247
370.961553,-2072.576638,-7179.997637,-689.485948
370.961877,-2146.597232,-6809.894666,-995.924147
370.962201,-1850.514855,-7031.956449,-766.095498
370.962525,-1924.535449,-7105.977043,-1149.143247
370.962849,-1850.514855,-7031.956449,-1072.533697
370.963173,-1776.494261,-7698.141797,-459.657299
370.963497,-1628.453072,-8586.388927,-383.047749
370.963821,-1184.329507,-9326.594869,-459.657299
370.964145,-888.247130,-9844.739029,-536.266849
370.964469,222.061783,-10807.006753,-229.828649
370.964793,1258.350101,-11843.295072,-153.219100
370.965117,2072.576638,-12139.377449,0.000000
370.965441,3182.885551,-11843.295072,229.828649
370.965765,2960.823768,-11769.274478,229.828649
370.966089,3034.844362,-12287.418637,76.609550
370.966413,2368.659014,-11547.212695,153.219100
370.966737,1554.432478,-10881.027347,-153.219100
370.967061,592.164754,-9992.780217,-383.047749
370.967385,-518.144159,-9474.636058,-919.314598
370.967709,-2146.597232,-8734.430116,-1072.533697
370.968033,-2516.700203,-7698.141797,-1072.533697
370.968357,-2664.741391,-7624.121203,-689.485948
370.968681,-2664.741391,-7328.038826,-1072.533697
370.969005,-2516.700203,-7476.080014,-1149.143247
370.969329,-1998.556043,-7476.080014,-766.095498
370.969653,-1480.411884,-7698.141797,-919.314598
370.969977,-1036.288319,-8364.327145,-459.657299
370.970301,-740.205942,-8808.450710,-766.095498
370.970625,0.000000,-10140.821405,-995.924147
370.970949,1184.329507,-11325.150913,0.000000
370.971274,2072.576638,-12509.480420,229.828649
370.971598,2738.761985,-13027.624579,229.828649
370.971922,2886.803174,-12953.603985,306.438199
370.972246,2886.803174,-12879.583391,766.095498
370.972570,2220.617826,-12361.439231,459.657299
370.972894,1332.370696,-11843.295072,229.828649
370.973218,222.061783,-10658.965565,612.876398
370.973542,0.000000,-9474.636058,76.609550
370.973866,-1184.329507,-8660.409521,0.000000
370.974190,-1554.432478,-7846.182985,-306.438199
370.974514,-2146.597232,-7254.018232,-383.047749
370.974838,-2368.659014,-6883.915261,-612.876398
370.975162,-2146.597232,-6809.894666,-459.657299
370.975486,-2294.638420,-6883.915261,-306.438199
370.975810,-1924.535449,-7179.997637,-612.876398
370.976134,-1702.473667,-7402.059420,-383.047749
370.976458,-1480.411884,-8660.409521,0.000000
370.976782,-666.185348,-9770.718434,76.609550
370.977106,222.061783,-10807.006753,612.876398
370.977430,1332.370696,-11103.089130,1225.752797
370.977754,2738.761985,-11917.315666,1302.362347
370.978078,3404.947333,-11917.315666,1532.190996
370.978402,3849.070898,-12361.439231,1762.019645
370.978726,3404.947333,-12435.459826,1532.190996
370.979050,2812.782580,-12065.356855,1378.971896
370.979374,1924.535449,-11399.171507,1072.533697
370.979698,592.164754,-10214.842000,459.657299
370.980022,-444.123565,-9400.615463,76.609550
370.980346,-1702.473667,-8512.368333,76.609550
370.980670,-2516.700203,-7846.182985,-612.876398
370.980995,-3182.885551,-7179.997637,-76.609550
370.981319,-2738.761985,-7105.977043,-229.828649
370.981643,-2220.617826,-7105.977043,0.000000
370.981967,-1924.535449,-7031.956449,0.000000
370.982291,-1110.308913,-7254.018232,76.609550
370.982615,-962.267725,-7772.162391,0.000000
370.982939,-148.041188,-8882.471304,612.876398
370.983263,740.205942,-9622.677246,919.314598
370.983587,1776.494261,-10955.047942,1072.533697
370.983911,2738.761985,-11769.274478,1072.533697
370.984235,3034.844362,-12361.439231,995.924147
370.984559,2812.782580,-12731.542202,689.485948
370.984883,2738.761985,-12805.562797,689.485948
370.985207,1332.370696,-12139.377449,842.705048
370.985531,0.000000,-11399.171507,689.485948
370.985855,-444.123565,-10658.965565,229.828649
370.986179,-1480.411884,-9696.697840,-229.828649
370.986503,-1924.535449,-8660.409521,-536.266849
370.986827,-2516.700203,-7698.141797,-995.924147
370.987151,-3330.926739,-7105.977043,-995.924147
370.987475,-2664.741391,-7105.977043,-766.095498
370.987799,-2368.659014,-6883.915261,-383.047749
370.988123,-1850.514855,-6735.874072,-842.705048
370.988447,-1406.391290,-7328.038826,-1072.533697
370.988771,-1036.288319,-7920.203579,-919.314598
370.989095,-1258.350101,-8586.388927,-1149.143247
370.989419,-1036.288319,-9400.615463,-919.314598
370.989743,-666.185348,-10510.924376,-612.876398
370.990067,296.082377,-11621.233289,-842.705048
370.990391,1924.535449,-12435.459826,-306.438199
370.990716,2368.659014,-12583.501014,-153.219100
370.991040,3108.864956,-12213.398043,-229.828649
370.991364,3182.885551,-12657.521608,0.000000
370.991688,2886.803174,-12435.459826,0.000000
370.992012,2294.638420,-11621.233289,-383.047749
370.992336,1184.329507,-10510.924376,-306.438199
370.992660,0.000000,-9548.656652,-1225.752797
370.992984,-592.164754,-8956.491898,-995.924147
370.993308,-1480.411884,-8364.327145,-1225.752797
370.993632,-2220.617826,-7846.182985,-1608.800546
370.993956,-2960.823768,-7994.224174,-1685.410096
370.994280,-2664.741391,-8068.244768,-1378.971896
370.994604,-2072.576638,-7550.100608,-1455.581446
370.994928,-1628.453072,-7698.141797,-1149.143247
370.995252,-1184.329507,-8364.327145,-919.314598
370.995576,-1036.288319,-8956.491898,-459.657299
370.995900,-1110.308913,-9770.718434,-1072.533697
370.996224,-148.041188,-10362.883188,0.000000
370.996548,962.267725,-11547.212695,306.438199
370.996872,2590.720797,-11991.336260,536.266849
370.997196,3256.906145,-12065.356855,766.095498
370.997520,3478.967927,-11917.315666,1455.581446
370.997844,3404.947333,-12287.418637,689.485948
370.998168,2072.576638,-11843.295072,1072.533697
370.998492,666.185348,-11103.089130,612.876398
370.998816,-592.164754,-9770.718434,536.266849
370.999140,-1332.370696,-8956.491898,383.047749
370.999464,-1924.535449,-8142.265362,76.609550
370.999788,-2664.741391,-7402.059420,-306.438199
371.000112,-3256.906145,-6513.812290,-459.657299
371.000437,-3182.885551,-6291.750507,0.000000
371.000761,-3182.885551,-6513.812290,0.000000
371.001085,-2516.700203,-6513.812290,-306.438199
371.001409,-2220.617826,-6883.915261,0.000000
371.001733,-1258.350101,-7772.162391,0.000000
371.002057,-370.102971,-8808.450710,306.438199
371.002381,888.247130,-10066.800811,536.266849
371.002705,2294.638420,-10658.965565,1685.410096
371.003029,3997.112087,-11547.212695,1608.800546
371.003353,4145.153275,-12139.377449,1762.019645
371.003677,3849.070898,-12435.459826,995.924147
371.004001,3182.885551,-12435.459826,842.705048
371.004325,2368.659014,-12435.459826,842.705048
371.004649,1258.350101,-11695.253884,919.314598
371.004973,222.061783,-10584.944971,459.657299
371.005297,-1184.329507,-9770.718434,0.000000
371.005621,-1924.535449,-8956.491898,76.609550
371.005945,-2368.659014,-8438.347739,-766.095498
371.006269,-3108.864956,-7772.162391,-766.095498
371.006593,-3108.864956,-7402.059420,-612.876398
371.006917,-2516.700203,-7402.059420,-612.876398
371.007241,-1480.411884,-7698.141797,-153.219100
371.007565,-296.082377,-8068.244768,-459.657299
371.007889,592.164754,-8734.430116,0.000000
371.008213,1480.411884,-9474.636058,306.438199
371.008537,1998.556043,-10288.862594,306.438199
371.008861,2664.741391,-11251.130318,536.266849
371.009185,3404.947333,-11769.274478,1072.533697
371.009509,3627.009116,-12287.418637,1072.533697
371.009833,3775.050304,-12509.480420,919.314598
371.010158,2516.700203,-12065.356855,919.314598
371.010482,1406.391290,-11769.274478,766.095498
371.010806,0.000000,-11177.109724,383.047749
371.011130,-1332.370696,-10436.903782,0.000000
371.011455,-2442.679609,-9326.594869,-153.219100
371.011779,-3034.844362,-8586.388927,-612.876398
371.012103,-2960.823768,-7402.059420,-612.876398
371.012427,-3182.885551,-7105.977043,-306.438199
371.012752,-2516.700203,-6883.915261,-842.705048
371.013076,-2220.617826,-6513.812290,-842.705048
371.013400,-1776.494261,-6957.935855,-383.047749
371.013724,-1332.370696,-7254.018232,-153.219100
371.014049,-1036.288319,-7624.121203,-306.438199
371.014373,-518.144159,-8438.347739,0.000000
371.014697,74.020594,-9622.677246,76.609550
371.015021,1036.288319,-10066.800811,229.828649
371.015346,2146.597232,-10955.047942,842.705048
371.015670,2664.741391,-11251.130318,0.000000
371.015994,2960.823768,-11621.233289,689.485948
371.016318,2516.700203,-11547.212695,229.828649
371.016643,1850.514855,-11695.253884,0.000000
371.016967,814.226536,-11399.171507,-306.438199
371.017291,148.041188,-10436.903782,-612.876398
371.017615,-370.102971,-10066.800811,-612.876398
371.017940,-962.267725,-9252.574275,-306.438199
371.018264,-1480.411884,-9770.718434,-1149.143247
371.018588,-1998.556043,-9474.636058,-1302.362347
371.018912,-2368.659014,-8808.450710,-1685.410096
371.019237,-2516.700203,-8586.388927,-1532.190996
371.019561,-2294.638420,-8586.388927,-1685.410096
371.019885,-1850.514855,-9474.636058,-1149.143247
371.020209,-1184.329507,-8882.471304,-153.219100
371.020534,-444.123565,-9252.574275,-459.657299
371.020858,518.144159,-10214.842000,-229.828649
371.021182,1628.453072,-10584.944971,0.000000
371.021506,2368.659014,-10658.965565,76.609550
371.021831,3478.967927,-11103.089130,76.609550
371.022155,3034.844362,-11695.253884,536.266849
371.022479,2886.803174,-11843.295072,306.438199
371.022803,2738.761985,-11843.295072,306.438199
371.023128,1998.556043,-11621.233289,0.000000
371.023452,814.226536,-11177.109724,-306.438199
371.023776,-444.123565,-10584.944971,-383.047749
371.024100,-1406.391290,-9844.739029,0.000000
371.024425,-1924.535449,-9326.594869,-459.657299
371.024749,-2516.700203,-8586.388927,-766.095498
371.025073,-2738.761985,-7994.224174,-612.876398
371.025397,-3478.967927,-7254.018232,-229.828649
371.025722,-2590.720797,-7550.100608,0.000000
371.026046,-1998.556043,-7550.100608,-153.219100
371.026370,-1776.494261,-7254.018232,0.000000
371.026694,-1258.350101,-7402.059420,842.705048
371.027019,-296.082377,-8290.306550,919.314598
371.027343,222.061783,-9104.533087,612.876398
371.027667,740.205942,-9474.636058,919.314598
371.027991,1702.473667,-10140.821405,689.485948
371.028316,2220.617826,-10807.006753,842.705048
371.028640,2516.700203,-10881.027347,766.095498
371.028964,2294.638420,-11325.150913,689.485948
371.029288,1850.514855,-11103.089130,842.705048
371.029613,1110.308913,-10955.047942,766.095498
371.029937,888.247130,-10510.924376,766.095498
371.030261,-296.082377,-9622.677246,459.657299
371.030585,-666.185348,-9252.574275,306.438199
371.030910,-962.267725,-8808.450710,153.219100
371.031234,-1480.411884,-8660.409521,-153.219100
371.031558,-1776.494261,-8512.368333,306.438199
371.031882,-2294.638420,-8142.265362,-229.828649
371.032207,-1702.473667,-8290.306550,-459.657299
371.032531,-1924.535449,-8142.265362,-536.266849
371.032855,-1554.432478,-8956.491898,-153.219100
371.033179,-888.247130,-9474.636058,0.000000
371.033504,0.000000,-9622.677246,0.000000
371.033828,666.185348,-9918.759623,0.000000
371.034152,1776.494261,-10510.924376,689.485948
371.034476,2220.617826,-10732.986159,689.485948
371.034801,2886.803174,-11325.150913,919.314598
371.035125,3404.947333,-11843.295072,1072.533697
371.035449,3330.926739,-11547.212695,919.314598
371.035773,2590.720797,-11843.295072,766.095498
371.036098,1628.453072,-11695.253884,459.657299
371.036422,740.205942,-11547.212695,229.828649
371.036746,-518.144159,-10436.903782,0.000000
371.037070,-1998.556043,-9474.636058,-536.266849
371.037395,-2294.638420,-9326.594869,-153.219100
371.037719,-2664.741391,-8734.430116,-536.266849
371.038043,-2738.761985,-8216.285956,-612.876398
371.038367,-2812.782580,-7402.059420,-536.266849
371.038692,-2220.617826,-7254.018232,-383.047749
371.039016,-1554.432478,-7105.977043,-229.828649
371.039340,-814.226536,-7254.018232,229.828649
371.039664,-518.144159,-7698.141797,-229.828649
371.039989,-592.164754,-8586.388927,0.000000
371.040313,-296.082377,-9474.636058,-306.438199
371.040637,74.020594,-9770.718434,-153.219100
371.040961,1110.308913,-10584.944971,-459.657299
371.041286,1554.432478,-11251.130318,0.000000
371.041610,2516.700203,-11621.233289,76.609550
371.041934,2516.700203,-11473.192101,229.828649
371.042258,2664.741391,-11769.274478,459.657299
371.042583,2072.576638,-10881.027347,612.876398
371.042907,1406.391290,-10140.821405,612.876398
371.043231,814.226536,-9770.718434,0.000000
371.043555,-666.185348,-9474.636058,-612.876398
371.043880,-1332.370696,-9178.553681,-919.314598
371.044204,-1998.556043,-8808.450710,-1225.752797
371.044528,-2368.659014,-8364.327145,-1378.971896
371.044852,-2442.679609,-8142.265362,-1302.362347
371.045177,-2368.659014,-8438.347739,-1149.143247
371.045501,-1998.556043,-8660.409521,-1532.190996
371.045825,-1702.473667,-8660.409521,-1225.752797
371.046149,-1184.329507,-9104.533087,-919.314598
371.046474,-296.082377,-9474.636058,-536.266849
371.046798,518.144159,-10288.862594,0.000000
371.047122,1258.350101,-10510.924376,0.000000
371.047446,2590.720797,-10584.944971,76.609550
371.047771,3034.844362,-11547.212695,612.876398
371.048095,2960.823768,-11991.336260,153.219100
371.048419,2516.700203,-12139.377449,-153.219100
371.048743,2368.659014,-11843.295072,0.000000
371.049068,1628.453072,-11769.274478,-153.219100
371.049392,370.102971,-11029.068536,-306.438199
371.049716,-370.102971,-10140.821405,0.000000
371.050040,-1480.411884,-9178.553681,-1378.971896
371.050365,-2368.659014,-9030.512492,-995.924147
371.050689,-2590.720797,-8290.306550,-689.485948
371.051013,-2738.761985,-7772.162391,-459.657299
371.051337,-2738.761985,-7846.182985,-536.266849
371.051662,-2368.659014,-7624.121203,-612.876398
371.051986,-1850.514855,-7772.162391,-229.828649
371.052310,-1924.535449,-7550.100608,-306.438199
371.052634,-592.164754,-8512.368333,153.219100
371.052959,222.061783,-9104.533087,0.000000
371.053283,888.247130,-9770.718434,536.266849
371.053607,1628.453072,-10288.862594,612.876398
371.053931,2442.679609,-10807.006753,612.876398
371.054256,2812.782580,-11399.171507,689.485948
371.054580,3108.864956,-11695.253884,842.705048
371.054904,2738.761985,-11399.171507,995.924147
371.055228,2146.597232,-11103.089130,919.314598
371.055553,1480.411884,-10658.965565,536.266849
371.055877,444.123565,-10214.842000,383.047749
371.056201,-444.123565,-9474.636058,153.219100
371.056525,-1406.391290,-9178.553681,229.828649
371.056850,-1702.473667,-8364.327145,153.219100
371.057174,-2368.659014,-7772.162391,0.000000
371.057498,-2590.720797,-7476.080014,383.047749
371.057822,-2368.659014,-7476.080014,-459.657299
371.058147,-2368.659014,-7994.224174,-229.828649
371.058471,-1776.494261,-8586.388927,0.000000
371.058795,-1036.288319,-8734.430116,-153.219100
371.059119,-444.123565,-9104.533087,0.000000
371.059444,666.185348,-9696.697840,153.219100
371.059768,1850.514855,-10140.821405,229.828649
371.060092,2812.782580,-10807.006753,536.266849
371.060416,3552.988522,-11251.130318,919.314598
371.060741,3627.009116,-11843.295072,766.095498
371.061065,3404.947333,-11843.295072,995.924147
371.061389,2590.720797,-11769.274478,689.485948
371.061713,1110.308913,-11547.212695,229.828649
371.062038,666.185348,-11103.089130,229.828649
371.062362,-444.123565,-10732.986159,0.000000
371.062686,-1850.514855,-9548.656652,-459.657299
371.063010,-2590.720797,-9104.533087,-306.438199
371.063335,-2664.741391,-8586.388927,-842.705048
371.063659,-2664.741391,-7994.224174,-383.047749
371.063983,-2442.679609,-7476.080014,-536.266849
371.064308,-2368.659014,-7031.956449,-689.485948
371.064632,-1702.473667,-7105.977043,-306.438199
371.064956,-1184.329507,-7624.121203,0.000000
371.065280,-888.247130,-8068.244768,-383.047749
371.065605,-370.102971,-8956.491898,76.609550
371.065929,148.041188,-9696.697840,0.000000
371.066253,666.185348,-10436.903782,383.047749
371.066577,1332.370696,-10658.965565,383.047749
371.066902,2368.659014,-11399.171507,459.657299
371.067226,2590.720797,-11251.130318,1225.752797
371.067550,2664.741391,-11103.089130,689.485948
371.067874,2368.659014,-11177.109724,459.657299
371.068199,1702.473667,-11103.089130,153.219100
371.068523,888.247130,-10732.986159,76.609550
371.068847,148.041188,-10066.800811,-229.828649
371.069171,-444.123565,-9252.574275,0.000000
371.069496,-1480.411884,-9030.512492,0.000000
371.069820,-2220.617826,-8660.409521,-842.705048
371.070144,-2368.659014,-8068.244768,-842.705048
371.070468,-2516.700203,-8290.306550,-995.924147
371.070793,-2368.659014,-8142.265362,-766.095498
371.071117,-2220.617826,-8068.244768,-612.876398
371.071441,-1702.473667,-8216.285956,-612.876398
371.071765,-1332.370696,-8290.306550,-383.047749
371.072090,0.000000,-9326.594869,-229.828649
371.072414,444.123565,-9400.615463,0.000000
371.072738,1702.473667,-10510.924376,0.000000
371.073062,2294.638420,-10955.047942,0.000000
371.073387,2220.617826,-11103.089130,0.000000
371.073711,2664.741391,-11843.295072,0.000000
371.074035,2664.741391,-11991.336260,229.828649
371.074359,2294.638420,-12065.356855,229.828649
371.074684,1332.370696,-11769.274478,0.000000
371.075008,962.267725,-11473.192101,0.000000
371.075332,-370.102971,-10288.862594,-229.828649
371.075656,-1554.432478,-9770.718434,-689.485948
371.075981,-1850.514855,-9178.553681,-536.266849
371.076305,-1924.535449,-8586.388927,-536.266849
371.076629,-2294.638420,-8142.265362,-766.095498
371.076953,-2886.803174,-7624.121203,-459.657299
371.077278,-2368.659014,-7254.018232,-306.438199
371.077602,-1850.514855,-8142.265362,-1378.971896
371.077926,-1258.350101,-8142.265362,-919.314598
371.078250,-1110.308913,-8512.368333,-383.047749
371.078575,-222.061783,-9400.615463,-306.438199
371.078899,518.144159,-10288.862594,-153.219100
371.079223,1332.370696,-10955.047942,0.000000
371.079547,2146.597232,-11325.150913,306.438199
371.079872,2590.720797,-11917.315666,229.828649
371.080196,2738.761985,-11621.233289,306.438199
371.080520,3330.926739,-12065.356855,689.485948
371.080844,2516.700203,-11547.212695,459.657299
371.081169,1850.514855,-11325.150913,536.266849
371.081493,740.205942,-10510.924376,76.609550
371.081817,0.000000,-9622.677246,0.000000
371.082141,-740.205942,-9030.512492,76.609550
371.082466,-2368.659014,-8660.409521,-383.047749
371.082790,-2220.617826,-8586.388927,-536.266849
371.083114,-2812.782580,-7772.162391,-459.657299
371.083438,-2886.803174,-7698.141797,-536.266849
371.083763,-2812.782580,-7920.203579,-229.828649
371.084087,-2294.638420,-8142.265362,-306.438199
371.084411,-1776.494261,-7772.162391,229.828649
371.084735,-444.123565,-8438.347739,306.438199
371.085060,814.226536,-9474.636058,306.438199
371.085384,1332.370696,-9400.615463,842.705048
371.085708,2220.617826,-10362.883188,689.485948
371.086032,3034.844362,-10807.006753,995.924147
371.086357,3552.988522,-11399.171507,1072.533697
371.086681,3552.988522,-11547.212695,1072.533697
371.087005,2886.803174,-11547.212695,995.924147
371.087329,2368.659014,-11695.253884,842.705048
371.087654,1110.308913,-11103.089130,919.314598
371.087978,-148.041188,-10510.924376,-153.219100
371.088302,-1480.411884,-9474.636058,0.000000
371.088626,-2294.638420,-9252.574275,-153.219100
371.088951,-3034.844362,-8882.471304,-153.219100
371.089275,-2960.823768,-7920.203579,76.609550
371.089599,-2886.803174,-7105.977043,383.047749
371.089923,-2664.741391,-7179.997637,-536.266849
371.090248,-2368.659014,-7476.080014,0.000000
371.090572,-1554.432478,-7624.121203,0.000000
371.090896,-1110.308913,-8068.244768,0.000000
371.091220,-518.144159,-8660.409521,0.000000
371.091545,222.061783,-9400.615463,306.438199
371.091869,1258.350101,-10140.821405,459.657299
371.092193,1776.494261,-10807.006753,383.047749
371.092517,2220.617826,-11325.150913,229.828649
371.092842,3034.844362,-11695.253884,153.219100
371.093166,2738.761985,-11843.295072,153.219100
371.093490,2516.700203,-11769.274478,383.047749
371.093814,2146.597232,-11769.274478,306.438199
371.094139,1776.494261,-11251.130318,383.047749
371.094463,962.267725,-10955.047942,306.438199
371.094787,-370.102971,-10510.924376,-229.828649
371.095111,-1332.370696,-9622.677246,-306.438199
371.095436,-2072.576638,-9178.553681,-612.876398
371.095760,-2516.700203,-8660.409521,-1072.533697
371.096084,-2664.741391,-8438.347739,-1378.971896
371.096408,-2516.700203,-7920.203579,-1378.971896
371.096733,-2368.659014,-7698.141797,-689.485948
371.097057,-1554.432478,-8290.306550,-995.924147
371.097381,-1184.329507,-7920.203579,-612.876398
371.097705,-148.041188,-8660.409521,-612.876398
371.098030,518.144159,-9252.574275,-153.219100
371.098354,1110.308913,-10288.862594,76.609550
371.098678,1776.494261,-10584.944971,153.219100
371.099002,2220.617826,-10881.027347,459.657299
371.099327,2664.741391,-11547.212695,306.438199
371.099651,2368.659014,-11399.171507,-153.219100
371.099975,2294.638420,-11843.295072,153.219100
371.100299,1554.432478,-11473.192101,76.609550
371.100624,814.226536,-11251.130318,0.000000
371.100948,-148.041188,-10436.903782,-383.047749
371.101272,-1406.391290,-9548.656652,-612.876398
371.101596,-2072.576638,-8808.450710,-766.095498
371.101921,-2368.659014,-8438.347739,-612.876398
371.102245,-2368.659014,-8142.265362,-766.095498
371.102569,-1998.556043,-7624.121203,-612.876398
371.102893,-2220.617826,-7402.059420,-842.705048
371.103218,-1998.556043,-7550.100608,-612.876398
371.103542,-1998.556043,-7920.203579,-459.657299
371.103866,-1850.514855,-7920.203579,-383.047749
371.104190,-1332.370696,-8734.430116,0.000000
371.104515,-222.061783,-9696.697840,-76.609550
371.104839,518.144159,-9918.759623,306.438199
371.105163,1110.308913,-10658.965565,76.609550
371.105487,2146.597232,-11325.150913,306.438199
371.105812,2442.679609,-11843.295072,383.047749
371.106136,2738.761985,-11547.212695,229.828649
371.106460,2886.803174,-11769.274478,383.047749
371.106784,2738.761985,-11843.295072,459.657299
371.107109,1998.556043,-11177.109724,536.266849
371.107433,1036.288319,-11029.068536,-229.828649
371.107757,0.000000,-9844.739029,-153.219100
371.108081,-1036.288319,-9474.636058,-536.266849
371.108406,-1628.453072,-9326.594869,-689.485948
371.108730,-2072.576638,-9030.512492,0.000000
371.109054,-2368.659014,-8068.244768,-459.657299
371.109378,-2442.679609,-8068.244768,-153.219100
371.109703,-2664.741391,-8142.265362,-459.657299
371.110027,-2294.638420,-8512.368333,-306.438199
371.110351,-1628.453072,-8216.285956,0.000000
371.110675,-222.061783,-9030.512492,153.219100
371.111000,518.144159,-9548.656652,153.219100
371.111324,1628.453072,-9992.780217,995.924147
371.111648,2738.761985,-10584.944971,766.095498
371.111972,3552.988522,-11177.109724,995.924147
371.112296,3552.988522,-11621.233289,919.314598
371.112621,3404.947333,-11769.274478,919.314598
371.112945,2812.782580,-11621.233289,766.095498
371.113269,1702.473667,-11473.192101,689.485948
371.113593,444.123565,-11029.068536,536.266849
371.113917,-592.164754,-10214.842000,306.438199
371.114242,-2368.659014,-9474.636058,-76.609550
371.114566,-2368.659014,-9030.512492,153.219100
371.114890,-2886.803174,-7994.224174,-536.266849
371.115214,-2812.782580,-7476.080014,-306.438199
371.115538,-2886.803174,-7105.977043,-229.828649
371.115863,-2886.803174,-7105.977043,0.000000
371.116187,-2294.638420,-7402.059420,0.000000
371.116511,-1628.453072,-7328.038826,-229.828649
371.116835,-740.205942,-8142.265362,536.266849
371.117159,-74.020594,-9178.553681,-229.828649
371.117484,518.144159,-9918.759623,0.000000
371.117808,1258.350101,-10807.006753,229.828649
371.118132,2220.617826,-11177.109724,306.438199
371.118456,2812.782580,-11325.150913,536.266849
371.118780,2738.761985,-11695.253884,689.485948
371.119105,3108.864956,-11177.109724,459.657299
371.119429,2812.782580,-11473.192101,536.266849
371.119753,1850.514855,-11103.089130,536.266849
371.120077,1036.288319,-10807.006753,383.047749
371.120401,-148.041188,-10140.821405,0.000000
371.120725,-1110.308913,-9252.574275,-153.219100
371.121050,-1924.535449,-8956.491898,0.000000
371.121374,-2368.659014,-8660.409521,-689.485948
371.121698,-2664.741391,-8216.285956,-1072.533697
371.122022,-2368.659014,-7846.182985,-1455.581446
371.122346,-2368.659014,-7772.162391,-842.705048
371.122671,-1850.514855,-7994.224174,-766.095498
371.122995,-1480.411884,-8364.327145,-689.485948
371.123319,-592.164754,-8882.471304,0.000000
371.123643,370.102971,-9474.636058,-153.219100
371.123967,888.247130,-10214.842000,-612.876398
371.124292,1406.391290,-10510.924376,153.219100
371.124616,2146.597232,-11177.109724,383.047749
371.124940,2590.720797,-11695.253884,459.657299
371.125264,2886.803174,-12065.356855,536.266849
371.125588,2664.741391,-12287.418637,766.095498
371.125913,2368.659014,-11473.192101,842.705048
371.126237,1628.453072,-11325.150913,536.266849
371.126561,0.000000,-10881.027347,306.438199
371.126885,-888.247130,-9918.759623,-766.095498
371.127209,-1924.535449,-9252.574275,-766.095498
371.127534,-2220.617826,-8734.430116,-1149.143247
371.127858,-2442.679609,-8068.244768,-995.924147
371.128182,-2812.782580,-7624.121203,-919.314598
371.128506,-2812.782580,-7254.018232,-1838.629195
371.128830,-2590.720797,-7105.977043,-689.485948
371.129155,-2368.659014,-7772.162391,-459.657299
371.129479,-2146.597232,-8068.244768,-689.485948
371.129803,-1406.391290,-8290.306550,-229.828649
371.130127,-592.164754,-9326.594869,-306.438199
371.130451,148.041188,-9844.739029,0.000000
371.130775,1036.288319,-10584.944971,0.000000
371.131100,2368.659014,-11843.295072,0.000000
371.131424,2812.782580,-11843.295072,76.609550
371.131748,3182.885551,-12361.439231,306.438199
371.132072,3034.844362,-11769.274478,306.438199
371.132396,2442.679609,-11843.295072,-459.657299
371.132721,1702.473667,-11325.150913,-229.828649
371.133045,666.185348,-10658.965565,-536.266849
371.133369,-148.041188,-10066.800811,-536.266849
371.133693,-592.164754,-9474.636058,-612.876398
371.134017,-962.267725,-8512.368333,-689.485948
371.134342,-1554.432478,-8438.347739,-919.314598
371.134666,-2072.576638,-7550.100608,-1072.533697
371.134990,-2442.679609,-7772.162391,-612.876398
371.135314,-2368.659014,-8142.265362,-689.485948
371.135638,-2294.638420,-8438.347739,-459.657299
371.135963,-1258.350101,-8956.491898,-153.219100
371.136287,-592.164754,-8882.471304,0.000000
371.136611,518.144159,-9548.656652,153.219100
371.136935,1776.494261,-10584.944971,689.485948
371.137259,2664.741391,-10955.047942,306.438199
371.137584,3182.885551,-11177.109724,1072.533697
371.137908,3775.050304,-11621.233289,1149.143247
371.138232,3701.029710,-12065.356855,995.924147
371.138556,3404.947333,-11769.274478,1072.533697
371.138880,2516.700203,-11325.150913,919.314598
371.139205,888.247130,-10510.924376,919.314598
371.139529,296.082377,-10140.821405,995.924147
371.139853,-1480.411884,-9400.615463,459.657299
371.140177,-2294.638420,-8956.491898,306.438199
371.140501,-2738.761985,-8290.306550,76.609550
371.140825,-3034.844362,-7105.977043,0.000000
371.141150,-2960.823768,-7031.956449,459.657299
371.141474,-3256.906145,-7031.956449,-229.828649
371.141798,-2960.823768,-6883.915261,612.876398
371.142122,-2368.659014,-7105.977043,536.266849
371.142446,-1554.432478,-7476.080014,229.828649
371.142771,-814.226536,-8438.347739,306.438199
371.143095,0.000000,-9252.574275,536.266849
371.143419,1184.329507,-9844.739029,306.438199
371.143743,1998.556043,-10807.006753,1302.362347
371.144067,3330.926739,-11695.253884,1149.143247
371.144392,2886.803174,-11621.233289,842.705048
371.144716,2960.823768,-11843.295072,766.095498
371.145040,2368.659014,-11843.295072,459.657299
371.145364,1480.411884,-11621.233289,229.828649
371.145688,592.164754,-11177.109724,0.000000
371.146013,-222.061783,-10436.903782,76.609550
371.146337,-740.205942,-9770.718434,0.000000
371.146661,-1702.473667,-9104.533087,-229.828649
371.146985,-2146.597232,-8956.491898,-689.485948
371.147309,-2590.720797,-8734.430116,-919.314598
371.147634,-2590.720797,-8290.306550,-1072.533697
371.147958,-2368.659014,-8068.244768,-1072.533697
371.148282,-1850.514855,-7698.141797,-1072.533697
371.148606,-1554.432478,-7920.203579,-689.485948
371.148930,-148.041188,-8512.368333,-612.876398
371.149255,296.082377,-8808.450710,-612.876398
371.149579,1036.288319,-9770.718434,-459.657299
371.149903,1702.473667,-10510.924376,-459.657299
371.150227,2146.597232,-11029.068536,0.000000
371.150551,2738.761985,-11769.274478,153.219100
371.150876,3034.844362,-11917.315666,306.438199
371.151200,2664.741391,-12287.418637,-306.438199
371.151524,2294.638420,-12213.398043,153.219100
371.151848,1480.411884,-11843.295072,0.000000
371.152172,222.061783,-11325.150913,-153.219100
371.152496,-962.267725,-10510.924376,-612.876398
371.152821,-1850.514855,-9474.636058,-842.705048
371.153145,-2146.597232,-8734.430116,-459.657299
371.153469,-2220.617826,-8216.285956,-689.485948
371.153793,-2812.782580,-7179.997637,-1072.533697
371.154117,-2442.679609,-6957.935855,-842.705048
371.154442,-2072.576638,-7254.018232,-766.095498
371.154766,-1776.494261,-7254.018232,-612.876398
371.155090,-1850.514855,-7402.059420,-766.095498
371.155414,-1554.432478,-7994.224174,-383.047749
371.155738,-1406.391290,-9030.512492,-612.876398
371.156063,-444.123565,-10066.800811,-306.438199
371.156387,148.041188,-10807.006753,459.657299
371.156711,1110.308913,-11325.150913,0.000000
371.157035,2072.576638,-11769.274478,612.876398
371.157359,2738.761985,-11843.295072,536.266849
371.157684,2812.782580,-11769.274478,153.219100
371.158008,2886.803174,-11177.109724,536.266849
371.158332,2442.679609,-10881.027347,76.609550
371.158656,1480.411884,-10510.924376,0.000000
371.158980,666.185348,-9400.615463,-306.438199
371.159305,-740.205942,-9104.533087,-459.657299
371.159629,-1480.411884,-8882.471304,-689.485948
371.159953,-1850.514855,-8586.388927,-766.095498
371.160277,-2294.638420,-8068.244768,-995.924147
371.160601,-3330.926739,-8068.244768,-1072.533697
371.160926,-3108.864956,-8142.265362,-919.314598
371.161250,-2960.823768,-8290.306550,-612.876398
371.161574,-2294.638420,-8734.430116,-383.047749
371.161898,-962.267725,-9104.533087,0.000000
371.162222,0.000000,-9474.636058,-612.876398
371.162546,1258.350101,-9844.739029,76.609550
371.162871,2590.720797,-10362.883188,536.266849
371.163195,3775.050304,-11325.150913,842.705048
371.163519,4589.276840,-12065.356855,1149.143247
371.163843,4145.153275,-12139.377449,1072.533697
371.164167,3701.029710,-11843.295072,842.705048
371.164492,2590.720797,-11769.274478,536.266849
371.164816,1554.432478,-11843.295072,459.657299
371.165140,0.000000,-11029.068536,0.000000
371.165464,-1480.411884,-10140.821405,-153.219100
371.165788,-2294.638420,-9104.533087,0.000000
371.166113,-2886.803174,-8512.368333,0.000000
371.166437,-3330.926739,-7476.080014,0.000000
371.166761,-3478.967927,-7105.977043,-536.266849
371.167085,-3034.844362,-6957.935855,-536.266849
371.167409,-2738.761985,-7550.100608,-153.219100
371.167734,-1850.514855,-7328.038826,229.828649
371.168058,-1036.288319,-7550.100608,383.047749
371.168382,-370.102971,-7550.100608,229.828649
371.168706,444.123565,-8512.368333,0.000000
371.169030,518.144159,-9030.512492,0.000000
371.169355,1480.411884,-11029.068536,459.657299
371.169679,2442.679609,-11769.274478,229.828649
371.170003,2590.720797,-11843.295072,383.047749
371.170327,2738.761985,-11695.253884,689.485948
371.170651,2368.659014,-11843.295072,459.657299
371.170976,1998.556043,-11473.192101,229.828649
371.171300,1406.391290,-10436.903782,612.876398
371.171624,1110.308913,-10140.821405,383.047749
371.171948,74.020594,-9548.656652,153.219100
371.172272,-888.247130,-9030.512492,0.000000
371.172596,-1776.494261,-8438.347739,-153.219100
371.172921,-2072.576638,-8216.285956,-689.485948
371.173245,-2738.761985,-8290.306550,-612.876398
371.173569,-2886.803174,-7920.203579,-536.266849
371.173893,-2516.700203,-8068.244768,-995.924147
371.174217,-1776.494261,-7846.182985,-919.314598
371.174542,-1480.411884,-8882.471304,-1149.143247
371.174866,-444.123565,-9030.512492,-459.657299
371.175190,592.164754,-9622.677246,-383.047749
371.175514,1776.494261,-10214.842000,0.000000
371.175838,2368.659014,-10881.027347,306.438199
371.176163,3627.009116,-11621.233289,0.000000
371.176487,3330.926739,-11843.295072,536.266849
371.176811,3108.864956,-11843.295072,306.438199
371.177135,2368.659014,-12213.398043,229.828649
371.177459,1776.494261,-11843.295072,153.219100
371.177784,740.205942,-11695.253884,229.828649
371.178108,0.000000,-11029.068536,-536.266849
371.178432,-888.247130,-9622.677246,-306.438199
371.178756,-1998.556043,-8882.471304,-383.047749
371.179080,-2516.700203,-8660.409521,-919.314598
371.179405,-2664.741391,-7994.224174,-842.705048
371.179729,-2590.720797,-7476.080014,-995.924147
371.180053,-2146.597232,-7105.977043,-919.314598
371.180377,-1924.535449,-7179.997637,-459.657299
371.180701,-1258.350101,-7846.182985,-459.657299
371.181026,-1184.329507,-7846.182985,-459.657299
371.181350,-1184.329507,-8956.491898,-1378.971896
371.181674,-444.123565,-9844.739029,-1149.143247
371.181998,0.000000,-10288.862594,0.000000
371.182322,888.247130,-10955.047942,0.000000
371.182647,1776.494261,-11177.109724,76.609550
371.182971,2294.638420,-11917.315666,919.314598
371.183295,2368.659014,-11991.336260,689.485948
371.183619,2516.700203,-11325.150913,689.485948
371.183943,2072.576638,-11029.068536,459.657299
371.184267,1554.432478,-10658.965565,306.438199
371.184592,444.123565,-10362.883188,0.000000
371.184916,-518.144159,-9474.636058,-536.266849
371.185240,-1406.391290,-9030.512492,-612.876398
371.185564,-1480.411884,-8808.450710,-1072.533697
371.185888,-2146.597232,-7772.162391,-459.657299
371.186213,-2516.700203,-7550.100608,-995.924147
371.186537,-2442.679609,-7402.059420,-842.705048
371.186861,-2368.659014,-7846.182985,-689.485948
371.187185,-2220.617826,-8142.265362,-536.266849
371.187509,-1850.514855,-8734.430116,-383.047749
371.187834,-740.205942,-9252.574275,229.828649
371.188158,370.102971,-9400.615463,153.219100
371.188482,1332.370696,-10510.924376,919.314598
371.188806,2368.659014,-10658.965565,919.314598
371.189130,3034.844362,-11843.295072,459.657299
371.189455,3478.967927,-12065.356855,842.705048
371.189779,3701.029710,-11843.295072,766.095498
371.190103,3108.864956,-11843.295072,689.485948
371.190427,2072.576638,-11547.212695,612.876398
371.190751,1110.308913,-10807.006753,153.219100
371.191076,74.020594,-10288.862594,0.000000
371.191400,-1554.432478,-9030.512492,-306.438199
371.191724,-2368.659014,-9030.512492,-306.438199
371.192048,-2590.720797,-8364.327145,-383.047749
371.192372,-2886.803174,-7550.100608,-459.657299
371.192697,-3034.844362,-7328.038826,-76.609550
371.193021,-3034.844362,-7328.038826,-153.219100
371.193345,-2812.782580,-7550.100608,-229.828649
371.193669,-2146.597232,-7105.977043,459.657299
371.193993,-1332.370696,-7624.121203,-153.219100
371.194317,-444.123565,-8586.388927,76.609550
371.194642,518.144159,-9104.533087,0.000000
371.194966,1332.370696,-10066.800811,153.219100
371.195290,2368.659014,-10881.027347,229.828649
371.195614,2812.782580,-11769.274478,459.657299
371.195938,3108.864956,-12287.418637,0.000000
371.196263,3108.864956,-11917.315666,612.876398
371.196587,2812.782580,-12213.398043,383.047749
371.196911,2146.597232,-12213.398043,229.828649
371.197235,1332.370696,-11547.212695,383.047749
371.197559,740.205942,-10807.006753,76.609550
371.197884,-296.082377,-9844.739029,76.609550
371.198208,-962.267725,-9030.512492,-766.095498
371.198532,-1924.535449,-8290.306550,0.000000
371.198856,-2294.638420,-8068.244768,0.000000
371.199180,-2442.679609,-7550.100608,-842.705048
371.199505,-2664.741391,-7624.121203,-612.876398
371.199829,-2294.638420,-7550.100608,-536.266849
371.200153,-1776.494261,-7698.141797,-459.657299
371.200477,-1184.329507,-8068.244768,-383.047749
371.200801,-518.144159,-8734.430116,-536.266849
371.201126,370.102971,-9770.718434,-536.266849
371.201450,888.247130,-10436.903782,0.000000
371.201774,1850.514855,-10658.965565,306.438199
371.202098,2294.638420,-11399.171507,459.657299
371.202422,2886.803174,-11843.295072,536.266849
371.202747,2886.803174,-12361.439231,766.095498
371.203071,2368.659014,-11695.253884,229.828649
371.203395,1924.535449,-11769.274478,612.876398
371.203719,1258.350101,-11177.109724,1072.533697
371.204043,0.000000,-10362.883188,229.828649
371.204367,-592.164754,-9252.574275,-459.657299
371.204692,-1702.473667,-8660.409521,-536.266849
371.205016,-2368.659014,-8068.244768,-766.095498
371.205340,-3108.864956,-7476.080014,-919.314598
371.205664,-3108.864956,-7105.977043,-1072.533697
371.205988,-2590.720797,-6587.832884,-383.047749
371.206313,-1998.556043,-7179.997637,-306.438199
371.206637,-1702.473667,-7476.080014,-383.047749
371.206961,-1924.535449,-7698.141797,-153.219100
371.207285,-1258.350101,-8586.388927,-76.609550
371.207609,-518.144159,-9474.636058,-153.219100
371.207934,0.000000,-10436.903782,0.000000
371.208258,1406.391290,-11251.130318,306.438199
371.208582,2220.617826,-11621.233289,536.266849
371.208906,2516.700203,-11991.336260,459.657299
371.209230,2664.741391,-12139.377449,229.828649
371.209555,2738.761985,-12139.377449,229.828649
371.209879,2368.659014,-12065.356855,229.828649
371.210203,1850.514855,-11399.171507,0.000000
371.210527,1184.329507,-10658.965565,0.000000
371.210851,222.061783,-9622.677246,0.000000
371.211176,-740.205942,-8956.491898,-229.828649
371.211496,-1628.453072,-8438.347739,-306.438199
371.211820,-2516.700203,-8290.306550,-1149.143247
371.212145,-3034.844362,-7846.182985,-842.705048
371.212469,-2960.823768,-7772.162391,-766.095498
371.212793,-2590.720797,-7994.224174,-689.485948
371.213117,-1924.535449,-7920.203579,-842.705048
371.213441,-1406.391290,-8142.265362,-229.828649
371.213765,-370.102971,-8956.491898,-229.828649
371.214089,518.144159,-9548.656652,229.828649
371.214413,1554.432478,-10658.965565,153.219100
371.214737,2812.782580,-11399.171507,536.266849
371.215061,3404.947333,-11917.315666,766.095498
371.215386,3849.070898,-12583.501014,766.095498
371.215710,3552.988522,-12583.501014,689.485948
371.216034,2590.720797,-11991.336260,383.047749
371.216358,1332.370696,-11621.233289,153.219100
371.216682,370.102971,-11029.068536,229.828649
371.217006,-814.226536,-9844.739029,0.000000
371.217330,-1850.514855,-9030.512492,0.000000
371.217654,-2368.659014,-8216.285956,-306.438199
371.217978,-3034.844362,-7105.977043,-459.657299
371.218302,-3256.906145,-6513.812290,-689.485948
371.218627,-3404.947333,-6365.771101,-612.876398
371.218951,-2738.761985,-6735.874072,-306.438199
371.219275,-2294.638420,-7031.956449,0.000000
371.219599,-1776.494261,-7179.997637,76.609550
371.219923,-1184.329507,-7624.121203,76.609550
371.220247,-444.123565,-8290.306550,-306.438199
371.220571,74.020594,-9178.553681,76.609550
371.220895,1406.391290,-10881.027347,459.657299
371.221219,2442.679609,-11621.233289,612.876398
371.221543,3404.947333,-12139.377449,842.705048
371.221867,3108.864956,-12139.377449,689.485948
371.222192,3256.906145,-12361.439231,306.438199
371.222516,2590.720797,-12139.377449,229.828649
371.222840,2072.576638,-11325.150913,612.876398
371.223164,1924.535449,-11473.192101,383.047749
371.223488,592.164754,-10214.842000,383.047749
371.223812,-444.123565,-9474.636058,0.000000
371.224136,-1406.391290,-8808.450710,-306.438199
371.224460,-2146.597232,-8438.347739,-536.266849
371.224784,-2886.803174,-8216.285956,-919.314598
371.225108,-3182.885551,-7698.141797,0.000000
371.225433,-2516.700203,-7328.038826,-153.219100
371.225757,-1998.556043,-7920.203579,-153.219100
371.226081,-1480.411884,-7994.224174,383.047749
371.226405,-592.164754,-8216.285956,-306.438199
371.226729,0.000000,-8956.491898,0.000000
371.227053,740.205942,-9992.780217,153.219100
371.227377,1850.514855,-10732.986159,383.047749
371.227701,2812.782580,-11177.109724,612.876398
371.228025,3478.967927,-11621.233289,766.095498
371.228349,3627.009116,-11991.336260,842.705048
371.228674,2812.782580,-12509.480420,842.705048
371.228998,1998.556043,-12287.418637,306.438199
371.229322,888.247130,-11843.295072,229.828649
371.229646,-296.082377,-10955.047942,306.438199
371.229970,-1258.350101,-10066.800811,229.828649
371.230294,-1702.473667,-8660.409521,-383.047749
371.230618,-2368.659014,-8364.327145,-306.438199
371.230942,-2368.659014,-7846.182985,-383.047749
371.231266,-2516.700203,-7179.997637,-842.705048
371.231590,-2812.782580,-6809.894666,-612.876398
371.231915,-2294.638420,-7105.977043,-383.047749
371.232239,-1554.432478,-7402.059420,-229.828649
371.232563,-1776.494261,-7402.059420,0.000000
371.232887,-1036.288319,-7846.182985,-383.047749
371.233211,-444.123565,-8882.471304,-1302.362347
371.233535,444.123565,-9474.636058,0.000000
371.233859,962.267725,-10881.027347,0.000000
371.234183,1776.494261,-11843.295072,76.609550
371.234507,2072.576638,-12509.480420,153.219100
371.234831,2294.638420,-12435.459826,383.047749
371.235155,2072.576638,-12139.377449,0.000000
371.235480,1480.411884,-11991.336260,-919.314598
371.235804,1480.411884,-10955.047942,-306.438199
371.236128,1406.391290,-11103.089130,-842.705048
371.236452,666.185348,-10288.862594,-536.266849
371.236776,0.000000,-9474.636058,-536.266849
371.237100,-1110.308913,-8808.450710,-842.705048
371.237424,-1554.432478,-8364.327145,-1072.533697
371.237748,-2442.679609,-8068.244768,-919.314598
371.238072,-2738.761985,-8068.244768,-1225.752797
371.238396,-2590.720797,-7920.203579,-919.314598
371.238721,-2146.597232,-8438.347739,-766.095498
371.239045,-1628.453072,-8438.347739,-459.657299
371.239369,-1258.350101,-8660.409521,-689.485948
371.239693,-370.102971,-9400.615463,-612.876398
371.240017,888.247130,-10510.924376,-229.828649
371.240341,1184.329507,-10881.027347,383.047749
371.240665,2960.823768,-11621.233289,919.314598
371.240989,3330.926739,-11695.253884,306.438199
371.241313,3404.947333,-12213.398043,459.657299
371.241637,2886.803174,-12213.398043,76.609550
371.241962,2072.576638,-11843.295072,306.438199
371.242286,1184.329507,-11399.171507,229.828649
371.242610,0.000000,-10140.821405,229.828649
371.242934,-740.205942,-9178.553681,0.000000
371.243258,-1850.514855,-8364.327145,0.000000
371.243582,-2368.659014,-7698.141797,-459.657299
371.243906,-3256.906145,-7105.977043,-766.095498
371.244230,-3775.050304,-6883.915261,-766.095498
371.244554,-3330.926739,-7031.956449,-153.219100
371.244878,-3108.864956,-7254.018232,229.828649
371.245203,-2516.700203,-7328.038826,0.000000
371.245527,-1998.556043,-7179.997637,0.000000
371.245851,-1332.370696,-8364.327145,612.876398
371.246175,222.061783,-8882.471304,0.000000
371.246499,1332.370696,-9770.718434,306.438199
371.246823,2146.597232,-11251.130318,612.876398
371.247147,3108.864956,-12065.356855,689.485948
371.247471,3330.926739,-12213.398043,383.047749
371.247795,3182.885551,-12139.377449,919.314598
371.248119,2738.761985,-12065.356855,153.219100
371.248443,2072.576638,-11843.295072,0.000000
371.248768,1554.432478,-11473.192101,0.000000
371.249092,888.247130,-10362.883188,306.438199
371.249416,444.123565,-9622.677246,229.828649
371.249740,-518.144159,-8882.471304,0.000000
371.250064,-1554.432478,-8142.265362,153.219100
371.250388,-2442.679609,-7402.059420,-383.047749
371.250712,-2664.741391,-8142.265362,-306.438199
371.251036,-3404.947333,-7846.182985,-612.876398
371.251360,-2738.761985,-7476.080014,-306.438199
371.251684,-1702.473667,-7846.182985,-306.438199
371.252009,-962.267725,-8216.285956,-306.438199
371.252333,0.000000,-8734.430116,-306.438199
371.252657,1184.329507,-9474.636058,76.609550
371.252981,2220.617826,-10214.842000,459.657299
371.253305,2738.761985,-10955.047942,536.266849
371.253629,3034.844362,-11695.253884,919.314598
371.253953,3330.926739,-12139.377449,766.095498
371.254277,3182.885551,-12435.459826,919.314598
371.254601,2072.576638,-11843.295072,766.095498
371.254925,1554.432478,-11917.315666,612.876398
371.255250,370.102971,-11399.171507,995.924147
371.255574,-962.267725,-10362.883188,383.047749
371.255898,-1776.494261,-9474.636058,0.000000
371.256222,-2368.659014,-8364.327145,-383.047749
371.256546,-3034.844362,-7476.080014,-766.095498
371.256870,-2960.823768,-7031.956449,-919.314598
371.257194,-2516.700203,-7031.956449,-919.314598
371.257518,-2368.659014,-6217.729913,-689.485948
371.257842,-1554.432478,-7402.059420,-383.047749
371.258166,-1406.391290,-7402.059420,-229.828649
371.258491,-1110.308913,-7772.162391,229.828649
371.258815,-444.123565,-8660.409521,612.876398
371.259139,370.102971,-9178.553681,76.609550
371.259463,962.267725,-10140.821405,0.000000
371.259787,1332.370696,-11621.233289,1225.752797
371.260111,2072.576638,-12509.480420,612.876398
371.260435,2516.700203,-12731.542202,536.266849
371.260759,1628.453072,-12213.398043,383.047749
371.261083,1184.329507,-11769.274478,-153.219100
371.261407,962.267725,-11473.192101,-536.266849
371.261731,962.267725,-10732.986159,-536.266849
371.262056,740.205942,-9400.615463,-766.095498
371.262380,666.185348,-9030.512492,0.000000
371.262704,0.000000,-8290.306550,-229.828649
371.263028,-814.226536,-7846.182985,-306.438199
371.263352,-1480.411884,-7476.080014,-919.314598
371.263676,-2516.700203,-7920.203579,-995.924147
371.264000,-3034.844362,-8290.306550,-842.705048
371.264324,-2516.700203,-8660.409521,-689.485948
371.264648,-1850.514855,-8882.471304,-153.219100
371.264972,-1332.370696,-9104.533087,-383.047749
371.265297,-518.144159,-10066.800811,-536.266849
371.265621,518.144159,-10658.965565,-306.438199
371.265945,1554.432478,-11177.109724,-153.219100
371.266269,2368.659014,-11621.233289,229.828649
371.266593,3182.885551,-12139.377449,153.219100
371.266917,3923.091493,-12583.501014,76.609550
371.267241,3256.906145,-12139.377449,0.000000
371.267565,2516.700203,-12287.418637,-229.828649
371.267889,1850.514855,-11843.295072,-306.438199
371.268213,518.144159,-10881.027347,0.000000
371.268538,-814.226536,-9770.718434,0.000000
371.268862,-1776.494261,-9474.636058,-76.609550
371.269186,-2664.741391,-8586.388927,-383.047749
371.269510,-3404.947333,-7698.141797,-536.266849
371.269834,-3627.009116,-7105.977043,-919.314598
371.270158,-3552.988522,-7105.977043,-306.438199
371.270482,-3478.967927,-7105.977043,153.219100
371.270806,-2368.659014,-7031.956449,536.266849
371.271130,-1480.411884,-6883.915261,612.876398
371.271454,-444.123565,-7846.182985,383.047749
371.271779,148.041188,-7994.224174,76.609550
371.272103,1406.391290,-9178.553681,229.828649
371.272427,2442.679609,-10732.986159,536.266849
371.272751,3478.967927,-11695.253884,459.657299
371.273075,3849.070898,-12139.377449,153.219100
371.273399,3108.864956,-12213.398043,842.705048
371.273723,1998.556043,-11843.295072,0.000000
371.274047,1406.391290,-11843.295072,0.000000
371.274371,814.226536,-11251.130318,76.609550
371.274695,148.041188,-10436.903782,229.828649
371.275019,0.000000,-9548.656652,612.876398
371.275344,-814.226536,-8882.471304,229.828649
371.275668,-1998.556043,-8142.265362,536.266849
371.275992,-2516.700203,-7624.121203,0.000000
371.276316,-2886.803174,-7994.224174,-536.266849
371.276640,-3182.885551,-8216.285956,-536.266849
371.276964,-2368.659014,-8068.244768,-383.047749
371.277288,-1480.411884,-8142.265362,0.000000
371.277612,-444.123565,-8660.409521,-383.047749
371.277936,222.061783,-8808.450710,76.609550
371.278260,814.226536,-9770.718434,306.438199
371.278585,1628.453072,-10436.903782,306.438199
371.278909,2664.741391,-11251.130318,306.438199
371.279233,2812.782580,-11473.192101,536.266849
371.279557,3108.864956,-11991.336260,612.876398
371.279881,2738.761985,-12435.459826,306.438199
371.280205,2368.659014,-12213.398043,383.047749
371.280529,1406.391290,-11251.130318,383.047749
371.280853,444.123565,-11251.130318,612.876398
371.281177,-370.102971,-10955.047942,383.047749
371.281501,-1480.411884,-9844.739029,0.000000
371.281826,-2294.638420,-8882.471304,-153.219100
371.282150,-2442.679609,-8364.327145,-612.876398
371.282474,-2960.823768,-7550.100608,-536.266849
371.282798,-2738.761985,-6957.935855,-306.438199
371.283122,-2220.617826,-6957.935855,0.000000
371.283446,-1702.473667,-7328.038826,0.000000
371.283770,-1258.350101,-7550.100608,0.000000
371.284094,-370.102971,-7994.224174,612.876398
371.284418,-444.123565,-8364.327145,76.609550
371.284742,370.102971,-9252.574275,229.828649
371.285067,1110.308913,-10066.800811,612.876398
371.285391,1628.453072,-10955.047942,612.876398
371.285715,1924.535449,-11547.212695,1149.143247
371.286039,1850.514855,-11473.192101,536.266849
371.286363,1480.411884,-11621.233289,229.828649
371.286687,1036.288319,-11251.130318,0.000000
371.287011,740.205942,-11251.130318,-76.609550
371.287335,296.082377,-10510.924376,-306.438199
371.287659,-370.102971,-9770.718434,-459.657299
371.287983,-592.164754,-9400.615463,-459.657299
371.288307,-1332.370696,-8734.430116,-306.438199
371.288632,-1850.514855,-8290.306550,-1072.533697
371.288956,-1998.556043,-7550.100608,-995.924147
371.289280,-2442.679609,-7846.182985,-919.314598
371.289604,-2590.720797,-8290.306550,-689.485948
371.289928,-1924.535449,-8438.347739,-689.485948
371.290252,-1628.453072,-8364.327145,-459.657299
371.290576,-592.164754,-8438.347739,-229.828649
371.290900,0.000000,-9030.512492,153.219100
371.291224,1258.350101,-10066.800811,-153.219100
371.291548,2294.638420,-10732.986159,0.000000
371.291873,2516.700203,-11621.233289,76.609550
371.292197,3256.906145,-12213.398043,153.219100
371.292521,3330.926739,-12435.459826,153.219100
371.292845,2664.741391,-11991.336260,0.000000
371.293169,2368.659014,-11621.233289,-229.828649
371.293493,1850.514855,-10955.047942,76.609550
371.293817,592.164754,-10584.944971,-536.266849
371.294141,-444.123565,-9696.697840,-536.266849
371.294465,-1332.370696,-9252.574275,-383.047749
371.294789,-1850.514855,-8660.409521,-459.657299
371.295114,-2738.761985,-7698.141797,-919.314598
371.295438,-3256.906145,-7254.018232,-919.314598
371.295762,-3552.988522,-7772.162391,-383.047749
371.296086,-2812.782580,-8216.285956,-383.047749
371.296410,-2664.741391,-8290.306550,-153.219100
371.296734,-1850.514855,-7994.224174,-306.438199
371.297058,-740.205942,-7994.224174,-306.438199
371.297382,74.020594,-9252.574275,-383.047749
371.297706,1258.350101,-10066.800811,229.828649
371.298030,2294.638420,-10807.006753,229.828649
371.298355,3256.906145,-11177.109724,689.485948
371.298679,3552.988522,-11473.192101,766.095498
371.299003,3182.885551,-11695.253884,383.047749
371.299327,2664.741391,-11843.295072,153.219100
371.299651,1850.514855,-11695.253884,0.000000
371.299975,888.247130,-11029.068536,-383.047749
371.300299,148.041188,-10288.862594,306.438199
371.300623,-1332.370696,-9474.636058,0.000000
371.300947,-1554.432478,-9326.594869,153.219100
371.301271,-2220.617826,-8512.368333,-306.438199
371.301595,-3108.864956,-8216.285956,-766.095498
371.301920,-3552.988522,-8142.265362,-842.705048
371.302244,-3478.967927,-8216.285956,-766.095498
371.302568,-2368.659014,-7920.203579,-459.657299
371.302892,-1628.453072,-7846.182985,0.000000
371.303216,-740.205942,-8364.327145,0.000000
371.303540,74.020594,-8734.430116,-306.438199
371.303864,814.226536,-9770.718434,0.000000
371.304188,1924.535449,-10288.862594,383.047749
371.304512,2886.803174,-10658.965565,766.095498
371.304836,3627.009116,-11103.089130,1072.533697
371.305161,3775.050304,-11547.212695,995.924147
371.305485,3256.906145,-11695.253884,1762.019645
371.305809,2294.638420,-11399.171507,689.485948
371.306133,1184.329507,-11325.150913,689.485948
371.306457,0.000000,-10955.047942,919.314598
371.306781,-518.144159,-10214.842000,459.657299
371.307105,-1480.411884,-9252.574275,229.828649
371.307429,-2072.576638,-8438.347739,76.609550
371.307753,-2590.720797,-8142.265362,-153.219100
371.308077,-2368.659014,-7476.080014,76.609550
371.308402,-2960.823768,-6957.935855,-153.219100
371.308726,-2146.597232,-7179.997637,0.000000
371.309050,-1702.473667,-7402.059420,-383.047749
371.309374,-1184.329507,-7772.162391,-459.657299
371.309698,-592.164754,-8438.347739,0.000000
371.310022,-222.061783,-9104.533087,0.000000
371.310346,592.164754,-9992.780217,229.828649
371.310670,1702.473667,-10658.965565,536.266849
371.310994,1924.535449,-11177.109724,766.095498
371.311318,2516.700203,-11843.295072,766.095498
371.311643,2738.761985,-11991.336260,612.876398
371.311967,2442.679609,-11917.315666,536.266849
371.312291,2294.638420,-11547.212695,459.657299
371.312615,1998.556043,-11177.109724,459.657299
371.312939,740.205942,-10436.903782,0.000000
371.313263,-592.164754,-9696.697840,-229.828649
371.313587,-1036.288319,-9400.615463,-919.314598
371.313911,-1702.473667,-8882.471304,-1072.533697
371.314235,-2146.597232,-8808.450710,-1378.971896
371.314559,-2368.659014,-8068.244768,-1072.533697
371.314883,-2886.803174,-7550.100608,-766.095498
371.315207,-2516.700203,-7994.224174,-1302.362347
371.315531,-1924.535449,-8438.347739,-1149.143247
371.315855,-1924.535449,-8734.430116,-995.924147
371.316180,-1036.288319,-9326.594869,-612.876398
371.316504,0.000000,-9844.739029,0.000000
371.316828,1110.308913,-10510.924376,0.000000
371.317152,1924.535449,-10955.047942,153.219100
371.317476,2368.659014,-10955.047942,383.047749
371.317800,3108.864956,-11621.233289,459.657299
371.318124,2960.823768,-11991.336260,153.219100
371.318448,2812.782580,-11917.315666,0.000000
371.318772,2220.617826,-11473.192101,0.000000
371.319096,1184.329507,-11251.130318,-459.657299
371.319420,0.000000,-10436.903782,-383.047749
371.319744,-1110.308913,-9474.636058,-689.485948
371.320068,-1850.514855,-9104.533087,-689.485948
371.320393,-2516.700203,-8438.347739,-766.095498
371.320717,-2738.761985,-7698.141797,-536.266849
371.321041,-2886.803174,-7624.121203,-536.266849
371.321365,-3034.844362,-7698.141797,-536.266849
371.321689,-2664.741391,-7698.141797,-153.219100
371.322013,-2294.638420,-7402.059420,-306.438199
371.322337,-1480.411884,-7772.162391,153.219100
371.322661,-1036.288319,-8364.327145,0.000000
371.322985,0.000000,-9696.697840,612.876398
371.323309,1110.308913,-10288.862594,76.609550
371.323633,2220.617826,-10807.006753,76.609550
371.323957,2590.720797,-11103.089130,76.609550
371.324281,3552.988522,-11695.253884,612.876398
371.324605,3108.864956,-11473.192101,689.485948
371.324930,3034.844362,-11177.109724,612.876398
371.325254,2294.638420,-10807.006753,689.485948
371.325578,1258.350101,-10732.986159,536.266849
371.325902,222.061783,-10436.903782,76.609550
371.326226,-592.164754,-9696.697840,0.000000
371.326550,-1554.432478,-9326.594869,229.828649
371.326874,-2294.638420,-8142.265362,0.000000
371.327198,-3108.864956,-7920.203579,-459.657299
371.327522,-3256.906145,-7846.182985,-229.828649
371.327846,-2738.761985,-8216.285956,-459.657299
371.328170,-2368.659014,-8512.368333,-229.828649
371.328494,-1998.556043,-8068.244768,0.000000
371.328818,-1406.391290,-8438.347739,0.000000
371.329142,-148.041188,-8660.409521,-306.438199
371.329467,666.185348,-9104.533087,-229.828649
371.329791,2146.597232,-9918.759623,766.095498
371.330115,2442.679609,-10807.006753,153.219100
371.330439,2960.823768,-11325.150913,536.266849
371.330763,3034.844362,-11621.233289,766.095498
371.331087,3034.844362,-11843.295072,919.314598
371.331411,2368.659014,-11917.315666,842.705048
371.331735,1184.329507,-11325.150913,229.828649
371.332059,444.123565,-11029.068536,612.876398
371.332383,-296.082377,-10732.986159,229.828649
371.332707,-1480.411884,-9696.697840,306.438199
371.333031,-1924.535449,-8882.471304,0.000000
371.333355,-1998.556043,-8512.368333,-383.047749
371.333680,-2294.638420,-7994.224174,-229.828649
371.334004,-2294.638420,-7328.038826,-459.657299
371.334328,-2368.659014,-7328.038826,-612.876398
371.334652,-1776.494261,-7105.977043,-842.705048
371.334976,-962.267725,-7254.018232,-306.438199
371.335300,-592.164754,-8364.327145,-229.828649
371.335624,0.000000,-8882.471304,-306.438199
371.335948,518.144159,-9400.615463,0.000000
371.336272,1184.329507,-10436.903782,-306.438199
371.336596,1702.473667,-10732.986159,306.438199
371.336920,1998.556043,-11029.068536,766.095498
371.337244,2516.700203,-11325.150913,1302.362347
371.337568,2294.638420,-11547.212695,919.314598
371.337892,2294.638420,-11769.274478,612.876398
371.338217,1628.453072,-11325.150913,536.266849
371.338541,1110.308913,-10807.006753,229.828649
371.338865,296.082377,-9696.697840,459.657299
371.339189,-592.164754,-9400.615463,0.000000
371.339513,-1554.432478,-9030.512492,-459.657299
371.339837,-1998.556043,-8734.430116,-766.095498
371.340161,-2368.659014,-8142.265362,-766.095498
371.340485,-2516.700203,-7624.121203,-1378.971896
371.340809,-2516.700203,-7624.121203,-1149.143247
371.341133,-2442.679609,-8142.265362,-1072.533697
371.341457,-2294.638420,-8364.327145,-919.314598
371.341781,-1924.535449,-8364.327145,-383.047749
371.342105,-962.267725,-8956.491898,-306.438199
371.342430,0.000000,-9548.656652,-306.438199
371.342754,1776.494261,-10436.903782,383.047749
371.343078,2294.638420,-10955.047942,0.000000
371.343402,2960.823768,-11547.212695,306.438199
371.343726,3182.885551,-12213.398043,306.438199
371.344050,2738.761985,-11843.295072,229.828649
371.344374,2516.700203,-11769.274478,0.000000
371.344698,1776.494261,-11621.233289,0.000000
371.345022,518.144159,-11325.150913,-1149.143247
371.345346,-666.185348,-10214.842000,-1149.143247
371.345670,-1258.350101,-9474.636058,-766.095498
371.345994,-1850.514855,-9178.553681,-995.924147
371.346318,-2368.659014,-8512.368333,-1149.143247
371.346642,-3034.844362,-7920.203579,-842.705048
371.346967,-2960.823768,-7772.162391,-536.266849
371.347291,-2960.823768,-7772.162391,-1149.143247
371.347615,-2146.597232,-7920.203579,-459.657299
371.347939,-2220.617826,-7846.182985,-919.314598
371.348263,-1850.514855,-8216.285956,-689.485948
371.348587,-1036.288319,-9104.533087,-383.047749
371.348911,-518.144159,-9770.718434,-689.485948
371.349235,370.102971,-10510.924376,-536.266849
371.349559,1406.391290,-10807.006753,-459.657299
371.349883,2590.720797,-11325.150913,-766.095498
371.350207,3478.967927,-11769.274478,306.438199
371.350531,3849.070898,-11695.253884,0.000000
371.350855,4071.132681,-12065.356855,229.828649
371.351180,3182.885551,-11843.295072,76.609550
371.351504,2368.659014,-11177.109724,229.828649
371.351828,1406.391290,-10510.924376,0.000000
371.352152,444.123565,-9474.636058,0.000000
371.352476,-814.226536,-9178.553681,-153.219100
371.352800,-1776.494261,-8512.368333,-306.438199
371.353124,-2146.597232,-8142.265362,-689.485948
371.353448,-2738.761985,-7698.141797,-459.657299
371.353772,-2664.741391,-8068.244768,-536.266849
371.354096,-2442.679609,-7846.182985,-459.657299
371.354420,-2368.659014,-7846.182985,0.000000
371.354744,-2146.597232,-7698.141797,-1149.143247
371.355068,-1332.370696,-8734.430116,-689.485948
371.355392,-370.102971,-9474.636058,306.438199
371.355717,666.185348,-10140.821405,459.657299
371.356041,1776.494261,-10658.965565,612.876398
371.356365,2738.761985,-11251.130318,919.314598
371.356689,3256.906145,-11621.233289,1302.362347
371.357013,3478.967927,-11917.315666,1072.533697
371.357337,3182.885551,-12139.377449,1302.362347
371.357661,2294.638420,-11695.253884,1378.971896
371.357985,1110.308913,-11547.212695,1532.190996
371.358309,148.041188,-10288.862594,1072.533697
371.358633,-740.205942,-9474.636058,459.657299
371.358957,-1480.411884,-8438.347739,383.047749
371.359281,-1776.494261,-7920.203579,0.000000
371.359605,-2516.700203,-7254.018232,-153.219100
371.359929,-2812.782580,-7031.956449,-229.828649
371.360254,-2738.761985,-6513.812290,-306.438199
371.360578,-2368.659014,-6883.915261,-153.219100
371.360902,-2146.597232,-7105.977043,-229.828649
371.361226,-2072.576638,-7698.141797,-306.438199
371.361550,-1924.535449,-8364.327145,0.000000
371.361874,-1332.370696,-8734.430116,0.000000
371.362198,-296.082377,-9918.759623,459.657299
371.362522,296.082377,-10510.924376,229.828649
371.362846,814.226536,-11399.171507,459.657299
371.363170,1554.432478,-12065.356855,612.876398
371.363494,2516.700203,-12509.480420,459.657299
371.363818,3256.906145,-12139.377449,842.705048
371.364142,3478.967927,-12213.398043,766.095498
371.364467,3182.885551,-11843.295072,689.485948
371.364791,1924.535449,-11251.130318,153.219100
371.365115,1036.288319,-10288.862594,0.000000
371.365439,148.041188,-9918.759623,-842.705048
371.365763,-962.267725,-8956.491898,-689.485948
371.366087,-1406.391290,-8512.368333,-766.095498
371.366411,-1850.514855,-7698.141797,-766.095498
371.366735,-1480.411884,-7994.224174,-1072.533697
371.367059,-1554.432478,-7846.182985,-919.314598
371.367383,-1924.535449,-8068.244768,-1608.800546
371.367707,-2072.576638,-8068.244768,-919.314598
371.368031,-1628.453072,-8660.409521,-842.705048
371.368355,-1110.308913,-9178.553681,-689.485948
371.368679,-370.102971,-9918.759623,-306.438199
371.369004,0.000000,-10288.862594,-153.219100
371.369328,518.144159,-10881.027347,-306.438199
371.369652,1480.411884,-11695.253884,459.657299
371.369976,2072.576638,-12953.603985,76.609550
371.370300,2738.761985,-12731.542202,76.609550
371.370624,3034.844362,-12065.356855,459.657299
371.370948,2442.679609,-11843.295072,0.000000
371.371272,1628.453072,-11177.109724,0.000000
371.371596,888.247130,-10436.903782,-153.219100
371.371920,0.000000,-9252.574275,-306.438199
371.372244,-518.144159,-8290.306550,-612.876398
371.372568,-1258.350101,-7698.141797,-766.095498
371.372892,-1998.556043,-7328.038826,-1149.143247
371.373217,-2368.659014,-7105.977043,-919.314598
371.373541,-3108.864956,-7105.977043,-1149.143247
371.373865,-3404.947333,-7105.977043,-1302.362347
371.374189,-3627.009116,-7254.018232,-1302.362347
371.374513,-3034.844362,-7402.059420,-995.924147
371.374837,-1702.473667,-8438.347739,-842.705048
371.375161,-888.247130,-8882.471304,-536.266849
371.375485,-518.144159,-9622.677246,-459.657299
371.375809,148.041188,-10732.986159,0.000000
371.376133,1258.350101,-11843.295072,-153.219100
371.376457,2516.700203,-12435.459826,383.047749
371.376781,3923.091493,-12657.521608,0.000000
371.377105,4219.173869,-12583.501014,612.876398
371.377429,3997.112087,-12287.418637,612.876398
371.377754,3108.864956,-12435.459826,612.876398
371.378078,1924.535449,-11251.130318,306.438199
371.378402,0.000000,-10436.903782,153.219100
371.378726,-1332.370696,-9178.553681,-306.438199
371.379050,-2220.617826,-8586.388927,-766.095498
371.379374,-2886.803174,-7624.121203,-612.876398
371.379698,-3627.009116,-6735.874072,-536.266849
371.380022,-3108.864956,-7031.956449,-459.657299
371.380346,-2442.679609,-7105.977043,-229.828649
371.380670,-2220.617826,-7105.977043,-766.095498
371.380994,-1554.432478,-7698.141797,-229.828649
371.381318,-666.185348,-8660.409521,-229.828649
371.381642,296.082377,-9918.759623,0.000000
371.381967,1850.514855,-11547.212695,0.000000
371.382291,3182.885551,-12287.418637,689.485948
371.382615,4515.256246,-12879.583391,1225.752797
371.382939,4589.276840,-12805.562797,1302.362347
371.383263,3775.050304,-13027.624579,1455.581446
371.383587,2960.823768,-13027.624579,1455.581446
371.383911,1628.453072,-12287.418637,1378.971896
371.384235,592.164754,-11325.150913,689.485948
371.384559,-666.185348,-9918.759623,229.828649
371.384883,-1628.453072,-8142.265362,842.705048
371.385207,-2368.659014,-7179.997637,306.438199
371.385531,-3330.926739,-6957.935855,0.000000
371.385855,-3256.906145,-6587.832884,-229.828649
371.386179,-3404.947333,-6291.750507,0.000000
371.386504,-2886.803174,-6587.832884,-459.657299
371.386828,-2294.638420,-6587.832884,-536.266849
371.387152,-1628.453072,-6883.915261,0.000000
371.387476,-888.247130,-7476.080014,153.219100
371.387800,-148.041188,-9104.533087,536.266849
371.388124,370.102971,-9992.780217,536.266849
371.388448,1702.473667,-10807.006753,919.314598
371.388772,2738.761985,-11621.233289,1072.533697
371.389096,4071.132681,-11843.295072,1302.362347
371.389420,4367.215058,-12065.356855,1149.143247
371.389744,3775.050304,-12213.398043,1532.190996
371.390068,2590.720797,-11843.295072,995.924147
371.390392,1406.391290,-11695.253884,536.266849
371.390716,296.082377,-10658.965565,76.609550
371.391041,-666.185348,-9622.677246,-612.876398
371.391365,-1554.432478,-8956.491898,-919.314598
371.391689,-2590.720797,-8512.368333,-1915.238745
371.392013,-2960.823768,-7846.182985,-766.095498
371.392337,-2886.803174,-7328.038826,-1149.143247
371.392661,-2516.700203,-7476.080014,-1302.362347
371.392985,-2220.617826,-7624.121203,-1378.971896
371.393309,-1554.432478,-7994.224174,-995.924147
371.393633,-962.267725,-8364.327145,-689.485948
371.393957,0.000000,-9474.636058,0.000000
371.394281,-222.061783,-9992.780217,0.000000
371.394605,592.164754,-10584.944971,0.000000
371.394929,1776.494261,-11103.089130,612.876398
371.395254,2516.700203,-12879.583391,459.657299
371.395578,3404.947333,-12953.603985,76.609550
371.395902,3330.926739,-12657.521608,0.000000
371.396226,2516.700203,-12657.521608,0.000000
371.396550,1850.514855,-11917.315666,-383.047749
371.396874,814.226536,-11547.212695,0.000000
371.397198,-296.082377,-10066.800811,-459.657299
371.397522,-888.247130,-9474.636058,-689.485948
371.397846,-1554.432478,-8438.347739,-842.705048
371.398170,-1998.556043,-7624.121203,-919.314598
371.398494,-2516.700203,-7402.059420,-766.095498
371.398818,-2812.782580,-7179.997637,-383.047749
371.399142,-2590.720797,-7105.977043,-842.705048
371.399466,-2960.823768,-6809.894666,-689.485948
371.399791,-2664.741391,-7698.141797,-842.705048
371.400115,-2368.659014,-8216.285956,-842.705048
371.400439,-2072.576638,-8808.450710,-919.314598
371.400763,-1406.391290,-9548.656652,-689.485948
371.401087,-222.061783,-10436.903782,76.609550
371.401411,1110.308913,-10955.047942,383.047749
371.401735,2664.741391,-11843.295072,536.266849
371.402059,3701.029710,-11695.253884,536.266849
371.402383,3997.112087,-11843.295072,766.095498
371.402707,3552.988522,-12065.356855,536.266849
371.403031,2886.803174,-11917.315666,536.266849
371.403355,2146.597232,-11325.150913,153.219100
371.403679,888.247130,-10362.883188,-229.828649
371.404004,-666.185348,-9326.594869,-229.828649
371.404328,-1776.494261,-8660.409521,-229.828649
371.404652,-2072.576638,-8364.327145,-1225.752797
371.404976,-3108.864956,-8142.265362,-766.095498
371.405300,-3256.906145,-7698.141797,-995.924147
371.405624,-2886.803174,-7624.121203,-995.924147
371.405948,-2220.617826,-7402.059420,-919.314598
371.406272,-1332.370696,-7031.956449,-1072.533697
371.406596,-444.123565,-8068.244768,-689.485948
371.406920,0.000000,-9030.512492,-153.219100
371.407244,814.226536,-9770.718434,153.219100
371.407568,2146.597232,-10807.006753,383.047749
371.407892,3478.967927,-11695.253884,766.095498
371.408216,4219.173869,-12435.459826,995.924147
371.408541,4219.173869,-13175.665768,995.924147
371.408865,3627.009116,-12731.542202,1378.971896
371.409189,2738.761985,-12287.418637,995.924147
371.409513,1480.411884,-11843.295072,842.705048
371.409837,370.102971,-11029.068536,766.095498
371.410161,-740.205942,-9770.718434,229.828649
371.410485,-1628.453072,-8586.388927,306.438199
371.410809,-2442.679609,-7698.141797,153.219100
371.411133,-2590.720797,-7105.977043,-383.047749
371.411457,-3034.844362,-6365.771101,0.000000
371.411781,-2664.741391,-6291.750507,0.000000
371.412105,-2368.659014,-6439.791695,-842.705048
371.412430,-2368.659014,-6809.894666,-153.219100
371.412754,-1850.514855,-7105.977043,-229.828649
371.413078,-962.267725,-8290.306550,153.219100
371.413402,-370.102971,-9252.574275,536.266849
371.413726,888.247130,-9844.739029,1149.143247
371.414050,2294.638420,-11251.130318,1225.752797
371.414374,2886.803174,-11177.109724,1072.533697
371.414699,3478.967927,-11843.295072,1532.190996
371.415023,2960.823768,-12139.377449,1378.971896
371.415347,2516.700203,-11843.295072,1072.533697
371.415671,1850.514855,-11769.274478,842.705048
371.415995,1036.288319,-10807.006753,612.876398
371.416319,-148.041188,-10288.862594,306.438199
371.416643,-1480.411884,-9474.636058,-383.047749
371.416968,-2294.638420,-8290.306550,-306.438199
371.417292,-3108.864956,-7994.224174,-1302.362347
371.417616,-3256.906145,-7846.182985,-1532.190996
371.417940,-3182.885551,-7476.080014,-1378.971896
371.418264,-2664.741391,-7402.059420,-1225.752797
371.418588,-1480.411884,-8216.285956,-766.095498
371.418912,-888.247130,-7994.224174,-612.876398
371.419237,-1184.329507,-8586.388927,-383.047749
371.419561,-370.102971,-9622.677246,-306.438199
371.419885,370.102971,-10658.965565,-229.828649
371.420209,1480.411884,-11547.212695,-153.219100
371.420533,2368.659014,-11917.315666,76.609550
371.420857,3182.885551,-12509.480420,306.438199
371.421182,3997.112087,-12731.542202,459.657299
371.421506,3182.885551,-12361.439231,0.000000
371.421830,2664.741391,-12213.398043,-153.219100
371.422154,1406.391290,-11991.336260,-459.657299
371.422478,74.020594,-10955.047942,-919.314598
371.422802,-1036.288319,-9918.759623,-995.924147
371.423126,-1776.494261,-9400.615463,-995.924147
371.423451,-2442.679609,-8808.450710,-995.924147
371.423775,-2886.803174,-7698.141797,-1302.362347
371.424099,-3478.967927,-7179.997637,-1302.362347
371.424423,-2738.761985,-7476.080014,-1225.752797
371.424747,-2442.679609,-7550.100608,-1225.752797
371.425071,-2146.597232,-7476.080014,-1149.143247
371.425395,-1850.514855,-7698.141797,-842.705048
371.425720,-1480.411884,-7846.182985,-919.314598
371.426044,-740.205942,-9400.615463,-995.924147
371.426368,370.102971,-9844.739029,-459.657299
371.426692,1850.514855,-10436.903782,76.609550
371.427016,3108.864956,-11547.212695,76.609550
371.427340,3701.029710,-11769.274478,153.219100
371.427664,4145.153275,-11991.336260,306.438199
371.427989,3775.050304,-11695.253884,383.047749
371.428313,3108.864956,-11769.274478,0.000000
371.428637,2146.597232,-11251.130318,76.609550
371.428961,296.082377,-10214.842000,0.000000
371.429285,-740.205942,-9400.615463,-459.657299
371.429609,-1702.473667,-8882.471304,-689.485948
371.429934,-2664.741391,-8216.285956,-1072.533697
371.430258,-3627.009116,-7920.203579,-995.924147
371.430582,-3775.050304,-7772.162391,-1072.533697
371.430906,-3404.947333,-7772.162391,-766.095498
371.431230,-3108.864956,-7254.018232,-229.828649
371.431554,-2590.720797,-7402.059420,-459.657299
371.431878,-1480.411884,-8364.327145,-153.219100
371.432203,-592.164754,-9252.574275,0.000000
371.432527,518.144159,-9918.759623,229.828649
371.432851,1850.514855,-10658.965565,919.314598
371.433175,2960.823768,-10881.027347,1072.533697
371.433499,3997.112087,-12287.418637,1149.143247
371.433823,3997.112087,-11991.336260,1072.533697
371.434147,3923.091493,-12509.480420,1225.752797
371.434472,2812.782580,-12583.501014,995.924147
371.434796,1850.514855,-11843.295072,766.095498
371.435120,296.082377,-11177.109724,612.876398
371.435444,-1110.308913,-9696.697840,459.657299
371.435768,-1850.514855,-9474.636058,536.266849
371.436092,-2516.700203,-8142.265362,0.000000
371.436417,-3108.864956,-7624.121203,76.609550
371.436741,-3478.967927,-7328.038826,0.000000
371.437065,-3108.864956,-6957.935855,0.000000
371.437389,-2368.659014,-7105.977043,306.438199
371.437713,-1702.473667,-7105.977043,229.828649
371.438037,-1184.329507,-7031.956449,229.828649
371.438361,-444.123565,-7624.121203,153.219100
371.438686,296.082377,-8734.430116,536.266849
371.439010,1184.329507,-9844.739029,766.095498
371.439334,2146.597232,-10658.965565,842.705048
371.439658,2886.803174,-11177.109724,919.314598
371.439982,3182.885551,-11621.233289,1378.971896
371.440306,3256.906145,-11843.295072,536.266849
371.440630,2442.679609,-11177.109724,153.219100
371.440955,1480.411884,-11177.109724,1072.533697
371.441279,740.205942,-10658.965565,995.924147
371.441603,0.000000,-9992.780217,383.047749
371.441927,-740.205942,-9400.615463,0.000000
371.442251,-1406.391290,-8734.430116,-229.828649
371.442575,-1776.494261,-8068.244768,-153.219100
371.442899,-2072.576638,-7846.182985,-612.876398
371.443224,-2442.679609,-7846.182985,-766.095498
371.443548,-2516.700203,-7476.080014,-766.095498
371.443872,-2368.659014,-7920.203579,-919.314598
371.444196,-1628.453072,-8364.327145,-919.314598
371.444520,-1036.288319,-8586.388927,-766.095498
371.444844,-592.164754,-9178.553681,-689.485948
371.445169,0.000000,-9696.697840,-459.657299
371.445493,1480.411884,-10807.006753,-306.438199
371.445817,2220.617826,-11251.130318,0.000000
371.446141,3108.864956,-12287.418637,536.266849
371.446465,2886.803174,-12287.418637,153.219100
371.446789,2590.720797,-12287.418637,76.609550
371.447113,2146.597232,-12139.377449,0.000000
371.447438,1776.494261,-11843.295072,0.000000
371.447762,444.123565,-11325.150913,-229.828649
371.448086,-592.164754,-10140.821405,-689.485948
371.448410,-1628.453072,-9178.553681,-995.924147
371.448734,-2368.659014,-9326.594869,-1532.190996
371.449058,-2590.720797,-8808.450710,-1455.581446
371.449382,-2664.741391,-8216.285956,-1455.581446
371.449707,-2442.679609,-7846.182985,-1378.971896
371.450031,-2294.638420,-7476.080014,-766.095498
371.450355,-1628.453072,-7846.182985,-919.314598
371.450679,-740.205942,-7994.224174,-689.485948
371.451003,-1554.432478,-7920.203579,-919.314598
371.451327,-1258.350101,-8956.491898,-689.485948
371.451652,-888.247130,-9844.739029,-689.485948
371.451976,0.000000,-10510.924376,-612.876398
371.452300,1110.308913,-10807.006753,-459.657299
371.452624,2220.617826,-11177.109724,-153.219100
371.452948,3256.906145,-11695.253884,-536.266849
371.453272,3404.947333,-11399.171507,0.000000
371.453596,2960.823768,-11399.171507,-153.219100
371.453921,2368.659014,-11473.192101,0.000000
371.454245,1554.432478,-11103.089130,0.000000
371.454569,740.205942,-10214.842000,-229.828649
371.454893,0.000000,-9474.636058,-459.657299
371.455217,-1110.308913,-8882.471304,-536.266849
371.455541,-2146.597232,-8512.368333,-766.095498
371.455865,-2886.803174,-8290.306550,-459.657299
371.456190,-3330.926739,-7920.203579,-689.485948
371.456514,-2960.823768,-8068.244768,-842.705048
371.456838,-2516.700203,-7994.224174,-689.485948
371.457162,-1776.494261,-7402.059420,-536.266849
371.457486,-740.205942,-7624.121203,-229.828649
371.457810,-148.041188,-8586.388927,0.000000
371.458134,740.205942,-9178.553681,229.828649
371.458459,1702.473667,-10140.821405,612.876398
371.458783,2886.803174,-10732.986159,689.485948
371.459107,3552.988522,-11399.171507,842.705048
371.459431,3923.091493,-11621.233289,612.876398
371.459755,3627.009116,-12213.398043,1072.533697
371.460079,2812.782580,-12065.356855,919.314598
371.460404,1776.494261,-11621.233289,842.705048
371.460728,444.123565,-10881.027347,612.876398
371.461052,-666.185348,-10288.862594,459.657299
371.461376,-1554.432478,-9548.656652,383.047749
371.461700,-2146.597232,-9030.512492,306.438199
371.462024,-2664.741391,-8216.285956,0.000000
371.462348,-3182.885551,-7772.162391,-153.219100
371.462673,-3108.864956,-7328.038826,689.485948
371.462997,-2442.679609,-6883.915261,76.609550
371.463321,-1702.473667,-7328.038826,76.609550
371.463645,-1332.370696,-7624.121203,229.828649
371.463969,-888.247130,-7994.224174,153.219100
371.464293,-222.061783,-8734.430116,229.828649
371.464617,1110.308913,-9696.697840,536.266849
371.464942,2220.617826,-10807.006753,689.485948
371.465266,2294.638420,-11029.068536,1149.143247
371.465590,2812.782580,-11399.171507,1608.800546
371.465914,3034.844362,-11695.253884,995.924147
371.466238,2812.782580,-11843.295072,1225.752797
371.466562,2220.617826,-11473.192101,1225.752797
371.466886,1258.350101,-11103.089130,919.314598
371.467211,1036.288319,-10732.986159,766.095498
371.467535,-148.041188,-9622.677246,306.438199
371.467859,-1924.535449,-9030.512492,-612.876398
371.468183,-2368.659014,-8586.388927,-459.657299
371.468507,-2886.803174,-8438.347739,-766.095498
371.468831,-2960.823768,-7920.203579,-842.705048
371.469156,-2590.720797,-7698.141797,-612.876398
371.469480,-2368.659014,-7994.224174,-612.876398
371.469804,-2146.597232,-7698.141797,-689.485948
371.470128,-1998.556043,-8142.265362,-306.438199
371.470452,-518.144159,-8882.471304,0.000000
371.470776,518.144159,-9770.718434,0.000000
371.471100,1406.391290,-10436.903782,229.828649
371.471425,2442.679609,-10881.027347,612.876398
371.471749,3108.864956,-11177.109724,689.485948
371.472073,3034.844362,-11547.212695,459.657299
371.472397,3330.926739,-11547.212695,1149.143247
371.472721,2442.679609,-11621.233289,0.000000
371.473045,1850.514855,-11695.253884,0.000000
371.473369,740.205942,-11103.089130,-229.828649
371.473694,-592.164754,-10510.924376,-612.876398
371.474018,-1702.473667,-9400.615463,-1072.533697
371.474342,-2664.741391,-8956.491898,-1302.362347
371.474666,-2442.679609,-8956.491898,-1838.629195
371.474990,-2368.659014,-8142.265362,-1455.581446
371.475314,-2442.679609,-7476.080014,-1378.971896
371.475639,-2368.659014,-7476.080014,-1378.971896
371.475963,-2368.659014,-7846.182985,-995.924147
371.476287,-2072.576638,-7846.182985,-1378.971896
371.476611,-962.267725,-8586.388927,-919.314598
371.476935,-740.205942,-9030.512492,-612.876398
371.477259,0.000000,-9844.739029,-306.438199
371.477583,666.185348,-10214.842000,-383.047749
371.477908,1480.411884,-10584.944971,-229.828649
371.478232,2294.638420,-11325.150913,-153.219100
371.478556,2664.741391,-11843.295072,-229.828649
371.478880,2886.803174,-11991.336260,-459.657299
371.479204,2738.761985,-11547.212695,-766.095498
371.479528,2368.659014,-11399.171507,-229.828649
371.479852,2220.617826,-10881.027347,-153.219100
371.480177,888.247130,-10288.862594,-612.876398
371.480501,0.000000,-9770.718434,-842.705048
371.480825,-1036.288319,-9474.636058,-766.095498
371.481149,-1924.535449,-9326.594869,-1072.533697
371.481473,-3108.864956,-8512.368333,-995.924147
371.481797,-3108.864956,-8364.327145,-383.047749
371.482121,-3182.885551,-8290.306550,-1225.752797
371.482446,-2812.782580,-8438.347739,-1225.752797
371.482770,-2220.617826,-8438.347739,-766.095498
371.483094,-1628.453072,-8438.347739,0.000000
371.483418,-296.082377,-8882.471304,0.000000
371.483742,592.164754,-9400.615463,0.000000
371.484066,2072.576638,-9474.636058,766.095498
371.484391,1924.535449,-10066.800811,229.828649
371.484715,2812.782580,-11251.130318,766.095498
371.485039,3404.947333,-11473.192101,306.438199
371.485363,3330.926739,-11695.253884,689.485948
371.485687,2664.741391,-11991.336260,766.095498
371.486011,1850.514855,-11843.295072,536.266849
371.486335,888.247130,-11399.171507,766.095498
371.486660,-592.164754,-10436.903782,919.314598
371.486984,-1628.453072,-9622.677246,766.095498
371.487308,-2590.720797,-8512.368333,766.095498
371.487632,-2664.741391,-8068.244768,536.266849
371.487956,-2664.741391,-7476.080014,459.657299
371.488280,-2886.803174,-7179.997637,229.828649
371.488604,-2590.720797,-7031.956449,612.876398
371.488929,-2220.617826,-7179.997637,76.609550
371.489253,-1406.391290,-7550.100608,76.609550
371.489577,-1184.329507,-7476.080014,842.705048
371.489901,-740.205942,-8512.368333,-383.047749
371.490225,0.000000,-9474.636058,0.000000
371.490549,814.226536,-10288.862594,383.047749
371.490874,1702.473667,-10955.047942,536.266849
