#time,accel_x,accel_y,accel_z
739.647920,1776.494261,-12139.377449,995.924147
739.648244,6365.771101,-9696.697840,2604.724693
739.648568,9030.512492,-9992.780217,4366.744339
739.648893,8142.265362,-11769.274478,3677.258390
739.649217,4589.276840,-10066.800811,2068.457845
739.649541,222.061783,-10732.986159,2221.676944
739.649865,-2442.679609,-12065.356855,-229.828649
739.650189,-3182.885551,-12879.583391,-2298.286494
739.650513,-4589.276840,-9474.636058,-6818.249932
739.650837,-5921.647536,-9696.697840,-4749.792088
739.651161,-5699.585753,-13767.830521,-2681.334243
739.651485,-3330.926739,-14211.954086,-4903.011187
739.651809,-5107.421000,-10658.965565,-383.047749
739.652133,-4219.173869,-8364.327145,919.314598
739.652457,-296.082377,-7698.141797,-2068.457845
739.652781,666.185348,-8734.430116,-383.047749
739.653105,2738.761985,-6735.874072,76.609550
739.653429,5699.585753,-7328.038826,2068.457845
739.653753,4589.276840,-10510.924376,-612.876398
739.654077,444.123565,-9548.656652,-1149.143247
739.654401,-592.164754,-8882.471304,842.705048
739.654725,1628.453072,-11843.295072,306.438199
739.655049,1628.453072,-13619.789333,-1685.410096
739.655373,-1702.473667,-11991.336260,-536.266849
739.655697,-814.226536,-9030.512492,-612.876398
739.656021,1036.288319,-8660.409521,-229.828649
739.656345,222.061783,-9400.615463,689.485948
739.656669,-888.247130,-7920.203579,3064.381992
739.656993,222.061783,-7328.038826,1302.362347
739.657317,-444.123565,-7179.997637,612.876398
739.657641,-1998.556043,-6513.812290,1149.143247
739.657965,-1406.391290,-6735.874072,-612.876398
739.658290,-2072.576638,-8290.306550,-612.876398
739.658614,-3034.844362,-10288.862594,-536.266849
739.658938,-2220.617826,-10436.903782,-1608.800546
739.659262,-74.020594,-9400.615463,383.047749
739.659586,370.102971,-9252.574275,1149.143247
739.659910,1406.391290,-10584.944971,1838.629195
739.660234,2220.617826,-9992.780217,1915.238745
739.660558,2664.741391,-9770.718434,2451.505594
739.660882,3256.906145,-9622.677246,2834.553343
739.661206,3849.070898,-9548.656652,2145.067394
739.661530,3775.050304,-7476.080014,1455.581446
739.661854,1480.411884,-8364.327145,1225.752797
739.662178,-1554.432478,-9992.780217,-1225.752797
739.662502,-3701.029710,-10288.862594,-842.705048
739.662826,-3627.009116,-9696.697840,-995.924147
739.663150,-2368.659014,-9992.780217,-689.485948
739.663474,-1998.556043,-10362.883188,-995.924147
739.663798,-1184.329507,-10140.821405,-1149.143247
739.664122,0.000000,-9622.677246,689.485948
739.664446,814.226536,-10584.944971,995.924147
739.664770,1184.329507,-11843.295072,1149.143247
739.665094,740.205942,-11325.150913,1608.800546
739.665418,888.247130,-10807.006753,995.924147
739.665742,1480.411884,-11103.089130,689.485948
739.666066,666.185348,-11399.171507,-689.485948
739.666390,-740.205942,-10881.027347,-1149.143247
739.666714,-1554.432478,-10732.986159,-1685.410096
739.667038,-962.267725,-10881.027347,-1532.190996
739.667363,-296.082377,-9474.636058,-536.266849
739.667687,-296.082377,-8956.491898,-459.657299
739.668011,-518.144159,-8808.450710,0.000000
739.668335,-592.164754,-8808.450710,-153.219100
739.668659,74.020594,-7994.224174,0.000000
739.668983,740.205942,-8142.265362,0.000000
739.669307,888.247130,-8734.430116,-229.828649
739.669631,1332.370696,-9104.533087,689.485948
739.669955,592.164754,-8586.388927,0.000000
739.670279,-444.123565,-9548.656652,0.000000
739.670603,-1406.391290,-9844.739029,-306.438199
739.670927,-1110.308913,-9474.636058,-919.314598
739.671251,0.000000,-9104.533087,-1072.533697
739.671575,0.000000,-9030.512492,-459.657299
739.671899,148.041188,-9178.553681,-1149.143247
739.672223,-296.082377,-8734.430116,-306.438199
739.672547,-666.185348,-8956.491898,0.000000
739.672871,-1110.308913,-9770.718434,-153.219100
739.673195,-740.205942,-10066.800811,0.000000
739.673519,148.041188,-9770.718434,-153.219100
739.673843,814.226536,-9844.739029,-153.219100
739.674167,666.185348,-10066.800811,-306.438199
739.674491,74.020594,-10584.944971,-383.047749
739.674815,0.000000,-10140.821405,-153.219100
739.675139,222.061783,-9696.697840,-383.047749
739.675463,740.205942,-9252.574275,76.609550
739.675787,888.247130,-9326.594869,0.000000
739.676111,1110.308913,-9696.697840,76.609550
739.676435,1184.329507,-9252.574275,306.438199
739.676760,888.247130,-9400.615463,-153.219100
739.677084,296.082377,-9326.594869,76.609550
739.677408,-148.041188,-10214.842000,383.047749
739.677732,0.000000,-10288.862594,76.609550
739.678056,74.020594,-10510.924376,459.657299
739.678380,-222.061783,-10436.903782,0.000000
739.678704,-518.144159,-10584.944971,-306.438199
739.679028,-296.082377,-10732.986159,0.000000
739.679352,-222.061783,-10362.883188,153.219100
739.679676,0.000000,-10436.903782,536.266849
739.680000,-592.164754,-10066.800811,459.657299
739.680324,-666.185348,-9474.636058,306.438199
739.680648,-888.247130,-9252.574275,76.609550
739.680972,-518.144159,-9252.574275,0.000000
739.681296,-518.144159,-9400.615463,153.219100
739.681620,0.000000,-9474.636058,76.609550
739.681944,148.041188,-9030.512492,306.438199
739.682268,370.102971,-9474.636058,229.828649
739.682592,296.082377,-9474.636058,0.000000
739.682916,0.000000,-9474.636058,153.219100
739.683240,0.000000,-9326.594869,459.657299
739.683564,0.000000,-9474.636058,76.609550
739.683888,296.082377,-9400.615463,0.000000
739.684212,370.102971,-9474.636058,-306.438199
739.684536,74.020594,-9548.656652,0.000000
739.684860,-74.020594,-9252.574275,0.000000
739.685184,-444.123565,-9400.615463,0.000000
739.685508,-592.164754,-9548.656652,-306.438199
739.685832,-518.144159,-9474.636058,-229.828649
739.686157,-814.226536,-9326.594869,-306.438199
739.686481,0.000000,-9696.697840,-612.876398
739.686805,74.020594,-9696.697840,-459.657299
739.687129,-148.041188,-9992.780217,-536.266849
739.687453,-148.041188,-10066.800811,-383.047749
739.687777,0.000000,-10066.800811,-459.657299
739.688101,74.020594,-9548.656652,0.000000
739.688425,74.020594,-9770.718434,0.000000
739.688749,222.061783,-9918.759623,-459.657299
739.689073,-222.061783,-9696.697840,-459.657299
739.689397,0.000000,-9696.697840,-306.438199
739.689721,148.041188,-9992.780217,-383.047749
739.690045,444.123565,-9622.677246,-612.876398
739.690369,74.020594,-9474.636058,-612.876398
739.690693,222.061783,-9770.718434,-383.047749
739.691017,296.082377,-9548.656652,-459.657299
739.691341,370.102971,-9326.594869,-153.219100
739.691665,444.123565,-9252.574275,76.609550
739.691989,518.144159,-9326.594869,-306.438199
739.692313,296.082377,-9548.656652,0.000000
739.692637,518.144159,-9992.780217,-153.219100
739.692961,-148.041188,-9622.677246,-229.828649
739.693285,-296.082377,-9770.718434,-153.219100
739.693609,-592.164754,-9622.677246,-153.219100
739.693933,-444.123565,-9474.636058,-459.657299
739.694257,0.000000,-9474.636058,-766.095498
739.694581,-518.144159,-10066.800811,-459.657299
739.694905,222.061783,-9918.759623,229.828649
739.695229,222.061783,-9770.718434,76.609550
739.695553,0.000000,-9622.677246,153.219100
739.695877,-148.041188,-9474.636058,0.000000
739.696201,0.000000,-9326.594869,306.438199
739.696525,296.082377,-9622.677246,536.266849
739.696849,296.082377,-9474.636058,383.047749
739.697173,0.000000,-9474.636058,229.828649
739.697497,-148.041188,-9844.739029,0.000000
739.697821,-222.061783,-9770.718434,76.609550
739.698145,-666.185348,-9622.677246,229.828649
739.698469,-666.185348,-9844.739029,0.000000
739.698793,-740.205942,-9622.677246,153.219100
739.699117,-370.102971,-9326.594869,0.000000
739.699441,0.000000,-9400.615463,306.438199
739.699765,0.000000,-9770.718434,536.266849
739.700089,74.020594,-10066.800811,383.047749
739.700413,0.000000,-9992.780217,76.609550
739.700737,0.000000,-9992.780217,76.609550
739.701062,148.041188,-10140.821405,153.219100
739.701386,-444.123565,-9918.759623,76.609550
739.701710,-222.061783,-9770.718434,-229.828649
739.702034,-296.082377,-9252.574275,-383.047749
739.702358,-222.061783,-9474.636058,0.000000
739.702682,-296.082377,-9474.636058,-229.828649
739.703006,0.000000,-9474.636058,0.000000
739.703330,148.041188,-9326.594869,0.000000
739.703654,74.020594,-9252.574275,-306.438199
739.703978,444.123565,-9252.574275,229.828649
739.704302,518.144159,-9252.574275,-306.438199
739.704626,666.185348,-9474.636058,-536.266849
739.704950,296.082377,-9622.677246,0.000000
739.705274,222.061783,-9474.636058,-153.219100
739.705598,0.000000,-9474.636058,-229.828649
739.705922,0.000000,-9696.697840,0.000000
739.706246,148.041188,-9770.718434,-306.438199
739.706570,222.061783,-9252.574275,-306.438199
739.706894,370.102971,-9474.636058,-459.657299
739.707218,0.000000,-9622.677246,-306.438199
739.707542,0.000000,-9844.739029,-306.438199
739.707866,0.000000,-9696.697840,-153.219100
739.708190,-370.102971,-9696.697840,-306.438199
739.708514,-148.041188,-9696.697840,-229.828649
739.708838,0.000000,-9770.718434,306.438199
739.709162,-370.102971,-9844.739029,-842.705048
739.709486,0.000000,-9696.697840,-383.047749
739.709810,0.000000,-9918.759623,-459.657299
739.710134,74.020594,-9844.739029,-153.219100
739.710458,370.102971,-9992.780217,153.219100
739.710782,0.000000,-9696.697840,-459.657299
739.711106,0.000000,-10066.800811,0.000000
739.711430,74.020594,-9696.697840,459.657299
739.711754,-222.061783,-9844.739029,306.438199
739.712078,-222.061783,-9844.739029,0.000000
739.712402,-666.185348,-9548.656652,-459.657299
739.712726,-518.144159,-9622.677246,-229.828649
739.713050,-296.082377,-9696.697840,0.000000
739.713374,-148.041188,-9696.697840,0.000000
739.713698,0.000000,-9696.697840,459.657299
739.714022,74.020594,-9770.718434,459.657299
739.714346,0.000000,-9400.615463,153.219100
739.714670,0.000000,-9548.656652,153.219100
739.714994,-444.123565,-9548.656652,76.609550
739.715318,-222.061783,-9548.656652,76.609550
739.715642,0.000000,-9474.636058,842.705048
739.715966,0.000000,-9252.574275,459.657299
739.716290,74.020594,-9474.636058,153.219100
739.716614,0.000000,-9474.636058,229.828649
739.716938,222.061783,-9252.574275,76.609550
739.717263,74.020594,-9178.553681,0.000000
739.717587,0.000000,-9326.594869,76.609550
739.717911,-148.041188,-9178.553681,306.438199
739.718235,0.000000,-9030.512492,0.000000
739.718559,370.102971,-9548.656652,383.047749
739.718883,0.000000,-9178.553681,459.657299
739.719207,296.082377,-9696.697840,153.219100
739.719531,0.000000,-9474.636058,-229.828649
739.719855,296.082377,-9474.636058,0.000000
739.720179,296.082377,-9474.636058,0.000000
739.720503,444.123565,-10066.800811,0.000000
739.720827,148.041188,-9548.656652,0.000000
739.721151,148.041188,-9622.677246,0.000000
739.721475,296.082377,-9918.759623,0.000000
739.721799,0.000000,-9844.739029,-229.828649
739.722123,-222.061783,-9770.718434,0.000000
739.722447,0.000000,-9918.759623,-459.657299
739.722771,-148.041188,-9918.759623,-383.047749
739.723095,-222.061783,-9770.718434,-612.876398
739.723419,-296.082377,-9918.759623,-689.485948
739.723743,-222.061783,-10066.800811,-536.266849
739.724067,0.000000,-9918.759623,-229.828649
739.724391,0.000000,-9696.697840,-383.047749
739.724715,-148.041188,-9770.718434,-153.219100
739.725039,-148.041188,-9770.718434,0.000000
739.725363,148.041188,-9548.656652,0.000000
739.725687,296.082377,-10066.800811,-306.438199
739.726011,0.000000,-9992.780217,153.219100
739.726335,-296.082377,-9918.759623,-306.438199
739.726659,-370.102971,-9770.718434,-229.828649
739.726983,-444.123565,-9844.739029,-229.828649
739.727307,-296.082377,-9770.718434,-536.266849
739.727631,-370.102971,-9622.677246,0.000000
739.727955,0.000000,-9400.615463,0.000000
739.728279,0.000000,-9474.636058,0.000000
739.728603,148.041188,-9622.677246,153.219100
739.728927,74.020594,-9844.739029,229.828649
739.729251,-296.082377,-9474.636058,229.828649
739.729575,0.000000,-9622.677246,153.219100
739.729899,0.000000,-9474.636058,0.000000
739.730223,0.000000,-9326.594869,153.219100
739.730547,0.000000,-9622.677246,0.000000
739.730871,0.000000,-9474.636058,76.609550
739.731195,148.041188,-9622.677246,0.000000
739.731519,0.000000,-9474.636058,229.828649
739.731843,222.061783,-9548.656652,153.219100
739.732167,0.000000,-9178.553681,306.438199
739.732491,222.061783,-9474.636058,153.219100
739.732815,0.000000,-9696.697840,229.828649
739.733140,0.000000,-9548.656652,0.000000
739.733464,0.000000,-9474.636058,76.609550
739.733788,74.020594,-9400.615463,0.000000
739.734112,-444.123565,-9326.594869,229.828649
739.734436,0.000000,-9548.656652,0.000000
739.734760,-222.061783,-9622.677246,0.000000
739.735084,148.041188,-9696.697840,76.609550
739.735408,74.020594,-9696.697840,76.609550
739.735732,222.061783,-9770.718434,0.000000
739.736056,74.020594,-9770.718434,459.657299
739.736380,-148.041188,-9696.697840,0.000000
739.736704,222.061783,-10362.883188,229.828649
739.737028,-74.020594,-9918.759623,306.438199
739.737352,-444.123565,-9474.636058,-153.219100
739.737676,-222.061783,-9696.697840,0.000000
739.738000,0.000000,-10140.821405,-229.828649
739.738324,0.000000,-9992.780217,0.000000
739.738648,0.000000,-9770.718434,153.219100
739.738972,148.041188,-9696.697840,-229.828649
739.739296,0.000000,-9548.656652,0.000000
739.739620,0.000000,-9548.656652,0.000000
739.739944,-148.041188,-9844.739029,-153.219100
739.740268,-148.041188,-9770.718434,-153.219100
739.740592,-222.061783,-9844.739029,-153.219100
739.740916,-296.082377,-9474.636058,-459.657299
739.741240,0.000000,-9992.780217,-459.657299
739.741564,0.000000,-9844.739029,-153.219100
739.741888,0.000000,-9844.739029,-689.485948
739.742212,-296.082377,-10140.821405,0.000000
739.742536,-370.102971,-9622.677246,-306.438199
739.742860,-296.082377,-9622.677246,-76.609550
739.743184,0.000000,-9622.677246,-229.828649
739.743508,0.000000,-9548.656652,-229.828649
739.743832,0.000000,-9548.656652,0.000000
739.744156,0.000000,-9474.636058,153.219100
739.744480,0.000000,-9178.553681,229.828649
739.744804,0.000000,-9696.697840,-306.438199
739.745128,-222.061783,-9918.759623,-306.438199
739.745452,-296.082377,-9770.718434,-383.047749
739.745776,-370.102971,-9622.677246,-459.657299
739.746100,0.000000,-9474.636058,-689.485948
739.746424,74.020594,-9622.677246,229.828649
739.746748,296.082377,-9770.718434,76.609550
739.747072,296.082377,-9548.656652,153.219100
739.747396,296.082377,-9548.656652,229.828649
739.747720,74.020594,-9770.718434,0.000000
739.748044,148.041188,-9548.656652,153.219100
739.748368,-148.041188,-9474.636058,153.219100
739.748692,222.061783,-9252.574275,153.219100
739.749017,0.000000,-9474.636058,306.438199
739.749341,-148.041188,-9844.739029,0.000000
739.749665,0.000000,-9622.677246,0.000000
739.749989,0.000000,-9474.636058,306.438199
739.750313,0.000000,-9622.677246,0.000000
739.750637,148.041188,-9474.636058,842.705048
739.750961,148.041188,-9030.512492,153.219100
739.751285,222.061783,-9548.656652,536.266849
739.751609,222.061783,-9696.697840,306.438199
739.751933,0.000000,-9622.677246,0.000000
739.752257,-222.061783,-9770.718434,0.000000
739.752581,0.000000,-9770.718434,0.000000
739.752905,0.000000,-9770.718434,153.219100
739.753229,74.020594,-9844.739029,-229.828649
739.753553,0.000000,-9548.656652,0.000000
739.753877,296.082377,-9474.636058,76.609550
739.754201,0.000000,-9770.718434,306.438199
739.754525,-148.041188,-9844.739029,0.000000
739.754849,-296.082377,-9918.759623,0.000000
739.755173,-296.082377,-9992.780217,-153.219100
739.755497,-518.144159,-9548.656652,0.000000
739.755821,0.000000,-9844.739029,-536.266849
739.756145,-296.082377,-9918.759623,-612.876398
739.756469,-222.061783,-9622.677246,0.000000
739.756793,-74.020594,-9844.739029,-153.219100
739.757117,0.000000,-9992.780217,-229.828649
739.757441,148.041188,-9992.780217,0.000000
739.757765,0.000000,-9696.697840,-383.047749
739.758089,0.000000,-9474.636058,-612.876398
739.758413,74.020594,-10214.842000,0.000000
739.758737,0.000000,-9622.677246,-153.219100
739.759061,-222.061783,-9770.718434,-536.266849
739.759385,-296.082377,-9696.697840,-229.828649
739.759709,-222.061783,-9844.739029,-229.828649
739.760033,-148.041188,-9474.636058,-306.438199
739.760357,0.000000,-9326.594869,-306.438199
739.760681,370.102971,-9548.656652,0.000000
739.761005,370.102971,-9548.656652,-459.657299
739.761329,222.061783,-9918.759623,0.000000
739.761653,296.082377,-9548.656652,0.000000
739.761977,74.020594,-9696.697840,0.000000
739.762301,74.020594,-9622.677246,-383.047749
739.762625,0.000000,-9474.636058,-612.876398
739.762949,-148.041188,-9770.718434,-153.219100
739.763273,-740.205942,-9548.656652,0.000000
739.763597,74.020594,-9474.636058,0.000000
739.763921,370.102971,-9474.636058,0.000000
739.764245,444.123565,-9474.636058,0.000000
739.764569,370.102971,-9548.656652,0.000000
739.764894,0.000000,-9770.718434,76.609550
739.765218,296.082377,-9548.656652,0.000000
739.765542,0.000000,-9474.636058,76.609550
739.765866,-222.061783,-9400.615463,0.000000
739.766190,0.000000,-9770.718434,229.828649
739.766514,-148.041188,-9844.739029,-153.219100
739.766838,74.020594,-9770.718434,0.000000
739.767162,0.000000,-9844.739029,76.609550
739.767486,0.000000,-10066.800811,0.000000
739.767810,-222.061783,-9844.739029,0.000000
739.768134,0.000000,-9474.636058,536.266849
739.768458,-296.082377,-9548.656652,76.609550
739.768782,0.000000,-9548.656652,306.438199
739.769106,-296.082377,-9622.677246,0.000000
739.769430,-74.020594,-9622.677246,76.609550
739.769754,0.000000,-9992.780217,76.609550
739.770078,148.041188,-9992.780217,766.095498
739.770402,0.000000,-9622.677246,229.828649
739.770726,-518.144159,-9696.697840,0.000000
739.771050,-222.061783,-9770.718434,0.000000
739.771374,-370.102971,-9918.759623,76.609550
739.771698,-296.082377,-9770.718434,0.000000
739.772022,-148.041188,-9696.697840,0.000000
739.772346,0.000000,-10066.800811,229.828649
739.772670,0.000000,-9400.615463,-306.438199
739.772994,0.000000,-9326.594869,0.000000
739.773318,-222.061783,-9474.636058,0.000000
739.773642,0.000000,-9548.656652,0.000000
739.773966,-222.061783,-9548.656652,0.000000
739.774290,148.041188,-9770.718434,0.000000
739.774614,74.020594,-9696.697840,-306.438199
739.774938,74.020594,-9252.574275,0.000000
739.775262,148.041188,-9326.594869,0.000000
739.775586,296.082377,-9622.677246,0.000000
739.775910,0.000000,-9548.656652,-383.047749
739.776234,0.000000,-9696.697840,0.000000
739.776558,74.020594,-9696.697840,-229.828649
739.776882,148.041188,-9622.677246,-153.219100
739.777206,222.061783,-9474.636058,-153.219100
739.777530,518.144159,-9474.636058,-306.438199
739.777854,0.000000,-9326.594869,76.609550
739.778178,222.061783,-9400.615463,459.657299
739.778502,296.082377,-9770.718434,0.000000
739.778826,74.020594,-9696.697840,0.000000
739.779150,0.000000,-9770.718434,0.000000
739.779474,0.000000,-9622.677246,0.000000
739.779798,0.000000,-9400.615463,0.000000
739.780122,222.061783,-9622.677246,-229.828649
739.780446,0.000000,-9548.656652,0.000000
739.780771,0.000000,-9770.718434,0.000000
739.781095,0.000000,-9918.759623,-153.219100
739.781419,0.000000,-9844.739029,-153.219100
739.781743,0.000000,-9770.718434,-153.219100
739.782067,0.000000,-9622.677246,0.000000
739.782391,0.000000,-9696.697840,153.219100
739.782715,0.000000,-9770.718434,-229.828649
739.783039,0.000000,-9400.615463,536.266849
739.783363,0.000000,-9918.759623,306.438199
739.783687,0.000000,-9844.739029,0.000000
739.784011,74.020594,-9992.780217,76.609550
739.784335,-74.020594,-9844.739029,76.609550
739.784659,-740.205942,-9548.656652,0.000000
739.784983,-444.123565,-10584.944971,0.000000
739.785307,-444.123565,-9548.656652,0.000000
739.785631,-296.082377,-9770.718434,76.609550
739.785955,74.020594,-9770.718434,-229.828649
739.786279,222.061783,-9548.656652,0.000000
739.786603,222.061783,-9622.677246,76.609550
739.786927,0.000000,-9696.697840,0.000000
739.787251,0.000000,-9548.656652,0.000000
739.787575,0.000000,-9844.739029,153.219100
739.787899,0.000000,-9696.697840,153.219100
739.788223,0.000000,-9622.677246,-689.485948
739.788547,-444.123565,-9696.697840,-842.705048
739.788871,-370.102971,-9474.636058,0.000000
739.789195,0.000000,-9844.739029,-229.828649
739.789519,0.000000,-9622.677246,0.000000
739.789844,0.000000,-9474.636058,153.219100
739.790168,148.041188,-9326.594869,153.219100
739.790492,148.041188,-9178.553681,229.828649
739.790816,0.000000,-9104.533087,229.828649
739.791140,222.061783,-9474.636058,-229.828649
739.791464,0.000000,-9474.636058,0.000000
739.791788,74.020594,-9548.656652,0.000000
739.792112,0.000000,-9474.636058,0.000000
739.792436,74.020594,-9548.656652,-153.219100
739.792760,-148.041188,-9696.697840,459.657299
739.793084,-296.082377,-9548.656652,0.000000
739.793408,-370.102971,-9844.739029,-153.219100
739.793733,-666.185348,-9474.636058,0.000000
739.794057,-296.082377,-9252.574275,229.828649
739.794381,666.185348,-9548.656652,306.438199
739.794705,1406.391290,-9992.780217,306.438199
739.795029,1036.288319,-9844.739029,306.438199
739.795353,148.041188,-9770.718434,229.828649
739.795677,-888.247130,-9992.780217,-306.438199
739.796001,-962.267725,-10288.862594,76.609550
739.796325,-1554.432478,-9548.656652,-766.095498
739.796649,-1628.453072,-9400.615463,0.000000
739.796973,-1110.308913,-9844.739029,76.609550
739.797297,148.041188,-9326.594869,383.047749
739.797621,962.267725,-8586.388927,689.485948
739.797946,74.020594,-9178.553681,76.609550
739.798270,74.020594,-9770.718434,306.438199
739.798594,-444.123565,-9622.677246,229.828649
739.798918,-1480.411884,-9770.718434,76.609550
739.799242,-2294.638420,-10288.862594,-229.828649
739.799566,-2146.597232,-11029.068536,0.000000
739.799890,-1406.391290,-10584.944971,536.266849
739.800214,-370.102971,-10140.821405,766.095498
739.800538,-740.205942,-9252.574275,536.266849
739.800862,-1258.350101,-8660.409521,0.000000
739.801186,-1480.411884,-9252.574275,383.047749
739.801510,-1184.329507,-8882.471304,842.705048
739.801834,-888.247130,-9178.553681,689.485948
739.802159,-1332.370696,-9548.656652,995.924147
739.802483,-1036.288319,-9326.594869,306.438199
739.802807,-1702.473667,-9400.615463,995.924147
739.803131,-2368.659014,-9844.739029,383.047749
739.803455,-2368.659014,-10436.903782,306.438199
739.803779,-2590.720797,-10807.006753,612.876398
739.804103,-2738.761985,-10732.986159,842.705048
739.804427,-2146.597232,-10140.821405,612.876398
739.804751,-1480.411884,-9844.739029,842.705048
739.805075,-1036.288319,-9844.739029,1149.143247
739.805399,-1036.288319,-9844.739029,1302.362347
739.805723,-592.164754,-9400.615463,2068.457845
739.806048,-444.123565,-9104.533087,1838.629195
739.806372,-518.144159,-9252.574275,1378.971896
739.806696,-1184.329507,-9844.739029,1225.752797
739.807020,-1850.514855,-10436.903782,1455.581446
739.807344,-2220.617826,-10066.800811,1072.533697
739.807668,-2294.638420,-10214.842000,2145.067394
739.807992,-2294.638420,-10066.800811,1838.629195
739.808316,-2294.638420,-10214.842000,1838.629195
739.808640,-2368.659014,-10288.862594,1838.629195
739.808964,-2442.679609,-9696.697840,2374.896044
739.809288,-2368.659014,-9178.553681,2145.067394
739.809612,-1554.432478,-8882.471304,2528.115143
739.809936,0.000000,-8364.327145,2604.724693
739.810261,1776.494261,-8068.244768,3064.381992
739.810585,2442.679609,-8512.368333,2068.457845
739.810909,2368.659014,-8882.471304,1455.581446
739.811233,1998.556043,-9104.533087,766.095498
739.811557,1554.432478,-9326.594869,536.266849
739.811881,740.205942,-9474.636058,153.219100
739.812205,592.164754,-9696.697840,536.266849
739.812529,444.123565,-9844.739029,536.266849
739.812853,1184.329507,-9992.780217,229.828649
739.813177,1110.308913,-9104.533087,1149.143247
739.813501,1110.308913,-8808.450710,1455.581446
739.813825,1480.411884,-8438.347739,1685.410096
739.814150,2146.597232,-8142.265362,1915.238745
739.814474,1924.535449,-8068.244768,1685.410096
739.814798,1480.411884,-8216.285956,1302.362347
739.815122,444.123565,-8290.306550,919.314598
739.815446,74.020594,-8882.471304,0.000000
739.815770,-888.247130,-9696.697840,-689.485948
739.816094,-1924.535449,-10436.903782,-1072.533697
739.816418,-2146.597232,-10955.047942,-1072.533697
739.816742,-2220.617826,-11251.130318,-1225.752797
739.817066,-1850.514855,-11251.130318,-689.485948
739.817390,-2146.597232,-10732.986159,-919.314598
739.817714,-666.185348,-10732.986159,-1072.533697
739.818038,666.185348,-10436.903782,-1302.362347
739.818363,1998.556043,-9844.739029,-1072.533697
739.818687,2220.617826,-9696.697840,-1378.971896
739.819011,1776.494261,-9622.677246,-1838.629195
739.819335,1850.514855,-9844.739029,-1762.019645
739.819659,1628.453072,-9992.780217,-2681.334243
739.819983,888.247130,-10732.986159,-3370.820191
739.820307,666.185348,-10955.047942,-2451.505594
739.820631,0.000000,-11177.109724,-2987.772442
739.820955,-518.144159,-10955.047942,-2757.943793
739.821279,-1110.308913,-10658.965565,-2374.896044
739.821603,-1702.473667,-10732.986159,-1838.629195
739.821927,-2368.659014,-10066.800811,-1762.019645
739.822251,-1998.556043,-9918.759623,-1378.971896
739.822576,-1628.453072,-10214.842000,-536.266849
739.822900,-1628.453072,-9548.656652,-766.095498
739.823224,-1110.308913,-9696.697840,-919.314598
739.823548,-740.205942,-9770.718434,-689.485948
739.823872,-814.226536,-9622.677246,-1072.533697
739.824196,-666.185348,-10140.821405,-919.314598
739.824520,-222.061783,-10955.047942,-842.705048
739.824844,-370.102971,-11029.068536,-1532.190996
739.825168,0.000000,-9770.718434,-689.485948
739.825492,-592.164754,-10140.821405,-995.924147
739.825816,-444.123565,-10214.842000,-995.924147
739.826140,0.000000,-9548.656652,-842.705048
739.826465,518.144159,-8882.471304,-383.047749
739.826789,1184.329507,-8290.306550,383.047749
739.827113,1110.308913,-7920.203579,842.705048
739.827437,1480.411884,-7698.141797,766.095498
739.827761,1258.350101,-7846.182985,1149.143247
739.828085,1406.391290,-8438.347739,1608.800546
739.828409,888.247130,-8660.409521,1378.971896
739.828733,592.164754,-8956.491898,1532.190996
739.829057,0.000000,-8808.450710,1532.190996
739.829381,-444.123565,-8956.491898,1685.410096
739.829705,-1184.329507,-9030.512492,1455.581446
739.830029,-1406.391290,-10288.862594,1762.019645
739.830353,-1776.494261,-9326.594869,1608.800546
739.830678,-888.247130,-9474.636058,1915.238745
739.831002,-740.205942,-9326.594869,1762.019645
739.831326,-370.102971,-9252.574275,1762.019645
739.831650,222.061783,-9400.615463,1608.800546
739.831974,444.123565,-9548.656652,1072.533697
739.832298,296.082377,-9622.677246,459.657299
739.832622,370.102971,-9918.759623,689.485948
739.832946,666.185348,-9918.759623,-383.047749
739.833270,962.267725,-9770.718434,612.876398
739.833594,1480.411884,-10140.821405,459.657299
739.833918,1702.473667,-9844.739029,459.657299
739.834242,1998.556043,-9992.780217,919.314598
739.834567,2072.576638,-9770.718434,995.924147
739.834891,1776.494261,-9326.594869,612.876398
739.835215,962.267725,-9400.615463,842.705048
739.835539,592.164754,-9918.759623,919.314598
739.835863,0.000000,-9770.718434,766.095498
739.836187,-740.205942,-9844.739029,383.047749
739.836511,-1110.308913,-9992.780217,229.828649
739.836835,-1480.411884,-9918.759623,0.000000
739.837159,-1924.535449,-10362.883188,-383.047749
739.837483,-2146.597232,-10214.842000,-459.657299
739.837807,-2368.659014,-10362.883188,-612.876398
739.838131,-2368.659014,-10658.965565,-459.657299
739.838455,-1998.556043,-10510.924376,-383.047749
739.838780,-1258.350101,-10732.986159,0.000000
739.839104,-444.123565,-10436.903782,0.000000
739.839428,296.082377,-10510.924376,-153.219100
739.839752,1258.350101,-10732.986159,-229.828649
739.840076,592.164754,-10214.842000,-612.876398
739.840400,74.020594,-9548.656652,-1225.752797
739.840724,0.000000,-9474.636058,-1455.581446
739.841048,74.020594,-9104.533087,-1762.019645
739.841372,370.102971,-8660.409521,-1762.019645
739.841696,296.082377,-8734.430116,-1608.800546
739.842020,296.082377,-8586.388927,-1225.752797
739.842344,74.020594,-8216.285956,-1455.581446
739.842668,222.061783,-8216.285956,-459.657299
739.842993,-296.082377,-8586.388927,-612.876398
739.843317,-444.123565,-9474.636058,0.000000
739.843641,-222.061783,-9622.677246,229.828649
739.843965,-296.082377,-9696.697840,689.485948
739.844289,-518.144159,-9770.718434,536.266849
739.844613,-1184.329507,-9844.739029,-459.657299
739.844937,-666.185348,-10214.842000,-306.438199
739.845261,-740.205942,-10066.800811,-383.047749
739.845585,-666.185348,-9844.739029,-995.924147
739.845909,-592.164754,-10066.800811,-1608.800546
739.846233,-592.164754,-9844.739029,-1762.019645
739.846557,148.041188,-9918.759623,-2145.067394
739.846882,888.247130,-10066.800811,-1915.238745
739.847206,740.205942,-9770.718434,-1915.238745
739.847530,1184.329507,-9474.636058,-1532.190996
739.847854,1924.535449,-9918.759623,-1378.971896
739.848178,2590.720797,-9770.718434,-459.657299
739.848502,3108.864956,-9770.718434,0.000000
739.848826,3108.864956,-9474.636058,153.219100
739.849150,2886.803174,-10214.842000,76.609550
739.849474,2664.741391,-9918.759623,842.705048
739.849798,1480.411884,-9844.739029,229.828649
739.850122,962.267725,-9696.697840,306.438199
739.850446,0.000000,-9992.780217,76.609550
739.850770,-962.267725,-9992.780217,-383.047749
739.851095,-1332.370696,-10214.842000,-536.266849
739.851419,-1850.514855,-10288.862594,-459.657299
739.851743,-1628.453072,-10140.821405,-766.095498
739.852067,-1628.453072,-10584.944971,-459.657299
739.852391,-1110.308913,-10732.986159,229.828649
739.852715,-962.267725,-10658.965565,153.219100
739.853039,-888.247130,-10584.944971,229.828649
739.853363,-592.164754,-10362.883188,383.047749
739.853687,0.000000,-10362.883188,536.266849
739.854011,222.061783,-10140.821405,0.000000
739.854335,666.185348,-9548.656652,689.485948
739.854659,444.123565,-9474.636058,306.438199
739.854984,444.123565,-9252.574275,0.000000
739.855308,0.000000,-9030.512492,0.000000
739.855632,74.020594,-8882.471304,153.219100
739.855956,222.061783,-8586.388927,153.219100
739.856280,444.123565,-8364.327145,229.828649
739.856604,444.123565,-8364.327145,919.314598
739.856928,-148.041188,-8364.327145,766.095498
739.857252,-296.082377,-8438.347739,919.314598
739.857576,-666.185348,-8808.450710,1685.410096
739.857900,-1554.432478,-8882.471304,1455.581446
739.858224,-1480.411884,-9252.574275,1378.971896
739.858548,-2146.597232,-9622.677246,1225.752797
739.858872,-2442.679609,-9474.636058,1225.752797
739.859197,-2516.700203,-9696.697840,919.314598
739.859521,-2516.700203,-9918.759623,536.266849
739.859845,-2516.700203,-9474.636058,536.266849
739.860169,-1924.535449,-9326.594869,536.266849
739.860493,-1332.370696,-9474.636058,76.609550
739.860817,-370.102971,-10140.821405,-383.047749
739.861141,296.082377,-9992.780217,-306.438199
739.861465,1406.391290,-9770.718434,-306.438199
739.861789,1998.556043,-9770.718434,459.657299
739.862113,2590.720797,-9474.636058,-153.219100
739.862437,2664.741391,-9252.574275,0.000000
739.862761,2738.761985,-9548.656652,612.876398
739.863085,2738.761985,-9400.615463,153.219100
739.863410,1924.535449,-9326.594869,-153.219100
739.863734,1110.308913,-9400.615463,0.000000
739.864058,740.205942,-9474.636058,0.000000
739.864382,0.000000,-9178.553681,76.609550
739.864706,-370.102971,-9474.636058,0.000000
739.865030,-444.123565,-9844.739029,459.657299
739.865354,-1480.411884,-9770.718434,0.000000
739.865678,-1332.370696,-10436.903782,0.000000
739.866002,-1332.370696,-10732.986159,-153.219100
739.866326,-1406.391290,-11103.089130,-153.219100
739.866650,-666.185348,-11029.068536,383.047749
739.866974,-296.082377,-11325.150913,0.000000
739.867299,0.000000,-10955.047942,-229.828649
739.867623,370.102971,-10510.924376,-689.485948
739.867947,592.164754,-10658.965565,-919.314598
739.868271,518.144159,-10214.842000,-995.924147
739.868595,444.123565,-9918.759623,-1225.752797
739.868919,740.205942,-9696.697840,-1225.752797
739.869243,740.205942,-8882.471304,-995.924147
739.869567,962.267725,-8734.430116,-1072.533697
739.869891,962.267725,-8438.347739,-459.657299
739.870215,1480.411884,-8586.388927,-153.219100
739.870539,1036.288319,-8586.388927,-229.828649
739.870863,740.205942,-8660.409521,0.000000
739.871187,0.000000,-8660.409521,383.047749
739.871512,-148.041188,-8660.409521,306.438199
739.871836,-148.041188,-9178.553681,459.657299
739.872160,-740.205942,-9326.594869,0.000000
739.872484,-962.267725,-9178.553681,153.219100
739.872808,-1332.370696,-9770.718434,153.219100
739.873132,-1480.411884,-10214.842000,0.000000
739.873456,-1776.494261,-10214.842000,-383.047749
739.873780,-1850.514855,-10362.883188,-306.438199
739.874104,-1554.432478,-10510.924376,-919.314598
739.874428,-1406.391290,-10362.883188,-919.314598
739.874752,-518.144159,-10362.883188,-153.219100
739.875076,148.041188,-10140.821405,-536.266849
739.875401,74.020594,-9844.739029,-842.705048
739.875725,444.123565,-9622.677246,-766.095498
739.876049,518.144159,-9474.636058,-919.314598
739.876373,888.247130,-9178.553681,-842.705048
739.876697,888.247130,-9104.533087,-383.047749
739.877021,1776.494261,-9178.553681,0.000000
739.877345,1998.556043,-9178.553681,0.000000
739.877669,1258.350101,-9178.553681,0.000000
739.877993,962.267725,-9400.615463,229.828649
739.878317,592.164754,-9474.636058,0.000000
739.878641,0.000000,-9770.718434,536.266849
739.878965,-444.123565,-9622.677246,459.657299
739.879289,-1258.350101,-10066.800811,536.266849
739.879614,-1184.329507,-10288.862594,689.485948
739.879938,-1702.473667,-10436.903782,306.438199
739.880262,-1776.494261,-10288.862594,0.000000
739.880586,-1924.535449,-10436.903782,383.047749
739.880910,-1702.473667,-10881.027347,229.828649
739.881234,-1332.370696,-10140.821405,459.657299
739.881558,-592.164754,-10510.924376,153.219100
739.881882,-666.185348,-10510.924376,153.219100
739.882206,0.000000,-9844.739029,76.609550
739.882530,666.185348,-9918.759623,229.828649
739.882854,1110.308913,-9622.677246,153.219100
739.883178,1406.391290,-9474.636058,0.000000
739.883502,1776.494261,-8956.491898,0.000000
739.883827,1702.473667,-8882.471304,76.609550
739.884151,1998.556043,-8808.450710,76.609550
739.884475,1924.535449,-8438.347739,383.047749
739.884799,1406.391290,-8512.368333,766.095498
739.885123,1258.350101,-8512.368333,995.924147
739.885447,1036.288319,-8438.347739,1149.143247
739.885771,444.123565,-8438.347739,1225.752797
739.886095,0.000000,-9178.553681,919.314598
739.886419,-1036.288319,-9104.533087,1225.752797
739.886743,-1406.391290,-9474.636058,919.314598
739.887067,-1924.535449,-9474.636058,229.828649
739.887391,-2072.576638,-9622.677246,536.266849
739.887716,-1850.514855,-9918.759623,76.609550
739.888040,-1480.411884,-10140.821405,-229.828649
739.888364,-1258.350101,-10362.883188,-612.876398
739.888688,-444.123565,-10288.862594,-383.047749
739.889012,-222.061783,-9770.718434,-766.095498
739.889337,740.205942,-10140.821405,-995.924147
739.889661,666.185348,-10140.821405,-995.924147
739.889985,962.267725,-9918.759623,-995.924147
739.890309,1110.308913,-9992.780217,-995.924147
739.890634,1480.411884,-9696.697840,-536.266849
739.890958,1702.473667,-9326.594869,-459.657299
739.891282,1702.473667,-9030.512492,-536.266849
739.891606,1406.391290,-9474.636058,-536.266849
739.891930,814.226536,-9770.718434,0.000000
739.892255,370.102971,-9474.636058,-306.438199
739.892579,148.041188,-9400.615463,-536.266849
739.892903,-222.061783,-9548.656652,-229.828649
739.893227,-518.144159,-9844.739029,0.000000
739.893552,-444.123565,-10214.842000,-766.095498
739.893876,-1184.329507,-10288.862594,-689.485948
739.894200,-1850.514855,-10140.821405,-536.266849
739.894524,-2368.659014,-10658.965565,-995.924147
739.894848,-2072.576638,-10955.047942,-689.485948
739.895173,-1628.453072,-11177.109724,-842.705048
739.895497,-1332.370696,-11177.109724,-842.705048
739.895821,-1110.308913,-10436.903782,-612.876398
739.896145,-518.144159,-10510.924376,-1072.533697
739.896470,296.082377,-10362.883188,-766.095498
739.896794,74.020594,-10140.821405,-689.485948
739.897118,444.123565,-9918.759623,-536.266849
739.897442,740.205942,-9474.636058,-612.876398
739.897766,1184.329507,-8956.491898,-229.828649
739.898091,1036.288319,-8586.388927,-306.438199
739.898415,1110.308913,-8512.368333,-229.828649
739.898739,1184.329507,-8438.347739,153.219100
739.899063,740.205942,-8216.285956,76.609550
739.899388,814.226536,-8586.388927,229.828649
739.899712,296.082377,-8438.347739,919.314598
739.900036,444.123565,-8586.388927,1149.143247
739.900360,0.000000,-9178.553681,1072.533697
739.900684,-148.041188,-9252.574275,1225.752797
739.901009,-1036.288319,-9104.533087,1225.752797
739.901333,-888.247130,-9474.636058,536.266849
739.901657,-1332.370696,-9252.574275,919.314598
739.901981,-1480.411884,-9696.697840,612.876398
739.902306,-1184.329507,-10066.800811,0.000000
739.902630,-1184.329507,-9992.780217,0.000000
739.902954,-666.185348,-9918.759623,0.000000
739.903278,0.000000,-9696.697840,-383.047749
739.903603,296.082377,-9622.677246,-383.047749
739.903927,444.123565,-9548.656652,-383.047749
739.904251,518.144159,-9622.677246,-229.828649
739.904575,1036.288319,-9548.656652,-153.219100
739.904899,1480.411884,-9474.636058,76.609550
739.905224,1998.556043,-9474.636058,-153.219100
739.905548,2294.638420,-9178.553681,306.438199
739.905872,1850.514855,-9252.574275,1072.533697
739.906196,1406.391290,-9326.594869,995.924147
739.906521,814.226536,-9474.636058,153.219100
739.906845,-148.041188,-9548.656652,383.047749
739.907169,-962.267725,-9918.759623,153.219100
739.907493,-1628.453072,-10140.821405,306.438199
739.907817,-2072.576638,-10066.800811,0.000000
739.908142,-2146.597232,-9844.739029,-229.828649
739.908466,-1998.556043,-9992.780217,0.000000
739.908790,-1702.473667,-10288.862594,0.000000
739.909114,-1850.514855,-10362.883188,0.000000
739.909439,-1332.370696,-10584.944971,0.000000
739.909763,-740.205942,-10881.027347,-153.219100
739.910087,-444.123565,-10732.986159,-306.438199
739.910411,0.000000,-10732.986159,-459.657299
739.910735,444.123565,-10510.924376,-306.438199
739.911060,444.123565,-9992.780217,-536.266849
739.911384,296.082377,-9992.780217,-766.095498
739.911708,370.102971,-9696.697840,-842.705048
739.912032,888.247130,-9474.636058,-766.095498
739.912357,814.226536,-9030.512492,-612.876398
739.912681,888.247130,-8808.450710,-536.266849
739.913005,1184.329507,-8512.368333,-306.438199
739.913329,1258.350101,-7994.224174,-383.047749
739.913653,1184.329507,-8734.430116,842.705048
739.913978,962.267725,-8956.491898,459.657299
739.914302,0.000000,-8956.491898,612.876398
739.914626,-518.144159,-9178.553681,536.266849
739.914950,-1036.288319,-9548.656652,536.266849
739.915275,-1258.350101,-9770.718434,842.705048
739.915599,-1628.453072,-9474.636058,0.000000
739.915923,-1036.288319,-9474.636058,76.609550
739.916247,-962.267725,-9400.615463,-153.219100
739.916571,-666.185348,-9548.656652,-153.219100
739.916896,-370.102971,-9844.739029,-229.828649
739.917220,0.000000,-9696.697840,-689.485948
739.917544,0.000000,-9548.656652,-995.924147
739.917868,74.020594,-9474.636058,-766.095498
739.918193,370.102971,-9474.636058,-1378.971896
739.918517,740.205942,-9548.656652,-995.924147
739.918841,1332.370696,-9104.533087,-842.705048
739.919165,1776.494261,-9178.553681,-153.219100
739.919490,1924.535449,-9178.553681,-383.047749
739.919814,1776.494261,-9400.615463,76.609550
739.920138,1406.391290,-9252.574275,536.266849
739.920462,1110.308913,-9474.636058,459.657299
739.920786,518.144159,-9400.615463,0.000000
739.921111,0.000000,-9474.636058,153.219100
739.921435,0.000000,-9696.697840,229.828649
739.921759,-444.123565,-9992.780217,153.219100
739.922083,-1184.329507,-10288.862594,0.000000
739.922408,-1258.350101,-10807.006753,-306.438199
739.922732,-1702.473667,-10658.965565,-306.438199
739.923056,-1332.370696,-10658.965565,-306.438199
739.923380,-888.247130,-10362.883188,-306.438199
739.923704,-370.102971,-11399.171507,-459.657299
739.924029,-444.123565,-11029.068536,-689.485948
739.924353,-444.123565,-10807.006753,-536.266849
739.924677,0.000000,-10362.883188,-459.657299
739.925001,-148.041188,-10362.883188,-612.876398
739.925326,0.000000,-10510.924376,-919.314598
739.925650,-444.123565,-9548.656652,-612.876398
739.925974,444.123565,-9474.636058,-459.657299
739.926298,592.164754,-9474.636058,-612.876398
739.926622,518.144159,-9326.594869,-306.438199
739.926947,370.102971,-9104.533087,0.000000
739.927271,444.123565,-9252.574275,0.000000
739.927595,222.061783,-8660.409521,76.609550
739.927919,370.102971,-8586.388927,459.657299
739.928244,0.000000,-9178.553681,536.266849
739.928568,-222.061783,-9474.636058,842.705048
739.928892,0.000000,-9548.656652,459.657299
739.929216,-814.226536,-9474.636058,995.924147
739.929540,-1110.308913,-9400.615463,612.876398
739.929865,-1258.350101,-9474.636058,689.485948
739.930189,-1258.350101,-9474.636058,689.485948
739.930513,-1110.308913,-9770.718434,459.657299
739.930837,-888.247130,-9104.533087,306.438199
739.931162,-1036.288319,-9474.636058,0.000000
739.931486,-740.205942,-9104.533087,-229.828649
739.931810,-148.041188,-8882.471304,-153.219100
739.932134,0.000000,-8882.471304,-306.438199
739.932458,296.082377,-9104.533087,-383.047749
739.932783,814.226536,-8956.491898,-383.047749
739.933107,1332.370696,-8734.430116,153.219100
739.933431,1776.494261,-8586.388927,0.000000
739.933755,1924.535449,-8660.409521,0.000000
739.934080,1258.350101,-8956.491898,76.609550
739.934404,1184.329507,-9548.656652,383.047749
739.934728,518.144159,-9326.594869,383.047749
739.935052,444.123565,-9992.780217,459.657299
739.935377,0.000000,-9696.697840,306.438199
739.935701,-222.061783,-10140.821405,306.438199
739.936025,-592.164754,-9992.780217,536.266849
739.936349,-1184.329507,-10584.944971,306.438199
739.936673,-1406.391290,-10436.903782,383.047749
739.936998,-1036.288319,-10436.903782,0.000000
739.937322,-740.205942,-10584.944971,76.609550
739.937646,-814.226536,-10732.986159,0.000000
739.937970,-370.102971,-10436.903782,0.000000
739.938295,-296.082377,-11103.089130,-229.828649
739.938619,370.102971,-10807.006753,-689.485948
739.938943,740.205942,-10214.842000,-229.828649
739.939267,296.082377,-9992.780217,-766.095498
739.939591,0.000000,-10140.821405,-995.924147
739.939916,74.020594,-9844.739029,-919.314598
739.940240,444.123565,-9622.677246,-919.314598
739.940564,814.226536,-9400.615463,-689.485948
739.940888,814.226536,-9178.553681,-229.828649
739.941213,666.185348,-8808.450710,-229.828649
739.941537,1036.288319,-9030.512492,229.828649
739.941861,814.226536,-9326.594869,153.219100
739.942185,222.061783,-9548.656652,689.485948
739.942509,0.000000,-9844.739029,612.876398
739.942834,-296.082377,-9474.636058,612.876398
739.943158,-1406.391290,-9474.636058,1149.143247
739.943482,-1480.411884,-9326.594869,689.485948
739.943806,-1480.411884,-9548.656652,689.485948
739.944131,-1184.329507,-9400.615463,306.438199
739.944455,-1036.288319,-9326.594869,229.828649
739.944779,-814.226536,-9326.594869,-306.438199
739.945103,-444.123565,-9030.512492,-689.485948
739.945427,-370.102971,-8882.471304,-229.828649
739.945752,0.000000,-9326.594869,-919.314598
739.946076,74.020594,-8956.491898,-995.924147
739.946400,74.020594,-9252.574275,-1302.362347
739.946724,-148.041188,-9400.615463,-1225.752797
739.947049,296.082377,-9178.553681,-919.314598
739.947373,1036.288319,-9104.533087,-689.485948
739.947697,1480.411884,-8882.471304,0.000000
739.948021,1776.494261,-9252.574275,306.438199
739.948345,1554.432478,-9178.553681,536.266849
739.948670,1184.329507,-9326.594869,-153.219100
739.948994,518.144159,-9474.636058,229.828649
739.949318,148.041188,-9770.718434,0.000000
739.949642,-148.041188,-10140.821405,0.000000
739.949967,-592.164754,-10436.903782,0.000000
739.950291,-1258.350101,-10436.903782,0.000000
739.950615,-1702.473667,-10510.924376,-383.047749
739.950939,-1924.535449,-10881.027347,-689.485948
739.951263,-1258.350101,-10955.047942,-383.047749
739.951588,-1110.308913,-10140.821405,-229.828649
739.951912,-740.205942,-10510.924376,0.000000
739.952236,-296.082377,-10362.883188,0.000000
739.952560,-148.041188,-10362.883188,0.000000
739.952885,296.082377,-10436.903782,-383.047749
739.953209,592.164754,-10362.883188,-229.828649
739.953533,444.123565,-9844.739029,-612.876398
739.953857,962.267725,-9696.697840,-536.266849
739.954182,962.267725,-9918.759623,-842.705048
739.954506,1258.350101,-9474.636058,-153.219100
739.954830,962.267725,-9548.656652,-536.266849
739.955154,666.185348,-9622.677246,-229.828649
739.955478,592.164754,-9696.697840,-153.219100
739.955803,518.144159,-9474.636058,76.609550
739.956127,740.205942,-9178.553681,919.314598
739.956451,444.123565,-9178.553681,1455.581446
739.956775,0.000000,-9474.636058,766.095498
739.957100,-370.102971,-10066.800811,1149.143247
739.957424,-814.226536,-9548.656652,1302.362347
739.957748,-1184.329507,-9474.636058,1072.533697
739.958072,-1554.432478,-9548.656652,1072.533697
739.958396,-1924.535449,-9030.512492,153.219100
739.958721,-1702.473667,-9178.553681,689.485948
739.959045,-1110.308913,-9622.677246,0.000000
739.959369,-1184.329507,-8586.388927,0.000000
739.959693,-814.226536,-9104.533087,-229.828649
739.960018,-518.144159,-8956.491898,-229.828649
739.960342,-296.082377,-8956.491898,-383.047749
739.960666,0.000000,-8586.388927,-383.047749
739.960990,296.082377,-8660.409521,-153.219100
739.961314,1406.391290,-9474.636058,0.000000
739.961639,2072.576638,-8734.430116,766.095498
739.961963,1850.514855,-8956.491898,229.828649
739.962287,1776.494261,-9030.512492,536.266849
739.962611,888.247130,-9326.594869,229.828649
739.962936,74.020594,-9548.656652,459.657299
739.963260,-444.123565,-9770.718434,459.657299
739.963584,-370.102971,-10214.842000,153.219100
739.963908,-888.247130,-10288.862594,0.000000
739.964232,-962.267725,-10658.965565,229.828649
739.964557,-1332.370696,-10436.903782,0.000000
739.964881,-1480.411884,-10362.883188,0.000000
739.965205,-1554.432478,-10288.862594,0.000000
739.965529,-1480.411884,-10807.006753,153.219100
739.965854,-1036.288319,-10510.924376,-459.657299
739.966178,-370.102971,-10584.944971,0.000000
739.966502,148.041188,-10732.986159,0.000000
739.966826,148.041188,-10881.027347,-612.876398
739.967150,0.000000,-10881.027347,-842.705048
739.967475,74.020594,-10584.944971,-766.095498
739.967799,148.041188,-10140.821405,-766.095498
739.968123,296.082377,-9992.780217,-919.314598
739.968447,444.123565,-9622.677246,-612.876398
739.968772,814.226536,-9474.636058,-612.876398
739.969096,1258.350101,-9696.697840,-536.266849
739.969420,1036.288319,-9326.594869,-306.438199
739.969744,1036.288319,-9252.574275,0.000000
739.970069,592.164754,-9030.512492,153.219100
739.970393,296.082377,-8956.491898,1149.143247
739.970717,518.144159,-9178.553681,689.485948
739.971041,592.164754,-9696.697840,842.705048
739.971365,-592.164754,-9548.656652,995.924147
739.971690,-518.144159,-9696.697840,612.876398
739.972014,-1036.288319,-9474.636058,689.485948
739.972338,-1110.308913,-9548.656652,612.876398
739.972662,-1332.370696,-9400.615463,0.000000
739.972987,-962.267725,-9474.636058,0.000000
739.973311,-888.247130,-8956.491898,-459.657299
739.973635,-444.123565,-9400.615463,-689.485948
739.973959,-148.041188,-8734.430116,-995.924147
739.974283,370.102971,-9030.512492,-919.314598
739.974608,518.144159,-8882.471304,-1149.143247
739.974932,740.205942,-8882.471304,-1149.143247
739.975256,962.267725,-8882.471304,-306.438199
739.975580,1480.411884,-8734.430116,-536.266849
739.975905,1998.556043,-9178.553681,0.000000
739.976229,1702.473667,-9104.533087,-306.438199
739.976553,1184.329507,-9474.636058,0.000000
739.976877,888.247130,-9696.697840,459.657299
739.977201,370.102971,-9918.759623,76.609550
739.977526,0.000000,-9770.718434,76.609550
739.977850,222.061783,-10140.821405,459.657299
739.978174,-370.102971,-10214.842000,153.219100
739.978498,-666.185348,-11103.089130,0.000000
739.978823,-1110.308913,-11029.068536,-536.266849
739.979147,-1480.411884,-10807.006753,-612.876398
739.979471,-1406.391290,-10658.965565,-689.485948
739.979795,-1332.370696,-10807.006753,-995.924147
739.980119,-1036.288319,-10436.903782,-383.047749
739.980444,-1110.308913,-10732.986159,-459.657299
739.980768,0.000000,-10955.047942,-229.828649
739.981092,0.000000,-10658.965565,-229.828649
739.981416,296.082377,-10436.903782,-766.095498
739.981741,0.000000,-10362.883188,-536.266849
739.982065,0.000000,-10214.842000,-689.485948
739.982389,296.082377,-9992.780217,-612.876398
739.982713,666.185348,-9548.656652,-689.485948
739.983037,444.123565,-9178.553681,-995.924147
739.983362,666.185348,-9252.574275,-76.609550
739.983686,740.205942,-9252.574275,0.000000
739.984010,888.247130,-9104.533087,229.828649
739.984334,740.205942,-9030.512492,536.266849
739.984659,518.144159,-8956.491898,995.924147
739.984983,370.102971,-8882.471304,1532.190996
739.985307,0.000000,-9326.594869,1608.800546
739.985631,-444.123565,-9696.697840,1685.410096
739.985955,-1406.391290,-9770.718434,689.485948
739.986280,-2146.597232,-9474.636058,842.705048
739.986604,-2220.617826,-9252.574275,842.705048
739.986928,-1776.494261,-9104.533087,536.266849
739.987252,-1332.370696,-9178.553681,536.266849
739.987577,-1110.308913,-9104.533087,459.657299
739.987901,-592.164754,-9178.553681,689.485948
739.988225,0.000000,-9030.512492,153.219100
739.988549,222.061783,-8808.450710,-229.828649
739.988873,370.102971,-8660.409521,153.219100
739.989197,1184.329507,-9474.636058,-229.828649
739.989522,1702.473667,-9030.512492,-153.219100
739.989846,2220.617826,-9252.574275,383.047749
739.990170,2294.638420,-9326.594869,76.609550
739.990494,2220.617826,-9252.574275,153.219100
739.990818,1924.535449,-8956.491898,459.657299
739.991142,740.205942,-8956.491898,612.876398
739.991466,444.123565,-9326.594869,842.705048
739.991790,-518.144159,-9622.677246,459.657299
739.992114,-962.267725,-9622.677246,153.219100
739.992439,-1258.350101,-10066.800811,229.828649
739.992763,-1702.473667,-10362.883188,153.219100
739.993087,-1628.453072,-10510.924376,536.266849
739.993411,-1924.535449,-10214.842000,0.000000
739.993735,-2072.576638,-10140.821405,-612.876398
739.994059,-1628.453072,-10214.842000,-306.438199
739.994383,-1110.308913,-11029.068536,-306.438199
739.994707,-518.144159,-10955.047942,-536.266849
739.995032,0.000000,-11029.068536,-612.876398
739.995356,444.123565,-10807.006753,-1225.752797
739.995680,666.185348,-10658.965565,-1378.971896
739.996004,888.247130,-10436.903782,-919.314598
739.996328,962.267725,-10510.924376,-1302.362347
739.996652,370.102971,-9770.718434,-1302.362347
739.996976,814.226536,-9548.656652,-1072.533697
739.997300,1406.391290,-9474.636058,-842.705048
739.997625,1480.411884,-9326.594869,-459.657299
739.997949,1332.370696,-9178.553681,766.095498
739.998273,740.205942,-8956.491898,-153.219100
739.998597,518.144159,-9030.512492,842.705048
739.998921,74.020594,-9030.512492,689.485948
739.999245,-222.061783,-9030.512492,536.266849
739.999569,-592.164754,-9252.574275,459.657299
739.999893,-814.226536,-9400.615463,536.266849
740.000217,-1406.391290,-9622.677246,153.219100
740.000542,-962.267725,-9622.677246,-229.828649
740.000866,-1554.432478,-9104.533087,-306.438199
740.001190,-1480.411884,-9104.533087,-459.657299
740.001514,-1258.350101,-9474.636058,-842.705048
740.001838,-1036.288319,-9474.636058,-995.924147
740.002162,-444.123565,-9326.594869,-919.314598
740.002486,74.020594,-9326.594869,-1072.533697
740.002810,962.267725,-9104.533087,-766.095498
740.003135,1480.411884,-9474.636058,-689.485948
740.003459,1776.494261,-9326.594869,-536.266849
740.003783,1924.535449,-8956.491898,0.000000
740.004107,1998.556043,-9326.594869,0.000000
740.004431,1702.473667,-9400.615463,76.609550
740.004755,1554.432478,-9474.636058,76.609550
740.005079,1332.370696,-9474.636058,459.657299
740.005403,1110.308913,-9326.594869,0.000000
740.005727,148.041188,-9030.512492,76.609550
740.006052,-444.123565,-9474.636058,-459.657299
740.006376,-1036.288319,-10140.821405,-383.047749
740.006700,-1776.494261,-10066.800811,-229.828649
740.007024,-2294.638420,-10214.842000,-536.266849
740.007348,-2072.576638,-10214.842000,-536.266849
740.007672,-1776.494261,-10510.924376,-153.219100
740.007996,-1628.453072,-10658.965565,0.000000
740.008320,-1184.329507,-10510.924376,76.609550
740.008645,-1258.350101,-11251.130318,-306.438199
740.008969,-962.267725,-11177.109724,0.000000
740.009293,0.000000,-11103.089130,0.000000
740.009617,444.123565,-10732.986159,0.000000
740.009941,740.205942,-9992.780217,0.000000
740.010265,814.226536,-9918.759623,-153.219100
740.010589,1628.453072,-9696.697840,153.219100
740.010913,1480.411884,-9400.615463,0.000000
740.011238,1480.411884,-9326.594869,-229.828649
740.011562,1036.288319,-8956.491898,0.000000
740.011886,592.164754,-8882.471304,0.000000
740.012210,444.123565,-8734.430116,76.609550
740.012534,74.020594,-8660.409521,153.219100
740.012858,74.020594,-8956.491898,536.266849
740.013182,-296.082377,-9104.533087,919.314598
740.013506,-296.082377,-8956.491898,1072.533697
740.013830,-888.247130,-9400.615463,1608.800546
740.014155,-1332.370696,-9474.636058,1302.362347
740.014479,-1702.473667,-9770.718434,1072.533697
740.014803,-1702.473667,-9696.697840,766.095498
740.015127,-1850.514855,-9622.677246,842.705048
740.015451,-1184.329507,-9622.677246,919.314598
740.015775,-296.082377,-9696.697840,536.266849
740.016099,0.000000,-9770.718434,0.000000
740.016423,370.102971,-9622.677246,-229.828649
740.016748,444.123565,-9474.636058,-229.828649
740.017072,296.082377,-9474.636058,-459.657299
740.017396,666.185348,-9326.594869,-1149.143247
740.017720,1258.350101,-8808.450710,-536.266849
740.018044,1776.494261,-8956.491898,-306.438199
740.018368,1776.494261,-8660.409521,0.000000
740.018692,1406.391290,-8808.450710,0.000000
740.019016,1184.329507,-8882.471304,153.219100
740.019340,1184.329507,-9178.553681,306.438199
740.019665,740.205942,-8882.471304,153.219100
740.019989,370.102971,-8882.471304,536.266849
740.020313,-222.061783,-9252.574275,766.095498
740.020637,-962.267725,-9696.697840,229.828649
740.020961,-1702.473667,-9992.780217,76.609550
740.021285,-2368.659014,-10584.944971,-229.828649
740.021609,-2368.659014,-10510.924376,-153.219100
740.021933,-2368.659014,-10584.944971,-383.047749
740.022258,-1998.556043,-10807.006753,-536.266849
740.022582,-1628.453072,-11177.109724,-689.485948
740.022906,-1628.453072,-11177.109724,-766.095498
740.023230,-444.123565,-10807.006753,-995.924147
740.023554,0.000000,-10658.965565,-536.266849
740.023878,962.267725,-10732.986159,-612.876398
740.024202,1036.288319,-10658.965565,-919.314598
740.024526,1184.329507,-10510.924376,-689.485948
740.024850,1406.391290,-10288.862594,-995.924147
740.025175,1332.370696,-9770.718434,-766.095498
740.025499,1036.288319,-9326.594869,-1302.362347
740.025823,1702.473667,-8660.409521,-459.657299
740.026147,1924.535449,-9178.553681,-306.438199
740.026471,1776.494261,-9178.553681,306.438199
740.026795,888.247130,-9104.533087,229.828649
740.027119,0.000000,-8882.471304,153.219100
740.027443,-518.144159,-8808.450710,383.047749
740.027768,-1332.370696,-9474.636058,0.000000
740.028092,-1628.453072,-9252.574275,536.266849
740.028416,-1480.411884,-9474.636058,383.047749
740.028740,-1628.453072,-9474.636058,306.438199
740.029064,-1480.411884,-9622.677246,0.000000
740.029388,-1480.411884,-9918.759623,-153.219100
740.029712,-1110.308913,-10362.883188,0.000000
740.030036,-814.226536,-10140.821405,-153.219100
740.030361,-296.082377,-9844.739029,-306.438199
740.030685,370.102971,-10140.821405,-612.876398
740.031009,888.247130,-9696.697840,-383.047749
740.031333,1628.453072,-9770.718434,-383.047749
740.031657,1702.473667,-9252.574275,-306.438199
740.031981,1776.494261,-8956.491898,-306.438199
740.032305,1850.514855,-8660.409521,0.000000
740.032629,1924.535449,-8290.306550,153.219100
740.032953,1776.494261,-8364.327145,383.047749
740.033278,1258.350101,-8068.244768,306.438199
740.033602,666.185348,-8512.368333,306.438199
740.033926,0.000000,-8882.471304,229.828649
740.034250,-814.226536,-8956.491898,383.047749
740.034574,-1110.308913,-9400.615463,76.609550
740.034898,-1258.350101,-9474.636058,0.000000
740.035222,-1702.473667,-10436.903782,229.828649
740.035546,-1924.535449,-10140.821405,229.828649
740.035871,-2072.576638,-9992.780217,306.438199
740.036195,-1850.514855,-10807.006753,76.609550
740.036519,-1258.350101,-11177.109724,-153.219100
740.036843,-888.247130,-11103.089130,-229.828649
740.037167,-740.205942,-11325.150913,-459.657299
740.037491,-666.185348,-11251.130318,-153.219100
740.037815,-370.102971,-10807.006753,-306.438199
740.038139,296.082377,-11325.150913,-612.876398
740.038463,592.164754,-10510.924376,0.000000
740.038788,962.267725,-10140.821405,-153.219100
740.039112,1332.370696,-9770.718434,-459.657299
740.039436,1628.453072,-9400.615463,-383.047749
740.039760,1702.473667,-9474.636058,-766.095498
740.040084,1628.453072,-8882.471304,-229.828649
740.040408,888.247130,-8068.244768,153.219100
740.040732,888.247130,-8660.409521,153.219100
740.041056,74.020594,-8882.471304,0.000000
740.041381,0.000000,-8956.491898,306.438199
740.041705,-444.123565,-9252.574275,612.876398
740.042029,-814.226536,-9400.615463,536.266849
740.042353,-1036.288319,-9548.656652,766.095498
740.042677,-1110.308913,-9622.677246,766.095498
740.043001,-1184.329507,-9622.677246,1378.971896
740.043325,-1480.411884,-9696.697840,766.095498
740.043649,-1554.432478,-9918.759623,536.266849
740.043973,-1036.288319,-9918.759623,76.609550
740.044298,-740.205942,-9770.718434,-153.219100
740.044622,-296.082377,-9474.636058,-536.266849
740.044946,296.082377,-9326.594869,-229.828649
740.045270,592.164754,-9326.594869,-766.095498
740.045594,814.226536,-9104.533087,-689.485948
740.045918,1332.370696,-9252.574275,-919.314598
740.046242,1628.453072,-8956.491898,-536.266849
740.046566,1998.556043,-9030.512492,-153.219100
740.046891,2294.638420,-8882.471304,0.000000
740.047215,2220.617826,-8586.388927,766.095498
740.047539,1776.494261,-8512.368333,153.219100
740.047863,1110.308913,-8882.471304,612.876398
740.048187,222.061783,-8734.430116,76.609550
740.048511,-814.226536,-9326.594869,383.047749
740.048835,-1406.391290,-9844.739029,229.828649
740.049159,-1850.514855,-10288.862594,0.000000
740.049484,-1924.535449,-10214.842000,0.000000
740.049808,-2368.659014,-10288.862594,0.000000
740.050132,-1998.556043,-10658.965565,-229.828649
740.050456,-2220.617826,-10955.047942,-306.438199
740.050780,-1850.514855,-11399.171507,-459.657299
740.051104,-1480.411884,-11251.130318,-383.047749
740.051428,-666.185348,-11251.130318,-306.438199
740.051752,296.082377,-11399.171507,-383.047749
740.052076,1110.308913,-11103.089130,0.000000
740.052401,1110.308913,-10732.986159,-995.924147
740.052725,1258.350101,-10288.862594,-383.047749
740.053049,1184.329507,-9844.739029,-536.266849
740.053373,1258.350101,-9548.656652,-536.266849
740.053697,1258.350101,-9326.594869,-383.047749
740.054021,1036.288319,-9252.574275,-459.657299
740.054345,1036.288319,-8290.306550,229.828649
740.054669,740.205942,-8142.265362,153.219100
740.054994,814.226536,-8438.347739,153.219100
740.055318,296.082377,-8512.368333,1072.533697
740.055642,0.000000,-8956.491898,689.485948
740.055966,-666.185348,-9104.533087,612.876398
740.056290,-1332.370696,-9474.636058,842.705048
740.056614,-1702.473667,-9696.697840,459.657299
740.056938,-1554.432478,-9844.739029,919.314598
740.057262,-1776.494261,-9918.759623,0.000000
740.057586,-1480.411884,-10066.800811,0.000000
740.057911,-1554.432478,-9770.718434,0.000000
740.058235,-1184.329507,-10066.800811,-153.219100
740.058559,-814.226536,-9992.780217,-383.047749
740.058883,148.041188,-9622.677246,-306.438199
740.059207,888.247130,-9474.636058,-536.266849
740.059531,1406.391290,-9104.533087,-459.657299
740.059855,1554.432478,-9252.574275,-459.657299
740.060179,2072.576638,-9030.512492,-153.219100
740.060504,2368.659014,-8956.491898,0.000000
740.060828,2368.659014,-8882.471304,0.000000
740.061152,2294.638420,-8734.430116,76.609550
740.061476,1850.514855,-8660.409521,383.047749
740.061800,1036.288319,-8068.244768,76.609550
740.062124,518.144159,-8808.450710,76.609550
740.062448,0.000000,-8734.430116,0.000000
740.062772,-296.082377,-9030.512492,0.000000
740.063097,-962.267725,-9548.656652,0.000000
740.063421,-1480.411884,-10066.800811,-306.438199
740.063745,-2072.576638,-10436.903782,-383.047749
740.064069,-1998.556043,-11029.068536,0.000000
740.064393,-2368.659014,-11547.212695,0.000000
740.064717,-1998.556043,-11177.109724,-689.485948
740.065041,-1776.494261,-11695.253884,-919.314598
740.065365,-1258.350101,-11325.150913,-612.876398
740.065689,-444.123565,-11473.192101,-536.266849
740.066014,370.102971,-11177.109724,-459.657299
740.066338,666.185348,-10658.965565,-612.876398
740.066662,888.247130,-10214.842000,-229.828649
740.066986,1036.288319,-9622.677246,-766.095498
740.067310,962.267725,-9548.656652,-1072.533697
740.067634,518.144159,-9178.553681,-766.095498
740.067958,592.164754,-8660.409521,-459.657299
740.068282,962.267725,-8586.388927,-306.438199
740.068607,814.226536,-8734.430116,-536.266849
740.068931,592.164754,-8734.430116,0.000000
740.069255,518.144159,-8882.471304,306.438199
740.069579,222.061783,-8808.450710,229.828649
740.069903,0.000000,-9326.594869,689.485948
740.070227,-370.102971,-9400.615463,153.219100
740.070551,-1110.308913,-9622.677246,229.828649
740.070875,-1110.308913,-9622.677246,919.314598
740.071199,-1406.391290,-9992.780217,612.876398
740.071524,-1702.473667,-9992.780217,306.438199
740.071848,-2072.576638,-10214.842000,0.000000
740.072172,-1776.494261,-10436.903782,-306.438199
740.072496,-1480.411884,-10066.800811,-612.876398
740.072820,-814.226536,-9844.739029,-306.438199
740.073144,0.000000,-9400.615463,-459.657299
740.073468,370.102971,-9474.636058,-306.438199
740.073792,962.267725,-9326.594869,-306.438199
740.074117,1554.432478,-9104.533087,0.000000
740.074441,1850.514855,-8808.450710,0.000000
740.074765,1850.514855,-7994.224174,306.438199
740.075089,2442.679609,-8586.388927,459.657299
740.075413,2220.617826,-8734.430116,766.095498
740.075737,1554.432478,-8586.388927,306.438199
740.076061,1036.288319,-9030.512492,153.219100
740.076385,296.082377,-9178.553681,306.438199
740.076709,-592.164754,-9252.574275,76.609550
740.077034,-888.247130,-9474.636058,995.924147
740.077358,-1702.473667,-9770.718434,76.609550
740.077682,-2146.597232,-10140.821405,76.609550
740.078006,-1998.556043,-10140.821405,383.047749
740.078330,-2146.597232,-10658.965565,153.219100
740.078654,-2146.597232,-10732.986159,0.000000
740.078978,-1850.514855,-11103.089130,-153.219100
740.079302,-1332.370696,-11325.150913,0.000000
740.079627,-444.123565,-11399.171507,0.000000
740.079951,0.000000,-10955.047942,-459.657299
740.080275,0.000000,-11103.089130,-842.705048
740.080599,592.164754,-10955.047942,-766.095498
740.080923,518.144159,-10362.883188,-612.876398
740.081247,962.267725,-10140.821405,-766.095498
740.081571,1184.329507,-9474.636058,-612.876398
740.081895,1850.514855,-9030.512492,76.609550
740.082220,1924.535449,-8586.388927,-306.438199
740.082544,2294.638420,-8586.388927,229.828649
740.082868,1554.432478,-8512.368333,0.000000
740.083192,1110.308913,-8586.388927,383.047749
740.083516,444.123565,-8808.450710,536.266849
740.083840,-148.041188,-8956.491898,459.657299
740.084164,-666.185348,-9326.594869,612.876398
740.084488,-1332.370696,-9622.677246,919.314598
740.084812,-2072.576638,-9622.677246,612.876398
740.085137,-1776.494261,-9770.718434,689.485948
740.085461,-2072.576638,-10288.862594,153.219100
740.085785,-1924.535449,-9918.759623,0.000000
740.086109,-1480.411884,-9992.780217,0.000000
740.086433,-1110.308913,-9992.780217,-383.047749
740.086757,-222.061783,-10066.800811,0.000000
740.087081,444.123565,-10214.842000,-229.828649
740.087405,1332.370696,-9918.759623,-229.828649
740.087730,1110.308913,-9252.574275,-459.657299
740.088054,1406.391290,-9622.677246,-536.266849
740.088378,1406.391290,-9326.594869,-612.876398
740.088702,1776.494261,-9178.553681,-766.095498
740.089026,1776.494261,-8956.491898,-306.438199
740.089350,1924.535449,-8364.327145,76.609550
740.089674,1702.473667,-8364.327145,76.609550
740.089998,1554.432478,-8660.409521,153.219100
740.090323,1036.288319,-8882.471304,306.438199
740.090647,296.082377,-8808.450710,383.047749
740.090971,-296.082377,-9326.594869,383.047749
740.091295,-1258.350101,-9548.656652,0.000000
740.091619,-1628.453072,-9770.718434,306.438199
740.091943,-1998.556043,-10732.986159,-229.828649
740.092267,-2368.659014,-10584.944971,-383.047749
740.092592,-2442.679609,-10881.027347,-536.266849
740.092916,-2516.700203,-11029.068536,-459.657299
740.093240,-2072.576638,-11325.150913,-689.485948
740.093564,-1702.473667,-11325.150913,-459.657299
740.093888,-814.226536,-11177.109724,-459.657299
740.094212,222.061783,-10807.006753,-459.657299
740.094536,370.102971,-10658.965565,0.000000
740.094861,1110.308913,-10214.842000,-766.095498
740.095185,1332.370696,-10214.842000,-766.095498
740.095509,1628.453072,-9992.780217,-306.438199
740.095833,1776.494261,-9696.697840,-383.047749
740.096157,1554.432478,-9252.574275,-383.047749
740.096481,1628.453072,-8586.388927,-612.876398
740.096805,1258.350101,-8956.491898,612.876398
740.097130,1406.391290,-8512.368333,0.000000
740.097454,444.123565,-8512.368333,0.000000
740.097778,666.185348,-8586.388927,459.657299
740.098102,0.000000,-8734.430116,612.876398
740.098426,-296.082377,-9326.594869,766.095498
740.098750,-666.185348,-9548.656652,689.485948
740.099074,-592.164754,-10066.800811,995.924147
740.099399,-1184.329507,-9696.697840,1225.752797
740.099723,-1628.453072,-10214.842000,919.314598
740.100047,-1702.473667,-10066.800811,995.924147
740.100371,-1332.370696,-10288.862594,459.657299
740.100695,-1184.329507,-10362.883188,0.000000
740.101019,-666.185348,-10362.883188,0.000000
740.101343,0.000000,-9918.759623,0.000000
740.101668,444.123565,-9400.615463,0.000000
740.101992,1036.288319,-9474.636058,229.828649
740.102316,1184.329507,-9400.615463,-612.876398
740.102640,1332.370696,-9030.512492,-306.438199
740.102964,1702.473667,-8956.491898,-153.219100
740.103288,1850.514855,-8956.491898,0.000000
740.103612,1998.556043,-8734.430116,306.438199
740.103937,1480.411884,-8734.430116,689.485948
740.104261,962.267725,-8364.327145,229.828649
740.104585,0.000000,-8956.491898,459.657299
740.104909,0.000000,-8956.491898,612.876398
740.105233,-888.247130,-9474.636058,459.657299
740.105557,-1480.411884,-9622.677246,383.047749
740.105881,-2220.617826,-9918.759623,153.219100
740.106205,-2516.700203,-10066.800811,-153.219100
740.106530,-2664.741391,-10436.903782,0.000000
740.106854,-2738.761985,-10436.903782,-229.828649
740.107178,-2664.741391,-10732.986159,229.828649
740.107502,-2294.638420,-10881.027347,-229.828649
740.107826,-1406.391290,-11103.089130,-383.047749
740.108150,-592.164754,-11177.109724,-153.219100
740.108474,0.000000,-11251.130318,-153.219100
740.108799,814.226536,-10732.986159,0.000000
740.109123,1110.308913,-10658.965565,-153.219100
740.109447,814.226536,-9992.780217,-306.438199
740.109771,1110.308913,-9992.780217,0.000000
740.110095,1036.288319,-9400.615463,-612.876398
740.110419,1776.494261,-9104.533087,-153.219100
740.110743,1998.556043,-8882.471304,0.000000
740.111068,1702.473667,-8808.450710,0.000000
740.111392,1480.411884,-8734.430116,-306.438199
740.111716,1184.329507,-8438.347739,536.266849
740.112040,444.123565,-8734.430116,0.000000
740.112364,-370.102971,-8586.388927,459.657299
740.112688,-1036.288319,-9400.615463,153.219100
740.113012,-1480.411884,-9622.677246,612.876398
740.113337,-1480.411884,-10066.800811,383.047749
740.113661,-1554.432478,-9622.677246,383.047749
740.113985,-1628.453072,-9918.759623,383.047749
740.114309,-962.267725,-10066.800811,306.438199
740.114633,-814.226536,-10066.800811,76.609550
740.114957,-148.041188,-10140.821405,-383.047749
740.115281,-222.061783,-10140.821405,-383.047749
740.115606,444.123565,-9770.718434,-689.485948
740.115930,1110.308913,-9474.636058,-612.876398
740.116254,1628.453072,-9400.615463,-1378.971896
740.116578,1998.556043,-9474.636058,-689.485948
740.116902,2146.597232,-8956.491898,-383.047749
740.117226,2664.741391,-8956.491898,-383.047749
740.117550,2072.576638,-8956.491898,-229.828649
740.117875,1776.494261,-8660.409521,0.000000
740.118199,1480.411884,-8808.450710,229.828649
740.118523,1258.350101,-8734.430116,536.266849
740.118847,444.123565,-8956.491898,919.314598
740.119171,-518.144159,-9030.512492,383.047749
740.119495,-666.185348,-9622.677246,536.266849
740.119819,-1628.453072,-9992.780217,229.828649
740.120144,-2146.597232,-10362.883188,0.000000
740.120468,-2368.659014,-10584.944971,-383.047749
740.120792,-2590.720797,-10732.986159,-612.876398
740.121116,-2516.700203,-11177.109724,-689.485948
740.121440,-1776.494261,-11251.130318,-1225.752797
740.121764,-1480.411884,-11103.089130,-766.095498
740.122088,-1110.308913,-11399.171507,-1072.533697
740.122413,-444.123565,-11029.068536,-459.657299
740.122737,518.144159,-10658.965565,-612.876398
740.123061,518.144159,-10584.944971,-229.828649
740.123385,888.247130,-10066.800811,-612.876398
740.123709,1480.411884,-9844.739029,-153.219100
740.124033,1480.411884,-9326.594869,-612.876398
740.124357,1628.453072,-9104.533087,-229.828649
740.124682,1332.370696,-9104.533087,-306.438199
740.125006,1184.329507,-8956.491898,0.000000
740.125330,814.226536,-8734.430116,0.000000
740.125654,370.102971,-8660.409521,0.000000
740.125978,0.000000,-8512.368333,459.657299
740.126302,-592.164754,-8586.388927,689.485948
740.126626,-666.185348,-8882.471304,612.876398
740.126951,-962.267725,-9104.533087,919.314598
740.127275,-1332.370696,-9696.697840,689.485948
740.127599,-1702.473667,-9918.759623,612.876398
740.127923,-1850.514855,-9992.780217,536.266849
740.128247,-1850.514855,-9696.697840,689.485948
740.128571,-1850.514855,-10214.842000,0.000000
740.128895,-1184.329507,-10140.821405,229.828649
740.129220,-814.226536,-10140.821405,229.828649
740.129544,-296.082377,-9844.739029,-153.219100
740.129868,74.020594,-9622.677246,-306.438199
740.130192,444.123565,-9622.677246,-229.828649
740.130516,1036.288319,-9400.615463,-383.047749
740.130840,1924.535449,-8808.450710,-153.219100
740.131164,2220.617826,-8586.388927,76.609550
740.131489,2368.659014,-8438.347739,76.609550
740.131813,2368.659014,-8660.409521,229.828649
740.132137,2220.617826,-8882.471304,306.438199
740.132461,1702.473667,-8808.450710,459.657299
740.132785,740.205942,-8882.471304,459.657299
740.133109,0.000000,-8956.491898,383.047749
740.133433,-814.226536,-9400.615463,459.657299
740.133757,-1406.391290,-9622.677246,229.828649
740.134082,-1776.494261,-10362.883188,-153.219100
740.134406,-2294.638420,-10288.862594,0.000000
740.134730,-2368.659014,-10436.903782,0.000000
740.135054,-2368.659014,-10584.944971,0.000000
740.135378,-2072.576638,-10955.047942,-459.657299
740.135702,-1628.453072,-11251.130318,0.000000
740.136026,-1184.329507,-11325.150913,-153.219100
740.136351,-666.185348,-11473.192101,-229.828649
740.136675,74.020594,-11103.089130,-229.828649
740.136999,814.226536,-11029.068536,-536.266849
740.137323,1332.370696,-10807.006753,-383.047749
740.137647,1332.370696,-10288.862594,-536.266849
740.137971,1554.432478,-9918.759623,-612.876398
740.138295,1332.370696,-9548.656652,-612.876398
740.138620,1628.453072,-9252.574275,-612.876398
740.138944,1184.329507,-8808.450710,-459.657299
740.139268,1184.329507,-8734.430116,0.000000
740.139592,1184.329507,-8586.388927,0.000000
740.139916,962.267725,-8364.327145,229.828649
740.140240,74.020594,-8512.368333,612.876398
740.140564,-296.082377,-8734.430116,689.485948
740.140889,-518.144159,-9400.615463,919.314598
740.141213,-962.267725,-9548.656652,766.095498
740.141537,-1850.514855,-9992.780217,612.876398
740.141861,-2220.617826,-9770.718434,306.438199
740.142185,-2146.597232,-9918.759623,383.047749
740.142509,-1776.494261,-9918.759623,153.219100
740.142833,-1036.288319,-9770.718434,0.000000
740.143158,-888.247130,-9252.574275,-842.705048
740.143482,-592.164754,-9548.656652,-689.485948
740.143806,0.000000,-9474.636058,-1149.143247
740.144130,370.102971,-9548.656652,-995.924147
740.144454,518.144159,-9326.594869,-536.266849
740.144778,1036.288319,-9030.512492,-459.657299
740.145102,1406.391290,-8586.388927,-306.438199
740.145427,2368.659014,-8660.409521,76.609550
740.145751,2960.823768,-8734.430116,306.438199
740.146075,2368.659014,-8290.306550,536.266849
740.146399,1554.432478,-8734.430116,459.657299
740.146723,1036.288319,-8882.471304,459.657299
740.147047,222.061783,-8808.450710,229.828649
740.147371,-222.061783,-9178.553681,76.609550
740.147696,-740.205942,-9622.677246,306.438199
740.148020,-1480.411884,-9918.759623,-306.438199
740.148344,-1924.535449,-10140.821405,-306.438199
740.148668,-2220.617826,-10288.862594,-1225.752797
740.148992,-2738.761985,-10955.047942,-919.314598
740.149316,-2664.741391,-11103.089130,-842.705048
740.149640,-2294.638420,-11399.171507,-689.485948
740.149965,-1332.370696,-11399.171507,-766.095498
740.150289,-740.205942,-10881.027347,0.000000
740.150613,74.020594,-11177.109724,-229.828649
740.150937,740.205942,-11103.089130,-153.219100
740.151261,1406.391290,-10732.986159,-306.438199
740.151585,962.267725,-10732.986159,-612.876398
740.151909,1184.329507,-10436.903782,-689.485948
740.152234,1110.308913,-9770.718434,-536.266849
740.152558,1628.453072,-9326.594869,-919.314598
740.152882,1628.453072,-9030.512492,-842.705048
740.153206,1332.370696,-8660.409521,-612.876398
740.153530,814.226536,-8512.368333,-459.657299
740.153854,592.164754,-8438.347739,-153.219100
740.154178,296.082377,-8364.327145,0.000000
740.154503,-222.061783,-8512.368333,229.828649
740.154827,-370.102971,-8956.491898,-153.219100
740.155151,-888.247130,-9178.553681,383.047749
740.155475,-962.267725,-9400.615463,459.657299
740.155799,-1110.308913,-9992.780217,229.828649
740.156123,-1702.473667,-10288.862594,536.266849
740.156447,-2072.576638,-10214.842000,76.609550
740.156772,-1998.556043,-10066.800811,153.219100
740.157096,-1776.494261,-10140.821405,-153.219100
740.157420,-888.247130,-10140.821405,383.047749
740.157744,-592.164754,-9770.718434,-689.485948
740.158068,296.082377,-9400.615463,-459.657299
740.158392,888.247130,-8808.450710,-229.828649
740.158716,1036.288319,-8808.450710,-306.438199
740.159040,1850.514855,-8660.409521,76.609550
740.159365,1924.535449,-8956.491898,0.000000
740.159689,2220.617826,-8586.388927,0.000000
740.160013,1998.556043,-8438.347739,76.609550
740.160337,1702.473667,-8734.430116,459.657299
740.160661,1110.308913,-8660.409521,229.828649
740.160985,666.185348,-8660.409521,612.876398
740.161309,0.000000,-8956.491898,459.657299
740.161634,-592.164754,-9178.553681,612.876398
740.161958,-1184.329507,-9474.636058,459.657299
740.162282,-1628.453072,-9696.697840,459.657299
740.162606,-2294.638420,-10214.842000,229.828649
740.162930,-2590.720797,-10066.800811,689.485948
740.163254,-2812.782580,-10658.965565,229.828649
740.163578,-2294.638420,-11029.068536,306.438199
740.163903,-1924.535449,-11399.171507,0.000000
740.164227,-1480.411884,-11621.233289,-153.219100
740.164551,-1036.288319,-11621.233289,-153.219100
740.164875,-148.041188,-11695.253884,-383.047749
740.165199,222.061783,-10881.027347,536.266849
740.165523,592.164754,-10510.924376,0.000000
740.165847,1554.432478,-10362.883188,-153.219100
740.166172,1258.350101,-9548.656652,-689.485948
740.166496,1776.494261,-9696.697840,-536.266849
740.166820,1702.473667,-9030.512492,-459.657299
740.167144,1554.432478,-8956.491898,-383.047749
740.167468,1406.391290,-8808.450710,0.000000
740.167792,1332.370696,-8438.347739,229.828649
740.168116,1110.308913,-8660.409521,383.047749
740.168441,592.164754,-8956.491898,995.924147
740.168765,-444.123565,-8808.450710,459.657299
740.169089,-518.144159,-9178.553681,766.095498
740.169413,-1184.329507,-9400.615463,612.876398
740.169737,-1110.308913,-9770.718434,1072.533697
740.170061,-1406.391290,-9770.718434,612.876398
740.170385,-1776.494261,-9400.615463,153.219100
740.170710,-1554.432478,-9548.656652,153.219100
740.171034,-1258.350101,-9622.677246,-229.828649
740.171358,-888.247130,-10288.862594,-306.438199
740.171682,-370.102971,-9992.780217,-689.485948
740.172006,0.000000,-9844.739029,-766.095498
740.172330,74.020594,-9474.636058,-1149.143247
740.172654,666.185348,-9252.574275,-1302.362347
740.172979,888.247130,-9326.594869,-612.876398
740.173303,1702.473667,-8660.409521,-689.485948
740.173627,2516.700203,-8586.388927,-612.876398
740.173951,2664.741391,-8512.368333,0.000000
740.174275,2590.720797,-8512.368333,306.438199
740.174599,2368.659014,-8586.388927,153.219100
740.174923,1776.494261,-8586.388927,0.000000
740.175248,1036.288319,-8956.491898,-229.828649
740.175572,-148.041188,-9104.533087,0.000000
740.175896,-592.164754,-9252.574275,0.000000
740.176220,-1628.453072,-9622.677246,-612.876398
740.176544,-2146.597232,-10362.883188,-766.095498
740.176868,-2442.679609,-10807.006753,-995.924147
740.177192,-2664.741391,-11029.068536,-1072.533697
740.177517,-2220.617826,-11325.150913,-383.047749
740.177841,-1776.494261,-11251.130318,-995.924147
740.178165,-1480.411884,-11621.233289,-689.485948
740.178489,-1184.329507,-11177.109724,-383.047749
740.178813,-666.185348,-11177.109724,-766.095498
740.179137,0.000000,-11177.109724,-766.095498
740.179461,444.123565,-10881.027347,-612.876398
740.179786,888.247130,-10807.006753,-689.485948
740.180110,1480.411884,-10288.862594,-689.485948
740.180434,1406.391290,-9622.677246,0.000000
740.180758,1036.288319,-9474.636058,-459.657299
740.181082,1554.432478,-9104.533087,-612.876398
740.181406,1406.391290,-9030.512492,-536.266849
740.181730,1184.329507,-8882.471304,0.000000
740.182055,740.205942,-8586.388927,0.000000
740.182379,444.123565,-8586.388927,229.828649
740.182703,-148.041188,-7994.224174,0.000000
740.183027,-222.061783,-8808.450710,612.876398
740.183351,-740.205942,-9178.553681,612.876398
740.183675,-1110.308913,-9474.636058,689.485948
740.183999,-1110.308913,-9770.718434,842.705048
740.184323,-1480.411884,-9918.759623,1072.533697
740.184648,-1480.411884,-9992.780217,1302.362347
740.184972,-1998.556043,-9992.780217,612.876398
740.185296,-1406.391290,-10214.842000,612.876398
740.185620,-666.185348,-10140.821405,689.485948
740.185944,-74.020594,-10066.800811,383.047749
740.186268,148.041188,-9696.697840,0.000000
740.186592,370.102971,-9474.636058,0.000000
740.186917,444.123565,-9104.533087,-229.828649
740.187241,962.267725,-8882.471304,76.609550
740.187565,1184.329507,-9104.533087,0.000000
740.187889,2442.679609,-8364.327145,459.657299
740.188213,2664.741391,-8586.388927,842.705048
740.188537,2442.679609,-8216.285956,766.095498
740.188861,2072.576638,-8734.430116,919.314598
740.189186,1332.370696,-8882.471304,1072.533697
740.189510,370.102971,-8882.471304,919.314598
740.189834,-592.164754,-9030.512492,459.657299
740.190158,-1036.288319,-9844.739029,919.314598
740.190483,-1628.453072,-9918.759623,383.047749
740.190807,-2368.659014,-10436.903782,459.657299
740.191131,-2960.823768,-10436.903782,76.609550
740.191455,-2738.761985,-10881.027347,0.000000
740.191780,-2442.679609,-10955.047942,229.828649
740.192104,-2590.720797,-11103.089130,536.266849
740.192428,-1406.391290,-11473.192101,383.047749
740.192752,-1332.370696,-11029.068536,383.047749
740.193076,-740.205942,-11251.130318,0.000000
740.193401,0.000000,-11177.109724,-229.828649
740.193725,592.164754,-10732.986159,-536.266849
740.194049,888.247130,-10510.924376,-306.438199
740.194373,1406.391290,-9992.780217,-229.828649
740.194698,962.267725,-9548.656652,-689.485948
740.195022,888.247130,-9474.636058,-1608.800546
740.195346,1110.308913,-8956.491898,-766.095498
740.195670,1480.411884,-9030.512492,-383.047749
740.195995,1036.288319,-8734.430116,0.000000
740.196319,962.267725,-8660.409521,-153.219100
740.196643,740.205942,-8586.388927,459.657299
740.196967,444.123565,-8660.409521,689.485948
740.197292,0.000000,-9030.512492,689.485948
740.197616,-740.205942,-9104.533087,766.095498
740.197940,-962.267725,-9474.636058,536.266849
740.198264,-1258.350101,-9844.739029,536.266849
740.198589,-1036.288319,-10066.800811,76.609550
740.198913,-1554.432478,-10140.821405,0.000000
740.199237,-1702.473667,-9918.759623,-689.485948
740.199561,-1258.350101,-9918.759623,-612.876398
740.199886,-518.144159,-9992.780217,-689.485948
740.200210,0.000000,-10140.821405,-1225.752797
740.200534,-148.041188,-9770.718434,-1991.848295
740.200858,296.082377,-9474.636058,-1608.800546
740.201183,962.267725,-9178.553681,-1225.752797
740.201507,1776.494261,-9178.553681,-1225.752797
740.201831,2072.576638,-9104.533087,-306.438199
740.202155,3108.864956,-8882.471304,-306.438199
740.202479,3256.906145,-8586.388927,536.266849
740.202804,2886.803174,-8438.347739,306.438199
740.203128,2146.597232,-9252.574275,229.828649
740.203452,962.267725,-9178.553681,0.000000
740.203776,74.020594,-9252.574275,0.000000
740.204101,-592.164754,-9252.574275,0.000000
740.204425,-962.267725,-9696.697840,-459.657299
740.204749,-1332.370696,-10362.883188,-612.876398
740.205073,-2146.597232,-10214.842000,-383.047749
740.205398,-2368.659014,-10288.862594,-1302.362347
740.205722,-2590.720797,-10807.006753,-1072.533697
740.206046,-2664.741391,-10955.047942,-919.314598
740.206370,-2146.597232,-11325.150913,-919.314598
740.206695,-1480.411884,-11399.171507,-459.657299
740.207019,-370.102971,-11325.150913,-153.219100
740.207343,148.041188,-10881.027347,-153.219100
740.207667,740.205942,-11103.089130,-306.438199
740.207992,962.267725,-11029.068536,0.000000
740.208316,1258.350101,-10584.944971,-229.828649
740.208640,1184.329507,-10140.821405,-229.828649
740.208964,962.267725,-9622.677246,-306.438199
740.209289,814.226536,-9326.594869,-689.485948
740.209613,1036.288319,-9030.512492,-612.876398
740.209937,1184.329507,-8586.388927,76.609550
740.210261,962.267725,-8586.388927,0.000000
740.210585,666.185348,-8512.368333,306.438199
740.210910,518.144159,-8438.347739,536.266849
740.211234,0.000000,-8438.347739,612.876398
740.211558,-296.082377,-8660.409521,689.485948
740.211882,-1036.288319,-9030.512492,1302.362347
740.212207,-888.247130,-9548.656652,1378.971896
740.212531,-1924.535449,-9992.780217,1225.752797
740.212855,-1924.535449,-9770.718434,842.705048
740.213179,-1998.556043,-9992.780217,459.657299
740.213504,-1480.411884,-9992.780217,612.876398
740.213828,-1184.329507,-9992.780217,383.047749
740.214152,-444.123565,-9622.677246,306.438199
740.214476,0.000000,-9400.615463,383.047749
740.214801,444.123565,-9474.636058,306.438199
740.215125,1036.288319,-9326.594869,0.000000
740.215449,1258.350101,-9104.533087,-153.219100
740.215773,1406.391290,-9252.574275,0.000000
740.216098,1406.391290,-8956.491898,0.000000
740.216422,1924.535449,-8808.450710,919.314598
740.216746,1924.535449,-8956.491898,306.438199
740.217070,1702.473667,-9104.533087,766.095498
740.217395,1554.432478,-8956.491898,536.266849
740.217719,1036.288319,-9178.553681,689.485948
740.218043,0.000000,-9252.574275,153.219100
740.218367,-814.226536,-9400.615463,459.657299
740.218691,-1480.411884,-9770.718434,229.828649
740.219016,-1702.473667,-9992.780217,76.609550
740.219340,-1628.453072,-10658.965565,0.000000
740.219664,-2368.659014,-10955.047942,-383.047749
740.219988,-2220.617826,-10658.965565,0.000000
740.220313,-1924.535449,-11029.068536,0.000000
740.220637,-1332.370696,-11325.150913,0.000000
740.220961,-1184.329507,-11325.150913,-229.828649
740.221285,-444.123565,-11251.130318,-842.705048
740.221610,0.000000,-10732.986159,-229.828649
740.221934,222.061783,-10584.944971,-306.438199
740.222258,518.144159,-10214.842000,-1072.533697
740.222582,740.205942,-10214.842000,-766.095498
740.222907,1184.329507,-9844.739029,-1149.143247
740.223231,1332.370696,-9474.636058,-536.266849
740.223555,1406.391290,-9104.533087,-766.095498
740.223879,1702.473667,-9104.533087,-306.438199
740.224204,1480.411884,-8734.430116,-153.219100
740.224528,1036.288319,-8882.471304,229.828649
740.224852,962.267725,-8956.491898,306.438199
740.225176,370.102971,-8882.471304,536.266849
740.225501,0.000000,-8956.491898,689.485948
740.225825,-518.144159,-9474.636058,612.876398
740.226149,-1554.432478,-9252.574275,229.828649
740.226473,-1628.453072,-9770.718434,153.219100
740.226798,-1702.473667,-9252.574275,0.000000
740.227122,-1702.473667,-9326.594869,306.438199
740.227446,-1554.432478,-9770.718434,-383.047749
740.227770,-1332.370696,-10140.821405,-536.266849
740.228094,-962.267725,-9992.780217,-459.657299
740.228419,-370.102971,-9770.718434,-612.876398
740.228743,592.164754,-9918.759623,-536.266849
740.229067,666.185348,-9030.512492,-995.924147
740.229391,1406.391290,-9474.636058,-536.266849
740.229716,1850.514855,-9474.636058,-536.266849
740.230040,2220.617826,-9326.594869,-383.047749
740.230364,2072.576638,-8956.491898,0.000000
740.230688,2442.679609,-8808.450710,0.000000
740.231013,2738.761985,-9104.533087,383.047749
740.231337,1998.556043,-8660.409521,536.266849
740.231661,1554.432478,-9252.574275,383.047749
740.231985,444.123565,-9400.615463,459.657299
740.232310,-592.164754,-9252.574275,0.000000
740.232634,-1406.391290,-9326.594869,-153.219100
740.232958,-1924.535449,-9770.718434,-459.657299
740.233282,-2516.700203,-10140.821405,-612.876398
740.233607,-2738.761985,-10584.944971,-689.485948
740.233931,-2516.700203,-10510.924376,-612.876398
740.234255,-2368.659014,-10807.006753,-459.657299
740.234579,-2146.597232,-11103.089130,-689.485948
740.234904,-1554.432478,-11473.192101,-612.876398
740.235228,-888.247130,-11251.130318,-306.438199
740.235552,0.000000,-11177.109724,-229.828649
740.235876,518.144159,-10732.986159,0.000000
740.236200,814.226536,-11029.068536,229.828649
740.236525,1110.308913,-10510.924376,-536.266849
740.236849,1258.350101,-10288.862594,-689.485948
740.237173,1480.411884,-9622.677246,-229.828649
740.237497,1776.494261,-9326.594869,-1302.362347
740.237822,1628.453072,-8734.430116,-459.657299
740.238146,1406.391290,-8586.388927,-459.657299
740.238470,1036.288319,-8512.368333,-383.047749
740.238794,370.102971,-8364.327145,-153.219100
740.239119,148.041188,-8734.430116,0.000000
740.239443,0.000000,-8290.306550,459.657299
740.239767,-148.041188,-8734.430116,383.047749
740.240091,-296.082377,-9252.574275,766.095498
740.240416,-962.267725,-9548.656652,1072.533697
740.240740,-1332.370696,-9622.677246,766.095498
740.241064,-1480.411884,-9918.759623,766.095498
740.241388,-1702.473667,-10066.800811,536.266849
740.241713,-1628.453072,-9844.739029,153.219100
740.242037,-1332.370696,-9696.697840,76.609550
740.242361,-814.226536,-9770.718434,0.000000
740.242685,-222.061783,-9844.739029,0.000000
740.243010,74.020594,-9474.636058,-689.485948
740.243334,370.102971,-9400.615463,-306.438199
740.243658,888.247130,-9474.636058,-612.876398
740.243982,1184.329507,-9178.553681,-306.438199
740.244306,1776.494261,-8734.430116,0.000000
740.244631,1406.391290,-8586.388927,0.000000
740.244955,1850.514855,-8586.388927,153.219100
740.245279,1776.494261,-8734.430116,536.266849
740.245603,1480.411884,-8660.409521,459.657299
740.245928,1036.288319,-8956.491898,536.266849
740.246252,370.102971,-9252.574275,536.266849
740.246576,-296.082377,-9474.636058,306.438199
740.246900,-1258.350101,-9696.697840,153.219100
740.247225,-1850.514855,-10288.862594,536.266849
740.247549,-2368.659014,-10140.821405,-383.047749
740.247873,-2368.659014,-10658.965565,-153.219100
740.248197,-2368.659014,-10955.047942,-383.047749
740.248522,-2146.597232,-11103.089130,-383.047749
740.248846,-1702.473667,-11325.150913,-689.485948
740.249170,-1258.350101,-11177.109724,-153.219100
740.249494,-370.102971,-11325.150913,0.000000
740.249819,0.000000,-11251.130318,0.000000
740.250143,592.164754,-10881.027347,0.000000
740.250467,740.205942,-10955.047942,-229.828649
740.250791,814.226536,-10658.965565,0.000000
740.251116,888.247130,-9918.759623,-383.047749
740.251440,1480.411884,-9474.636058,-536.266849
740.251764,1776.494261,-9252.574275,0.000000
740.252088,1628.453072,-9178.553681,0.000000
740.252413,1480.411884,-8808.450710,-306.438199
740.252737,1332.370696,-8660.409521,153.219100
740.253061,962.267725,-8512.368333,153.219100
740.253385,666.185348,-8956.491898,459.657299
740.253709,-148.041188,-8882.471304,1685.410096
740.254034,-518.144159,-8660.409521,766.095498
740.254358,-740.205942,-9474.636058,1532.190996
740.254682,-1110.308913,-9622.677246,1149.143247
740.255006,-1406.391290,-9622.677246,766.095498
740.255331,-1406.391290,-9622.677246,766.095498
740.255655,-1554.432478,-9696.697840,766.095498
740.255979,-1332.370696,-9622.677246,229.828649
740.256303,-666.185348,-9770.718434,0.000000
740.256628,-222.061783,-9844.739029,0.000000
740.256952,0.000000,-9326.594869,-229.828649
740.257276,444.123565,-9548.656652,-612.876398
740.257600,740.205942,-9474.636058,-612.876398
740.257925,1110.308913,-9474.636058,-612.876398
740.258249,2072.576638,-9252.574275,-612.876398
740.258573,2368.659014,-8882.471304,-306.438199
740.258897,2738.761985,-8956.491898,383.047749
740.259222,2072.576638,-8734.430116,229.828649
740.259546,1924.535449,-8660.409521,536.266849
740.259870,1184.329507,-8734.430116,689.485948
740.260194,740.205942,-9030.512492,612.876398
740.260519,0.000000,-9030.512492,229.828649
740.260843,-666.185348,-9696.697840,229.828649
740.261167,-1332.370696,-9622.677246,-153.219100
740.261491,-1998.556043,-9918.759623,-612.876398
740.261815,-2590.720797,-10510.924376,-536.266849
740.262140,-3108.864956,-10214.842000,-919.314598
740.262464,-2960.823768,-10881.027347,-919.314598
740.262788,-2146.597232,-11103.089130,-995.924147
740.263112,-1480.411884,-11251.130318,-842.705048
740.263437,-666.185348,-11103.089130,-536.266849
740.263761,0.000000,-11473.192101,0.000000
740.264085,962.267725,-10362.883188,-383.047749
740.264409,1110.308913,-10807.006753,-536.266849
740.264734,814.226536,-10955.047942,-766.095498
740.265058,1184.329507,-10732.986159,-919.314598
740.265382,1110.308913,-9918.759623,-612.876398
740.265706,1184.329507,-9622.677246,-842.705048
740.266031,962.267725,-9030.512492,-919.314598
740.266355,592.164754,-8956.491898,-689.485948
740.266679,814.226536,-8734.430116,-459.657299
740.267003,666.185348,-8956.491898,-306.438199
740.267328,444.123565,-8586.388927,-153.219100
740.267652,74.020594,-8808.450710,76.609550
740.267976,-296.082377,-8956.491898,229.828649
740.268300,-666.185348,-9178.553681,0.000000
740.268625,-1258.350101,-9252.574275,459.657299
740.268949,-1332.370696,-9696.697840,536.266849
740.269273,-1480.411884,-9696.697840,153.219100
740.269597,-1480.411884,-9770.718434,612.876398
740.269921,-1406.391290,-9844.739029,0.000000
740.270246,-1110.308913,-10066.800811,-153.219100
740.270570,-1036.288319,-9918.759623,-383.047749
740.270894,-222.061783,-10066.800811,-383.047749
740.271218,148.041188,-9474.636058,-153.219100
740.271543,740.205942,-9252.574275,-536.266849
740.271867,1036.288319,-9252.574275,-306.438199
740.272191,1184.329507,-9474.636058,-306.438199
740.272515,1702.473667,-8956.491898,-153.219100
740.272840,2294.638420,-8882.471304,306.438199
740.273164,2590.720797,-8660.409521,306.438199
740.273488,2738.761985,-8364.327145,536.266849
740.273812,2294.638420,-8216.285956,842.705048
740.274137,1480.411884,-8512.368333,306.438199
740.274461,444.123565,-9030.512492,306.438199
740.274785,-666.185348,-9252.574275,459.657299
740.275109,-1406.391290,-9770.718434,383.047749
740.275434,-1702.473667,-9770.718434,459.657299
740.275758,-2368.659014,-9992.780217,153.219100
740.276082,-2664.741391,-10140.821405,383.047749
740.276406,-2664.741391,-10288.862594,0.000000
740.276731,-2220.617826,-11103.089130,306.438199
740.277055,-1924.535449,-10955.047942,306.438199
740.277379,-1258.350101,-10955.047942,229.828649
740.277703,-888.247130,-10732.986159,153.219100
740.278027,74.020594,-10658.965565,459.657299
740.278352,222.061783,-10807.006753,229.828649
740.278676,814.226536,-10584.944971,-306.438199
740.279000,814.226536,-10510.924376,-229.828649
740.279324,592.164754,-9696.697840,-995.924147
740.279649,1332.370696,-9770.718434,-995.924147
740.279973,1406.391290,-9696.697840,-459.657299
740.280297,1110.308913,-9104.533087,-536.266849
740.280621,1110.308913,-9030.512492,0.000000
740.280946,888.247130,-8808.450710,306.438199
740.281270,814.226536,-8660.409521,0.000000
740.281594,296.082377,-8586.388927,766.095498
740.281918,-592.164754,-8956.491898,612.876398
740.282243,-814.226536,-9400.615463,919.314598
740.282567,-1110.308913,-9548.656652,766.095498
740.282891,-1628.453072,-9548.656652,612.876398
740.283215,-1850.514855,-9770.718434,459.657299
740.283540,-1628.453072,-9844.739029,459.657299
740.283864,-1702.473667,-9474.636058,0.000000
740.284188,-1332.370696,-9992.780217,76.609550
740.284512,-962.267725,-10066.800811,-306.438199
740.284837,-740.205942,-9622.677246,-919.314598
740.285161,-222.061783,-9770.718434,-842.705048
740.285485,666.185348,-9844.739029,-995.924147
740.285809,1110.308913,-9474.636058,-612.876398
740.286134,1406.391290,-9474.636058,-842.705048
740.286458,1776.494261,-9104.533087,0.000000
740.286782,2664.741391,-8956.491898,-306.438199
740.287106,2590.720797,-8438.347739,-153.219100
740.287430,2516.700203,-8956.491898,0.000000
740.287755,2072.576638,-8882.471304,-153.219100
740.288079,1702.473667,-8882.471304,229.828649
740.288403,1036.288319,-9178.553681,-153.219100
740.288727,296.082377,-9252.574275,-153.219100
740.289052,-666.185348,-9178.553681,0.000000
740.289376,-1702.473667,-10066.800811,-383.047749
740.289700,-1850.514855,-10362.883188,-919.314598
740.290024,-2442.679609,-10288.862594,-766.095498
740.290348,-2664.741391,-10362.883188,-1072.533697
740.290673,-2368.659014,-10584.944971,-842.705048
740.290997,-1776.494261,-10510.924376,-612.876398
740.291321,-962.267725,-10732.986159,-766.095498
740.291645,-962.267725,-11029.068536,-612.876398
740.291969,-222.061783,-10955.047942,0.000000
740.292293,148.041188,-10881.027347,-995.924147
740.292618,666.185348,-10881.027347,-919.314598
740.292942,666.185348,-10881.027347,-459.657299
740.293266,814.226536,-10732.986159,-689.485948
740.293590,1258.350101,-10214.842000,-689.485948
740.293914,1332.370696,-9474.636058,-1225.752797
740.294238,1036.288319,-9400.615463,-1225.752797
740.294563,1110.308913,-9030.512492,-383.047749
740.294887,1110.308913,-8808.450710,-306.438199
740.295211,888.247130,-8364.327145,-229.828649
740.295535,814.226536,-8438.347739,153.219100
740.295859,296.082377,-8512.368333,229.828649
740.296183,0.000000,-8808.450710,229.828649
740.296508,-592.164754,-9474.636058,536.266849
740.296832,-888.247130,-9474.636058,1302.362347
740.297156,-1628.453072,-9918.759623,536.266849
740.297480,-2072.576638,-10066.800811,766.095498
740.297804,-1998.556043,-10140.821405,536.266849
740.298128,-1776.494261,-10288.862594,459.657299
740.298453,-1184.329507,-9770.718434,76.609550
740.298777,-888.247130,-9770.718434,76.609550
740.299101,-370.102971,-9548.656652,-153.219100
740.299425,370.102971,-9844.739029,-229.828649
740.299749,592.164754,-9252.574275,-383.047749
740.300073,814.226536,-9252.574275,-306.438199
740.300397,1406.391290,-9104.533087,-306.438199
740.300722,1776.494261,-8956.491898,0.000000
740.301046,2220.617826,-8956.491898,0.000000
740.301370,1850.514855,-8438.347739,306.438199
740.301694,2294.638420,-9178.553681,383.047749
740.302018,1924.535449,-8882.471304,689.485948
740.302342,1480.411884,-9252.574275,689.485948
740.302667,444.123565,-9104.533087,766.095498
740.302991,-592.164754,-9252.574275,536.266849
740.303315,-1184.329507,-9178.553681,76.609550
740.303639,-1702.473667,-9622.677246,306.438199
740.303963,-2294.638420,-9548.656652,383.047749
740.304287,-2294.638420,-9992.780217,0.000000
740.304612,-2516.700203,-10362.883188,-153.219100
740.304936,-2368.659014,-10584.944971,0.000000
740.305260,-2294.638420,-10881.027347,-153.219100
740.305584,-1628.453072,-11103.089130,0.000000
740.305908,-888.247130,-10807.006753,0.000000
740.306232,0.000000,-11103.089130,0.000000
740.306557,222.061783,-11251.130318,76.609550
740.306881,444.123565,-10955.047942,76.609550
740.307205,148.041188,-10658.965565,0.000000
740.307529,666.185348,-10214.842000,-153.219100
740.307853,740.205942,-9622.677246,-306.438199
740.308177,740.205942,-9400.615463,-536.266849
740.308502,1036.288319,-9104.533087,-612.876398
740.308826,1110.308913,-8882.471304,-689.485948
740.309150,1258.350101,-8734.430116,0.000000
740.309474,888.247130,-8660.409521,0.000000
740.309798,592.164754,-8660.409521,229.828649
740.310122,444.123565,-8808.450710,383.047749
740.310446,-148.041188,-8956.491898,919.314598
740.310771,-814.226536,-9252.574275,612.876398
740.311095,-962.267725,-9918.759623,689.485948
740.311419,-1554.432478,-9696.697840,612.876398
740.311743,-1628.453072,-9844.739029,459.657299
740.312067,-1480.411884,-9992.780217,229.828649
740.312391,-1776.494261,-9992.780217,0.000000
740.312716,-1480.411884,-10066.800811,-153.219100
740.313040,-592.164754,-9844.739029,-689.485948
740.313364,-222.061783,-9770.718434,-536.266849
740.313688,592.164754,-9622.677246,-995.924147
740.314012,666.185348,-9400.615463,-995.924147
740.314336,1406.391290,-9622.677246,-1072.533697
740.314661,1850.514855,-9400.615463,-919.314598
740.314985,2072.576638,-9474.636058,-689.485948
740.315309,2442.679609,-9326.594869,-229.828649
740.315633,2294.638420,-9030.512492,0.000000
740.315957,2072.576638,-8808.450710,-229.828649
740.316281,2146.597232,-9178.553681,76.609550
740.316606,1110.308913,-9326.594869,229.828649
740.316930,444.123565,-9474.636058,229.828649
740.317254,-370.102971,-9326.594869,0.000000
740.317578,-1258.350101,-9326.594869,-383.047749
740.317902,-2072.576638,-9918.759623,-459.657299
740.318226,-2146.597232,-9918.759623,-536.266849
740.318551,-2442.679609,-10066.800811,-842.705048
740.318875,-2368.659014,-10436.903782,-1072.533697
740.319199,-2220.617826,-10807.006753,-995.924147
740.319523,-1776.494261,-11029.068536,-995.924147
740.319847,-888.247130,-11399.171507,-842.705048
740.320171,0.000000,-11473.192101,-842.705048
740.320495,148.041188,-10881.027347,0.000000
740.320820,962.267725,-10658.965565,-229.828649
740.321144,888.247130,-10658.965565,-383.047749
740.321468,888.247130,-10436.903782,-229.828649
740.321792,962.267725,-9770.718434,-383.047749
740.322116,1110.308913,-9548.656652,-459.657299
740.322440,1184.329507,-9474.636058,-459.657299
740.322765,888.247130,-9030.512492,-689.485948
740.323089,444.123565,-8734.430116,-459.657299
740.323413,740.205942,-8512.368333,0.000000
740.323737,296.082377,-8586.388927,612.876398
740.324061,370.102971,-8512.368333,612.876398
740.324385,-148.041188,-8660.409521,536.266849
740.324710,-370.102971,-8956.491898,459.657299
740.325034,-518.144159,-9622.677246,919.314598
740.325358,-1036.288319,-9622.677246,919.314598
740.325682,-1480.411884,-9844.739029,1072.533697
740.326006,-1332.370696,-9770.718434,1149.143247
740.326330,-1554.432478,-10214.842000,689.485948
740.326655,-1332.370696,-10066.800811,459.657299
740.326979,-1258.350101,-9696.697840,459.657299
740.327303,-592.164754,-9770.718434,153.219100
740.327627,0.000000,-9474.636058,-306.438199
740.327951,370.102971,-9252.574275,0.000000
740.328275,814.226536,-9400.615463,76.609550
740.328600,1628.453072,-9400.615463,0.000000
740.328924,1850.514855,-9030.512492,306.438199
740.329248,2442.679609,-8512.368333,612.876398
740.329572,2368.659014,-8660.409521,612.876398
740.329896,2220.617826,-8734.430116,536.266849
740.330220,1776.494261,-9030.512492,766.095498
740.330544,1406.391290,-8660.409521,612.876398
740.330869,740.205942,-8438.347739,536.266849
740.331193,-296.082377,-8956.491898,536.266849
740.331517,-888.247130,-9474.636058,459.657299
740.331841,-1702.473667,-9474.636058,383.047749
740.332165,-2146.597232,-9844.739029,306.438199
740.332489,-2368.659014,-10288.862594,0.000000
740.332814,-2738.761985,-10658.965565,0.000000
740.333138,-2146.597232,-10362.883188,0.000000
740.333462,-2072.576638,-10807.006753,0.000000
740.333786,-1332.370696,-11251.130318,229.828649
740.334110,-1332.370696,-11325.150913,-229.828649
740.334434,-296.082377,-11103.089130,0.000000
740.334759,444.123565,-11029.068536,0.000000
740.335083,666.185348,-10881.027347,-229.828649
740.335407,666.185348,-10658.965565,-459.657299
740.335731,962.267725,-10140.821405,-842.705048
740.336055,740.205942,-9548.656652,-1302.362347
740.336379,1036.288319,-9474.636058,-612.876398
740.336704,814.226536,-8882.471304,-1149.143247
740.337028,1036.288319,-9252.574275,-766.095498
740.337352,1258.350101,-9030.512492,-383.047749
740.337676,1332.370696,-8808.450710,0.000000
740.338000,1110.308913,-9030.512492,842.705048
740.338324,518.144159,-9030.512492,306.438199
740.338649,222.061783,-9400.615463,229.828649
740.338973,-222.061783,-9400.615463,689.485948
740.339297,-814.226536,-9844.739029,842.705048
740.339621,-1406.391290,-9992.780217,612.876398
740.339945,-1776.494261,-10066.800811,306.438199
740.340269,-1924.535449,-9696.697840,76.609550
740.340593,-1850.514855,-9844.739029,0.000000
740.340918,-1776.494261,-10288.862594,-229.828649
740.341242,-1184.329507,-9696.697840,-689.485948
740.341566,-666.185348,-9548.656652,-383.047749
740.341890,148.041188,-9622.677246,-689.485948
740.342214,740.205942,-9474.636058,-766.095498
740.342538,962.267725,-9474.636058,-842.705048
740.342863,1480.411884,-9030.512492,-383.047749
740.343187,2146.597232,-8364.327145,0.000000
740.343511,3034.844362,-8660.409521,0.000000
740.343835,2590.720797,-8734.430116,306.438199
740.344159,2368.659014,-8586.388927,306.438199
740.344483,1850.514855,-8660.409521,229.828649
740.344808,1184.329507,-8882.471304,153.219100
740.345132,222.061783,-8734.430116,0.000000
740.345456,0.000000,-9252.574275,-229.828649
740.345780,-1184.329507,-9178.553681,76.609550
740.346104,-1332.370696,-9770.718434,0.000000
740.346428,-2516.700203,-9918.759623,-995.924147
740.346753,-2812.782580,-10584.944971,-689.485948
740.347077,-2516.700203,-10807.006753,-536.266849
740.347401,-2220.617826,-10732.986159,-229.828649
740.347725,-1776.494261,-11177.109724,-229.828649
740.348049,-1184.329507,-11547.212695,-766.095498
740.348373,-740.205942,-11621.233289,76.609550
740.348698,148.041188,-11177.109724,-612.876398
740.349022,444.123565,-10955.047942,-612.876398
740.349346,962.267725,-11029.068536,-689.485948
740.349670,740.205942,-10436.903782,-689.485948
740.349994,1110.308913,-10214.842000,-766.095498
740.350318,1406.391290,-9992.780217,-919.314598
740.350642,1480.411884,-9474.636058,-689.485948
740.350967,1406.391290,-9326.594869,-1149.143247
740.351291,1036.288319,-9030.512492,-153.219100
740.351615,666.185348,-8808.450710,-306.438199
740.351939,518.144159,-8956.491898,0.000000
740.352263,222.061783,-8882.471304,306.438199
740.352587,296.082377,-9252.574275,842.705048
740.352912,0.000000,-9030.512492,612.876398
740.353236,0.000000,-9696.697840,919.314598
740.353560,-1184.329507,-9770.718434,1072.533697
740.353884,-1702.473667,-10066.800811,612.876398
740.354208,-1628.453072,-9992.780217,842.705048
740.354532,-1480.411884,-9992.780217,612.876398
740.354857,-1702.473667,-9918.759623,0.000000
740.355181,-1332.370696,-9918.759623,-153.219100
740.355505,-888.247130,-9770.718434,229.828649
740.355829,74.020594,-9622.677246,-306.438199
740.356153,518.144159,-9622.677246,-153.219100
740.356477,814.226536,-9326.594869,-153.219100
740.356802,1184.329507,-9252.574275,0.000000
740.357126,1480.411884,-9030.512492,0.000000
740.357450,2072.576638,-8660.409521,76.609550
740.357774,2146.597232,-8438.347739,689.485948
740.358098,2590.720797,-8438.347739,842.705048
740.358422,2294.638420,-8290.306550,919.314598
740.358747,1924.535449,-8364.327145,459.657299
740.359071,592.164754,-8290.306550,689.485948
740.359395,0.000000,-8438.347739,766.095498
740.359719,-666.185348,-8956.491898,459.657299
740.360043,-1184.329507,-9326.594869,153.219100
740.360367,-1850.514855,-9622.677246,0.000000
740.360691,-2368.659014,-10140.821405,0.000000
740.361016,-2368.659014,-10510.924376,-459.657299
740.361340,-2516.700203,-10436.903782,-383.047749
740.361664,-2220.617826,-10807.006753,306.438199
740.361988,-1776.494261,-11325.150913,0.000000
740.362312,-1184.329507,-11399.171507,76.609550
740.362636,-444.123565,-11695.253884,0.000000
740.362961,0.000000,-11621.233289,-153.219100
740.363285,814.226536,-11325.150913,-612.876398
740.363609,1110.308913,-10881.027347,0.000000
740.363933,814.226536,-10510.924376,0.000000
740.364257,814.226536,-10066.800811,-919.314598
740.364581,1036.288319,-9770.718434,-766.095498
740.364906,814.226536,-9178.553681,-995.924147
740.365230,814.226536,-9178.553681,-919.314598
740.365554,1036.288319,-8956.491898,-689.485948
740.365878,740.205942,-8586.388927,-153.219100
740.366202,740.205942,-8068.244768,-153.219100
740.366526,888.247130,-8660.409521,383.047749
740.366851,0.000000,-9178.553681,459.657299
740.367175,-814.226536,-9326.594869,383.047749
740.367499,-888.247130,-9548.656652,536.266849
740.367823,-1110.308913,-10066.800811,536.266849
740.368147,-1110.308913,-10362.883188,306.438199
740.368471,-1184.329507,-10214.842000,919.314598
740.368796,-1628.453072,-9992.780217,153.219100
740.369120,-1332.370696,-9770.718434,0.000000
740.369444,-1258.350101,-10214.842000,-229.828649
740.369768,-740.205942,-10066.800811,-689.485948
740.370092,-444.123565,-9918.759623,-919.314598
740.370416,518.144159,-9252.574275,-766.095498
740.370740,1110.308913,-9030.512492,-766.095498
740.371065,1776.494261,-9178.553681,-995.924147
740.371389,1702.473667,-9104.533087,-459.657299
740.371713,2146.597232,-8882.471304,-306.438199
740.372037,2664.741391,-8586.388927,0.000000
740.372361,2664.741391,-8734.430116,76.609550
740.372685,2368.659014,-8438.347739,0.000000
740.373010,1850.514855,-8734.430116,459.657299
740.373334,1036.288319,-9104.533087,536.266849
740.373658,222.061783,-9104.533087,766.095498
740.373982,-740.205942,-9326.594869,-76.609550
740.374306,-1554.432478,-9696.697840,0.000000
740.374630,-1998.556043,-9992.780217,0.000000
740.374955,-2442.679609,-10140.821405,-459.657299
740.375279,-2738.761985,-10214.842000,-766.095498
740.375603,-2886.803174,-10362.883188,-383.047749
740.375927,-2368.659014,-10732.986159,-229.828649
740.376251,-1998.556043,-10584.944971,-459.657299
740.376575,-1332.370696,-10807.006753,-229.828649
740.376900,-518.144159,-11325.150913,-459.657299
740.377224,148.041188,-11029.068536,-612.876398
740.377548,518.144159,-10807.006753,-536.266849
740.377872,962.267725,-10288.862594,76.609550
740.378196,666.185348,-10288.862594,-383.047749
740.378520,1110.308913,-10140.821405,76.609550
740.378845,1406.391290,-9548.656652,-689.485948
740.379169,1332.370696,-9178.553681,-612.876398
740.379493,1480.411884,-8956.491898,-383.047749
740.379817,1110.308913,-8586.388927,0.000000
740.380141,740.205942,-8512.368333,383.047749
740.380465,1036.288319,-8438.347739,306.438199
740.380789,148.041188,-8364.327145,459.657299
740.381114,0.000000,-8808.450710,153.219100
740.381438,-888.247130,-9252.574275,689.485948
740.381762,-1332.370696,-9548.656652,229.828649
740.382086,-1702.473667,-9770.718434,536.266849
740.382410,-1850.514855,-9992.780217,995.924147
740.382734,-1850.514855,-9992.780217,459.657299
740.383059,-1924.535449,-9992.780217,0.000000
740.383383,-1332.370696,-10066.800811,383.047749
740.383707,-814.226536,-10288.862594,0.000000
740.384031,-592.164754,-9992.780217,-229.828649
740.384355,0.000000,-9844.739029,0.000000
740.384679,740.205942,-9622.677246,-306.438199
740.385004,1332.370696,-9326.594869,-536.266849
740.385328,1480.411884,-9326.594869,-459.657299
740.385652,1480.411884,-8586.388927,459.657299
740.385976,1924.535449,-8734.430116,153.219100
740.386300,2146.597232,-8808.450710,153.219100
740.386624,2368.659014,-8660.409521,459.657299
740.386949,1702.473667,-8734.430116,306.438199
740.387273,1184.329507,-8586.388927,306.438199
740.387597,296.082377,-8734.430116,536.266849
740.387921,-370.102971,-8956.491898,459.657299
740.388245,-962.267725,-9474.636058,0.000000
740.388569,-2072.576638,-9696.697840,536.266849
740.388894,-2072.576638,-10066.800811,229.828649
740.389218,-2294.638420,-10214.842000,229.828649
740.389542,-2294.638420,-10584.944971,0.000000
740.389866,-2368.659014,-10881.027347,0.000000
740.390190,-2146.597232,-10955.047942,0.000000
740.390514,-1628.453072,-11029.068536,76.609550
740.390838,-814.226536,-11103.089130,0.000000
740.391163,-222.061783,-11029.068536,0.000000
740.391487,148.041188,-10955.047942,0.000000
740.391811,592.164754,-10658.965565,-306.438199
740.392135,740.205942,-10288.862594,-459.657299
740.392459,962.267725,-10214.842000,-689.485948
740.392783,1258.350101,-10214.842000,0.000000
740.393107,1110.308913,-9252.574275,-536.266849
740.393432,1110.308913,-8882.471304,-766.095498
740.393756,1110.308913,-8956.491898,-612.876398
740.394080,888.247130,-8956.491898,0.000000
740.394404,1036.288319,-8808.450710,306.438199
740.394728,666.185348,-8808.450710,229.828649
740.395052,518.144159,-9030.512492,612.876398
740.395376,-444.123565,-9326.594869,766.095498
740.395701,-1480.411884,-9400.615463,1072.533697
740.396025,-1850.514855,-9770.718434,612.876398
740.396349,-1628.453072,-10066.800811,689.485948
740.396673,-1702.473667,-9770.718434,306.438199
740.396997,-1554.432478,-9918.759623,229.828649
740.397321,-1036.288319,-10140.821405,383.047749
740.397645,-1184.329507,-9844.739029,76.609550
740.397970,-1184.329507,-9622.677246,-229.828649
740.398294,-518.144159,-9918.759623,-1149.143247
740.398618,-296.082377,-9770.718434,-919.314598
740.398942,444.123565,-9770.718434,-995.924147
740.399266,1480.411884,-9622.677246,-689.485948
740.399590,2220.617826,-9326.594869,0.000000
740.399914,2738.761985,-8586.388927,0.000000
740.400239,3108.864956,-8438.347739,306.438199
740.400563,3330.926739,-8438.347739,612.876398
740.400887,2516.700203,-8586.388927,842.705048
740.401211,1628.453072,-9030.512492,459.657299
740.401535,740.205942,-8956.491898,153.219100
740.401859,0.000000,-8882.471304,536.266849
740.402183,-592.164754,-9400.615463,0.000000
740.402508,-1702.473667,-9252.574275,-383.047749
740.402832,-1628.453072,-10066.800811,0.000000
740.403156,-2368.659014,-10510.924376,-612.876398
740.403480,-2516.700203,-10214.842000,-536.266849
740.403804,-2368.659014,-10807.006753,-306.438199
740.404128,-2294.638420,-10807.006753,-383.047749
740.404452,-1258.350101,-11103.089130,0.000000
740.404777,-740.205942,-11103.089130,-306.438199
740.405101,-370.102971,-10955.047942,306.438199
740.405425,222.061783,-11103.089130,0.000000
740.405749,888.247130,-10881.027347,-383.047749
740.406073,666.185348,-10658.965565,-536.266849
740.406397,814.226536,-10732.986159,-536.266849
740.406721,888.247130,-10066.800811,-766.095498
740.407046,1036.288319,-9178.553681,-536.266849
740.407370,962.267725,-9178.553681,153.219100
740.407694,962.267725,-8808.450710,-229.828649
740.408018,666.185348,-8364.327145,-459.657299
740.408342,592.164754,-8364.327145,0.000000
740.408666,444.123565,-8512.368333,229.828649
740.408990,-296.082377,-8512.368333,153.219100
740.409315,-296.082377,-9178.553681,995.924147
740.409639,-1184.329507,-9326.594869,919.314598
740.409963,-1258.350101,-9770.718434,536.266849
740.410287,-1480.411884,-10140.821405,459.657299
740.410611,-1924.535449,-10066.800811,383.047749
740.410935,-1628.453072,-10214.842000,536.266849
740.411259,-1850.514855,-10362.883188,536.266849
740.411584,-1110.308913,-10584.944971,229.828649
740.411908,-740.205942,-10362.883188,229.828649
740.412232,222.061783,-9622.677246,612.876398
740.412556,296.082377,-9178.553681,0.000000
740.412880,1036.288319,-9178.553681,0.000000
740.413204,1554.432478,-9474.636058,-229.828649
740.413528,1924.535449,-9548.656652,-306.438199
740.413853,2072.576638,-8956.491898,-459.657299
740.414177,1998.556043,-8438.347739,-229.828649
740.414501,2368.659014,-8660.409521,0.000000
740.414825,1924.535449,-8290.306550,-383.047749
740.415149,2072.576638,-8586.388927,229.828649
740.415473,1258.350101,-8660.409521,306.438199
740.415797,1036.288319,-9030.512492,383.047749
740.416122,222.061783,-9178.553681,459.657299
740.416446,-444.123565,-9326.594869,459.657299
740.416770,-1184.329507,-9474.636058,536.266849
740.417094,-1924.535449,-9844.739029,0.000000
740.417418,-2072.576638,-10658.965565,76.609550
740.417742,-2812.782580,-10955.047942,-306.438199
740.418066,-2664.741391,-10807.006753,-229.828649
740.418391,-2294.638420,-11029.068536,-459.657299
740.418715,-2220.617826,-11251.130318,-459.657299
740.419039,-1924.535449,-11029.068536,0.000000
740.419363,-1110.308913,-10510.924376,0.000000
740.419687,0.000000,-10881.027347,76.609550
740.420011,444.123565,-10584.944971,-536.266849
740.420335,962.267725,-10362.883188,-229.828649
740.420660,1036.288319,-10362.883188,-383.047749
740.420984,1184.329507,-9696.697840,-612.876398
740.421308,1332.370696,-9474.636058,-153.219100
740.421632,888.247130,-9104.533087,-536.266849
740.421956,666.185348,-8808.450710,-689.485948
740.422280,888.247130,-8586.388927,153.219100
740.422604,814.226536,-8734.430116,0.000000
740.422929,740.205942,-8734.430116,76.609550
740.423253,370.102971,-8882.471304,383.047749
740.423577,-296.082377,-9252.574275,536.266849
740.423901,-814.226536,-9178.553681,459.657299
740.424225,-1184.329507,-9622.677246,1225.752797
740.424549,-1184.329507,-10288.862594,689.485948
740.424873,-1850.514855,-10066.800811,536.266849
740.425198,-1776.494261,-10362.883188,459.657299
740.425522,-1702.473667,-10214.842000,0.000000
740.425846,-1332.370696,-10288.862594,-459.657299
740.426170,-962.267725,-10214.842000,-612.876398
740.426494,-222.061783,-9992.780217,-459.657299
740.426818,0.000000,-9622.677246,-612.876398
740.427142,1480.411884,-9844.739029,-689.485948
740.427466,1258.350101,-9474.636058,-612.876398
740.427791,1776.494261,-9474.636058,-383.047749
740.428115,2294.638420,-9030.512492,-153.219100
740.428439,2516.700203,-8734.430116,0.000000
740.428763,2442.679609,-8734.430116,153.219100
740.429087,2960.823768,-9326.594869,229.828649
740.429411,1776.494261,-8734.430116,536.266849
740.429735,1332.370696,-9030.512492,536.266849
740.430060,370.102971,-9104.533087,153.219100
740.430384,-592.164754,-9178.553681,153.219100
740.430708,-1480.411884,-9326.594869,0.000000
740.431032,-1850.514855,-9770.718434,-229.828649
740.431356,-2442.679609,-9844.739029,-383.047749
740.431680,-2146.597232,-10658.965565,-1149.143247
740.432004,-1924.535449,-10807.006753,-689.485948
740.432329,-1998.556043,-10584.944971,0.000000
740.432653,-1702.473667,-10658.965565,-306.438199
740.432977,-1036.288319,-11177.109724,-306.438199
740.433301,-370.102971,-11325.150913,0.000000
740.433625,0.000000,-10955.047942,0.000000
740.433949,740.205942,-10436.903782,-459.657299
740.434273,740.205942,-10066.800811,-383.047749
740.434598,1332.370696,-10288.862594,-689.485948
740.434922,740.205942,-9992.780217,-612.876398
740.435246,1110.308913,-9622.677246,-689.485948
740.435570,962.267725,-9178.553681,-612.876398
740.435894,888.247130,-8882.471304,-459.657299
740.436218,888.247130,-8290.306550,0.000000
740.436542,740.205942,-8216.285956,0.000000
740.436867,814.226536,-8586.388927,0.000000
740.437191,74.020594,-8586.388927,0.000000
740.437515,-222.061783,-9030.512492,536.266849
740.437839,-814.226536,-9474.636058,153.219100
740.438163,-1258.350101,-9844.739029,612.876398
740.438487,-1924.535449,-9992.780217,689.485948
740.438811,-2294.638420,-9770.718434,536.266849
740.439136,-1924.535449,-10214.842000,612.876398
740.439460,-1924.535449,-10362.883188,0.000000
740.439784,-1480.411884,-10436.903782,0.000000
740.440108,-1184.329507,-10140.821405,0.000000
740.440432,-518.144159,-9992.780217,-229.828649
740.440756,148.041188,-9992.780217,-229.828649
740.441080,740.205942,-9622.677246,-766.095498
740.441405,888.247130,-9104.533087,-766.095498
740.441729,1406.391290,-9622.677246,-842.705048
740.442053,1850.514855,-9178.553681,-459.657299
740.442377,2072.576638,-8956.491898,-306.438199
740.442701,2516.700203,-8808.450710,76.609550
740.443025,2516.700203,-8734.430116,76.609550
740.443349,2442.679609,-8734.430116,842.705048
740.443674,2072.576638,-9104.533087,1149.143247
740.443998,1036.288319,-8438.347739,995.924147
740.444322,444.123565,-8512.368333,536.266849
740.444646,-740.205942,-9178.553681,459.657299
740.444970,-1036.288319,-9844.739029,0.000000
740.445294,-1850.514855,-9844.739029,0.000000
740.445618,-2516.700203,-9992.780217,0.000000
740.445943,-2590.720797,-9918.759623,-459.657299
740.446267,-2516.700203,-10584.944971,-306.438199
740.446591,-2294.638420,-10658.965565,76.609550
740.446915,-1184.329507,-11251.130318,229.828649
740.447239,-1036.288319,-11029.068536,0.000000
740.447563,-296.082377,-11103.089130,229.828649
740.447887,0.000000,-10807.006753,229.828649
740.448212,444.123565,-10362.883188,0.000000
740.448536,1110.308913,-10288.862594,0.000000
740.448860,1332.370696,-10436.903782,-306.438199
740.449184,1110.308913,-9474.636058,-766.095498
740.449508,962.267725,-9474.636058,-536.266849
740.449832,888.247130,-9400.615463,-689.485948
740.450156,1036.288319,-8734.430116,-612.876398
740.450481,888.247130,-8364.327145,-383.047749
740.450805,592.164754,-8438.347739,-689.485948
740.451129,740.205942,-8438.347739,306.438199
740.451453,370.102971,-8364.327145,306.438199
740.451777,0.000000,-8956.491898,459.657299
740.452101,-592.164754,-9474.636058,689.485948
740.452425,-1332.370696,-9918.759623,842.705048
740.452750,-1702.473667,-10510.924376,766.095498
740.453074,-1554.432478,-10658.965565,689.485948
740.453398,-2294.638420,-9992.780217,689.485948
740.453722,-1702.473667,-10288.862594,153.219100
740.454046,-1480.411884,-10362.883188,0.000000
740.454370,-1332.370696,-10214.842000,-229.828649
740.454694,-518.144159,-10066.800811,-612.876398
740.455019,0.000000,-9844.739029,-689.485948
740.455343,740.205942,-9474.636058,-919.314598
740.455667,1184.329507,-9030.512492,-689.485948
740.455991,2146.597232,-9622.677246,-766.095498
740.456315,1628.453072,-8586.388927,-612.876398
740.456639,2664.741391,-8734.430116,383.047749
740.456963,2886.803174,-8734.430116,153.219100
740.457288,2664.741391,-8956.491898,229.828649
740.457612,1924.535449,-8660.409521,612.876398
740.457936,740.205942,-8808.450710,689.485948
740.458260,740.205942,-8882.471304,766.095498
740.458584,-296.082377,-8956.491898,76.609550
740.458908,-1110.308913,-9030.512492,383.047749
740.459232,-1702.473667,-9474.636058,-229.828649
740.459557,-2294.638420,-9770.718434,-383.047749
740.459881,-2368.659014,-9918.759623,-766.095498
740.460205,-2368.659014,-10214.842000,-842.705048
740.460529,-2294.638420,-10658.965565,-612.876398
740.460853,-2146.597232,-11251.130318,-383.047749
740.461177,-1110.308913,-11177.109724,0.000000
740.461501,-296.082377,-11621.233289,-383.047749
740.461826,0.000000,-11621.233289,-459.657299
740.462150,370.102971,-11325.150913,-459.657299
740.462474,814.226536,-10881.027347,-153.219100
740.462798,962.267725,-10510.924376,0.000000
740.463122,1258.350101,-9770.718434,-766.095498
740.463446,1332.370696,-9696.697840,-612.876398
740.463770,740.205942,-9178.553681,-689.485948
740.464095,888.247130,-9326.594869,-995.924147
740.464419,962.267725,-8882.471304,-689.485948
740.464743,740.205942,-8808.450710,-459.657299
740.465067,296.082377,-8734.430116,0.000000
740.465391,444.123565,-8438.347739,76.609550
740.465715,0.000000,-9030.512492,0.000000
740.466039,-148.041188,-9474.636058,0.000000
740.466364,-1036.288319,-9474.636058,689.485948
740.466688,-1258.350101,-9992.780217,612.876398
740.467012,-1406.391290,-10214.842000,612.876398
740.467336,-1850.514855,-10214.842000,612.876398
740.467660,-1924.535449,-10362.883188,536.266849
740.467984,-1406.391290,-10140.821405,229.828649
740.468308,-1258.350101,-10066.800811,153.219100
740.468633,-740.205942,-9622.677246,-689.485948
740.468957,-148.041188,-10214.842000,-536.266849
740.469281,370.102971,-9770.718434,-383.047749
740.469605,962.267725,-9474.636058,0.000000
740.469929,1406.391290,-9030.512492,-459.657299
740.470253,2072.576638,-8956.491898,-689.485948
740.470577,2516.700203,-8586.388927,689.485948
740.470902,2812.782580,-9252.574275,76.609550
740.471226,2368.659014,-8290.306550,383.047749
740.471550,2220.617826,-8216.285956,612.876398
740.471874,1850.514855,-8438.347739,995.924147
740.472198,814.226536,-8364.327145,842.705048
740.472522,296.082377,-8808.450710,612.876398
740.472846,-592.164754,-8586.388927,536.266849
740.473171,-962.267725,-9474.636058,919.314598
