#time,accel_x,accel_y,accel_z
595.325887,0.000000,-9844.739029,76.609550
595.326211,148.041188,-9770.718434,0.000000
595.326535,74.020594,-9548.656652,76.609550
595.326860,0.000000,-9474.636058,153.219100
595.327184,-370.102971,-9400.615463,383.047749
595.327508,-222.061783,-9696.697840,-229.828649
595.327832,-222.061783,-9474.636058,0.000000
595.328157,-296.082377,-10066.800811,0.000000
595.328481,-518.144159,-9844.739029,0.000000
595.328805,-592.164754,-9548.656652,0.000000
595.329129,-518.144159,-9474.636058,0.000000
595.329454,-148.041188,-9622.677246,-153.219100
595.329778,-444.123565,-9474.636058,0.000000
595.330102,-148.041188,-9918.759623,-383.047749
595.330426,74.020594,-9548.656652,306.438199
595.330751,0.000000,-9696.697840,229.828649
595.331075,-222.061783,-9548.656652,0.000000
595.331399,-296.082377,-9474.636058,0.000000
595.331724,-370.102971,-9474.636058,153.219100
595.332048,0.000000,-9918.759623,0.000000
595.332372,-370.102971,-9474.636058,0.000000
595.332696,0.000000,-9622.677246,306.438199
595.333021,-222.061783,-9770.718434,0.000000
595.333345,222.061783,-9622.677246,0.000000
595.333669,444.123565,-9696.697840,0.000000
595.333993,888.247130,-9844.739029,306.438199
595.334318,962.267725,-9918.759623,306.438199
595.334642,592.164754,-9844.739029,459.657299
595.334966,-148.041188,-9770.718434,153.219100
595.335290,-740.205942,-9770.718434,-229.828649
595.335615,-1480.411884,-9252.574275,-306.438199
595.335939,-962.267725,-9400.615463,153.219100
595.336263,222.061783,-9770.718434,536.266849
595.336588,1036.288319,-9844.739029,689.485948
595.336912,1554.432478,-9474.636058,306.438199
595.337236,1184.329507,-8734.430116,612.876398
595.337560,1554.432478,-9474.636058,153.219100
595.337885,1184.329507,-9622.677246,459.657299
595.338209,666.185348,-9474.636058,0.000000
595.338533,0.000000,-10140.821405,0.000000
595.338857,-592.164754,-10066.800811,0.000000
595.339182,-666.185348,-9992.780217,0.000000
595.339506,0.000000,-9992.780217,459.657299
595.339830,1036.288319,-10362.883188,842.705048
595.340154,1998.556043,-9622.677246,1838.629195
595.340479,2812.782580,-9474.636058,1532.190996
595.340803,2886.803174,-9918.759623,1532.190996
595.341127,2294.638420,-9474.636058,1149.143247
595.341452,1924.535449,-9252.574275,153.219100
595.341776,1036.288319,-9548.656652,-76.609550
595.342100,296.082377,-9844.739029,-459.657299
595.342424,-222.061783,-9770.718434,-306.438199
595.342749,-222.061783,-9696.697840,229.828649
595.343073,444.123565,-9548.656652,612.876398
595.343397,1702.473667,-9918.759623,1455.581446
595.343721,3034.844362,-9622.677246,1915.238745
595.344046,3923.091493,-9474.636058,2681.334243
595.344370,4737.318029,-9844.739029,3140.991542
595.344694,4515.256246,-10066.800811,3064.381992
595.345018,3923.091493,-10362.883188,2681.334243
595.345343,2960.823768,-10140.821405,1762.019645
595.345667,2146.597232,-10140.821405,1838.629195
595.345991,962.267725,-10510.924376,1149.143247
595.346316,444.123565,-10658.965565,1149.143247
595.346640,592.164754,-9992.780217,1762.019645
595.346964,2072.576638,-9622.677246,2451.505594
595.347288,3923.091493,-9548.656652,3447.429741
595.347613,4737.318029,-9178.553681,4366.744339
595.347937,4737.318029,-9400.615463,4826.401637
595.348261,4293.194464,-9696.697840,4749.792088
595.348585,3256.906145,-10066.800811,4826.401637
595.348910,1406.391290,-9548.656652,4136.915689
595.349234,-148.041188,-9252.574275,3447.429741
595.349558,-1406.391290,-8586.388927,2681.334243
595.349882,-1702.473667,-8512.368333,2374.896044
595.350207,-1332.370696,-7624.121203,2145.067394
595.350531,0.000000,-7031.956449,2528.115143
595.350855,814.226536,-6883.915261,2911.162892
595.351180,1924.535449,-6809.894666,2987.772442
595.351504,2960.823768,-6661.853478,3677.258390
595.351828,4293.194464,-7624.121203,4060.306139
595.352152,4589.276840,-9178.553681,4443.353888
595.352477,5181.441594,-10140.821405,4749.792088
595.352801,4663.297435,-10955.047942,4673.182538
595.353125,3182.885551,-11917.315666,4443.353888
595.353449,148.041188,-11917.315666,2604.724693
595.353774,-1554.432478,-12287.418637,2068.457845
595.354098,-2220.617826,-11695.253884,1608.800546
595.354422,-1332.370696,-10362.883188,1302.362347
595.354746,518.144159,-8956.491898,1455.581446
595.355071,2738.761985,-7476.080014,2145.067394
595.355395,4293.194464,-7402.059420,1915.238745
595.355719,5403.503377,-7105.977043,1991.848295
595.356044,5699.585753,-7920.203579,1685.410096
595.356368,4737.318029,-9326.594869,2221.676944
595.356692,3034.844362,-11251.130318,2451.505594
595.357016,1110.308913,-12065.356855,2145.067394
595.357341,-666.185348,-11991.336260,1838.629195
595.357665,-1702.473667,-11029.068536,1225.752797
595.357989,-1184.329507,-10807.006753,766.095498
595.358313,296.082377,-10436.903782,919.314598
595.358638,1480.411884,-9548.656652,766.095498
595.358962,2516.700203,-9030.512492,842.705048
595.359286,3330.926739,-8586.388927,612.876398
595.359610,3108.864956,-8512.368333,76.609550
595.359935,3256.906145,-8364.327145,0.000000
595.360259,2738.761985,-8660.409521,536.266849
595.360583,3849.070898,-9474.636058,919.314598
595.360908,5181.441594,-10955.047942,1762.019645
595.361232,6069.688724,-11917.315666,2068.457845
595.361556,5329.482782,-12435.459826,1838.629195
595.361880,3108.864956,-12435.459826,1378.971896
595.362205,518.144159,-11991.336260,842.705048
595.362529,-2368.659014,-10584.944971,383.047749
595.362853,-2960.823768,-9770.718434,459.657299
595.363177,-1628.453072,-9252.574275,1378.971896
595.363502,444.123565,-8216.285956,1455.581446
595.363826,1628.453072,-7254.018232,995.924147
595.364150,1924.535449,-6587.832884,383.047749
595.364474,1702.473667,-6365.771101,229.828649
595.364799,1776.494261,-6661.853478,0.000000
595.365123,2516.700203,-7994.224174,383.047749
595.365447,3701.029710,-9474.636058,1991.848295
595.365772,4589.276840,-11177.109724,2451.505594
595.366096,3997.112087,-11547.212695,2221.676944
595.366420,2368.659014,-10658.965565,1762.019645
595.366744,1406.391290,-10362.883188,1762.019645
595.367069,1480.411884,-10288.862594,2298.286494
595.367393,1480.411884,-10955.047942,2911.162892
595.367717,1036.288319,-10955.047942,2681.334243
595.368041,74.020594,-10214.842000,2145.067394
595.368366,740.205942,-8586.388927,1532.190996
595.368690,2960.823768,-7254.018232,1072.533697
595.369014,5181.441594,-7698.141797,1838.629195
595.369338,5329.482782,-9326.594869,2911.162892
595.369663,3478.967927,-9696.697840,1838.629195
595.369987,74.020594,-9252.574275,1608.800546
595.370311,-740.205942,-9474.636058,1455.581446
595.370636,444.123565,-10881.027347,2145.067394
595.370960,2368.659014,-11621.233289,2757.943793
595.371284,3108.864956,-10955.047942,2911.162892
595.371608,2960.823768,-9696.697840,3370.820191
595.371933,2812.782580,-9622.677246,3983.696590
595.372257,3330.926739,-10732.986159,4213.525239
595.372581,2368.659014,-10881.027347,3677.258390
595.372905,370.102971,-9770.718434,3370.820191
595.373230,-518.144159,-8808.450710,2221.676944
595.373554,444.123565,-8660.409521,1608.800546
595.373878,2294.638420,-9474.636058,1915.238745
595.374202,2960.823768,-9622.677246,2374.896044
595.374527,3182.885551,-8512.368333,1838.629195
595.374851,2664.741391,-7698.141797,2604.724693
595.375175,3404.947333,-8808.450710,2681.334243
595.375500,3552.988522,-10362.883188,3217.601092
595.375824,2442.679609,-10510.924376,2681.334243
595.376148,1332.370696,-9474.636058,3370.820191
595.376472,1184.329507,-9400.615463,3294.210641
595.376797,2072.576638,-9918.759623,3830.477490
595.377121,3256.906145,-10140.821405,4826.401637
595.377445,3923.091493,-9030.512492,4519.963438
595.377769,3404.947333,-8660.409521,3600.648841
595.378094,1924.535449,-9030.512492,2528.115143
595.378418,222.061783,-8882.471304,1149.143247
595.378742,-444.123565,-8290.306550,842.705048
595.379066,592.164754,-7476.080014,995.924147
595.379391,2220.617826,-7550.100608,1149.143247
595.379715,3404.947333,-8882.471304,1838.629195
595.380039,4071.132681,-10140.821405,1991.848295
595.380364,5033.400406,-9918.759623,2757.943793
595.380688,4219.173869,-9252.574275,2834.553343
595.381012,1628.453072,-10066.800811,2757.943793
595.381336,888.247130,-11843.295072,3524.039291
595.381661,1998.556043,-11695.253884,4136.915689
595.381985,3182.885551,-9844.739029,3907.087040
595.382309,2368.659014,-9326.594869,3217.601092
595.382633,592.164754,-10288.862594,2298.286494
595.382958,148.041188,-10584.944971,1838.629195
595.383282,74.020594,-8660.409521,689.485948
595.383606,-1258.350101,-6957.935855,-229.828649
595.383930,-2220.617826,-7328.038826,-459.657299
595.384255,0.000000,-7698.141797,0.000000
595.384579,3256.906145,-8068.244768,1149.143247
595.384903,6069.688724,-8808.450710,2681.334243
595.385228,6735.874072,-9696.697840,2987.772442
595.385552,5847.626942,-10510.924376,2528.115143
595.385876,4367.215058,-10214.842000,3140.991542
595.386200,3256.906145,-9474.636058,2987.772442
595.386525,2294.638420,-11621.233289,2451.505594
595.386849,-518.144159,-14952.160028,2068.457845
595.387173,-2072.576638,-14211.954086,1532.190996
595.387497,-1554.432478,-10732.986159,383.047749
595.387821,-962.267725,-10584.944971,-229.828649
595.388145,-1184.329507,-11177.109724,-1532.190996
595.388469,0.000000,-9326.594869,-1608.800546
595.388793,1850.514855,-7772.162391,-1149.143247
595.389117,2738.761985,-9326.594869,76.609550
595.389441,3627.009116,-9622.677246,229.828649
595.389766,4515.256246,-8512.368333,1532.190996
595.390090,5033.400406,-9104.533087,2298.286494
595.390414,5403.503377,-9548.656652,2298.286494
595.390738,4811.338623,-9252.574275,1762.019645
595.391062,2146.597232,-9770.718434,2604.724693
595.391386,0.000000,-10955.047942,2834.553343
595.391710,-666.185348,-10584.944971,1608.800546
595.392034,-1924.535449,-9252.574275,919.314598
595.392358,-2960.823768,-9474.636058,536.266849
595.392683,-2442.679609,-9252.574275,-1455.581446
595.393007,-814.226536,-7994.224174,-2068.457845
595.393331,-222.061783,-6513.812290,-1838.629195
595.393655,222.061783,-7105.977043,-1915.238745
595.393979,2072.576638,-8882.471304,-689.485948
595.394303,5329.482782,-9474.636058,1838.629195
595.394627,8142.265362,-9104.533087,2911.162892
595.394951,7698.141797,-10436.903782,2834.553343
595.395275,4737.318029,-11621.233289,2451.505594
595.395600,1924.535449,-11251.130318,1915.238745
595.395924,74.020594,-10436.903782,1991.848295
595.396248,-1332.370696,-11399.171507,2298.286494
595.396572,-2368.659014,-11621.233289,1378.971896
595.396896,-2886.803174,-10881.027347,1302.362347
595.397220,-3330.926739,-8660.409521,0.000000
595.397544,-2664.741391,-7402.059420,-919.314598
595.397868,-1406.391290,-8068.244768,-1378.971896
595.398193,-444.123565,-9474.636058,-842.705048
595.398517,740.205942,-9474.636058,459.657299
595.398841,1406.391290,-8808.450710,536.266849
595.399165,1406.391290,-9400.615463,1149.143247
595.399489,1258.350101,-8882.471304,0.000000
595.399813,1628.453072,-9548.656652,229.828649
595.400137,1702.473667,-9918.759623,995.924147
595.400461,1406.391290,-9844.739029,1762.019645
595.400785,518.144159,-10510.924376,2451.505594
595.401110,0.000000,-9918.759623,3294.210641
595.401434,592.164754,-8734.430116,2911.162892
595.401758,0.000000,-8734.430116,1991.848295
595.402082,-1036.288319,-8956.491898,1608.800546
595.402406,-1332.370696,-10140.821405,1378.971896
595.402730,-888.247130,-10214.842000,995.924147
595.403054,-518.144159,-8956.491898,306.438199
595.403378,-1850.514855,-9622.677246,0.000000
595.403702,-2738.761985,-10584.944971,-2145.067394
595.404027,-2368.659014,-10066.800811,-2221.676944
595.404351,-1776.494261,-9918.759623,-1608.800546
595.404675,-1110.308913,-9918.759623,-766.095498
595.404999,518.144159,-10732.986159,689.485948
595.405323,2664.741391,-10955.047942,1762.019645
595.405647,4367.215058,-9548.656652,2451.505594
595.405971,4145.153275,-9622.677246,2681.334243
595.406295,3552.988522,-9030.512492,2911.162892
595.406619,2960.823768,-8734.430116,2451.505594
595.406944,1924.535449,-9252.574275,1532.190996
595.407268,1036.288319,-9030.512492,689.485948
595.407592,-222.061783,-8734.430116,-842.705048
595.407916,-2146.597232,-9326.594869,-1838.629195
595.408240,-1702.473667,-8882.471304,-1838.629195
595.408564,-1998.556043,-8956.491898,-2757.943793
595.408888,-3034.844362,-9474.636058,-3294.210641
595.409212,-4293.194464,-9400.615463,-2834.553343
595.409536,-3997.112087,-10584.944971,-2068.457845
595.409861,-1480.411884,-10881.027347,-766.095498
595.410185,888.247130,-10658.965565,76.609550
595.410509,2812.782580,-10584.944971,1838.629195
595.410833,3849.070898,-10658.965565,1685.410096
595.411157,3849.070898,-10881.027347,919.314598
595.411481,2886.803174,-9696.697840,842.705048
595.411805,2146.597232,-9326.594869,689.485948
595.412129,962.267725,-10436.903782,-306.438199
595.412454,-370.102971,-10510.924376,-842.705048
595.412778,-1924.535449,-10066.800811,-1072.533697
595.413102,-2664.741391,-9252.574275,-2681.334243
595.413426,-2294.638420,-8512.368333,-1991.848295
595.413750,-1998.556043,-9400.615463,-2834.553343
595.414074,-1184.329507,-9622.677246,-1762.019645
595.414398,-518.144159,-9030.512492,-1149.143247
595.414722,-296.082377,-9030.512492,-153.219100
595.415046,444.123565,-8290.306550,0.000000
595.415371,1776.494261,-9104.533087,0.000000
595.415695,2590.720797,-9696.697840,536.266849
595.416019,2516.700203,-9252.574275,0.000000
595.416343,1702.473667,-9918.759623,612.876398
595.416667,0.000000,-9844.739029,-153.219100
595.416991,-740.205942,-9696.697840,0.000000
595.417315,-1258.350101,-11325.150913,306.438199
595.417639,-1110.308913,-10881.027347,0.000000
595.417963,-1628.453072,-9918.759623,-536.266849
595.418288,-2442.679609,-9622.677246,-306.438199
595.418612,-2072.576638,-9622.677246,-306.438199
595.418936,-1110.308913,-9474.636058,-459.657299
595.419260,-1406.391290,-9030.512492,0.000000
595.419584,-1850.514855,-9030.512492,0.000000
595.419908,-2516.700203,-9548.656652,-1378.971896
595.420232,-2368.659014,-7994.224174,-919.314598
595.420556,-1184.329507,-7846.182985,0.000000
595.420880,222.061783,-9400.615463,-306.438199
595.421205,740.205942,-9696.697840,153.219100
595.421529,1702.473667,-9400.615463,689.485948
595.421853,2812.782580,-8438.347739,842.705048
595.422177,3701.029710,-9104.533087,766.095498
595.422501,2886.803174,-10510.924376,919.314598
595.422825,1628.453072,-10584.944971,612.876398
595.423149,0.000000,-10362.883188,306.438199
595.423473,-962.267725,-10362.883188,-459.657299
595.423797,-1702.473667,-9770.718434,-383.047749
595.424122,-2146.597232,-10807.006753,-536.266849
595.424446,-2886.803174,-10214.842000,-1225.752797
595.424770,-2812.782580,-9474.636058,-1378.971896
595.425094,-2738.761985,-9400.615463,-1532.190996
595.425418,-1406.391290,-9548.656652,-1072.533697
595.425742,296.082377,-10214.842000,-153.219100
595.426066,1480.411884,-10362.883188,306.438199
595.426390,1554.432478,-9400.615463,689.485948
595.426715,1184.329507,-10362.883188,689.485948
595.427039,1184.329507,-9770.718434,153.219100
595.427363,1628.453072,-9918.759623,306.438199
595.427687,1628.453072,-10362.883188,536.266849
595.428011,888.247130,-9992.780217,229.828649
595.428335,74.020594,-9252.574275,0.000000
595.428659,148.041188,-8808.450710,-383.047749
595.428983,1332.370696,-8808.450710,766.095498
595.429307,1406.391290,-9696.697840,0.000000
595.429632,444.123565,-9104.533087,-919.314598
595.429956,-1258.350101,-8364.327145,-612.876398
595.430280,-1184.329507,-9252.574275,-306.438199
595.430604,148.041188,-9770.718434,0.000000
595.430928,2146.597232,-10510.924376,1149.143247
595.431252,1628.453072,-10436.903782,1378.971896
595.431576,1850.514855,-10140.821405,1378.971896
595.431900,888.247130,-10436.903782,0.000000
595.432224,592.164754,-10288.862594,383.047749
595.432549,296.082377,-10362.883188,1302.362347
595.432873,74.020594,-10658.965565,766.095498
595.433197,-666.185348,-9548.656652,459.657299
595.433521,-1924.535449,-9252.574275,536.266849
595.433845,-2516.700203,-9326.594869,0.000000
595.434169,-888.247130,-8956.491898,229.828649
595.434493,-296.082377,-9548.656652,612.876398
595.434817,0.000000,-9252.574275,229.828649
595.435141,-962.267725,-8364.327145,76.609550
595.435466,-1702.473667,-8142.265362,306.438199
595.435790,-888.247130,-8660.409521,536.266849
595.436114,-148.041188,-9326.594869,842.705048
595.436438,-296.082377,-8956.491898,459.657299
595.436762,0.000000,-7772.162391,0.000000
595.437086,296.082377,-8364.327145,459.657299
595.437410,1406.391290,-9104.533087,459.657299
595.437734,2220.617826,-9548.656652,1225.752797
595.438059,962.267725,-10510.924376,1302.362347
595.438383,-1036.288319,-9622.677246,153.219100
595.438707,-2072.576638,-9400.615463,-153.219100
595.439031,-1258.350101,-9992.780217,0.000000
595.439355,-814.226536,-9770.718434,-995.924147
595.439679,-962.267725,-10214.842000,-842.705048
595.440003,-1184.329507,-9844.739029,-1225.752797
595.440327,-444.123565,-9770.718434,-612.876398
595.440651,296.082377,-10881.027347,-919.314598
595.440976,888.247130,-9400.615463,-1302.362347
595.441300,1036.288319,-10510.924376,-459.657299
595.441624,518.144159,-11103.089130,-1149.143247
595.441948,444.123565,-10658.965565,-1149.143247
595.442272,296.082377,-10288.862594,-1149.143247
595.442596,444.123565,-10288.862594,-1225.752797
595.442920,1036.288319,-10214.842000,-766.095498
595.443244,740.205942,-11177.109724,-766.095498
595.443568,148.041188,-11177.109724,0.000000
595.443893,-1332.370696,-11029.068536,-1072.533697
595.444217,-2146.597232,-9252.574275,-2221.676944
595.444541,-1776.494261,-8956.491898,-1455.581446
595.444865,-592.164754,-10955.047942,-919.314598
595.445189,370.102971,-10807.006753,-459.657299
595.445513,814.226536,-9770.718434,0.000000
595.445837,74.020594,-9400.615463,-1149.143247
595.446161,444.123565,-9474.636058,-1225.752797
595.446485,1184.329507,-10584.944971,-153.219100
595.446810,1036.288319,-11547.212695,0.000000
595.447134,222.061783,-9474.636058,-306.438199
595.447458,-518.144159,-8882.471304,-459.657299
595.447782,296.082377,-8956.491898,-612.876398
595.448106,1776.494261,-9992.780217,0.000000
595.448430,1998.556043,-10140.821405,612.876398
595.448754,1332.370696,-9326.594869,612.876398
595.449078,0.000000,-9030.512492,-153.219100
595.449402,-518.144159,-8808.450710,76.609550
595.449727,-148.041188,-8734.430116,612.876398
595.450051,74.020594,-9326.594869,229.828649
595.450375,0.000000,-9326.594869,-459.657299
595.450699,-518.144159,-9030.512492,-612.876398
595.451023,-370.102971,-9548.656652,0.000000
595.451347,296.082377,-8216.285956,612.876398
595.451671,888.247130,-8734.430116,842.705048
595.451995,296.082377,-9252.574275,612.876398
595.452320,-962.267725,-9474.636058,766.095498
595.452644,-2738.761985,-9992.780217,1455.581446
595.452968,-1480.411884,-8512.368333,842.705048
595.453292,-592.164754,-8216.285956,766.095498
595.453616,-370.102971,-9474.636058,1072.533697
595.453940,-888.247130,-9770.718434,536.266849
595.454264,-1184.329507,-9770.718434,1532.190996
595.454588,0.000000,-8956.491898,842.705048
595.454912,1036.288319,-8290.306550,383.047749
595.455237,888.247130,-9252.574275,76.609550
595.455561,666.185348,-9622.677246,306.438199
595.455885,370.102971,-9326.594869,0.000000
595.456209,-222.061783,-9918.759623,-229.828649
595.456533,-666.185348,-8956.491898,-612.876398
595.456857,-296.082377,-10362.883188,459.657299
595.457181,740.205942,-12287.418637,919.314598
595.457505,1406.391290,-11473.192101,76.609550
595.457829,0.000000,-10732.986159,689.485948
595.458154,-962.267725,-10066.800811,-229.828649
595.458478,-222.061783,-10288.862594,-689.485948
595.458802,148.041188,-11621.233289,0.000000
595.459126,-148.041188,-10658.965565,229.828649
595.459450,-1628.453072,-10140.821405,-229.828649
595.459774,-2220.617826,-10066.800811,-1378.971896
595.460098,-962.267725,-9844.739029,-995.924147
595.460422,0.000000,-10066.800811,-306.438199
595.460746,-370.102971,-10510.924376,-995.924147
595.461071,-1480.411884,-9178.553681,-689.485948
595.461395,-1332.370696,-9104.533087,-842.705048
595.461719,-296.082377,-8660.409521,-612.876398
595.462043,444.123565,-9400.615463,0.000000
595.462367,1776.494261,-9252.574275,153.219100
595.462691,1776.494261,-7698.141797,0.000000
595.463015,1776.494261,-8142.265362,459.657299
595.463339,2220.617826,-9252.574275,995.924147
595.463664,3034.844362,-10140.821405,766.095498
595.463988,1554.432478,-9474.636058,-153.219100
595.464312,-740.205942,-9030.512492,-1608.800546
595.464636,-1998.556043,-9844.739029,-1685.410096
595.464960,-814.226536,-9770.718434,-1608.800546
595.465284,592.164754,-9844.739029,-383.047749
595.465608,592.164754,-10214.842000,-612.876398
595.465932,370.102971,-9252.574275,-1455.581446
595.466256,222.061783,-9844.739029,-2145.067394
595.466581,-148.041188,-10288.862594,-1991.848295
595.466905,444.123565,-10288.862594,-1455.581446
595.467229,962.267725,-11029.068536,-153.219100
595.467553,740.205942,-11695.253884,842.705048
595.467877,444.123565,-10807.006753,842.705048
595.468201,222.061783,-10140.821405,766.095498
595.468525,222.061783,-9030.512492,229.828649
595.468849,74.020594,-9918.759623,153.219100
595.469173,296.082377,-10066.800811,536.266849
595.469498,-148.041188,-9474.636058,-229.828649
595.469822,-962.267725,-7846.182985,-995.924147
595.470146,-1628.453072,-6809.894666,-1915.238745
595.470470,-1924.535449,-7920.203579,-1302.362347
595.470794,-1480.411884,-9548.656652,-459.657299
595.471118,-888.247130,-9548.656652,536.266849
595.471442,-1406.391290,-8734.430116,1072.533697
595.471766,-296.082377,-8290.306550,1149.143247
595.472090,1110.308913,-8734.430116,459.657299
595.472415,1110.308913,-9992.780217,919.314598
595.472739,666.185348,-10510.924376,1685.410096
595.473063,592.164754,-10955.047942,1762.019645
595.473387,74.020594,-12139.377449,1455.581446
595.473711,-592.164754,-10140.821405,1762.019645
595.474035,-1036.288319,-8438.347739,-536.266849
595.474359,-2368.659014,-8956.491898,-2374.896044
595.474683,-4441.235652,-10881.027347,-2298.286494
595.475007,-3775.050304,-11695.253884,-1915.238745
595.475332,-1332.370696,-10584.944971,-995.924147
595.475656,0.000000,-10510.924376,459.657299
595.475980,0.000000,-10214.842000,-536.266849
595.476304,666.185348,-9178.553681,-1149.143247
595.476628,296.082377,-9844.739029,-689.485948
595.476952,1332.370696,-11029.068536,0.000000
595.477276,3108.864956,-10955.047942,766.095498
595.477600,3108.864956,-10955.047942,1838.629195
595.477925,2960.823768,-10436.903782,1149.143247
595.478249,2812.782580,-10436.903782,229.828649
595.478573,1258.350101,-11103.089130,-536.266849
595.478897,222.061783,-10066.800811,-229.828649
595.479221,0.000000,-10510.924376,459.657299
595.479545,148.041188,-9770.718434,306.438199
595.479869,148.041188,-8808.450710,153.219100
595.480193,-666.185348,-8586.388927,-995.924147
595.480517,-296.082377,-7994.224174,-1378.971896
595.480842,444.123565,-8512.368333,-842.705048
595.481166,148.041188,-8660.409521,-842.705048
595.481490,-592.164754,-7994.224174,-842.705048
595.481814,-1850.514855,-8882.471304,229.828649
595.482138,-962.267725,-9178.553681,0.000000
595.482462,666.185348,-9474.636058,-153.219100
595.482786,1258.350101,-9326.594869,612.876398
595.483110,1924.535449,-8216.285956,1149.143247
595.483434,2294.638420,-8734.430116,766.095498
595.483759,2220.617826,-8734.430116,919.314598
595.484083,2072.576638,-8216.285956,919.314598
595.484407,2664.741391,-9992.780217,766.095498
595.484731,2220.617826,-10955.047942,306.438199
595.485055,888.247130,-9474.636058,0.000000
595.485379,-740.205942,-9104.533087,153.219100
595.485703,-2442.679609,-8882.471304,-766.095498
595.486027,-2590.720797,-9030.512492,-689.485948
595.486351,-2072.576638,-9474.636058,-995.924147
595.486676,-2220.617826,-9178.553681,-229.828649
595.487000,-1776.494261,-9400.615463,76.609550
595.487324,-1110.308913,-8956.491898,76.609550
595.487648,-666.185348,-8956.491898,612.876398
595.487972,-962.267725,-9474.636058,383.047749
595.488296,-1628.453072,-9400.615463,306.438199
595.488621,-2886.803174,-10214.842000,0.000000
595.488945,-3849.070898,-9770.718434,153.219100
595.489269,-2368.659014,-9622.677246,0.000000
595.489593,-814.226536,-9770.718434,-229.828649
595.489917,148.041188,-10214.842000,-842.705048
595.490241,0.000000,-10436.903782,-536.266849
595.490566,296.082377,-11251.130318,-995.924147
595.490890,592.164754,-10288.862594,-1302.362347
595.491214,1554.432478,-10658.965565,-689.485948
595.491538,1480.411884,-11399.171507,-153.219100
595.491862,1628.453072,-10955.047942,-536.266849
595.492187,666.185348,-10881.027347,0.000000
595.492511,296.082377,-10658.965565,-306.438199
595.492835,0.000000,-10658.965565,-306.438199
595.493159,-370.102971,-11695.253884,612.876398
595.493483,-444.123565,-9770.718434,76.609550
595.493807,-296.082377,-9400.615463,-842.705048
595.494132,0.000000,-9326.594869,-1532.190996
595.494456,-222.061783,-9474.636058,-919.314598
595.494780,0.000000,-10362.883188,-612.876398
595.495104,148.041188,-9474.636058,-536.266849
595.495428,-148.041188,-8956.491898,-766.095498
595.495752,-1554.432478,-8882.471304,-842.705048
595.496077,-1110.308913,-8142.265362,-1302.362347
595.496401,-296.082377,-9178.553681,-919.314598
595.496725,370.102971,-10140.821405,0.000000
595.497049,1406.391290,-9178.553681,76.609550
595.497373,1258.350101,-8068.244768,153.219100
595.497697,1480.411884,-7328.038826,0.000000
595.498022,2368.659014,-8068.244768,-306.438199
595.498346,3404.947333,-9770.718434,0.000000
595.498670,2812.782580,-10140.821405,-153.219100
595.498994,1258.350101,-9400.615463,-229.828649
595.499318,148.041188,-8364.327145,-766.095498
595.499643,296.082377,-9178.553681,0.000000
595.499967,962.267725,-10807.006753,0.000000
595.500291,370.102971,-11103.089130,153.219100
595.500615,-592.164754,-9992.780217,0.000000
595.500939,-1332.370696,-9474.636058,-1149.143247
595.501263,-814.226536,-9030.512492,-995.924147
595.501588,-296.082377,-10140.821405,-229.828649
595.501912,-518.144159,-10955.047942,-306.438199
595.502236,-1110.308913,-10288.862594,-383.047749
595.502560,-2072.576638,-10436.903782,0.000000
595.502884,-1258.350101,-8956.491898,-766.095498
595.503208,74.020594,-9178.553681,459.657299
595.503533,-222.061783,-10732.986159,229.828649
595.503857,-370.102971,-11103.089130,-306.438199
595.504181,-814.226536,-10362.883188,-229.828649
595.504505,-740.205942,-9548.656652,383.047749
595.504829,962.267725,-9030.512492,612.876398
595.505153,1406.391290,-9474.636058,1072.533697
595.505478,1036.288319,-9252.574275,536.266849
595.505802,74.020594,-9770.718434,229.828649
595.506126,-1924.535449,-10140.821405,0.000000
595.506450,-2368.659014,-9474.636058,0.000000
595.506774,-2220.617826,-9474.636058,1455.581446
595.507099,-1258.350101,-11103.089130,919.314598
595.507423,-1776.494261,-10140.821405,229.828649
595.507747,-2590.720797,-9474.636058,-536.266849
595.508071,-1480.411884,-8734.430116,-689.485948
595.508395,370.102971,-9474.636058,0.000000
595.508719,1406.391290,-10288.862594,459.657299
595.509044,1332.370696,-8956.491898,612.876398
595.509368,-592.164754,-9696.697840,995.924147
595.509692,-1406.391290,-10658.965565,-612.876398
595.510016,-444.123565,-9770.718434,76.609550
595.510340,-444.123565,-9918.759623,0.000000
595.510664,-444.123565,-9992.780217,0.000000
595.510989,-296.082377,-9474.636058,0.000000
595.511313,0.000000,-9474.636058,-76.609550
595.511637,592.164754,-9178.553681,229.828649
595.511961,888.247130,-9474.636058,-383.047749
595.512285,296.082377,-9548.656652,-995.924147
595.512610,-814.226536,-8512.368333,-306.438199
595.512934,-148.041188,-8586.388927,-536.266849
595.513258,592.164754,-9474.636058,-459.657299
595.513582,1184.329507,-10362.883188,-459.657299
595.513906,814.226536,-10214.842000,-919.314598
595.514230,666.185348,-9622.677246,-766.095498
595.514555,370.102971,-10807.006753,-536.266849
595.514879,148.041188,-10955.047942,0.000000
595.515203,370.102971,-10584.944971,306.438199
595.515527,1406.391290,-10955.047942,153.219100
595.515851,1406.391290,-10362.883188,-1302.362347
595.516175,1258.350101,-10881.027347,-306.438199
595.516500,1628.453072,-11917.315666,0.000000
595.516824,3034.844362,-10362.883188,-153.219100
595.517148,3108.864956,-9474.636058,842.705048
595.517472,2146.597232,-9548.656652,0.000000
595.517796,1332.370696,-9252.574275,-459.657299
595.518120,1036.288319,-9400.615463,-536.266849
595.518445,1184.329507,-8364.327145,-612.876398
595.518769,1332.370696,-8438.347739,-229.828649
595.519093,814.226536,-9474.636058,383.047749
595.519417,-444.123565,-9030.512492,-229.828649
595.519741,-1924.535449,-8734.430116,0.000000
595.520066,-3330.926739,-8290.306550,-1149.143247
595.520390,-3404.947333,-8438.347739,-1149.143247
595.520714,-3256.906145,-10066.800811,76.609550
595.521038,-2146.597232,-9622.677246,612.876398
595.521362,-1554.432478,-9178.553681,1072.533697
595.521686,-2368.659014,-8808.450710,153.219100
595.522011,-1628.453072,-8438.347739,0.000000
595.522335,-1776.494261,-8882.471304,153.219100
595.522659,-814.226536,-9252.574275,76.609550
595.522983,-666.185348,-9252.574275,536.266849
595.523307,-148.041188,-9326.594869,842.705048
595.523631,1406.391290,-9474.636058,153.219100
595.523956,1332.370696,-9992.780217,842.705048
595.524280,740.205942,-10066.800811,612.876398
595.524604,-222.061783,-9548.656652,-459.657299
595.524928,-1258.350101,-9844.739029,306.438199
595.525252,-962.267725,-10066.800811,306.438199
595.525576,74.020594,-9326.594869,766.095498
595.525901,74.020594,-10510.924376,306.438199
595.526225,-740.205942,-9622.677246,0.000000
595.526549,-888.247130,-8660.409521,0.000000
595.526873,-888.247130,-8734.430116,-383.047749
595.527197,0.000000,-8438.347739,0.000000
595.527522,148.041188,-10288.862594,-612.876398
595.527846,0.000000,-10955.047942,0.000000
595.528170,-444.123565,-10658.965565,0.000000
595.528494,-1110.308913,-11103.089130,-383.047749
595.528818,-592.164754,-11029.068536,-689.485948
595.529142,0.000000,-10955.047942,0.000000
595.529467,0.000000,-11029.068536,459.657299
595.529791,666.185348,-11547.212695,919.314598
595.530115,0.000000,-10732.986159,-459.657299
595.530439,0.000000,-8586.388927,-1072.533697
595.530763,814.226536,-8068.244768,-1225.752797
595.531087,1110.308913,-10732.986159,-383.047749
595.531412,740.205942,-10807.006753,-306.438199
595.531736,-148.041188,-9252.574275,-689.485948
595.532060,-1184.329507,-7846.182985,-1225.752797
595.532384,0.000000,-8512.368333,-1302.362347
595.532708,1258.350101,-10288.862594,-1149.143247
595.533033,1776.494261,-10362.883188,-919.314598
595.533357,1184.329507,-9770.718434,-612.876398
595.533681,296.082377,-9326.594869,-1225.752797
595.534005,518.144159,-8808.450710,-689.485948
595.534329,1110.308913,-9474.636058,0.000000
595.534653,444.123565,-10584.944971,-612.876398
595.534978,-592.164754,-9918.759623,-1149.143247
595.535302,-1480.411884,-9622.677246,-1225.752797
595.535626,-888.247130,-9474.636058,-459.657299
595.535950,74.020594,-9696.697840,0.000000
595.536274,666.185348,-10214.842000,306.438199
595.536598,0.000000,-9622.677246,0.000000
595.536923,-1258.350101,-9104.533087,-689.485948
595.537247,-1776.494261,-8512.368333,-919.314598
595.537571,-518.144159,-8216.285956,-842.705048
595.537895,296.082377,-9030.512492,-229.828649
595.538219,74.020594,-8956.491898,-383.047749
595.538543,222.061783,-8586.388927,-459.657299
595.538868,0.000000,-8734.430116,-842.705048
595.539192,-296.082377,-8438.347739,-306.438199
595.539516,296.082377,-9178.553681,459.657299
595.539840,1110.308913,-10214.842000,995.924147
595.540164,1628.453072,-9474.636058,306.438199
595.540489,814.226536,-9400.615463,612.876398
595.540813,814.226536,-9474.636058,459.657299
595.541137,1776.494261,-10436.903782,689.485948
595.541461,1184.329507,-11399.171507,1991.848295
595.541785,1036.288319,-10584.944971,383.047749
595.542109,-296.082377,-9844.739029,689.485948
595.542434,-1184.329507,-11325.150913,229.828649
595.542758,-1036.288319,-12287.418637,689.485948
595.543082,-740.205942,-11917.315666,1072.533697
595.543406,-1110.308913,-10140.821405,306.438199
595.543730,-2072.576638,-8586.388927,0.000000
595.544054,-2220.617826,-9696.697840,-1302.362347
595.544379,-1628.453072,-9030.512492,-1225.752797
595.544703,-1480.411884,-9696.697840,0.000000
595.545027,-1554.432478,-9918.759623,459.657299
595.545351,-148.041188,-8882.471304,383.047749
595.545675,0.000000,-8734.430116,689.485948
595.545999,296.082377,-8364.327145,612.876398
595.546324,74.020594,-8586.388927,0.000000
595.546648,-148.041188,-10066.800811,1225.752797
595.546972,-222.061783,-10436.903782,1225.752797
595.547296,-666.185348,-9474.636058,689.485948
595.547620,-962.267725,-8512.368333,76.609550
595.547945,-666.185348,-8142.265362,0.000000
595.548269,0.000000,-10214.842000,-229.828649
595.548593,222.061783,-10584.944971,-153.219100
595.548917,74.020594,-8660.409521,153.219100
595.549241,-148.041188,-8068.244768,0.000000
595.549565,518.144159,-9622.677246,-383.047749
595.549890,888.247130,-10732.986159,-153.219100
595.550214,518.144159,-11029.068536,0.000000
595.550538,-1110.308913,-10584.944971,0.000000
595.550862,-1258.350101,-10732.986159,76.609550
595.551186,-148.041188,-9548.656652,153.219100
595.551510,1924.535449,-8438.347739,229.828649
595.551835,3108.864956,-9770.718434,0.000000
595.552159,3627.009116,-9622.677246,-536.266849
595.552483,3034.844362,-9178.553681,-306.438199
595.552807,1702.473667,-9696.697840,-306.438199
595.553131,1184.329507,-9400.615463,-995.924147
595.553456,1110.308913,-9844.739029,-459.657299
595.553780,1036.288319,-10362.883188,-612.876398
595.554104,814.226536,-9918.759623,-766.095498
595.554428,592.164754,-10658.965565,-459.657299
595.554752,1406.391290,-9992.780217,-536.266849
595.555076,1776.494261,-9992.780217,-229.828649
595.555401,1554.432478,-10732.986159,76.609550
595.555725,1406.391290,-9548.656652,0.000000
595.556049,444.123565,-9104.533087,306.438199
595.556373,-592.164754,-9548.656652,459.657299
595.556697,0.000000,-9474.636058,0.000000
595.557021,-1184.329507,-10214.842000,76.609550
595.557346,-2146.597232,-9474.636058,-612.876398
595.557670,-4071.132681,-9474.636058,-383.047749
595.557994,-4737.318029,-8882.471304,-995.924147
595.558318,-3182.885551,-8512.368333,-536.266849
595.558642,-1776.494261,-9548.656652,153.219100
595.558966,-1406.391290,-9326.594869,-612.876398
595.559291,-1628.453072,-8512.368333,459.657299
595.559615,-1702.473667,-8882.471304,229.828649
595.559939,-740.205942,-9030.512492,536.266849
595.560263,-222.061783,-9770.718434,995.924147
595.560587,-148.041188,-9918.759623,0.000000
595.560912,-518.144159,-9030.512492,76.609550
595.561236,-1036.288319,-9622.677246,459.657299
595.561560,222.061783,-9844.739029,76.609550
595.561884,1628.453072,-10436.903782,842.705048
595.562208,1406.391290,-10362.883188,229.828649
595.562532,1332.370696,-8808.450710,-383.047749
595.562857,592.164754,-9030.512492,-383.047749
595.563181,148.041188,-10288.862594,-995.924147
595.563505,518.144159,-10436.903782,76.609550
595.563829,444.123565,-10288.862594,76.609550
595.564153,0.000000,-10288.862594,842.705048
595.564477,-1184.329507,-11029.068536,153.219100
595.564802,-1924.535449,-11029.068536,-842.705048
595.565126,-1554.432478,-9326.594869,-1072.533697
595.565450,-888.247130,-9696.697840,-229.828649
595.565774,-148.041188,-10214.842000,-766.095498
595.566098,-148.041188,-10066.800811,-766.095498
595.566422,-592.164754,-8734.430116,-919.314598
595.566747,740.205942,-8290.306550,-459.657299
595.567071,2368.659014,-9992.780217,-612.876398
595.567395,2886.803174,-11547.212695,536.266849
595.567719,1924.535449,-10658.965565,766.095498
595.568043,370.102971,-9696.697840,0.000000
595.568368,-222.061783,-8956.491898,-612.876398
595.568692,444.123565,-9696.697840,-536.266849
595.569016,1332.370696,-10732.986159,-383.047749
595.569340,1110.308913,-10214.842000,0.000000
595.569664,518.144159,-9622.677246,76.609550
595.569988,370.102971,-9326.594869,-459.657299
595.570313,814.226536,-8734.430116,-1072.533697
595.570637,148.041188,-8956.491898,-612.876398
595.570961,-666.185348,-9104.533087,-383.047749
595.571285,-1554.432478,-9252.574275,-766.095498
595.571609,-2960.823768,-9548.656652,-842.705048
595.571933,-3182.885551,-9474.636058,-383.047749
595.572258,-1702.473667,-9474.636058,0.000000
595.572582,-666.185348,-9622.677246,0.000000
595.572906,74.020594,-9474.636058,153.219100
595.573230,0.000000,-8660.409521,536.266849
595.573554,518.144159,-8586.388927,842.705048
595.573879,740.205942,-8660.409521,612.876398
595.574203,370.102971,-9252.574275,612.876398
595.574527,296.082377,-9178.553681,-306.438199
595.574851,-962.267725,-8734.430116,-306.438199
595.575175,-1776.494261,-9252.574275,0.000000
595.575499,-148.041188,-9622.677246,0.000000
595.575824,888.247130,-10214.842000,229.828649
595.576148,1110.308913,-9918.759623,229.828649
595.576472,222.061783,-8808.450710,-689.485948
595.576796,74.020594,-9548.656652,-612.876398
595.577120,1480.411884,-10288.862594,-459.657299
595.577444,1702.473667,-10732.986159,459.657299
595.577769,888.247130,-10658.965565,612.876398
595.578093,-592.164754,-9992.780217,919.314598
595.578417,-1480.411884,-10362.883188,383.047749
595.578741,-1036.288319,-10807.006753,-153.219100
595.579065,-296.082377,-10510.924376,0.000000
595.579389,-296.082377,-10732.986159,153.219100
595.579714,-148.041188,-10362.883188,-229.828649
595.580038,-666.185348,-9844.739029,0.000000
595.580362,-592.164754,-9770.718434,-229.828649
595.580686,-518.144159,-9770.718434,-459.657299
595.581010,-666.185348,-9622.677246,-1225.752797
595.581335,0.000000,-9696.697840,-459.657299
595.581659,0.000000,-9548.656652,0.000000
595.581983,-444.123565,-10362.883188,76.609550
595.582307,-370.102971,-10140.821405,536.266849
595.582631,296.082377,-10140.821405,1225.752797
595.582955,1036.288319,-11473.192101,2068.457845
595.583280,888.247130,-10214.842000,1149.143247
595.583604,444.123565,-8068.244768,536.266849
595.583928,-370.102971,-7254.018232,-153.219100
595.584252,148.041188,-8586.388927,-306.438199
595.584576,666.185348,-10214.842000,-153.219100
595.584900,666.185348,-9696.697840,459.657299
595.585225,-148.041188,-8734.430116,536.266849
595.585549,-740.205942,-8068.244768,0.000000
595.585873,370.102971,-8216.285956,-459.657299
595.586197,0.000000,-9474.636058,0.000000
595.586521,-444.123565,-10584.944971,0.000000
595.586845,-814.226536,-9474.636058,153.219100
595.587170,0.000000,-9326.594869,306.438199
595.587494,888.247130,-8142.265362,76.609550
595.587818,1924.535449,-8734.430116,459.657299
595.588142,2368.659014,-9474.636058,536.266849
595.588466,1924.535449,-9474.636058,306.438199
595.588791,888.247130,-10584.944971,0.000000
595.589115,-740.205942,-9770.718434,-459.657299
595.589439,-1036.288319,-9474.636058,-383.047749
595.589763,-592.164754,-10436.903782,0.000000
595.590087,0.000000,-10436.903782,0.000000
595.590411,0.000000,-10140.821405,-153.219100
595.590736,0.000000,-10214.842000,-229.828649
595.591060,740.205942,-8882.471304,-459.657299
595.591384,1406.391290,-9770.718434,536.266849
595.591708,0.000000,-10140.821405,76.609550
595.592032,-666.185348,-9030.512492,-229.828649
595.592357,-1110.308913,-9030.512492,0.000000
595.592681,-444.123565,-9474.636058,-689.485948
595.593005,370.102971,-9844.739029,76.609550
595.593329,74.020594,-10362.883188,689.485948
595.593653,296.082377,-10436.903782,995.924147
595.593977,296.082377,-10436.903782,459.657299
595.594302,666.185348,-9548.656652,0.000000
595.594626,962.267725,-9770.718434,766.095498
595.594950,1184.329507,-10510.924376,383.047749
595.595274,814.226536,-9696.697840,229.828649
595.595598,-296.082377,-9474.636058,689.485948
595.595922,-1628.453072,-9400.615463,-536.266849
595.596247,-1480.411884,-8882.471304,-153.219100
595.596571,-1110.308913,-9622.677246,306.438199
595.596895,-1332.370696,-9474.636058,0.000000
595.597219,-1776.494261,-8512.368333,-536.266849
595.597543,-2368.659014,-7624.121203,-76.609550
595.597868,-1332.370696,-8142.265362,-919.314598
595.598192,0.000000,-9474.636058,-306.438199
595.598516,222.061783,-10066.800811,153.219100
595.598840,-592.164754,-10214.842000,0.000000
595.599164,-1554.432478,-10140.821405,-383.047749
595.599488,-962.267725,-10140.821405,0.000000
595.599813,0.000000,-9992.780217,0.000000
595.600137,370.102971,-10214.842000,-229.828649
595.600461,444.123565,-10140.821405,-383.047749
595.600785,740.205942,-9844.739029,-306.438199
595.601109,1776.494261,-9844.739029,-459.657299
595.601433,2516.700203,-9622.677246,-612.876398
595.601758,2294.638420,-10510.924376,0.000000
595.602082,1480.411884,-11103.089130,-153.219100
595.602406,1184.329507,-11029.068536,-766.095498
595.602730,148.041188,-10214.842000,-1149.143247
595.603054,148.041188,-9326.594869,-919.314598
595.603379,518.144159,-9474.636058,-1302.362347
595.603703,296.082377,-10436.903782,-995.924147
595.604027,148.041188,-10362.883188,0.000000
595.604351,222.061783,-9770.718434,-306.438199
595.604675,0.000000,-8882.471304,0.000000
595.604999,-148.041188,-9326.594869,-383.047749
595.605324,-296.082377,-10140.821405,0.000000
595.605648,592.164754,-9918.759623,0.000000
595.605972,296.082377,-9326.594869,-612.876398
595.606296,-222.061783,-9178.553681,306.438199
595.606620,666.185348,-9030.512492,306.438199
595.606945,296.082377,-10436.903782,766.095498
595.607269,-740.205942,-10288.862594,459.657299
595.607593,-962.267725,-9474.636058,689.485948
595.607917,-962.267725,-9326.594869,459.657299
595.608241,-962.267725,-8734.430116,153.219100
595.608565,-592.164754,-8734.430116,766.095498
595.608890,-1184.329507,-9104.533087,919.314598
595.609214,-2072.576638,-8290.306550,306.438199
595.609538,-2220.617826,-7624.121203,0.000000
595.609862,-1184.329507,-7179.997637,229.828649
595.610186,296.082377,-7920.203579,1685.410096
595.610510,518.144159,-9474.636058,1378.971896
595.610835,-296.082377,-8882.471304,1149.143247
595.611159,-1110.308913,-9104.533087,1149.143247
595.611483,-740.205942,-9474.636058,459.657299
595.611807,222.061783,-9178.553681,459.657299
595.612131,1110.308913,-9844.739029,1149.143247
595.612456,370.102971,-10584.944971,1685.410096
595.612780,0.000000,-10510.924376,306.438199
595.613104,-666.185348,-9844.739029,153.219100
595.613428,-444.123565,-9400.615463,76.609550
595.613752,518.144159,-10288.862594,-153.219100
595.614076,296.082377,-10362.883188,-842.705048
595.614401,-296.082377,-9252.574275,-689.485948
595.614725,-1406.391290,-10807.006753,153.219100
595.615049,-962.267725,-10584.944971,-612.876398
595.615373,-222.061783,-10436.903782,383.047749
595.615697,0.000000,-10436.903782,-689.485948
595.616021,0.000000,-10066.800811,-1149.143247
595.616346,-666.185348,-10288.862594,-1072.533697
595.616670,-296.082377,-10510.924376,-1149.143247
595.616994,666.185348,-10732.986159,0.000000
595.617318,814.226536,-10807.006753,-459.657299
595.617642,518.144159,-10362.883188,-766.095498
595.617967,222.061783,-9696.697840,-689.485948
595.618291,1184.329507,-11103.089130,459.657299
595.618615,2590.720797,-11843.295072,689.485948
595.618939,2516.700203,-11177.109724,-153.219100
595.619263,1184.329507,-9548.656652,-153.219100
595.619587,74.020594,-9622.677246,-536.266849
595.619912,-444.123565,-10510.924376,-1532.190996
595.620236,-148.041188,-9622.677246,-1532.190996
595.620560,0.000000,-9474.636058,-229.828649
595.620884,0.000000,-10807.006753,76.609550
595.621208,222.061783,-10732.986159,-153.219100
595.621533,0.000000,-8734.430116,0.000000
595.621857,148.041188,-7698.141797,-612.876398
595.622181,740.205942,-9326.594869,-153.219100
595.622505,370.102971,-10214.842000,612.876398
595.622829,296.082377,-9474.636058,1149.143247
595.623153,740.205942,-8808.450710,995.924147
595.623478,0.000000,-7846.182985,0.000000
595.623802,148.041188,-7105.977043,-919.314598
595.624126,1036.288319,-7920.203579,-383.047749
595.624450,1184.329507,-9178.553681,153.219100
595.624774,148.041188,-8882.471304,766.095498
595.625098,-1110.308913,-8142.265362,689.485948
595.625423,-1924.535449,-7920.203579,153.219100
595.625747,-1628.453072,-9252.574275,306.438199
595.626071,-740.205942,-10066.800811,229.828649
595.626395,-1110.308913,-10066.800811,766.095498
595.626719,-1924.535449,-9770.718434,1762.019645
595.627044,-1184.329507,-8734.430116,1302.362347
595.627368,888.247130,-8586.388927,1072.533697
595.627692,1184.329507,-9474.636058,1532.190996
595.628016,0.000000,-9770.718434,0.000000
595.628340,-1480.411884,-9696.697840,-383.047749
595.628664,-1998.556043,-9474.636058,-459.657299
595.628989,-592.164754,-9474.636058,229.828649
595.629313,518.144159,-10732.986159,1608.800546
595.629637,0.000000,-10807.006753,306.438199
595.629961,-814.226536,-9992.780217,-306.438199
595.630285,-1702.473667,-9770.718434,-383.047749
595.630609,-962.267725,-9770.718434,-919.314598
595.630934,-370.102971,-10066.800811,-306.438199
595.631258,222.061783,-10436.903782,229.828649
595.631582,888.247130,-9474.636058,153.219100
595.631906,518.144159,-9918.759623,0.000000
595.632230,444.123565,-10140.821405,0.000000
595.632555,1110.308913,-10066.800811,459.657299
595.632879,1036.288319,-10955.047942,536.266849
595.633203,0.000000,-10584.944971,-229.828649
595.633527,-1406.391290,-11029.068536,0.000000
595.633851,-2220.617826,-10807.006753,-612.876398
595.634175,-1036.288319,-10436.903782,-1302.362347
595.634500,222.061783,-10732.986159,153.219100
595.634824,1258.350101,-10510.924376,229.828649
595.635148,1332.370696,-10510.924376,-153.219100
595.635472,962.267725,-9178.553681,-766.095498
595.635796,962.267725,-8216.285956,-995.924147
595.636121,1332.370696,-9696.697840,-612.876398
595.636445,1406.391290,-10658.965565,0.000000
595.636769,444.123565,-9548.656652,919.314598
595.637093,148.041188,-8808.450710,1302.362347
595.637417,1036.288319,-8438.347739,76.609550
595.637741,1554.432478,-9178.553681,-383.047749
595.638066,962.267725,-9992.780217,0.000000
595.638390,370.102971,-9104.533087,-842.705048
595.638714,0.000000,-8068.244768,-1072.533697
595.639038,-444.123565,-8808.450710,-229.828649
595.639362,592.164754,-9178.553681,-459.657299
595.639686,1110.308913,-10362.883188,-229.828649
595.640011,740.205942,-10436.903782,612.876398
595.640335,962.267725,-10362.883188,-383.047749
595.640659,222.061783,-9474.636058,-536.266849
595.640983,296.082377,-8512.368333,153.219100
595.641307,1110.308913,-10066.800811,229.828649
595.641632,1258.350101,-11029.068536,229.828649
595.641956,444.123565,-9992.780217,689.485948
595.642280,-740.205942,-9696.697840,76.609550
595.642604,-1036.288319,-9400.615463,-153.219100
595.642928,-1184.329507,-8586.388927,0.000000
595.643252,-1406.391290,-9474.636058,153.219100
595.643577,-2516.700203,-9252.574275,0.000000
595.643901,-3552.988522,-8956.491898,-229.828649
595.644225,-4145.153275,-8438.347739,0.000000
595.644549,-2368.659014,-7920.203579,689.485948
595.644873,0.000000,-8438.347739,689.485948
595.645197,888.247130,-9030.512492,766.095498
595.645522,74.020594,-9400.615463,612.876398
595.645846,-1258.350101,-9030.512492,-229.828649
595.646170,-740.205942,-8882.471304,-383.047749
595.646494,0.000000,-9696.697840,229.828649
595.646818,0.000000,-10584.944971,153.219100
595.647143,-592.164754,-11251.130318,1072.533697
595.647467,-1258.350101,-11325.150913,306.438199
595.647791,-666.185348,-10732.986159,229.828649
595.648115,0.000000,-10288.862594,842.705048
595.648439,0.000000,-10881.027347,0.000000
595.648763,-740.205942,-9992.780217,0.000000
595.649088,-518.144159,-8956.491898,-383.047749
595.649412,-444.123565,-9104.533087,-919.314598
595.649736,-296.082377,-9104.533087,-689.485948
595.650060,-370.102971,-9400.615463,-229.828649
595.650384,-370.102971,-9918.759623,-612.876398
595.650709,148.041188,-9992.780217,-689.485948
595.651033,-592.164754,-10436.903782,-612.876398
595.651357,-296.082377,-9992.780217,-842.705048
595.651681,592.164754,-11103.089130,-689.485948
595.652005,1406.391290,-11695.253884,-383.047749
595.652329,2590.720797,-10214.842000,383.047749
595.652654,2590.720797,-9474.636058,-459.657299
595.652978,2368.659014,-9326.594869,-459.657299
595.653302,2664.741391,-9696.697840,-459.657299
595.653626,3256.906145,-10955.047942,0.000000
595.653950,2664.741391,-11177.109724,76.609550
595.654274,1332.370696,-10807.006753,153.219100
595.654599,-296.082377,-9770.718434,-919.314598
595.654923,-592.164754,-8956.491898,-1608.800546
595.655247,-814.226536,-10140.821405,-766.095498
595.655571,-148.041188,-10436.903782,-536.266849
595.655895,740.205942,-10584.944971,383.047749
595.656220,888.247130,-9548.656652,459.657299
595.656544,888.247130,-7846.182985,153.219100
595.656868,1406.391290,-8438.347739,229.828649
595.657192,222.061783,-9252.574275,0.000000
595.657516,-740.205942,-8956.491898,0.000000
595.657840,-1406.391290,-8808.450710,842.705048
595.658165,-1110.308913,-8438.347739,1072.533697
595.658489,74.020594,-8068.244768,1302.362347
595.658813,296.082377,-8660.409521,919.314598
595.659137,0.000000,-8216.285956,0.000000
595.659461,-370.102971,-8142.265362,229.828649
595.659785,-592.164754,-8660.409521,229.828649
595.660110,-148.041188,-7994.224174,153.219100
595.660434,-518.144159,-8290.306550,995.924147
595.660758,-1406.391290,-8734.430116,919.314598
595.661082,-1776.494261,-10510.924376,536.266849
595.661406,-1998.556043,-11029.068536,612.876398
595.661731,-1628.453072,-9474.636058,919.314598
595.662055,-1110.308913,-9326.594869,1762.019645
595.662379,-962.267725,-10436.903782,1302.362347
595.662703,-740.205942,-10362.883188,1302.362347
595.663027,-1110.308913,-9992.780217,689.485948
595.663351,-962.267725,-9178.553681,-459.657299
595.663676,-666.185348,-9474.636058,76.609550
595.664000,74.020594,-10955.047942,306.438199
595.664324,370.102971,-10658.965565,383.047749
595.664648,-1406.391290,-9918.759623,0.000000
595.664972,-2146.597232,-9696.697840,-919.314598
595.665297,-1480.411884,-9918.759623,-995.924147
595.665621,-370.102971,-11399.171507,-229.828649
595.665945,592.164754,-10510.924376,0.000000
595.666269,1036.288319,-9178.553681,0.000000
595.666593,740.205942,-8586.388927,-306.438199
595.666917,962.267725,-9326.594869,76.609550
595.667242,1554.432478,-10510.924376,229.828649
595.667566,1110.308913,-10140.821405,153.219100
595.667890,444.123565,-9474.636058,-153.219100
595.668214,-814.226536,-9918.759623,-536.266849
595.668538,-1036.288319,-10140.821405,-1225.752797
595.668862,-370.102971,-10584.944971,-995.924147
595.669187,518.144159,-10807.006753,-536.266849
595.669511,962.267725,-9696.697840,-842.705048
595.669835,1110.308913,-9400.615463,-919.314598
595.670159,740.205942,-8068.244768,-919.314598
595.670483,1702.473667,-8216.285956,-153.219100
595.670808,1776.494261,-10140.821405,0.000000
595.671132,1036.288319,-10510.924376,-842.705048
595.671456,0.000000,-9548.656652,-383.047749
595.671780,-370.102971,-9252.574275,0.000000
595.672104,814.226536,-8882.471304,0.000000
595.672428,1702.473667,-10658.965565,306.438199
595.672753,1332.370696,-10288.862594,-383.047749
595.673077,1036.288319,-9252.574275,-306.438199
595.673401,1036.288319,-8216.285956,-842.705048
595.673725,1406.391290,-8142.265362,-459.657299
595.674049,2368.659014,-8586.388927,-306.438199
595.674373,1998.556043,-9918.759623,-536.266849
595.674698,888.247130,-9696.697840,0.000000
595.675022,-666.185348,-9770.718434,-689.485948
595.675346,-592.164754,-9252.574275,-612.876398
595.675670,-148.041188,-9400.615463,-306.438199
595.675994,-1036.288319,-10881.027347,-306.438199
595.676319,-1924.535449,-10584.944971,-459.657299
595.676643,-2146.597232,-10510.924376,153.219100
595.676967,-1924.535449,-10732.986159,459.657299
595.677291,-222.061783,-9474.636058,689.485948
595.677615,74.020594,-9400.615463,919.314598
595.677939,-148.041188,-10362.883188,76.609550
595.678264,-1702.473667,-10214.842000,76.609550
595.678588,-2368.659014,-9622.677246,-689.485948
595.678912,-2368.659014,-8956.491898,0.000000
595.679236,-1628.453072,-9474.636058,229.828649
595.679560,-518.144159,-10436.903782,153.219100
595.679885,-518.144159,-10066.800811,306.438199
595.680209,-888.247130,-8956.491898,-153.219100
595.680533,-370.102971,-8142.265362,-229.828649
595.680857,444.123565,-8808.450710,383.047749
595.681181,296.082377,-10214.842000,766.095498
595.681505,-592.164754,-9104.533087,76.609550
595.681830,-1924.535449,-8512.368333,-229.828649
595.682154,-2368.659014,-9474.636058,306.438199
595.682478,-1110.308913,-10140.821405,153.219100
595.682802,296.082377,-10288.862594,76.609550
595.683126,148.041188,-9104.533087,306.438199
595.683450,0.000000,-9252.574275,306.438199
595.683775,-74.020594,-10288.862594,-459.657299
595.684099,0.000000,-10066.800811,-766.095498
595.684423,222.061783,-9178.553681,0.000000
595.684747,814.226536,-9918.759623,0.000000
595.685071,1184.329507,-9474.636058,-612.876398
595.685396,-148.041188,-9770.718434,-76.609550
595.685720,-1406.391290,-9400.615463,-306.438199
595.686044,-370.102971,-9474.636058,-612.876398
595.686368,-148.041188,-10362.883188,0.000000
595.686692,666.185348,-9622.677246,-153.219100
595.687016,1036.288319,-8734.430116,229.828649
595.687341,1110.308913,-8956.491898,0.000000
595.687665,1628.453072,-8956.491898,-383.047749
595.687989,2368.659014,-9326.594869,383.047749
595.688313,2368.659014,-9104.533087,-229.828649
595.688637,1258.350101,-9326.594869,-612.876398
595.688962,518.144159,-9696.697840,-766.095498
595.689286,1332.370696,-9770.718434,-306.438199
595.689610,2146.597232,-10955.047942,0.000000
595.689934,1702.473667,-11695.253884,383.047749
595.690258,1036.288319,-9918.759623,153.219100
595.690583,296.082377,-9548.656652,-459.657299
595.690907,592.164754,-9548.656652,-689.485948
595.691231,1776.494261,-10436.903782,76.609550
595.691555,1850.514855,-11399.171507,536.266849
595.691879,1776.494261,-10140.821405,766.095498
595.692204,148.041188,-9474.636058,229.828649
595.692528,-1702.473667,-10140.821405,-229.828649
595.692852,-1110.308913,-10288.862594,459.657299
595.693176,-444.123565,-11177.109724,536.266849
595.693500,-1110.308913,-10362.883188,229.828649
595.693825,-1554.432478,-8882.471304,-153.219100
595.694149,-1628.453072,-9104.533087,306.438199
595.694473,-666.185348,-8808.450710,766.095498
595.694797,-296.082377,-9770.718434,229.828649
595.695121,-1258.350101,-8438.347739,689.485948
595.695445,-1554.432478,-7328.038826,76.609550
595.695770,-1184.329507,-8438.347739,76.609550
595.696094,444.123565,-8586.388927,229.828649
595.696418,1036.288319,-8882.471304,1378.971896
595.696742,666.185348,-9770.718434,1302.362347
595.697066,296.082377,-9326.594869,306.438199
595.697391,-1184.329507,-8882.471304,459.657299
595.697715,-1924.535449,-9548.656652,766.095498
595.698039,-1406.391290,-10436.903782,612.876398
595.698363,-888.247130,-10807.006753,842.705048
595.698687,-1036.288319,-9474.636058,0.000000
595.699012,-1628.453072,-8882.471304,0.000000
595.699336,-1924.535449,-9178.553681,-459.657299
595.699660,-1184.329507,-9474.636058,-229.828649
595.699984,0.000000,-10436.903782,229.828649
595.700308,-148.041188,-10288.862594,76.609550
595.700633,-296.082377,-9696.697840,0.000000
595.700957,-518.144159,-9918.759623,-383.047749
595.701281,-370.102971,-9622.677246,-1149.143247
595.701605,0.000000,-10288.862594,0.000000
595.701929,74.020594,-11399.171507,-153.219100
595.702254,-296.082377,-10510.924376,-612.876398
595.702578,-592.164754,-9104.533087,0.000000
595.702902,-888.247130,-8882.471304,-459.657299
595.703226,-222.061783,-9178.553681,-1072.533697
595.703550,148.041188,-10214.842000,-1149.143247
595.703875,0.000000,-9474.636058,-1302.362347
595.704199,-370.102971,-9400.615463,-995.924147
595.704523,-518.144159,-9252.574275,-1225.752797
595.704847,148.041188,-8660.409521,-1762.019645
595.705171,296.082377,-9548.656652,-1149.143247
595.705496,1110.308913,-10732.986159,-919.314598
595.705820,2220.617826,-11621.233289,153.219100
595.706144,1998.556043,-11399.171507,76.609550
595.706468,2220.617826,-9622.677246,-459.657299
595.706792,1776.494261,-9178.553681,229.828649
595.707117,1480.411884,-11325.150913,-306.438199
595.707441,1332.370696,-10881.027347,-842.705048
595.707765,814.226536,-10510.924376,0.000000
595.708089,1110.308913,-9992.780217,306.438199
595.708413,1850.514855,-9918.759623,-153.219100
595.708738,1184.329507,-10362.883188,-612.876398
595.709062,962.267725,-9548.656652,-919.314598
595.709386,296.082377,-9252.574275,-766.095498
595.709710,0.000000,-9548.656652,0.000000
595.710034,-296.082377,-8586.388927,-689.485948
595.710359,-444.123565,-8438.347739,76.609550
595.710683,-592.164754,-9770.718434,306.438199
595.711007,-518.144159,-9622.677246,-383.047749
595.711331,-1776.494261,-9326.594869,-459.657299
595.711655,-2738.761985,-8808.450710,-153.219100
595.711980,-1406.391290,-9400.615463,536.266849
595.712304,-370.102971,-10288.862594,1149.143247
595.712628,0.000000,-9918.759623,1149.143247
595.712952,0.000000,-9622.677246,1072.533697
595.713276,74.020594,-9918.759623,612.876398
595.713601,0.000000,-9622.677246,995.924147
595.713925,444.123565,-9918.759623,995.924147
595.714249,-444.123565,-9400.615463,612.876398
595.714573,-1110.308913,-9178.553681,459.657299
595.714897,-1480.411884,-9474.636058,153.219100
595.715221,-1332.370696,-9030.512492,-229.828649
595.715546,-1036.288319,-9104.533087,0.000000
595.715870,-962.267725,-9178.553681,229.828649
595.716194,-370.102971,-9696.697840,306.438199
595.716518,-740.205942,-9844.739029,1072.533697
595.716842,-814.226536,-8216.285956,612.876398
595.717167,-592.164754,-7550.100608,536.266849
595.717491,-370.102971,-8068.244768,383.047749
595.717815,-222.061783,-8438.347739,306.438199
595.718139,-296.082377,-9326.594869,919.314598
595.718463,-370.102971,-9400.615463,919.314598
595.718788,-148.041188,-8956.491898,153.219100
595.719112,-814.226536,-9770.718434,306.438199
595.719436,-1110.308913,-10584.944971,-383.047749
595.719760,-1036.288319,-10214.842000,-766.095498
595.720084,-1110.308913,-9844.739029,229.828649
595.720409,222.061783,-9400.615463,-229.828649
595.720733,1776.494261,-10066.800811,-306.438199
595.721057,2294.638420,-10288.862594,0.000000
595.721381,2220.617826,-9622.677246,-306.438199
595.721705,1406.391290,-9622.677246,0.000000
595.722030,1036.288319,-10140.821405,-383.047749
595.722354,666.185348,-10362.883188,-229.828649
595.722678,148.041188,-10658.965565,-153.219100
595.723002,0.000000,-10214.842000,-919.314598
595.723326,-592.164754,-10510.924376,-995.924147
595.723651,444.123565,-10658.965565,-1302.362347
595.723975,1776.494261,-9992.780217,-995.924147
595.724299,1776.494261,-10362.883188,-153.219100
595.724623,1850.514855,-10362.883188,-1225.752797
595.724947,1258.350101,-10140.821405,-766.095498
595.725272,740.205942,-10584.944971,-995.924147
595.725596,592.164754,-10732.986159,-1378.971896
595.725920,592.164754,-11473.192101,-1149.143247
595.726244,740.205942,-10881.027347,-612.876398
595.726568,444.123565,-9918.759623,-153.219100
595.726893,-296.082377,-10140.821405,-306.438199
595.727217,0.000000,-9104.533087,-306.438199
595.727541,148.041188,-9622.677246,76.609550
595.727865,-444.123565,-10066.800811,229.828649
595.728189,-666.185348,-9030.512492,383.047749
595.728514,-1184.329507,-8438.347739,-995.924147
595.728838,-1258.350101,-7994.224174,-383.047749
595.729162,-1036.288319,-8512.368333,-383.047749
595.729486,-1110.308913,-9844.739029,76.609550
595.729810,-1110.308913,-9474.636058,0.000000
595.730135,-1850.514855,-8364.327145,0.000000
595.730459,-2072.576638,-7624.121203,-536.266849
595.730783,-444.123565,-7920.203579,-919.314598
595.731107,0.000000,-8808.450710,-306.438199
595.731431,444.123565,-9474.636058,1225.752797
595.731756,0.000000,-8882.471304,1149.143247
595.732080,-296.082377,-9030.512492,842.705048
595.732404,-296.082377,-8660.409521,766.095498
595.732728,-518.144159,-9326.594869,766.095498
595.733052,-592.164754,-11103.089130,229.828649
595.733377,-2294.638420,-11251.130318,612.876398
595.733701,-2812.782580,-10214.842000,0.000000
595.734025,-1554.432478,-9104.533087,383.047749
595.734349,0.000000,-8734.430116,0.000000
595.734673,370.102971,-9178.553681,-612.876398
595.734998,0.000000,-9252.574275,-766.095498
595.735322,-296.082377,-9178.553681,-612.876398
595.735646,0.000000,-8512.368333,-995.924147
595.735970,-592.164754,-7994.224174,-919.314598
595.736294,-518.144159,-8956.491898,-459.657299
595.736618,148.041188,-10955.047942,-383.047749
595.736943,740.205942,-11177.109724,-153.219100
595.737267,1184.329507,-10584.944971,153.219100
595.737591,1406.391290,-10881.027347,459.657299
595.737915,1998.556043,-11621.233289,536.266849
595.738239,2516.700203,-11843.295072,536.266849
595.738564,2294.638420,-11399.171507,536.266849
595.738888,592.164754,-10807.006753,-459.657299
595.739212,222.061783,-10510.924376,-1378.971896
595.739536,1110.308913,-10214.842000,-1302.362347
595.739860,1998.556043,-10955.047942,-536.266849
595.740185,1332.370696,-11029.068536,0.000000
595.740509,-370.102971,-11399.171507,-612.876398
595.740833,-2220.617826,-10881.027347,-842.705048
595.741157,-2146.597232,-10066.800811,-766.095498
595.741481,-1184.329507,-10584.944971,-383.047749
595.741806,-592.164754,-10140.821405,0.000000
595.742130,444.123565,-9326.594869,842.705048
595.742454,962.267725,-9400.615463,995.924147
595.742778,1776.494261,-8364.327145,153.219100
595.743102,1998.556043,-7550.100608,459.657299
595.743427,888.247130,-8586.388927,612.876398
595.743751,962.267725,-8956.491898,229.828649
595.744075,0.000000,-9252.574275,306.438199
595.744399,-370.102971,-8512.368333,0.000000
595.744723,-222.061783,-8586.388927,0.000000
595.745048,370.102971,-9844.739029,153.219100
595.745372,518.144159,-9252.574275,306.438199
595.745696,222.061783,-9030.512492,536.266849
595.746020,-888.247130,-8290.306550,153.219100
595.746344,-1258.350101,-8364.327145,153.219100
595.746669,-1628.453072,-9474.636058,919.314598
595.746993,-2072.576638,-9770.718434,612.876398
595.747317,-2516.700203,-8956.491898,306.438199
595.747641,-2664.741391,-8290.306550,-153.219100
595.747965,-1702.473667,-8364.327145,153.219100
595.748290,-444.123565,-8808.450710,459.657299
595.748614,-222.061783,-10214.842000,0.000000
595.748938,0.000000,-9474.636058,383.047749
595.749262,1110.308913,-9474.636058,229.828649
595.749586,1406.391290,-9400.615463,0.000000
595.749911,962.267725,-10140.821405,0.000000
595.750235,222.061783,-10658.965565,229.828649
595.750559,296.082377,-10510.924376,-689.485948
595.750883,-296.082377,-10214.842000,-536.266849
595.751207,-1480.411884,-10214.842000,-689.485948
595.751532,-814.226536,-9696.697840,-919.314598
595.751856,-444.123565,-10436.903782,-306.438199
595.752180,74.020594,-10066.800811,-536.266849
595.752504,296.082377,-9326.594869,-995.924147
595.752828,-518.144159,-9030.512492,-1225.752797
595.753153,-296.082377,-9252.574275,-689.485948
595.753477,370.102971,-10288.862594,0.000000
595.753801,666.185348,-11251.130318,0.000000
595.754125,0.000000,-10732.986159,-229.828649
595.754449,-1480.411884,-10732.986159,-1072.533697
595.754774,-1998.556043,-9844.739029,-1225.752797
595.755098,-2368.659014,-9918.759623,-1149.143247
595.755422,-1776.494261,-11399.171507,-153.219100
595.755746,-1258.350101,-10658.965565,-306.438199
595.756070,-740.205942,-9474.636058,-842.705048
595.756394,666.185348,-8734.430116,-612.876398
595.756719,2886.803174,-8142.265362,-1225.752797
595.757043,4219.173869,-9622.677246,0.000000
595.757367,3627.009116,-9622.677246,76.609550
595.757691,2368.659014,-9622.677246,-536.266849
595.758015,888.247130,-9104.533087,-229.828649
595.758340,1036.288319,-8808.450710,229.828649
595.758664,1998.556043,-10140.821405,536.266849
595.758988,1480.411884,-10066.800811,-612.876398
595.759312,74.020594,-9030.512492,-536.266849
595.759636,-1036.288319,-8956.491898,229.828649
595.759961,0.000000,-9104.533087,-612.876398
595.760285,518.144159,-8660.409521,-459.657299
595.760609,-296.082377,-9400.615463,-229.828649
595.760933,-370.102971,-9178.553681,-766.095498
595.761257,-740.205942,-9474.636058,-1072.533697
595.761582,-1258.350101,-9770.718434,-689.485948
595.761906,-1184.329507,-10140.821405,0.000000
595.762230,-222.061783,-11103.089130,383.047749
595.762554,-666.185348,-10732.986159,-229.828649
595.762878,148.041188,-10436.903782,766.095498
595.763203,-148.041188,-10214.842000,536.266849
595.763527,74.020594,-10066.800811,612.876398
595.763851,-666.185348,-10510.924376,612.876398
595.764175,-1554.432478,-9770.718434,76.609550
595.764499,-962.267725,-8142.265362,-383.047749
595.764824,-1036.288319,-9104.533087,383.047749
595.765148,-1110.308913,-9104.533087,306.438199
595.765472,-370.102971,-8142.265362,459.657299
595.765796,-888.247130,-8956.491898,229.828649
595.766120,-1036.288319,-8956.491898,383.047749
595.766445,-740.205942,-9252.574275,0.000000
595.766769,-370.102971,-9400.615463,0.000000
595.767093,148.041188,-9030.512492,459.657299
595.767417,518.144159,-10214.842000,536.266849
595.767741,962.267725,-10066.800811,306.438199
595.768066,370.102971,-9844.739029,919.314598
595.768390,-444.123565,-10288.862594,689.485948
595.768714,-1110.308913,-10510.924376,689.485948
595.769038,-1406.391290,-11103.089130,919.314598
595.769362,-962.267725,-11843.295072,1991.848295
595.769687,-1406.391290,-10436.903782,1225.752797
595.770011,-1406.391290,-9030.512492,229.828649
595.770335,-740.205942,-8290.306550,-153.219100
595.770659,-222.061783,-8586.388927,0.000000
595.770983,-370.102971,-9400.615463,-383.047749
595.771308,-814.226536,-9178.553681,0.000000
595.771632,-1332.370696,-8956.491898,919.314598
595.771956,-666.185348,-9178.553681,383.047749
595.772280,370.102971,-8956.491898,536.266849
595.772604,740.205942,-9178.553681,306.438199
595.772929,814.226536,-9030.512492,0.000000
595.773253,1036.288319,-9104.533087,0.000000
595.773577,1924.535449,-8660.409521,153.219100
595.773901,3034.844362,-8364.327145,689.485948
595.774225,2960.823768,-8734.430116,76.609550
595.774550,2294.638420,-8734.430116,-1225.752797
595.774874,1036.288319,-8956.491898,-1455.581446
595.775198,74.020594,-10881.027347,-1455.581446
595.775522,370.102971,-10955.047942,-1532.190996
595.775846,592.164754,-10955.047942,-995.924147
595.776171,296.082377,-11399.171507,-919.314598
595.776495,1184.329507,-11399.171507,-1149.143247
595.776819,1776.494261,-12213.398043,0.000000
595.777143,1406.391290,-12361.439231,-1072.533697
595.777467,1480.411884,-11029.068536,-383.047749
595.777791,1776.494261,-10288.862594,-766.095498
595.778116,1258.350101,-10288.862594,-766.095498
595.778440,222.061783,-10214.842000,-536.266849
595.778764,-666.185348,-9548.656652,-1149.143247
595.779088,-740.205942,-8808.450710,-1838.629195
595.779412,-1258.350101,-8364.327145,-2374.896044
595.779737,-1036.288319,-8290.306550,-1149.143247
595.780061,-444.123565,-9030.512492,-306.438199
595.780385,-1332.370696,-9696.697840,-689.485948
595.780709,-1702.473667,-8364.327145,-1455.581446
595.781033,-1480.411884,-7994.224174,-766.095498
595.781358,-666.185348,-9474.636058,-229.828649
595.781682,296.082377,-9696.697840,-306.438199
595.782006,148.041188,-9104.533087,-229.828649
595.782330,74.020594,-8438.347739,689.485948
595.782654,296.082377,-9992.780217,-306.438199
595.782979,0.000000,-11177.109724,-229.828649
595.783303,-814.226536,-10658.965565,0.000000
595.783627,-1110.308913,-10510.924376,229.828649
595.783951,-1258.350101,-10955.047942,0.000000
595.784275,-814.226536,-10658.965565,0.000000
595.784600,-740.205942,-10658.965565,153.219100
595.784924,-1184.329507,-10362.883188,153.219100
595.785248,-2072.576638,-9844.739029,0.000000
595.785572,-3034.844362,-9474.636058,-383.047749
595.785896,-2812.782580,-8438.347739,0.000000
595.786221,-888.247130,-8882.471304,536.266849
595.786545,-296.082377,-9104.533087,536.266849
595.786869,74.020594,-8438.347739,612.876398
595.787193,-518.144159,-7846.182985,306.438199
595.787517,-888.247130,-7920.203579,229.828649
595.787842,814.226536,-8808.450710,229.828649
595.788166,1036.288319,-9548.656652,689.485948
595.788490,888.247130,-9474.636058,919.314598
595.788814,888.247130,-9474.636058,689.485948
595.789138,370.102971,-9844.739029,0.000000
595.789462,888.247130,-9474.636058,0.000000
595.789786,1406.391290,-9474.636058,383.047749
595.790110,296.082377,-10214.842000,459.657299
595.790434,0.000000,-9992.780217,76.609550
595.790758,-444.123565,-9696.697840,766.095498
595.791082,370.102971,-9622.677246,153.219100
595.791406,296.082377,-8882.471304,-383.047749
595.791730,-518.144159,-9104.533087,-459.657299
595.792054,-1406.391290,-8364.327145,-1149.143247
595.792378,-2220.617826,-8734.430116,-995.924147
595.792703,-1036.288319,-9252.574275,-536.266849
595.793027,1110.308913,-9030.512492,-536.266849
595.793351,1480.411884,-10510.924376,306.438199
595.793675,1924.535449,-9696.697840,-995.924147
595.793999,2220.617826,-9622.677246,-153.219100
595.794323,2146.597232,-11547.212695,536.266849
595.794647,3182.885551,-11695.253884,-459.657299
595.794971,2886.803174,-11695.253884,536.266849
595.795295,2368.659014,-11103.089130,76.609550
595.795619,2146.597232,-10288.862594,153.219100
595.795943,1036.288319,-10362.883188,-153.219100
595.796267,222.061783,-9622.677246,-919.314598
595.796591,-370.102971,-9992.780217,-919.314598
595.796915,-888.247130,-10436.903782,-842.705048
595.797239,-888.247130,-9400.615463,-536.266849
595.797563,-1554.432478,-9548.656652,-383.047749
595.797887,-2146.597232,-9918.759623,-229.828649
595.798211,-2072.576638,-10066.800811,-766.095498
595.798535,-2442.679609,-10140.821405,-766.095498
595.798859,-2220.617826,-9622.677246,229.828649
595.799183,-1258.350101,-9474.636058,0.000000
595.799507,0.000000,-9696.697840,76.609550
595.799831,444.123565,-8660.409521,229.828649
595.800156,740.205942,-9252.574275,995.924147
595.800480,1110.308913,-9696.697840,842.705048
595.800804,888.247130,-9474.636058,689.485948
595.801128,74.020594,-8734.430116,995.924147
595.801452,-222.061783,-8882.471304,536.266849
595.801776,-296.082377,-9622.677246,842.705048
595.802100,-1184.329507,-9696.697840,0.000000
595.802424,-1850.514855,-8808.450710,229.828649
595.802748,-2294.638420,-8882.471304,0.000000
595.803072,-1924.535449,-9104.533087,-229.828649
595.803396,-1036.288319,-8512.368333,0.000000
595.803720,-444.123565,-8364.327145,0.000000
595.804044,-814.226536,-8808.450710,536.266849
595.804368,-370.102971,-9770.718434,1532.190996
595.804692,148.041188,-9474.636058,1302.362347
595.805016,296.082377,-7994.224174,842.705048
595.805340,-148.041188,-9030.512492,919.314598
595.805664,-1110.308913,-9918.759623,-612.876398
595.805988,-1850.514855,-9474.636058,-1532.190996
595.806312,-2442.679609,-9178.553681,76.609550
595.806636,-1184.329507,-8956.491898,0.000000
595.806960,296.082377,-9696.697840,-766.095498
595.807284,666.185348,-9474.636058,0.000000
595.807608,1332.370696,-9030.512492,0.000000
595.807933,1480.411884,-9400.615463,-1072.533697
595.808257,1258.350101,-9474.636058,-1378.971896
595.808581,592.164754,-10436.903782,153.219100
595.808905,1480.411884,-11991.336260,-383.047749
595.809229,1406.391290,-11547.212695,-919.314598
595.809553,666.185348,-9992.780217,-766.095498
595.809877,0.000000,-9474.636058,-1532.190996
595.810201,1850.514855,-11399.171507,-1532.190996
595.810525,2664.741391,-12657.521608,-612.876398
595.810849,2664.741391,-11769.274478,-306.438199
595.811173,2368.659014,-10436.903782,-459.657299
595.811497,1332.370696,-10436.903782,-995.924147
595.811821,1110.308913,-11103.089130,-1915.238745
595.812145,370.102971,-11029.068536,-1378.971896
595.812469,-296.082377,-10881.027347,-1302.362347
595.812793,-296.082377,-10066.800811,-153.219100
595.813117,-370.102971,-10214.842000,-153.219100
595.813441,0.000000,-9252.574275,-842.705048
595.813765,0.000000,-9030.512492,-689.485948
595.814089,0.000000,-9622.677246,-995.924147
595.814413,296.082377,-9844.739029,229.828649
595.814737,-296.082377,-9104.533087,0.000000
595.815061,-1110.308913,-8808.450710,0.000000
595.815386,-814.226536,-7994.224174,-153.219100
595.815710,0.000000,-9770.718434,306.438199
595.816034,296.082377,-10436.903782,306.438199
595.816358,-592.164754,-9770.718434,536.266849
595.816682,-1924.535449,-8956.491898,459.657299
595.817006,-1850.514855,-6587.832884,383.047749
595.817330,-222.061783,-8216.285956,995.924147
595.817654,0.000000,-9030.512492,766.095498
595.817978,0.000000,-8734.430116,689.485948
595.818302,-444.123565,-8142.265362,689.485948
595.818626,0.000000,-7698.141797,842.705048
595.818950,-370.102971,-8364.327145,1762.019645
595.819274,-1480.411884,-9696.697840,919.314598
595.819598,-2664.741391,-8586.388927,306.438199
595.819922,-3849.070898,-8956.491898,153.219100
595.820246,-3627.009116,-9326.594869,-383.047749
595.820570,-814.226536,-8882.471304,229.828649
595.820894,148.041188,-10140.821405,1072.533697
595.821218,666.185348,-9770.718434,153.219100
595.821542,1036.288319,-9252.574275,0.000000
595.821866,148.041188,-9770.718434,153.219100
595.822190,296.082377,-9992.780217,-153.219100
595.822514,814.226536,-10584.944971,-612.876398
595.822838,370.102971,-11325.150913,153.219100
595.823163,518.144159,-11399.171507,306.438199
595.823487,518.144159,-11695.253884,383.047749
595.823811,222.061783,-11251.130318,0.000000
595.824135,0.000000,-10140.821405,-383.047749
595.824459,-148.041188,-10584.944971,-842.705048
595.824783,444.123565,-9252.574275,-1225.752797
595.825107,444.123565,-9326.594869,0.000000
595.825431,962.267725,-9548.656652,-306.438199
595.825755,1924.535449,-9104.533087,-383.047749
595.826079,1406.391290,-10362.883188,229.828649
595.826403,1036.288319,-9992.780217,-919.314598
595.826727,148.041188,-9400.615463,-766.095498
595.827051,-814.226536,-9770.718434,-919.314598
595.827375,-592.164754,-10288.862594,-995.924147
595.827699,370.102971,-10955.047942,0.000000
595.828023,1480.411884,-10732.986159,-383.047749
595.828347,2072.576638,-9548.656652,0.000000
595.828671,1998.556043,-9178.553681,-153.219100
595.828995,1998.556043,-8808.450710,-689.485948
595.829319,1702.473667,-9400.615463,0.000000
595.829643,222.061783,-9548.656652,459.657299
595.829967,0.000000,-9622.677246,0.000000
595.830291,-814.226536,-9770.718434,-612.876398
595.830616,-1554.432478,-9030.512492,-1149.143247
595.830940,-592.164754,-9548.656652,-383.047749
595.831264,-370.102971,-11325.150913,153.219100
595.831588,74.020594,-10510.924376,306.438199
595.831912,0.000000,-8882.471304,0.000000
595.832236,0.000000,-7920.203579,0.000000
595.832560,0.000000,-8068.244768,-612.876398
595.832884,-370.102971,-9252.574275,76.609550
595.833208,-1036.288319,-9622.677246,306.438199
595.833532,-1258.350101,-9548.656652,76.609550
595.833856,-1406.391290,-9326.594869,153.219100
595.834180,-1406.391290,-8068.244768,-459.657299
595.834504,-814.226536,-8438.347739,0.000000
595.834828,-444.123565,-10140.821405,-383.047749
595.835152,-296.082377,-9770.718434,-689.485948
595.835476,-888.247130,-9622.677246,229.828649
595.835800,-740.205942,-8956.491898,383.047749
595.836124,592.164754,-8586.388927,-306.438199
595.836448,740.205942,-8734.430116,-306.438199
595.836772,-592.164754,-9844.739029,-383.047749
595.837096,-1406.391290,-11029.068536,-459.657299
595.837420,-1184.329507,-11251.130318,229.828649
595.837744,-444.123565,-10214.842000,919.314598
595.838068,-444.123565,-10510.924376,536.266849
595.838393,-666.185348,-10807.006753,76.609550
595.838717,-148.041188,-10955.047942,-153.219100
595.839041,148.041188,-10732.986159,612.876398
595.839365,444.123565,-9770.718434,689.485948
595.839689,148.041188,-9474.636058,306.438199
595.840013,-148.041188,-9252.574275,-153.219100
595.840337,-518.144159,-9844.739029,-153.219100
595.840661,-1258.350101,-10807.006753,0.000000
595.840985,-1776.494261,-9696.697840,0.000000
595.841309,-1184.329507,-8438.347739,383.047749
595.841633,-592.164754,-8068.244768,0.000000
595.841957,1036.288319,-7772.162391,0.000000
595.842281,1110.308913,-7846.182985,76.609550
595.842605,1406.391290,-8734.430116,842.705048
595.842929,2146.597232,-9400.615463,766.095498
595.843253,1628.453072,-9400.615463,1378.971896
595.843577,1406.391290,-8438.347739,1072.533697
595.843901,1776.494261,-9030.512492,1072.533697
595.844225,1554.432478,-11103.089130,612.876398
595.844549,1406.391290,-11325.150913,689.485948
595.844873,1258.350101,-11251.130318,919.314598
595.845197,888.247130,-10510.924376,536.266849
595.845521,1184.329507,-9548.656652,0.000000
595.845846,518.144159,-9918.759623,-306.438199
595.846170,148.041188,-10510.924376,-383.047749
595.846494,296.082377,-10807.006753,0.000000
595.846818,814.226536,-11325.150913,842.705048
595.847142,444.123565,-9992.780217,76.609550
595.847466,-666.185348,-9696.697840,229.828649
595.847790,-1998.556043,-10066.800811,-229.828649
595.848114,-1998.556043,-9844.739029,-766.095498
595.848438,-1332.370696,-10288.862594,229.828649
595.848762,-666.185348,-10214.842000,1149.143247
595.849086,0.000000,-9178.553681,536.266849
595.849410,-222.061783,-7624.121203,0.000000
595.849734,296.082377,-7105.977043,76.609550
595.850058,0.000000,-8216.285956,0.000000
595.850382,296.082377,-9770.718434,-612.876398
595.850706,-148.041188,-8734.430116,229.828649
595.851030,-740.205942,-7994.224174,995.924147
595.851354,0.000000,-7698.141797,76.609550
595.851678,-148.041188,-9548.656652,76.609550
595.852002,-666.185348,-10881.027347,995.924147
595.852326,-962.267725,-11029.068536,0.000000
595.852650,-1184.329507,-9844.739029,-229.828649
595.852974,-1258.350101,-9030.512492,-153.219100
595.853299,-814.226536,-9474.636058,0.000000
595.853623,-1184.329507,-10732.986159,-306.438199
595.853947,-1554.432478,-10510.924376,-612.876398
595.854271,-2590.720797,-10066.800811,-459.657299
595.854595,-2220.617826,-10362.883188,-766.095498
595.854919,-518.144159,-9844.739029,-766.095498
595.855243,740.205942,-10362.883188,306.438199
595.855567,962.267725,-10584.944971,0.000000
595.855891,962.267725,-9918.759623,-306.438199
595.856215,296.082377,-9474.636058,0.000000
595.856539,444.123565,-9030.512492,0.000000
595.856863,1258.350101,-8956.491898,0.000000
595.857187,1480.411884,-8660.409521,-612.876398
595.857511,296.082377,-8586.388927,-383.047749
595.857835,-1184.329507,-8290.306550,-689.485948
595.858159,-2220.617826,-8734.430116,-1378.971896
595.858483,-2146.597232,-8660.409521,-1915.238745
595.858807,-1258.350101,-8956.491898,-919.314598
595.859131,-962.267725,-8734.430116,-919.314598
595.859455,0.000000,-9252.574275,-919.314598
595.859779,222.061783,-10362.883188,-1378.971896
595.860103,1184.329507,-9622.677246,-1225.752797
595.860427,2516.700203,-10732.986159,-689.485948
595.860751,2664.741391,-12361.439231,-76.609550
595.861076,2294.638420,-12287.418637,-766.095498
595.861400,1036.288319,-10955.047942,-306.438199
595.861724,222.061783,-10288.862594,-766.095498
595.862048,1332.370696,-11621.233289,-1072.533697
595.862372,740.205942,-12953.603985,-766.095498
595.862696,666.185348,-11621.233289,-153.219100
595.863020,1036.288319,-9844.739029,0.000000
595.863344,666.185348,-9918.759623,0.000000
595.863668,814.226536,-9474.636058,76.609550
595.863992,666.185348,-9252.574275,-919.314598
595.864316,296.082377,-8660.409521,-306.438199
595.864640,-370.102971,-8882.471304,229.828649
595.864964,-296.082377,-9474.636058,306.438199
595.865288,370.102971,-8512.368333,383.047749
595.865612,888.247130,-8586.388927,459.657299
595.865936,444.123565,-8956.491898,153.219100
595.866260,444.123565,-9474.636058,1302.362347
595.866584,-296.082377,-9622.677246,1072.533697
595.866908,-518.144159,-9548.656652,1532.190996
595.867232,-814.226536,-8808.450710,1455.581446
595.867556,-1258.350101,-9474.636058,766.095498
595.867880,-1480.411884,-9326.594869,842.705048
595.868204,-1480.411884,-9474.636058,1838.629195
595.868529,-1184.329507,-8734.430116,1685.410096
595.868853,-1480.411884,-7772.162391,1149.143247
595.869177,-2072.576638,-8660.409521,1455.581446
595.869501,-1406.391290,-9622.677246,1608.800546
595.869825,-666.185348,-10066.800811,1685.410096
595.870149,-1332.370696,-8808.450710,1378.971896
595.870473,-1776.494261,-7920.203579,1225.752797
595.870797,-888.247130,-9030.512492,1608.800546
595.871121,592.164754,-9622.677246,1149.143247
595.871445,962.267725,-9992.780217,1302.362347
595.871769,518.144159,-9178.553681,919.314598
595.872093,0.000000,-7920.203579,0.000000
595.872417,222.061783,-8290.306550,612.876398
595.872741,518.144159,-9696.697840,995.924147
595.873065,370.102971,-10066.800811,919.314598
595.873389,222.061783,-9548.656652,536.266849
595.873713,-888.247130,-9104.533087,459.657299
595.874037,-962.267725,-8882.471304,0.000000
595.874361,-222.061783,-9844.739029,0.000000
595.874685,-222.061783,-10140.821405,-306.438199
595.875009,-888.247130,-10436.903782,-383.047749
595.875333,-1184.329507,-10362.883188,-842.705048
595.875657,-296.082377,-9400.615463,-995.924147
595.875981,296.082377,-10066.800811,-536.266849
595.876306,444.123565,-10658.965565,-612.876398
595.876630,222.061783,-11029.068536,-1225.752797
595.876954,74.020594,-11473.192101,-995.924147
595.877278,962.267725,-10807.006753,-612.876398
595.877602,2368.659014,-11177.109724,0.000000
595.877926,2886.803174,-11621.233289,-766.095498
595.878250,2368.659014,-10362.883188,-459.657299
595.878574,1258.350101,-10658.965565,-689.485948
595.878898,962.267725,-9696.697840,-1225.752797
595.879222,1702.473667,-10140.821405,-383.047749
595.879546,2072.576638,-10510.924376,-229.828649
595.879870,2146.597232,-9252.574275,-919.314598
595.880194,962.267725,-8882.471304,-536.266849
595.880518,74.020594,-9696.697840,-1149.143247
595.880842,814.226536,-10584.944971,-229.828649
595.881166,1036.288319,-10658.965565,0.000000
595.881490,740.205942,-9178.553681,-459.657299
595.881814,74.020594,-8586.388927,-459.657299
595.882138,-518.144159,-9474.636058,-919.314598
595.882462,0.000000,-9252.574275,-919.314598
595.882786,0.000000,-9622.677246,0.000000
595.883110,0.000000,-9474.636058,76.609550
595.883434,0.000000,-9104.533087,383.047749
595.883759,-962.267725,-8808.450710,76.609550
595.884083,-1554.432478,-8956.491898,229.828649
595.884407,-1924.535449,-9252.574275,76.609550
595.884731,-2516.700203,-9992.780217,0.000000
595.885055,-2664.741391,-9104.533087,0.000000
595.885379,-2072.576638,-8438.347739,383.047749
595.885703,-1258.350101,-7920.203579,0.000000
595.886027,-888.247130,-7846.182985,-306.438199
595.886351,-592.164754,-8512.368333,0.000000
595.886675,0.000000,-9474.636058,612.876398
595.886999,518.144159,-10140.821405,1378.971896
595.887323,-148.041188,-9844.739029,689.485948
595.887647,-1184.329507,-8808.450710,306.438199
595.887971,-1702.473667,-9474.636058,-153.219100
595.888295,-814.226536,-10658.965565,-689.485948
595.888619,-1036.288319,-10732.986159,0.000000
595.888943,-1480.411884,-10510.924376,306.438199
595.889267,-1036.288319,-9030.512492,0.000000
595.889591,-222.061783,-9326.594869,-153.219100
595.889915,-222.061783,-10510.924376,-229.828649
595.890239,-148.041188,-11251.130318,-153.219100
595.890563,-148.041188,-11103.089130,0.000000
595.890887,-518.144159,-9992.780217,229.828649
595.891211,0.000000,-9400.615463,76.609550
595.891536,74.020594,-10732.986159,536.266849
595.891860,0.000000,-11325.150913,76.609550
595.892184,-370.102971,-10584.944971,0.000000
595.892508,-592.164754,-9992.780217,-383.047749
595.892832,-592.164754,-9844.739029,-153.219100
595.893156,296.082377,-9696.697840,-383.047749
595.893480,740.205942,-9178.553681,-459.657299
595.893804,592.164754,-8438.347739,-76.609550
595.894128,518.144159,-8882.471304,-536.266849
595.894452,1184.329507,-8808.450710,-383.047749
595.894776,1628.453072,-9474.636058,76.609550
595.895100,2072.576638,-9844.739029,153.219100
595.895424,2072.576638,-10362.883188,459.657299
595.895748,1628.453072,-10362.883188,153.219100
595.896072,1480.411884,-9844.739029,229.828649
595.896396,1628.453072,-9178.553681,842.705048
595.896720,2072.576638,-9548.656652,306.438199
595.897044,2072.576638,-9474.636058,153.219100
595.897368,1036.288319,-9474.636058,0.000000
595.897692,-148.041188,-9030.512492,-229.828649
595.898016,-1406.391290,-8882.471304,-459.657299
595.898340,-2516.700203,-8882.471304,-536.266849
595.898664,-1850.514855,-8808.450710,-995.924147
595.898989,-1332.370696,-8364.327145,-536.266849
595.899313,-1406.391290,-9770.718434,0.000000
595.899637,-370.102971,-9548.656652,-229.828649
595.899961,666.185348,-8586.388927,-153.219100
595.900285,1110.308913,-9252.574275,536.266849
595.900609,1998.556043,-9918.759623,766.095498
595.900933,1702.473667,-10288.862594,995.924147
595.901257,444.123565,-9474.636058,-306.438199
595.901581,0.000000,-9474.636058,-306.438199
595.901905,0.000000,-10807.006753,0.000000
595.902229,148.041188,-11843.295072,-306.438199
595.902553,-888.247130,-10807.006753,612.876398
595.902877,-2072.576638,-9622.677246,153.219100
595.903201,-2146.597232,-8660.409521,-1072.533697
595.903525,-1998.556043,-9326.594869,-995.924147
595.903849,-888.247130,-9548.656652,-76.609550
595.904173,0.000000,-9918.759623,-153.219100
595.904497,-592.164754,-10066.800811,-153.219100
595.904821,-1332.370696,-9548.656652,76.609550
595.905145,-1554.432478,-9770.718434,536.266849
595.905469,-1406.391290,-11103.089130,0.000000
595.905793,-1998.556043,-11177.109724,-612.876398
595.906117,-2368.659014,-9992.780217,0.000000
595.906441,-592.164754,-10214.842000,-229.828649
595.906766,814.226536,-10140.821405,306.438199
595.907090,1554.432478,-10214.842000,306.438199
595.907414,962.267725,-8512.368333,153.219100
595.907738,1110.308913,-8808.450710,0.000000
595.908062,962.267725,-9178.553681,-842.705048
595.908386,-296.082377,-9104.533087,-612.876398
595.908710,-962.267725,-9252.574275,0.000000
595.909034,-1480.411884,-9400.615463,-153.219100
595.909358,-1332.370696,-9770.718434,0.000000
595.909682,-1850.514855,-9696.697840,459.657299
595.910006,-1332.370696,-9178.553681,0.000000
595.910330,-518.144159,-9030.512492,459.657299
595.910654,296.082377,-9474.636058,612.876398
595.910978,518.144159,-8068.244768,689.485948
595.911302,148.041188,-7624.121203,689.485948
595.911626,222.061783,-8660.409521,229.828649
595.911950,1554.432478,-8438.347739,153.219100
595.912274,2146.597232,-8882.471304,0.000000
595.912598,1850.514855,-8956.491898,-153.219100
595.912922,592.164754,-9474.636058,0.000000
595.913246,296.082377,-10658.965565,0.000000
595.913570,740.205942,-10658.965565,-383.047749
595.913894,740.205942,-9844.739029,-689.485948
595.914218,962.267725,-10140.821405,-536.266849
595.914543,1998.556043,-10436.903782,-383.047749
595.914867,1702.473667,-10362.883188,-383.047749
595.915191,1406.391290,-9770.718434,0.000000
595.915515,1924.535449,-9548.656652,0.000000
595.915839,2368.659014,-10955.047942,-153.219100
595.916163,1406.391290,-11325.150913,459.657299
595.916487,0.000000,-11843.295072,689.485948
595.916811,-740.205942,-11251.130318,153.219100
595.917135,-518.144159,-10436.903782,229.828649
595.917459,-370.102971,-10881.027347,229.828649
595.917783,222.061783,-10658.965565,-919.314598
595.918107,-222.061783,-9104.533087,-919.314598
595.918431,-1332.370696,-8660.409521,-1072.533697
595.918755,-1628.453072,-8956.491898,-612.876398
595.919079,-2072.576638,-10362.883188,0.000000
595.919403,-2146.597232,-10214.842000,0.000000
595.919727,-1850.514855,-9474.636058,612.876398
595.920051,-1036.288319,-9326.594869,0.000000
595.920375,-962.267725,-8660.409521,-536.266849
595.920699,74.020594,-9326.594869,76.609550
595.921023,444.123565,-9474.636058,689.485948
595.921347,1480.411884,-9770.718434,1302.362347
595.921671,1850.514855,-10066.800811,1685.410096
595.921996,2072.576638,-9252.574275,1302.362347
595.922320,1776.494261,-9252.574275,919.314598
595.922644,370.102971,-9992.780217,-229.828649
595.922968,-1184.329507,-10658.965565,229.828649
595.923292,-2590.720797,-11251.130318,-153.219100
595.923616,-2368.659014,-10658.965565,-229.828649
595.923940,-2738.761985,-9770.718434,-306.438199
595.924264,-3182.885551,-9326.594869,-306.438199
595.924588,-2738.761985,-8956.491898,-383.047749
595.924912,-1332.370696,-9104.533087,0.000000
595.925236,0.000000,-8734.430116,383.047749
595.925560,962.267725,-6957.935855,536.266849
595.925884,1924.535449,-6513.812290,612.876398
595.926208,2146.597232,-7920.203579,842.705048
595.926532,1628.453072,-8956.491898,612.876398
595.926856,666.185348,-9844.739029,766.095498
595.927180,-370.102971,-9548.656652,229.828649
595.927504,-888.247130,-8438.347739,76.609550
595.927828,444.123565,-8882.471304,383.047749
595.928152,666.185348,-9770.718434,-153.219100
595.928476,666.185348,-9992.780217,153.219100
595.928800,444.123565,-9252.574275,-153.219100
595.929124,888.247130,-8068.244768,-536.266849
595.929448,592.164754,-8364.327145,-689.485948
595.929773,-296.082377,-10214.842000,-766.095498
595.930097,74.020594,-12213.398043,76.609550
595.930421,148.041188,-11547.212695,-459.657299
595.930745,1702.473667,-10584.944971,229.828649
595.931069,1628.453072,-11029.068536,842.705048
595.931393,2072.576638,-11843.295072,-153.219100
595.931717,1702.473667,-11325.150913,-536.266849
595.932041,518.144159,-11177.109724,-229.828649
595.932365,592.164754,-10807.006753,-1378.971896
595.932689,962.267725,-10732.986159,-1378.971896
595.933013,888.247130,-9918.759623,689.485948
595.933337,1184.329507,-9400.615463,459.657299
595.933661,74.020594,-10140.821405,0.000000
595.933985,-518.144159,-10658.965565,-536.266849
595.934309,-962.267725,-9918.759623,-612.876398
595.934633,-370.102971,-9474.636058,-536.266849
595.934957,370.102971,-8734.430116,-842.705048
595.935281,0.000000,-9252.574275,-153.219100
595.935605,-592.164754,-9622.677246,306.438199
595.935929,814.226536,-9030.512492,0.000000
595.936253,1332.370696,-9178.553681,383.047749
595.936577,888.247130,-9252.574275,612.876398
595.936901,-296.082377,-9030.512492,0.000000
595.937226,-1924.535449,-9178.553681,0.000000
595.937550,-2590.720797,-9548.656652,-383.047749
595.937874,-3034.844362,-9400.615463,-459.657299
595.938198,-3330.926739,-10066.800811,153.219100
595.938522,-2442.679609,-10140.821405,0.000000
595.938846,-1924.535449,-9252.574275,153.219100
595.939170,-1628.453072,-8808.450710,0.000000
595.939494,-962.267725,-8882.471304,0.000000
595.939818,222.061783,-9400.615463,0.000000
595.940142,444.123565,-9178.553681,383.047749
595.940466,74.020594,-8364.327145,306.438199
595.940790,-444.123565,-8364.327145,0.000000
595.941114,-888.247130,-7920.203579,-383.047749
595.941438,-888.247130,-9030.512492,-536.266849
595.941762,-518.144159,-10436.903782,-229.828649
595.942086,74.020594,-9770.718434,-383.047749
595.942410,444.123565,-9252.574275,-383.047749
595.942734,-296.082377,-8808.450710,-459.657299
595.943058,-296.082377,-8956.491898,306.438199
595.943382,-222.061783,-10214.842000,-153.219100
595.943706,-518.144159,-9326.594869,-383.047749
595.944030,-888.247130,-9178.553681,-153.219100
595.944354,-666.185348,-9030.512492,-383.047749
595.944678,0.000000,-9252.574275,-689.485948
595.945003,74.020594,-10140.821405,-536.266849
595.945327,0.000000,-9992.780217,-842.705048
595.945651,296.082377,-10658.965565,-306.438199
595.945975,-370.102971,-11177.109724,-766.095498
595.946299,0.000000,-9918.759623,-689.485948
595.946623,-296.082377,-10214.842000,-612.876398
595.946947,-962.267725,-10732.986159,-1302.362347
595.947271,-1036.288319,-10807.006753,-1685.410096
595.947595,-814.226536,-10066.800811,-1225.752797
595.947919,0.000000,-9474.636058,-1532.190996
595.948243,666.185348,-8882.471304,-306.438199
595.948567,2220.617826,-10510.924376,459.657299
595.948891,3552.988522,-10436.903782,919.314598
595.949215,3849.070898,-9844.739029,612.876398
595.949539,2368.659014,-9252.574275,-689.485948
595.949863,1036.288319,-8882.471304,-1455.581446
595.950187,0.000000,-10288.862594,-1225.752797
595.950511,-592.164754,-11325.150913,-1302.362347
595.950835,-1480.411884,-9992.780217,-2068.457845
595.951159,-2590.720797,-9474.636058,-1225.752797
595.951483,-2812.782580,-9474.636058,-1838.629195
595.951807,-1850.514855,-9326.594869,-2068.457845
595.952131,-1406.391290,-9178.553681,-1991.848295
595.952456,-1480.411884,-9104.533087,-1225.752797
595.952780,-2146.597232,-9770.718434,-229.828649
595.953104,-2516.700203,-9622.677246,-919.314598
595.953428,-2664.741391,-8586.388927,-383.047749
595.953752,-2516.700203,-8586.388927,-919.314598
595.954076,-2664.741391,-8956.491898,-2068.457845
595.954400,-3404.947333,-9178.553681,-1762.019645
595.954724,-5255.462188,-9844.739029,-1685.410096
595.955048,-6069.688724,-10214.842000,-1762.019645
595.955372,-4515.256246,-10362.883188,-1762.019645
595.955696,-3627.009116,-9696.697840,-2145.067394
595.956020,-3108.864956,-9326.594869,-1991.848295
595.956344,-3182.885551,-9844.739029,-2298.286494
595.956668,-3034.844362,-11029.068536,-2604.724693
595.956992,-2886.803174,-10214.842000,-1762.019645
595.957316,-2516.700203,-8956.491898,-1685.410096
595.957640,-1628.453072,-9474.636058,-1915.238745
595.957964,-1998.556043,-9400.615463,-2298.286494
595.958288,-2146.597232,-8882.471304,-2451.505594
595.958612,-3552.988522,-9030.512492,-3064.381992
595.958936,-4885.359217,-9252.574275,-3294.210641
595.959260,-4811.338623,-9104.533087,-3064.381992
595.959584,-3404.947333,-9918.759623,-2451.505594
595.959908,-2590.720797,-10066.800811,-1608.800546
595.960233,-2590.720797,-10584.944971,-2145.067394
595.960557,-3478.967927,-11029.068536,-2068.457845
595.960881,-3256.906145,-11029.068536,-1838.629195
595.961205,-2294.638420,-10658.965565,-2451.505594
595.961529,-1406.391290,-9252.574275,-1608.800546
595.961853,444.123565,-8512.368333,-1608.800546
595.962177,1036.288319,-9548.656652,-2068.457845
595.962501,444.123565,-8808.450710,-3677.258390
595.962825,-1406.391290,-8512.368333,-4519.963438
595.963149,-3108.864956,-10658.965565,-3524.039291
595.963473,-2368.659014,-11917.315666,-4060.306139
595.963797,-1184.329507,-11103.089130,-3753.867940
595.964121,-1776.494261,-10214.842000,-2068.457845
595.964445,-2146.597232,-10881.027347,-2145.067394
595.964769,-1850.514855,-10140.821405,-2604.724693
595.965093,-1850.514855,-9252.574275,-1915.238745
595.965417,-1036.288319,-8956.491898,-919.314598
595.965741,0.000000,-8512.368333,-1685.410096
595.966065,148.041188,-7846.182985,-1378.971896
595.966389,-296.082377,-7846.182985,-689.485948
595.966713,0.000000,-9104.533087,-1225.752797
595.967037,-296.082377,-9326.594869,-2604.724693
595.967361,-1924.535449,-9770.718434,-3064.381992
595.967685,-2812.782580,-10362.883188,-2757.943793
595.968010,-2072.576638,-11621.233289,-3753.867940
595.968334,-2368.659014,-11399.171507,-3447.429741
595.968658,-2812.782580,-10807.006753,-2374.896044
595.968982,-2072.576638,-11325.150913,-2451.505594
595.969306,-1036.288319,-11251.130318,-2298.286494
595.969630,-444.123565,-11103.089130,-1608.800546
595.969954,-962.267725,-9696.697840,-1225.752797
595.970278,-1036.288319,-9474.636058,-1225.752797
595.970602,-1184.329507,-9844.739029,-1532.190996
595.970926,-1776.494261,-9474.636058,-1991.848295
595.971250,-2368.659014,-8290.306550,-1455.581446
595.971574,-1480.411884,-8068.244768,-612.876398
595.971898,-592.164754,-9548.656652,-1225.752797
595.972222,-666.185348,-9326.594869,-2221.676944
595.972546,-3108.864956,-8734.430116,-2834.553343
595.972870,-5033.400406,-9104.533087,-2451.505594
595.973194,-5107.421000,-9622.677246,-2911.162892
595.973518,-4293.194464,-9474.636058,-2451.505594
595.973842,-5181.441594,-9252.574275,-2604.724693
595.974166,-4811.338623,-10140.821405,-2068.457845
595.974490,-3627.009116,-10807.006753,-2451.505594
595.974814,-1776.494261,-9918.759623,-1378.971896
595.975138,-2294.638420,-9474.636058,-1608.800546
595.975463,-3849.070898,-10658.965565,-1838.629195
595.975787,-3849.070898,-11473.192101,-1685.410096
595.976111,-2368.659014,-11251.130318,-1302.362347
595.976435,-962.267725,-10214.842000,-919.314598
595.976759,-1702.473667,-10362.883188,-1302.362347
595.977083,-2368.659014,-11029.068536,-1149.143247
595.977407,-2294.638420,-10214.842000,-1608.800546
595.977731,-1628.453072,-8734.430116,-1532.190996
595.978055,-2146.597232,-8438.347739,-2451.505594
595.978379,-3997.112087,-9696.697840,-2298.286494
595.978703,-5995.668130,-9844.739029,-2604.724693
595.979027,-6291.750507,-8438.347739,-2451.505594
595.979351,-6143.709319,-7105.977043,-2987.772442
595.979675,-4885.359217,-7179.997637,-2221.676944
595.979999,-3627.009116,-8290.306550,-1685.410096
595.980323,-1702.473667,-8290.306550,-1302.362347
595.980647,-444.123565,-7994.224174,-995.924147
595.980971,-666.185348,-8142.265362,-995.924147
595.981295,-222.061783,-9548.656652,-689.485948
595.981619,370.102971,-9696.697840,-229.828649
595.981943,2220.617826,-8734.430116,76.609550
595.982267,2368.659014,-9252.574275,0.000000
595.982591,-222.061783,-10732.986159,-689.485948
595.982915,-2664.741391,-11029.068536,-1225.752797
595.983240,-3849.070898,-8586.388927,-4213.525239
595.983564,-4293.194464,-7550.100608,-5745.716235
595.983888,-5107.421000,-12509.480420,-3064.381992
595.984212,-2664.741391,-14508.036463,-3524.039291
595.984536,-814.226536,-11621.233289,-3447.429741
595.984860,-2738.761985,-8068.244768,-1532.190996
595.985184,-2220.617826,-7031.956449,-3217.601092
595.985508,0.000000,-7772.162391,-3677.258390
595.985832,2072.576638,-7920.203579,-1915.238745
595.986156,4515.256246,-7550.100608,-459.657299
595.986480,4737.318029,-10288.862594,-306.438199
595.986804,2146.597232,-13249.686362,-1072.533697
595.987128,-1480.411884,-11695.253884,-919.314598
595.987452,-3997.112087,-10288.862594,-3217.601092
595.987776,-5921.647536,-10807.006753,-4596.572988
595.988100,-6587.832884,-12731.542202,-5286.058936
595.988424,-3701.029710,-11843.295072,-3983.696590
595.988748,666.185348,-10066.800811,-2451.505594
595.989072,1480.411884,-9474.636058,-2604.724693
595.989396,296.082377,-8956.491898,-2834.553343
595.989720,-1406.391290,-9178.553681,-3600.648841
595.990045,-2368.659014,-9844.739029,-3524.039291
595.990369,-3627.009116,-9918.759623,-2987.772442
595.990693,-4293.194464,-10732.986159,-2604.724693
595.991017,-3182.885551,-10881.027347,-2221.676944
595.991341,-1480.411884,-11399.171507,-2068.457845
595.991665,-1184.329507,-11177.109724,-1915.238745
595.991989,-1480.411884,-10140.821405,-1838.629195
595.992314,-2442.679609,-10214.842000,-2987.772442
595.992638,-2812.782580,-10510.924376,-2451.505594
595.992962,-3627.009116,-10140.821405,-2145.067394
595.993286,-4737.318029,-9918.759623,-2451.505594
595.993610,-5329.482782,-9326.594869,-2298.286494
595.993934,-5477.523971,-9178.553681,-2298.286494
595.994259,-4145.153275,-8808.450710,-2834.553343
595.994583,-3108.864956,-7698.141797,-2604.724693
595.994907,-1776.494261,-7550.100608,-2681.334243
595.995231,-1406.391290,-7698.141797,-2374.896044
595.995555,-1406.391290,-7994.224174,-1915.238745
595.995879,-1850.514855,-9030.512492,-1838.629195
595.996203,-2146.597232,-9252.574275,-1378.971896
595.996528,-2146.597232,-9252.574275,-1455.581446
595.996852,-1924.535449,-8808.450710,-995.924147
595.997176,-2812.782580,-9622.677246,-536.266849
595.997500,-4071.132681,-10732.986159,-689.485948
595.997824,-5181.441594,-11103.089130,-1149.143247
595.998148,-5329.482782,-10732.986159,-1532.190996
595.998472,-4885.359217,-10288.862594,-1532.190996
595.998797,-3849.070898,-9622.677246,-2145.067394
595.999121,-1924.535449,-8364.327145,-1991.848295
595.999445,-740.205942,-7179.997637,-1762.019645
595.999769,592.164754,-8290.306550,-2068.457845
596.000093,518.144159,-7846.182985,-2451.505594
596.000417,296.082377,-8216.285956,-1685.410096
596.000741,-148.041188,-8956.491898,-1532.190996
596.001066,-1406.391290,-9918.759623,-1608.800546
596.001390,-2664.741391,-10658.965565,-1608.800546
596.001714,-4293.194464,-10732.986159,-1991.848295
596.002038,-3923.091493,-10436.903782,-1532.190996
596.002362,-3849.070898,-9918.759623,-3524.039291
596.002686,-4145.153275,-11177.109724,-2681.334243
596.003010,-3701.029710,-13323.706956,-1608.800546
596.003335,-1332.370696,-13101.645173,-2374.896044
596.003659,518.144159,-10955.047942,-1915.238745
596.003983,1406.391290,-9104.533087,-1532.190996
596.004307,3404.947333,-8956.491898,-2068.457845
596.004631,4663.297435,-9326.594869,-1762.019645
596.004955,5181.441594,-9622.677246,-995.924147
596.005279,4811.338623,-9622.677246,0.000000
596.005604,2960.823768,-10510.924376,-689.485948
596.005928,-814.226536,-11103.089130,-1762.019645
596.006252,-4811.338623,-10807.006753,-2681.334243
596.006576,-7698.141797,-11177.109724,-3370.820191
596.006900,-8586.388927,-11695.253884,-4213.525239
596.007224,-7698.141797,-10732.986159,-2681.334243
596.007548,-6217.729913,-8808.450710,-2604.724693
596.007873,-3330.926739,-7550.100608,-2451.505594
596.008197,-1554.432478,-7920.203579,-1378.971896
596.008521,-666.185348,-7772.162391,-842.705048
596.008845,1258.350101,-8142.265362,-766.095498
596.009169,2146.597232,-8956.491898,-536.266849
596.009493,2960.823768,-9400.615463,153.219100
596.009817,3256.906145,-9770.718434,0.000000
596.010142,2072.576638,-9844.739029,-536.266849
596.010466,-518.144159,-10658.965565,-1532.190996
596.010790,-3775.050304,-11103.089130,-2068.457845
596.011114,-5995.668130,-10658.965565,-2757.943793
596.011438,-7328.038826,-9178.553681,-2528.115143
596.011762,-8512.368333,-8734.430116,-3677.258390
596.012086,-7994.224174,-8216.285956,-3294.210641
596.012411,-7105.977043,-7920.203579,-3217.601092
596.012735,-5477.523971,-8216.285956,-2528.115143
596.013059,-3775.050304,-8808.450710,-2068.457845
596.013383,-2368.659014,-9104.533087,-1378.971896
596.013707,-444.123565,-8882.471304,-536.266849
596.014031,962.267725,-9844.739029,-383.047749
596.014356,1628.453072,-10584.944971,-1225.752797
596.014680,1480.411884,-10955.047942,-766.095498
596.015004,814.226536,-11843.295072,-1532.190996
596.015328,-888.247130,-11769.274478,-2221.676944
596.015652,-2960.823768,-11177.109724,-3140.991542
596.015976,-4737.318029,-10066.800811,-4060.306139
596.016300,-6069.688724,-9770.718434,-4213.525239
596.016625,-6587.832884,-8808.450710,-4213.525239
596.016949,-5329.482782,-8216.285956,-4443.353888
596.017273,-3627.009116,-7550.100608,-4060.306139
596.017597,-2072.576638,-7550.100608,-3140.991542
596.017921,-1554.432478,-8364.327145,-2681.334243
596.018245,-1554.432478,-9474.636058,-2681.334243
596.018569,-2220.617826,-10214.842000,-2834.553343
596.018894,-2812.782580,-10807.006753,-2911.162892
596.019218,-3404.947333,-11251.130318,-2528.115143
596.019542,-3923.091493,-12287.418637,-2604.724693
596.019866,-3330.926739,-13619.789333,-2528.115143
596.020190,-1702.473667,-12657.521608,-2987.772442
596.020514,518.144159,-10732.986159,-3447.429741
596.020838,1776.494261,-9030.512492,-3753.867940
596.021163,1110.308913,-8512.368333,-3600.648841
596.021487,666.185348,-9400.615463,-3524.039291
596.021811,-962.267725,-8808.450710,-3294.210641
596.022135,-2886.803174,-9252.574275,-3677.258390
596.022459,-4663.297435,-8586.388927,-4136.915689
596.022783,-5329.482782,-7698.141797,-4290.134789
596.023107,-5033.400406,-7550.100608,-3753.867940
596.023432,-3997.112087,-8586.388927,-3983.696590
596.023756,-3849.070898,-10955.047942,-2757.943793
596.024080,-2072.576638,-12139.377449,-1225.752797
596.024404,-370.102971,-12213.398043,-1991.848295
596.024728,-518.144159,-12953.603985,-995.924147
596.025052,0.000000,-11843.295072,-1608.800546
596.025376,74.020594,-10658.965565,-2145.067394
596.025701,814.226536,-9918.759623,-1378.971896
596.026025,3108.864956,-9252.574275,-1608.800546
596.026349,4515.256246,-9030.512492,-306.438199
596.026673,4219.173869,-9104.533087,-229.828649
596.026997,518.144159,-9104.533087,-1915.238745
596.027321,-3849.070898,-8808.450710,-2757.943793
596.027645,-7402.059420,-7846.182985,-3600.648841
596.027970,-8956.491898,-7698.141797,-3983.696590
596.028294,-7920.203579,-7254.018232,-3370.820191
596.028618,-5995.668130,-8142.265362,-2298.286494
596.028942,-5181.441594,-10362.883188,-1608.800546
596.029266,-4811.338623,-11177.109724,-306.438199
596.029590,-4219.173869,-10658.965565,0.000000
596.029914,-2886.803174,-10214.842000,0.000000
596.030239,-148.041188,-9918.759623,-153.219100
596.030563,2960.823768,-10214.842000,536.266849
596.030887,5033.400406,-9770.718434,229.828649
596.031211,5699.585753,-9770.718434,0.000000
596.031535,4885.359217,-9548.656652,0.000000
596.031859,2738.761985,-8660.409521,-842.705048
596.032184,0.000000,-8512.368333,-1225.752797
596.032508,-3627.009116,-8808.450710,-2604.724693
596.032832,-8068.244768,-9622.677246,-3294.210641
596.033156,-11473.192101,-10807.006753,-3370.820191
596.033480,-11177.109724,-10140.821405,-3217.601092
596.033804,-8290.306550,-8660.409521,-2834.553343
596.034128,-6735.874072,-8586.388927,-2145.067394
596.034453,-5773.606348,-9622.677246,-1225.752797
596.034777,-5033.400406,-10436.903782,-1225.752797
596.035101,-3404.947333,-10510.924376,-842.705048
596.035425,-1036.288319,-10658.965565,459.657299
596.035749,3108.864956,-11473.192101,1072.533697
596.036073,6735.874072,-10288.862594,306.438199
596.036397,8660.409521,-8512.368333,153.219100
596.036722,7254.018232,-9178.553681,306.438199
596.037046,4663.297435,-11399.171507,-689.485948
596.037370,592.164754,-11991.336260,-1685.410096
596.037694,-3701.029710,-10584.944971,-2604.724693
596.038018,-7254.018232,-9030.512492,-3753.867940
596.038342,-9326.594869,-8216.285956,-4979.620737
596.038666,-10214.842000,-8734.430116,-4979.620737
596.038991,-10362.883188,-8882.471304,-5056.230287
596.039315,-8734.430116,-7994.224174,-4596.572988
596.039639,-6587.832884,-7994.224174,-2911.162892
596.039963,-4367.215058,-8438.347739,-2451.505594
596.040287,-2442.679609,-8290.306550,-1762.019645
596.040611,-1628.453072,-8882.471304,-1378.971896
596.040935,-148.041188,-10955.047942,-995.924147
596.041260,2812.782580,-13027.624579,0.000000
596.041584,6661.853478,-12361.439231,153.219100
596.041908,7772.162391,-10732.986159,229.828649
596.042232,6291.750507,-11325.150913,-306.438199
596.042556,2664.741391,-13027.624579,-1302.362347
596.042880,-1332.370696,-12213.398043,-2987.772442
596.043204,-6661.853478,-10214.842000,-5132.839837
596.043529,-9770.718434,-10362.883188,-3907.087040
596.043853,-10214.842000,-10066.800811,-5209.449386
596.044177,-8734.430116,-7402.059420,-6128.763984
596.044501,-8142.265362,-5033.400406,-4903.011187
596.044825,-7105.977043,-5921.647536,-4903.011187
596.045149,-5181.441594,-7402.059420,-4366.744339
596.045473,-2590.720797,-7105.977043,-3677.258390
596.045798,-518.144159,-5921.647536,-2145.067394
596.046122,962.267725,-8512.368333,-842.705048
596.046446,2442.679609,-12065.356855,-1072.533697
596.046770,3330.926739,-11547.212695,-995.924147
596.047094,3108.864956,-10066.800811,-536.266849
596.047418,2738.761985,-11843.295072,-612.876398
596.047742,2146.597232,-14211.954086,-612.876398
596.048067,962.267725,-12879.583391,-919.314598
596.048391,-1406.391290,-10214.842000,-2145.067394
596.048715,-4071.132681,-10214.842000,-3907.087040
596.049039,-5403.503377,-9992.780217,-4749.792088
596.049363,-6439.791695,-8956.491898,-4290.134789
596.049687,-5921.647536,-7698.141797,-3983.696590
596.050011,-4219.173869,-6291.750507,-5209.449386
596.050336,-2960.823768,-7105.977043,-4596.572988
596.050660,-2960.823768,-8438.347739,-3217.601092
596.050984,-2368.659014,-9992.780217,-2987.772442
596.051308,-1924.535449,-10807.006753,-3217.601092
596.051632,-2294.638420,-11769.274478,-2068.457845
596.051956,-1480.411884,-12065.356855,-1378.971896
596.052281,814.226536,-12139.377449,-612.876398
596.052605,2516.700203,-12361.439231,76.609550
596.052929,2960.823768,-11399.171507,-612.876398
596.053253,1406.391290,-10658.965565,-995.924147
596.053577,518.144159,-9844.739029,-1685.410096
596.053901,-148.041188,-10066.800811,-1378.971896
596.054225,0.000000,-9104.533087,-1838.629195
596.054550,-888.247130,-8142.265362,-2451.505594
596.054874,-2812.782580,-7994.224174,-2451.505594
596.055198,-4145.153275,-9030.512492,-3064.381992
596.055522,-5329.482782,-8364.327145,-3830.477490
596.055846,-7772.162391,-8290.306550,-2987.772442
596.056170,-8734.430116,-9992.780217,-2374.896044
596.056494,-8216.285956,-12361.439231,-2451.505594
596.056819,-6069.688724,-12731.542202,-1915.238745
596.057143,-4737.318029,-11399.171507,-689.485948
596.057467,-2960.823768,-10955.047942,-766.095498
596.057791,0.000000,-10732.986159,-1072.533697
596.058115,1776.494261,-10066.800811,0.000000
596.058439,3849.070898,-8956.491898,1455.581446
596.058763,4737.318029,-8364.327145,536.266849
596.059088,3701.029710,-9252.574275,1225.752797
596.059412,1702.473667,-9030.512492,229.828649
596.059736,740.205942,-7402.059420,-1302.362347
596.060060,-962.267725,-9104.533087,-1838.629195
596.060384,-2368.659014,-10955.047942,-1608.800546
596.060708,-2442.679609,-10732.986159,-1378.971896
596.061032,-3108.864956,-9844.739029,383.047749
596.061357,-3701.029710,-8586.388927,-306.438199
596.061681,-3256.906145,-7698.141797,-842.705048
596.062005,-2516.700203,-8068.244768,-153.219100
596.062329,-888.247130,-8216.285956,536.266849
596.062653,888.247130,-8068.244768,-153.219100
596.062977,888.247130,-7476.080014,1225.752797
596.063301,592.164754,-7698.141797,3524.039291
596.063626,2146.597232,-9104.533087,2528.115143
596.063950,2590.720797,-8956.491898,1685.410096
596.064274,2368.659014,-9030.512492,1915.238745
596.064598,1184.329507,-11251.130318,1302.362347
596.064922,962.267725,-11843.295072,229.828649
596.065246,1184.329507,-10584.944971,1608.800546
596.065570,-296.082377,-10362.883188,689.485948
596.065895,-1554.432478,-9622.677246,-612.876398
596.066219,-2220.617826,-9918.759623,-766.095498
596.066543,-3404.947333,-9992.780217,-995.924147
596.066867,-2960.823768,-8586.388927,-229.828649
596.067191,-2368.659014,-7254.018232,-1225.752797
596.067515,-2146.597232,-7254.018232,-383.047749
596.067839,222.061783,-8438.347739,612.876398
596.068164,3256.906145,-9400.615463,842.705048
596.068488,4293.194464,-9252.574275,1762.019645
596.068812,4071.132681,-8882.471304,1838.629195
596.069136,4441.235652,-9918.759623,689.485948
596.069460,4663.297435,-10807.006753,536.266849
596.069784,2812.782580,-11991.336260,306.438199
596.070108,444.123565,-12361.439231,-383.047749
596.070433,-296.082377,-11843.295072,-766.095498
596.070757,-1110.308913,-12065.356855,-1378.971896
596.071081,-1480.411884,-10881.027347,-2451.505594
596.071405,-2812.782580,-9770.718434,-1685.410096
596.071729,-4293.194464,-10140.821405,-2451.505594
596.072053,-3552.988522,-9622.677246,-1915.238745
596.072378,-2220.617826,-8808.450710,-995.924147
596.072702,-518.144159,-8438.347739,-995.924147
596.073026,1110.308913,-7328.038826,-536.266849
596.073350,1554.432478,-6809.894666,-612.876398
596.073674,1628.453072,-8586.388927,0.000000
596.073998,1110.308913,-11473.192101,919.314598
596.074322,1110.308913,-11917.315666,0.000000
596.074647,814.226536,-9030.512492,-689.485948
596.074971,-1036.288319,-7328.038826,-2681.334243
596.075295,-3256.906145,-10066.800811,-3447.429741
596.075619,-4145.153275,-12435.459826,-2604.724693
596.075943,-2442.679609,-12509.480420,-2451.505594
596.076267,-814.226536,-9918.759623,-1685.410096
596.076591,148.041188,-8512.368333,0.000000
596.076916,888.247130,-8586.388927,-1685.410096
596.077240,1258.350101,-8808.450710,-1762.019645
596.077564,1036.288319,-9326.594869,-612.876398
596.077888,1702.473667,-10288.862594,-383.047749
596.078212,1924.535449,-10214.842000,-383.047749
596.078536,1258.350101,-9400.615463,-536.266849
596.078860,962.267725,-8438.347739,306.438199
596.079185,0.000000,-9548.656652,-536.266849
596.079509,-2220.617826,-12065.356855,-1455.581446
596.079833,-3552.988522,-11769.274478,-1378.971896
596.080157,-3404.947333,-10436.903782,-842.705048
596.080481,-3330.926739,-9844.739029,-995.924147
596.080805,-3182.885551,-8956.491898,153.219100
596.081129,-1628.453072,-9252.574275,-689.485948
596.081454,518.144159,-9696.697840,459.657299
596.081778,1554.432478,-8660.409521,842.705048
596.082102,1258.350101,-7698.141797,459.657299
596.082426,1480.411884,-7772.162391,1225.752797
596.082750,1850.514855,-9548.656652,995.924147
596.083074,1776.494261,-9992.780217,153.219100
596.083398,1110.308913,-8808.450710,689.485948
596.083723,222.061783,-8586.388927,-153.219100
596.084047,-370.102971,-9474.636058,-306.438199
596.084371,0.000000,-10658.965565,536.266849
596.084695,0.000000,-10658.965565,842.705048
596.085019,-962.267725,-9844.739029,842.705048
596.085343,-1924.535449,-9622.677246,689.485948
596.085667,-1480.411884,-9030.512492,229.828649
596.085992,-518.144159,-8882.471304,766.095498
596.086316,1036.288319,-9474.636058,1915.238745
596.086640,3108.864956,-9622.677246,1608.800546
596.086964,4071.132681,-9252.574275,1225.752797
596.087288,4367.215058,-9474.636058,1302.362347
596.087612,4071.132681,-10362.883188,229.828649
596.087936,3330.926739,-11473.192101,536.266849
596.088261,1480.411884,-11325.150913,229.828649
596.088585,0.000000,-10510.924376,0.000000
596.088909,-1480.411884,-9622.677246,-612.876398
596.089233,-1554.432478,-9326.594869,-1072.533697
596.089557,-888.247130,-9326.594869,-612.876398
596.089881,-740.205942,-10436.903782,0.000000
596.090206,-1258.350101,-10066.800811,153.219100
596.090530,-2072.576638,-7698.141797,0.000000
596.090854,-2664.741391,-6809.894666,-306.438199
596.091178,-1628.453072,-6735.874072,-766.095498
596.091502,148.041188,-8882.471304,-689.485948
596.091826,2146.597232,-9548.656652,-612.876398
596.092151,2960.823768,-9252.574275,0.000000
596.092475,2516.700203,-9326.594869,-153.219100
596.092799,2294.638420,-9474.636058,-536.266849
596.093123,1406.391290,-11621.233289,153.219100
596.093447,518.144159,-13841.851115,76.609550
596.093772,0.000000,-13323.706956,-536.266849
596.094096,-1924.535449,-11843.295072,-229.828649
596.094420,-2368.659014,-9844.739029,0.000000
596.094744,-1924.535449,-10436.903782,-383.047749
596.095068,-1850.514855,-10510.924376,-1685.410096
596.095393,-2664.741391,-8882.471304,-383.047749
596.095717,-3108.864956,-9104.533087,536.266849
596.096041,-2738.761985,-8882.471304,-919.314598
596.096365,-1924.535449,-8290.306550,76.609550
596.096689,-1258.350101,-8586.388927,306.438199
596.097014,0.000000,-9252.574275,-612.876398
596.097338,74.020594,-9844.739029,-383.047749
596.097662,296.082377,-9918.759623,-383.047749
596.097986,1628.453072,-8734.430116,766.095498
596.098310,1998.556043,-9400.615463,766.095498
596.098634,2146.597232,-8956.491898,612.876398
596.098959,962.267725,-8512.368333,383.047749
596.099283,-148.041188,-9622.677246,612.876398
596.099607,-740.205942,-9844.739029,383.047749
596.099931,-740.205942,-8882.471304,612.876398
596.100255,-1110.308913,-7772.162391,306.438199
596.100580,-1036.288319,-8068.244768,459.657299
596.100904,-1258.350101,-9548.656652,-153.219100
596.101228,-1406.391290,-9474.636058,-383.047749
596.101552,-1258.350101,-8734.430116,229.828649
596.101876,-592.164754,-9844.739029,383.047749
596.102201,962.267725,-10436.903782,-153.219100
596.102525,1332.370696,-9474.636058,153.219100
596.102849,444.123565,-10510.924376,-153.219100
596.103173,592.164754,-10584.944971,-459.657299
596.103497,1110.308913,-11325.150913,-842.705048
596.103821,666.185348,-10214.842000,-306.438199
596.104146,666.185348,-9104.533087,0.000000
596.104470,666.185348,-9770.718434,-919.314598
596.104794,1184.329507,-9474.636058,-995.924147
596.105118,2368.659014,-8734.430116,229.828649
596.105442,2812.782580,-9104.533087,-153.219100
596.105767,2072.576638,-9030.512492,0.000000
596.106091,444.123565,-9104.533087,-153.219100
596.106415,222.061783,-8438.347739,-1225.752797
596.106739,296.082377,-9474.636058,-1455.581446
596.107063,296.082377,-11177.109724,-1685.410096
596.107388,222.061783,-10732.986159,-2145.067394
596.107712,370.102971,-10436.903782,-612.876398
596.108036,74.020594,-11103.089130,-689.485948
596.108360,0.000000,-10584.944971,-1378.971896
596.108684,-814.226536,-9622.677246,-1455.581446
596.109009,-1184.329507,-10066.800811,-1455.581446
596.109333,-444.123565,-11399.171507,-1225.752797
596.109657,-666.185348,-11695.253884,-766.095498
596.109981,-1406.391290,-9696.697840,-536.266849
596.110305,-1332.370696,-9474.636058,-383.047749
596.110629,-1480.411884,-10436.903782,-1455.581446
596.110954,-888.247130,-9918.759623,-1378.971896
596.111278,-2220.617826,-10214.842000,-842.705048
596.111602,-2664.741391,-9474.636058,-1608.800546
596.111926,-1554.432478,-8882.471304,-1532.190996
596.112250,-370.102971,-9030.512492,-919.314598
596.112575,666.185348,-8512.368333,-766.095498
596.112899,666.185348,-8808.450710,-612.876398
596.113223,444.123565,-9696.697840,0.000000
596.113547,666.185348,-9400.615463,459.657299
596.113871,74.020594,-10436.903782,1149.143247
596.114196,222.061783,-10214.842000,1149.143247
596.114520,-148.041188,-9844.739029,1149.143247
596.114844,-1110.308913,-9992.780217,306.438199
596.115168,-1036.288319,-9326.594869,459.657299
596.115492,0.000000,-9252.574275,1455.581446
596.115816,1406.391290,-9474.636058,1685.410096
596.116141,1258.350101,-8142.265362,1302.362347
596.116465,-888.247130,-9104.533087,1072.533697
596.116789,-2368.659014,-9178.553681,-306.438199
596.117113,-3034.844362,-8512.368333,-306.438199
596.117437,-3256.906145,-8438.347739,0.000000
596.117762,-2442.679609,-8512.368333,229.828649
596.118086,-1850.514855,-8882.471304,689.485948
596.118410,-1406.391290,-9696.697840,1915.238745
596.118734,-592.164754,-9104.533087,1991.848295
596.119058,444.123565,-9252.574275,1915.238745
596.119383,1628.453072,-9622.677246,1608.800546
596.119707,2368.659014,-8808.450710,1608.800546
596.120031,2738.761985,-8142.265362,1532.190996
596.120355,3404.947333,-8586.388927,1225.752797
596.120679,3627.009116,-9622.677246,1149.143247
596.121004,3404.947333,-10214.842000,919.314598
596.121328,3182.885551,-10066.800811,919.314598
596.121652,2220.617826,-10436.903782,153.219100
596.121976,962.267725,-10658.965565,0.000000
596.122300,962.267725,-10584.944971,306.438199
596.122624,666.185348,-11399.171507,76.609550
596.122949,148.041188,-10658.965565,-306.438199
596.123273,-444.123565,-9178.553681,0.000000
596.123597,-666.185348,-8586.388927,-612.876398
596.123921,74.020594,-8734.430116,-536.266849
596.124245,370.102971,-9918.759623,-229.828649
596.124570,814.226536,-10436.903782,153.219100
596.124894,814.226536,-9992.780217,76.609550
596.125218,-148.041188,-10584.944971,-153.219100
596.125542,-1332.370696,-10140.821405,-1149.143247
596.125866,-1036.288319,-9548.656652,-1072.533697
596.126191,-222.061783,-10436.903782,-1378.971896
596.126515,222.061783,-10584.944971,-1302.362347
596.126839,0.000000,-10955.047942,-612.876398
596.127163,0.000000,-9622.677246,-1378.971896
596.127487,-370.102971,-9400.615463,-1762.019645
596.127811,-592.164754,-10214.842000,-689.485948
596.128136,-370.102971,-10436.903782,-1378.971896
596.128460,-1480.411884,-10584.944971,-383.047749
596.128784,-2294.638420,-10140.821405,-459.657299
596.129108,-1628.453072,-9030.512492,-612.876398
596.129432,-666.185348,-8734.430116,-766.095498
596.129757,0.000000,-8660.409521,-919.314598
596.130081,-296.082377,-8808.450710,76.609550
596.130405,-444.123565,-10140.821405,-383.047749
596.130729,-222.061783,-9252.574275,-1149.143247
596.131053,-592.164754,-9474.636058,-842.705048
596.131378,-1850.514855,-9770.718434,-995.924147
596.131702,-2220.617826,-10066.800811,-1378.971896
596.132026,-3034.844362,-10436.903782,-536.266849
596.132350,-2738.761985,-10436.903782,-229.828649
596.132674,-1776.494261,-9992.780217,383.047749
596.132999,-1110.308913,-10066.800811,153.219100
596.133323,-1110.308913,-8882.471304,229.828649
596.133647,-1406.391290,-8734.430116,383.047749
596.133971,-1258.350101,-9474.636058,0.000000
596.134295,0.000000,-8660.409521,0.000000
596.134619,592.164754,-8586.388927,1149.143247
596.134944,1332.370696,-8438.347739,229.828649
596.135268,1184.329507,-8734.430116,383.047749
596.135592,-296.082377,-9992.780217,306.438199
596.135916,-740.205942,-9474.636058,-306.438199
596.136240,-666.185348,-9622.677246,0.000000
596.136565,0.000000,-9622.677246,153.219100
596.136889,1332.370696,-9178.553681,459.657299
596.137213,2072.576638,-10436.903782,1915.238745
596.137537,2516.700203,-9252.574275,459.657299
596.137861,3182.885551,-8660.409521,689.485948
596.138186,3552.988522,-9474.636058,612.876398
596.138510,3849.070898,-10288.862594,842.705048
596.138834,3108.864956,-10436.903782,612.876398
596.139158,1998.556043,-9918.759623,919.314598
596.139482,1036.288319,-9548.656652,1685.410096
596.139806,1258.350101,-11399.171507,0.000000
596.140131,518.144159,-11621.233289,-842.705048
596.140455,-222.061783,-10510.924376,0.000000
