#time,accel_x,accel_y,accel_z
559.768611,370.102971,-9548.656652,0.000000
559.768935,370.102971,-9474.636058,-153.219100
559.769259,0.000000,-9696.697840,0.000000
559.769584,74.020594,-9548.656652,76.609550
559.769908,0.000000,-9622.677246,-383.047749
559.770232,-296.082377,-9400.615463,-229.828649
559.770556,296.082377,-9844.739029,-229.828649
559.770880,-518.144159,-9844.739029,-229.828649
559.771205,0.000000,-10066.800811,0.000000
559.771529,0.000000,-9622.677246,0.000000
559.771853,0.000000,-9548.656652,-153.219100
559.772177,0.000000,-9696.697840,0.000000
559.772501,370.102971,-9770.718434,0.000000
559.772826,0.000000,-9844.739029,0.000000
559.773150,74.020594,-9918.759623,-229.828649
559.773474,-148.041188,-9622.677246,0.000000
559.773798,-444.123565,-9696.697840,0.000000
559.774122,-592.164754,-9844.739029,-153.219100
559.774447,-518.144159,-9918.759623,0.000000
559.774771,-444.123565,-9696.697840,-306.438199
559.775095,-296.082377,-9326.594869,-459.657299
559.775419,0.000000,-9474.636058,383.047749
559.775743,74.020594,-9548.656652,306.438199
559.776068,0.000000,-9844.739029,76.609550
559.776392,0.000000,-9770.718434,0.000000
559.776716,-296.082377,-9548.656652,0.000000
559.777040,-148.041188,-9622.677246,-229.828649
559.777364,0.000000,-9326.594869,0.000000
559.777689,444.123565,-9474.636058,0.000000
559.778013,592.164754,-10140.821405,0.000000
559.778337,444.123565,-10140.821405,76.609550
559.778661,0.000000,-10214.842000,153.219100
559.778985,-888.247130,-9918.759623,-229.828649
559.779310,-1406.391290,-9400.615463,-383.047749
559.779634,-1184.329507,-9030.512492,76.609550
559.779958,444.123565,-9696.697840,1149.143247
559.780282,1702.473667,-9844.739029,995.924147
559.780606,1998.556043,-9474.636058,842.705048
559.780931,1702.473667,-9252.574275,459.657299
559.781255,1332.370696,-9548.656652,306.438199
559.781579,1036.288319,-9696.697840,-153.219100
559.781903,148.041188,-9844.739029,-383.047749
559.782227,-592.164754,-9992.780217,0.000000
559.782552,-1258.350101,-9548.656652,-306.438199
559.782876,-444.123565,-10214.842000,229.828649
559.783200,444.123565,-9844.739029,612.876398
559.783524,1406.391290,-9770.718434,995.924147
559.783848,2146.597232,-9474.636058,1532.190996
559.784173,2664.741391,-9474.636058,1455.581446
559.784497,3256.906145,-9918.759623,1532.190996
559.784821,2664.741391,-9400.615463,1532.190996
559.785145,2146.597232,-9252.574275,306.438199
559.785469,1776.494261,-9844.739029,229.828649
559.785794,296.082377,-9918.759623,-229.828649
559.786118,-222.061783,-9992.780217,-536.266849
559.786442,-444.123565,-9622.677246,-229.828649
559.786766,370.102971,-9770.718434,229.828649
559.787090,1406.391290,-9474.636058,612.876398
559.787415,2960.823768,-9622.677246,1685.410096
559.787739,4071.132681,-9696.697840,2221.676944
559.788063,4589.276840,-9622.677246,2757.943793
559.788387,4441.235652,-10140.821405,2834.553343
559.788711,3923.091493,-10288.862594,2451.505594
559.789036,3182.885551,-10214.842000,1991.848295
559.789360,2294.638420,-10214.842000,1685.410096
559.789684,1702.473667,-10881.027347,1072.533697
559.790008,888.247130,-10436.903782,1302.362347
559.790332,1184.329507,-10140.821405,1149.143247
559.790657,1776.494261,-9844.739029,2298.286494
559.790981,3256.906145,-9622.677246,2681.334243
559.791305,3997.112087,-9474.636058,3370.820191
559.791629,4219.173869,-9548.656652,4060.306139
559.791953,3997.112087,-10140.821405,4519.963438
559.792278,3627.009116,-10362.883188,4519.963438
559.792602,2072.576638,-9770.718434,4366.744339
559.792926,518.144159,-9252.574275,3217.601092
559.793250,-740.205942,-8882.471304,2451.505594
559.793574,-1184.329507,-8364.327145,2374.896044
559.793899,-666.185348,-8364.327145,2221.676944
559.794223,0.000000,-6883.915261,2068.457845
559.794547,1036.288319,-6587.832884,2451.505594
559.794871,1258.350101,-6439.791695,2681.334243
559.795195,2516.700203,-6587.832884,3447.429741
559.795520,3627.009116,-7402.059420,3447.429741
559.795844,4441.235652,-8660.409521,4060.306139
559.796168,4441.235652,-10140.821405,4366.744339
559.796492,4293.194464,-11103.089130,4443.353888
559.796817,3108.864956,-11917.315666,4290.134789
559.797141,740.205942,-12361.439231,2757.943793
559.797465,-1110.308913,-12657.521608,2298.286494
559.797789,-1924.535449,-11621.233289,1149.143247
559.798113,-1702.473667,-10066.800811,1225.752797
559.798438,0.000000,-8734.430116,1378.971896
559.798762,2072.576638,-8142.265362,1225.752797
559.799086,4219.173869,-7698.141797,1302.362347
559.799410,4663.297435,-7328.038826,1455.581446
559.799734,5107.421000,-7698.141797,1149.143247
559.800059,4071.132681,-8808.450710,1302.362347
559.800383,3108.864956,-10955.047942,1838.629195
559.800707,1776.494261,-12731.542202,2221.676944
559.801031,592.164754,-12657.521608,2068.457845
559.801355,0.000000,-11843.295072,1685.410096
559.801680,222.061783,-11029.068536,1378.971896
559.802004,1184.329507,-10362.883188,1072.533697
559.802328,2220.617826,-9992.780217,383.047749
559.802652,2738.761985,-9474.636058,536.266849
559.802976,3034.844362,-8660.409521,612.876398
559.803301,3034.844362,-9178.553681,459.657299
559.803625,2442.679609,-9326.594869,536.266849
559.803949,1998.556043,-8882.471304,-153.219100
559.804273,2220.617826,-8734.430116,-306.438199
559.804597,3701.029710,-10140.821405,306.438199
559.804922,5551.544565,-12731.542202,1991.848295
559.805246,5551.544565,-13767.830521,2834.553343
559.805570,3849.070898,-12879.583391,2451.505594
559.805894,666.185348,-11695.253884,1608.800546
559.806218,-2146.597232,-10584.944971,459.657299
559.806543,-3256.906145,-9622.677246,0.000000
559.806867,-2516.700203,-8512.368333,0.000000
559.807191,0.000000,-7179.997637,995.924147
559.807515,1998.556043,-6735.874072,1149.143247
559.807839,2146.597232,-6069.688724,229.828649
559.808164,1628.453072,-5181.441594,76.609550
559.808488,2368.659014,-5625.565159,383.047749
559.808812,4145.153275,-6883.915261,919.314598
559.809136,4737.318029,-8808.450710,2145.067394
559.809460,4515.256246,-10658.965565,2911.162892
559.809785,3775.050304,-10807.006753,2374.896044
559.810109,1850.514855,-10510.924376,1838.629195
559.810433,0.000000,-10658.965565,1685.410096
559.810757,-296.082377,-10881.027347,1532.190996
559.811081,0.000000,-11029.068536,2068.457845
559.811406,0.000000,-11029.068536,1915.238745
559.811730,-148.041188,-10140.821405,1532.190996
559.812054,296.082377,-8586.388927,842.705048
559.812378,1998.556043,-8142.265362,689.485948
559.812702,3404.947333,-8438.347739,766.095498
559.813027,3849.070898,-9622.677246,1455.581446
559.813351,2960.823768,-10066.800811,1378.971896
559.813675,1480.411884,-10510.924376,1378.971896
559.813999,1036.288319,-11029.068536,1302.362347
559.814323,2368.659014,-11917.315666,1991.848295
559.814648,4441.235652,-12435.459826,3064.381992
559.814972,5033.400406,-11917.315666,4366.744339
559.815296,4959.379811,-11177.109724,3983.696590
559.815620,4441.235652,-9770.718434,3217.601092
559.815944,3775.050304,-10214.842000,3140.991542
559.816269,2220.617826,-10658.965565,3370.820191
559.816593,666.185348,-9918.759623,2298.286494
559.816917,-222.061783,-8216.285956,1225.752797
559.817241,296.082377,-8142.265362,1762.019645
559.817565,1406.391290,-8364.327145,995.924147
559.817890,2738.761985,-8734.430116,1378.971896
559.818214,2294.638420,-8068.244768,1915.238745
559.818538,2368.659014,-7402.059420,1532.190996
559.818862,3034.844362,-8808.450710,2681.334243
559.819186,3849.070898,-10732.986159,3524.039291
559.819511,3552.988522,-10732.986159,4213.525239
559.819835,3627.009116,-9548.656652,4443.353888
559.820159,2738.761985,-9326.594869,3753.867940
559.820483,2738.761985,-10584.944971,4443.353888
559.820807,2812.782580,-10436.903782,4136.915689
559.821132,3478.967927,-10066.800811,3753.867940
559.821456,2590.720797,-8660.409521,3447.429741
559.821780,814.226536,-7846.182985,1838.629195
559.822104,-1628.453072,-8290.306550,995.924147
559.822428,-2294.638420,-7328.038826,229.828649
559.822753,-1184.329507,-6883.915261,-153.219100
559.823077,1554.432478,-7105.977043,1225.752797
559.823401,3108.864956,-8586.388927,2221.676944
559.823725,4293.194464,-9474.636058,3370.820191
559.824049,5181.441594,-8882.471304,4060.306139
559.824374,4811.338623,-8882.471304,3294.210641
559.824698,2664.741391,-10584.944971,4213.525239
559.825022,1628.453072,-11843.295072,4136.915689
559.825346,1998.556043,-11103.089130,3524.039291
559.825670,2664.741391,-9918.759623,3447.429741
559.825995,2368.659014,-9104.533087,1991.848295
559.826319,222.061783,-10510.924376,1455.581446
559.826643,-1036.288319,-10807.006753,842.705048
559.826967,-1702.473667,-8660.409521,-306.438199
559.827291,-2590.720797,-7846.182985,-459.657299
559.827616,-2738.761985,-8364.327145,0.000000
559.827940,0.000000,-9178.553681,-306.438199
559.828264,3330.926739,-9252.574275,229.828649
559.828588,4885.359217,-9474.636058,1685.410096
559.828912,5255.462188,-10658.965565,1991.848295
559.829237,4515.256246,-11251.130318,1991.848295
559.829561,2886.803174,-10658.965565,2374.896044
559.829885,1924.535449,-9622.677246,2681.334243
559.830209,888.247130,-10881.027347,1685.410096
559.830534,0.000000,-13693.809927,1608.800546
559.830858,148.041188,-12583.501014,766.095498
559.831182,148.041188,-9622.677246,0.000000
559.831506,-888.247130,-9104.533087,-1378.971896
559.831831,-2812.782580,-10066.800811,-2911.162892
559.832155,-3923.091493,-8956.491898,-3447.429741
559.832479,-2442.679609,-8068.244768,-1915.238745
559.832804,-1776.494261,-9030.512492,-2374.896044
559.833128,0.000000,-9178.553681,-1991.848295
559.833452,2516.700203,-8512.368333,0.000000
559.833776,4885.359217,-9992.780217,1455.581446
559.834101,5921.647536,-10732.986159,1915.238745
559.834425,5551.544565,-9326.594869,2145.067394
559.834749,3552.988522,-10066.800811,3294.210641
559.835074,888.247130,-12805.562797,2528.115143
559.835398,-1332.370696,-11917.315666,459.657299
559.835722,-4071.132681,-9548.656652,-919.314598
559.836046,-5773.606348,-9400.615463,-1991.848295
559.836371,-4515.256246,-9622.677246,-3907.087040
559.836695,-1850.514855,-7994.224174,-3217.601092
559.837019,-1184.329507,-6069.688724,-1762.019645
559.837344,-1110.308913,-6365.771101,-2834.553343
559.837668,370.102971,-7402.059420,-3140.991542
559.837992,2738.761985,-7920.203579,-919.314598
559.838316,5921.647536,-8068.244768,1378.971896
559.838641,7920.203579,-8438.347739,1838.629195
559.838965,8142.265362,-9622.677246,3524.039291
559.839289,5773.606348,-11325.150913,2834.553343
559.839614,2368.659014,-11843.295072,2221.676944
559.839938,-3182.885551,-12287.418637,-229.828649
559.840262,-7550.100608,-12361.439231,-1532.190996
559.840586,-8586.388927,-11029.068536,-3217.601092
559.840911,-7105.977043,-10362.883188,-3447.429741
559.841235,-5551.544565,-9474.636058,-3217.601092
559.841559,-2812.782580,-8956.491898,-2528.115143
559.841883,222.061783,-8808.450710,-2757.943793
559.842208,3404.947333,-8956.491898,-2068.457845
559.842532,4811.338623,-8882.471304,-306.438199
559.842856,5773.606348,-9696.697840,842.705048
559.843181,5107.421000,-11843.295072,1915.238745
559.843505,3256.906145,-13175.665768,2374.896044
559.843829,888.247130,-12435.459826,1532.190996
559.844153,-888.247130,-11991.336260,1225.752797
559.844478,-2368.659014,-12065.356855,1378.971896
559.844802,-2886.803174,-11399.171507,766.095498
559.845126,-3775.050304,-9844.739029,306.438199
559.845451,-5255.462188,-8586.388927,229.828649
559.845775,-5625.565159,-7698.141797,-612.876398
559.846099,-4441.235652,-7254.018232,-1072.533697
559.846423,-1258.350101,-6217.729913,-153.219100
559.846748,1258.350101,-6143.709319,995.924147
559.847072,2442.679609,-8290.306550,459.657299
559.847396,1850.514855,-9178.553681,919.314598
559.847721,1110.308913,-9326.594869,1225.752797
559.848045,592.164754,-9622.677246,689.485948
559.848369,370.102971,-9918.759623,1225.752797
559.848693,296.082377,-10066.800811,1915.238745
559.849018,222.061783,-11029.068536,1532.190996
559.849342,-222.061783,-10732.986159,2374.896044
559.849666,-222.061783,-10066.800811,2145.067394
559.849991,-296.082377,-8734.430116,1532.190996
559.850315,296.082377,-8364.327145,1838.629195
559.850639,1702.473667,-8882.471304,1455.581446
559.850963,3034.844362,-9474.636058,536.266849
559.851288,1850.514855,-9030.512492,459.657299
559.851612,518.144159,-9400.615463,0.000000
559.851936,-222.061783,-9992.780217,-1302.362347
559.852261,-1110.308913,-10140.821405,-1608.800546
559.852585,-888.247130,-9844.739029,-1072.533697
559.852909,-888.247130,-9992.780217,-842.705048
559.853233,-1628.453072,-10436.903782,-612.876398
559.853558,-740.205942,-10288.862594,-153.219100
559.853882,518.144159,-9696.697840,612.876398
559.854206,1036.288319,-9030.512492,919.314598
559.854531,2664.741391,-9030.512492,1915.238745
559.854855,3182.885551,-9104.533087,1838.629195
559.855179,3256.906145,-9918.759623,1991.848295
559.855503,2072.576638,-10584.944971,1762.019645
559.855828,-296.082377,-10066.800811,995.924147
559.856152,-1702.473667,-9622.677246,0.000000
559.856476,-2146.597232,-9770.718434,-766.095498
559.856800,-2294.638420,-10066.800811,-1991.848295
559.857125,-1998.556043,-9474.636058,-2451.505594
559.857449,-2516.700203,-9548.656652,-2451.505594
559.857773,-2146.597232,-9104.533087,-2451.505594
559.858098,-444.123565,-8734.430116,-1991.848295
559.858422,1480.411884,-8512.368333,-153.219100
559.858746,2738.761985,-8660.409521,1302.362347
559.859070,3701.029710,-10140.821405,1072.533697
559.859395,3108.864956,-11103.089130,1149.143247
559.859719,1776.494261,-10288.862594,919.314598
559.860043,888.247130,-9992.780217,689.485948
559.860368,222.061783,-10658.965565,995.924147
559.860692,74.020594,-11251.130318,153.219100
559.861016,-962.267725,-10362.883188,-1302.362347
559.861340,-2960.823768,-9178.553681,-1685.410096
559.861665,-3775.050304,-8438.347739,-2451.505594
559.861989,-3330.926739,-9178.553681,-2987.772442
559.862313,-1850.514855,-8734.430116,-2145.067394
559.862638,0.000000,-8364.327145,-1225.752797
559.862962,592.164754,-9104.533087,-1302.362347
559.863286,296.082377,-9622.677246,-689.485948
559.863610,148.041188,-9918.759623,-306.438199
559.863935,0.000000,-10066.800811,-383.047749
559.864259,296.082377,-10584.944971,383.047749
559.864583,444.123565,-11103.089130,766.095498
559.864908,666.185348,-11325.150913,536.266849
559.865232,-296.082377,-11251.130318,612.876398
559.865556,-1480.411884,-10732.986159,-306.438199
559.865880,-1554.432478,-9548.656652,-612.876398
559.866205,-1480.411884,-8882.471304,-1072.533697
559.866529,-592.164754,-8956.491898,-919.314598
559.866853,148.041188,-9474.636058,-842.705048
559.867178,222.061783,-9548.656652,-689.485948
559.867502,-370.102971,-9474.636058,-919.314598
559.867826,-1480.411884,-9178.553681,-919.314598
559.868150,-1554.432478,-9104.533087,-842.705048
559.868475,-592.164754,-10214.842000,383.047749
559.868799,0.000000,-10436.903782,153.219100
559.869123,-518.144159,-10658.965565,766.095498
559.869448,-888.247130,-9844.739029,459.657299
559.869772,-296.082377,-8956.491898,0.000000
559.870096,370.102971,-9104.533087,766.095498
559.870420,1850.514855,-9030.512492,689.485948
559.870745,3330.926739,-9474.636058,1149.143247
559.871069,2738.761985,-10140.821405,1072.533697
559.871393,1110.308913,-9918.759623,995.924147
559.871718,-148.041188,-9474.636058,383.047749
559.872042,-1628.453072,-9696.697840,-612.876398
559.872366,-1924.535449,-9696.697840,-383.047749
559.872690,-962.267725,-10066.800811,0.000000
559.873015,0.000000,-10658.965565,306.438199
559.873339,-740.205942,-10140.821405,919.314598
559.873663,-740.205942,-8808.450710,689.485948
559.873987,-888.247130,-8438.347739,0.000000
559.874312,-666.185348,-8216.285956,306.438199
559.874636,592.164754,-8290.306550,459.657299
559.874960,1184.329507,-8882.471304,1072.533697
559.875285,1480.411884,-9178.553681,1532.190996
559.875609,962.267725,-9030.512492,1225.752797
559.875933,814.226536,-8956.491898,995.924147
559.876257,592.164754,-9252.574275,229.828649
559.876582,666.185348,-9622.677246,306.438199
559.876906,518.144159,-10066.800811,0.000000
559.877230,-222.061783,-10214.842000,0.000000
559.877555,-1406.391290,-9770.718434,0.000000
559.877879,-1036.288319,-8956.491898,-842.705048
559.878203,222.061783,-9474.636058,306.438199
559.878527,2368.659014,-9474.636058,1072.533697
559.878852,2960.823768,-9326.594869,306.438199
559.879176,1554.432478,-9548.656652,-153.219100
559.879500,296.082377,-9622.677246,-306.438199
559.879825,222.061783,-9992.780217,-689.485948
559.880149,-370.102971,-10584.944971,-383.047749
559.880473,370.102971,-10658.965565,0.000000
559.880797,962.267725,-10436.903782,-612.876398
559.881122,2146.597232,-11547.212695,-612.876398
559.881446,740.205942,-10881.027347,-459.657299
559.881770,-296.082377,-10658.965565,-766.095498
559.882095,-1184.329507,-10658.965565,-689.485948
559.882419,-740.205942,-10214.842000,-229.828649
559.882743,592.164754,-9844.739029,229.828649
559.883067,1036.288319,-9844.739029,76.609550
559.883392,370.102971,-9474.636058,-76.609550
559.883716,-666.185348,-9548.656652,-689.485948
559.884040,-1406.391290,-9030.512492,-459.657299
559.884365,-1036.288319,-9474.636058,153.219100
559.884689,-592.164754,-9696.697840,229.828649
559.885013,-814.226536,-9844.739029,459.657299
559.885337,-1702.473667,-9622.677246,229.828649
559.885662,-1628.453072,-9548.656652,153.219100
559.885986,-1998.556043,-9030.512492,0.000000
559.886310,-1184.329507,-9252.574275,229.828649
559.886635,-444.123565,-9252.574275,0.000000
559.886959,-592.164754,-9178.553681,0.000000
559.887283,-296.082377,-9030.512492,1302.362347
559.887607,518.144159,-9474.636058,1378.971896
559.887932,1110.308913,-9696.697840,1455.581446
559.888256,1258.350101,-9326.594869,1608.800546
559.888580,814.226536,-9474.636058,1149.143247
559.888905,-296.082377,-9622.677246,-459.657299
559.889229,-1628.453072,-9696.697840,-612.876398
559.889553,-2294.638420,-9252.574275,-383.047749
559.889877,-2220.617826,-9104.533087,-766.095498
559.890202,-1998.556043,-9178.553681,0.000000
559.890526,-1184.329507,-9326.594869,766.095498
559.890850,0.000000,-9474.636058,76.609550
559.891174,740.205942,-9326.594869,-153.219100
559.891499,592.164754,-8512.368333,-459.657299
559.891823,740.205942,-8882.471304,-383.047749
559.892147,1110.308913,-9992.780217,0.000000
559.892472,1850.514855,-10214.842000,536.266849
559.892796,1406.391290,-10732.986159,0.000000
559.893120,370.102971,-10732.986159,-1149.143247
559.893444,-962.267725,-10436.903782,-1378.971896
559.893769,-1332.370696,-10881.027347,-1225.752797
559.894093,-518.144159,-10881.027347,-229.828649
559.894417,518.144159,-11103.089130,-383.047749
559.894742,1036.288319,-10510.924376,-612.876398
559.895066,740.205942,-10362.883188,0.000000
559.895390,-518.144159,-10140.821405,-612.876398
559.895714,-740.205942,-10140.821405,-995.924147
559.896039,-814.226536,-9844.739029,-306.438199
559.896363,-148.041188,-9770.718434,-306.438199
559.896687,1036.288319,-9770.718434,-612.876398
559.897012,1258.350101,-10214.842000,-536.266849
559.897336,1776.494261,-10288.862594,-76.609550
559.897660,1406.391290,-9696.697840,-612.876398
559.897984,962.267725,-9844.739029,-536.266849
559.898309,1332.370696,-9918.759623,229.828649
559.898633,1702.473667,-9400.615463,-153.219100
559.898957,1480.411884,-9400.615463,-383.047749
559.899282,1110.308913,-9030.512492,306.438199
559.899606,1036.288319,-8808.450710,76.609550
559.899930,518.144159,-8438.347739,536.266849
559.900254,444.123565,-8290.306550,1225.752797
559.900579,148.041188,-8068.244768,229.828649
559.900903,0.000000,-9474.636058,306.438199
559.901227,-1184.329507,-10140.821405,0.000000
559.901552,-1332.370696,-9474.636058,0.000000
559.901876,-1702.473667,-9178.553681,229.828649
559.902200,-1110.308913,-9030.512492,536.266849
559.902524,-296.082377,-8734.430116,612.876398
559.902849,0.000000,-8956.491898,229.828649
559.903173,-666.185348,-9178.553681,229.828649
559.903497,-1702.473667,-8882.471304,-306.438199
559.903822,-1554.432478,-8734.430116,153.219100
559.904146,-962.267725,-8882.471304,1378.971896
559.904470,666.185348,-9030.512492,1991.848295
559.904794,1258.350101,-9030.512492,1915.238745
559.905119,370.102971,-9252.574275,1915.238745
559.905443,-962.267725,-9104.533087,1072.533697
559.905767,-1702.473667,-9696.697840,842.705048
559.906091,-1628.453072,-10288.862594,1302.362347
559.906416,-814.226536,-9992.780217,1532.190996
559.906740,-814.226536,-9696.697840,1302.362347
559.907064,-1924.535449,-9548.656652,306.438199
559.907389,-2590.720797,-9326.594869,-229.828649
559.907713,-1998.556043,-9696.697840,-306.438199
559.908037,-592.164754,-10584.944971,536.266849
559.908361,148.041188,-9918.759623,0.000000
559.908686,888.247130,-10288.862594,306.438199
559.909010,740.205942,-11695.253884,612.876398
559.909334,1702.473667,-11917.315666,76.609550
559.909659,1258.350101,-10955.047942,76.609550
559.909983,370.102971,-10658.965565,842.705048
559.910307,1036.288319,-10510.924376,153.219100
559.910631,1480.411884,-11029.068536,536.266849
559.910956,1332.370696,-11695.253884,459.657299
559.911280,-296.082377,-10807.006753,0.000000
559.911604,-740.205942,-9474.636058,-995.924147
559.911929,-888.247130,-8882.471304,-842.705048
559.912253,0.000000,-9474.636058,-306.438199
559.912577,1332.370696,-9400.615463,-689.485948
559.912901,2220.617826,-9696.697840,-766.095498
559.913226,1258.350101,-9252.574275,-153.219100
559.913550,592.164754,-8438.347739,-766.095498
559.913874,0.000000,-8216.285956,-995.924147
559.914199,-444.123565,-9030.512492,-612.876398
559.914523,222.061783,-9474.636058,-766.095498
559.914847,222.061783,-9400.615463,76.609550
559.915171,-444.123565,-9474.636058,76.609550
559.915496,-1184.329507,-8956.491898,0.000000
559.915820,-1036.288319,-8216.285956,-229.828649
559.916144,-370.102971,-7846.182985,-766.095498
559.916469,148.041188,-8882.471304,-383.047749
559.916793,148.041188,-9548.656652,-306.438199
559.917117,-222.061783,-9326.594869,-689.485948
559.917441,0.000000,-8142.265362,-689.485948
559.917766,-592.164754,-8438.347739,-842.705048
559.918090,148.041188,-9770.718434,-766.095498
559.918414,962.267725,-10362.883188,-766.095498
559.918739,814.226536,-10436.903782,-306.438199
559.919063,0.000000,-10658.965565,0.000000
559.919387,-1110.308913,-10362.883188,-459.657299
559.919711,-518.144159,-10436.903782,-306.438199
559.920036,-370.102971,-9844.739029,-229.828649
559.920360,666.185348,-9622.677246,-536.266849
559.920684,1776.494261,-9770.718434,-689.485948
559.921009,1480.411884,-10362.883188,306.438199
559.921333,1480.411884,-10362.883188,0.000000
559.921657,962.267725,-9992.780217,-459.657299
559.921981,74.020594,-10140.821405,-229.828649
559.922306,-814.226536,-10214.842000,-153.219100
559.922630,-296.082377,-11325.150913,-76.609550
559.922954,-1480.411884,-11843.295072,-76.609550
559.923278,-1998.556043,-10658.965565,-306.438199
559.923603,-1850.514855,-9918.759623,-689.485948
559.923927,-1628.453072,-9252.574275,-229.828649
559.924251,-814.226536,-9474.636058,689.485948
559.924576,148.041188,-10214.842000,842.705048
559.924900,-444.123565,-10066.800811,0.000000
559.925224,-222.061783,-9030.512492,689.485948
559.925548,-592.164754,-8586.388927,459.657299
559.925873,-666.185348,-9400.615463,459.657299
559.926197,-296.082377,-9918.759623,995.924147
559.926521,0.000000,-9622.677246,459.657299
559.926846,0.000000,-10066.800811,1762.019645
559.927170,-1406.391290,-10214.842000,1378.971896
559.927494,-1332.370696,-9326.594869,536.266849
559.927818,-2146.597232,-8734.430116,459.657299
559.928143,-1480.411884,-8586.388927,0.000000
559.928467,-370.102971,-8956.491898,383.047749
559.928791,592.164754,-9844.739029,1149.143247
559.929116,1554.432478,-9548.656652,2068.457845
559.929440,962.267725,-7624.121203,76.609550
559.929764,296.082377,-7179.997637,-153.219100
559.930088,0.000000,-8512.368333,153.219100
559.930413,814.226536,-10288.862594,-153.219100
559.930737,592.164754,-10881.027347,76.609550
559.931061,-740.205942,-9918.759623,536.266849
559.931385,-1184.329507,-9770.718434,459.657299
559.931709,-592.164754,-10436.903782,459.657299
559.932034,-222.061783,-10362.883188,306.438199
559.932358,296.082377,-9918.759623,383.047749
559.932682,296.082377,-9770.718434,-153.219100
559.933006,0.000000,-9844.739029,383.047749
559.933330,592.164754,-9770.718434,153.219100
559.933654,814.226536,-8956.491898,-306.438199
559.933978,1480.411884,-8660.409521,-383.047749
559.934303,1036.288319,-9474.636058,-612.876398
559.934627,1258.350101,-10584.944971,-766.095498
559.934951,740.205942,-10584.944971,-153.219100
559.935275,0.000000,-9992.780217,0.000000
559.935599,-444.123565,-10140.821405,0.000000
559.935923,-444.123565,-10140.821405,0.000000
559.936247,-148.041188,-9474.636058,0.000000
559.936571,518.144159,-9104.533087,-306.438199
559.936896,148.041188,-9104.533087,153.219100
559.937220,0.000000,-8438.347739,0.000000
559.937544,370.102971,-8216.285956,-306.438199
559.937868,1036.288319,-8364.327145,0.000000
559.938192,1924.535449,-7920.203579,-229.828649
559.938516,2072.576638,-8660.409521,-612.876398
559.938840,222.061783,-10140.821405,-766.095498
559.939165,-1554.432478,-10510.924376,-459.657299
559.939489,-1184.329507,-10881.027347,-842.705048
559.939813,-1184.329507,-10955.047942,-766.095498
559.940137,-740.205942,-10732.986159,-383.047749
559.940461,222.061783,-11103.089130,-383.047749
559.940785,444.123565,-11103.089130,383.047749
559.941109,962.267725,-10658.965565,842.705048
559.941434,1332.370696,-9474.636058,0.000000
559.941758,666.185348,-9178.553681,-536.266849
559.942082,222.061783,-8586.388927,-383.047749
559.942406,444.123565,-9104.533087,-689.485948
559.942730,-666.185348,-9844.739029,-153.219100
559.943054,-2220.617826,-9844.739029,-766.095498
559.943378,-2516.700203,-9030.512492,-1225.752797
559.943703,-2146.597232,-9622.677246,-459.657299
559.944027,-2368.659014,-10214.842000,0.000000
559.944351,-814.226536,-10362.883188,459.657299
559.944675,-1554.432478,-10066.800811,459.657299
559.944999,-1258.350101,-10066.800811,0.000000
559.945323,-370.102971,-9104.533087,-76.609550
559.945647,518.144159,-8586.388927,689.485948
559.945971,1480.411884,-9400.615463,1532.190996
559.946296,1554.432478,-9918.759623,1072.533697
559.946620,518.144159,-9696.697840,766.095498
559.946944,-1406.391290,-9844.739029,536.266849
559.947268,-2664.741391,-9770.718434,306.438199
559.947592,-2368.659014,-10140.821405,-459.657299
559.947916,-2146.597232,-9918.759623,-76.609550
559.948240,-1998.556043,-9696.697840,-153.219100
559.948565,-1776.494261,-9992.780217,-689.485948
559.948889,-1776.494261,-9844.739029,0.000000
559.949213,-1554.432478,-9178.553681,-536.266849
559.949537,-296.082377,-8808.450710,459.657299
559.949861,0.000000,-8364.327145,-459.657299
559.950185,1406.391290,-8586.388927,0.000000
559.950509,3108.864956,-9844.739029,1225.752797
559.950834,3775.050304,-10807.006753,1532.190996
559.951158,2812.782580,-10584.944971,842.705048
559.951482,888.247130,-9770.718434,536.266849
559.951806,0.000000,-9474.636058,-459.657299
559.952130,296.082377,-10214.842000,-919.314598
559.952454,740.205942,-10436.903782,-842.705048
559.952778,0.000000,-10362.883188,-689.485948
559.953103,-592.164754,-9474.636058,-689.485948
559.953427,-296.082377,-8586.388927,-1149.143247
559.953751,0.000000,-8364.327145,-995.924147
559.954075,1332.370696,-9400.615463,-306.438199
559.954399,1628.453072,-9918.759623,-383.047749
559.954723,2072.576638,-9844.739029,-612.876398
559.955047,740.205942,-9474.636058,153.219100
559.955371,148.041188,-10214.842000,383.047749
559.955696,74.020594,-11621.233289,0.000000
559.956020,-222.061783,-11399.171507,76.609550
559.956344,-222.061783,-10140.821405,536.266849
559.956668,296.082377,-11103.089130,0.000000
559.956992,-148.041188,-10584.944971,153.219100
559.957316,222.061783,-9400.615463,459.657299
559.957640,962.267725,-8808.450710,0.000000
559.957965,1110.308913,-9030.512492,-153.219100
559.958289,1628.453072,-9104.533087,-229.828649
559.958613,1702.473667,-8882.471304,-459.657299
559.958937,148.041188,-9104.533087,76.609550
559.959261,-518.144159,-9326.594869,-1072.533697
559.959585,-740.205942,-9918.759623,-383.047749
559.959909,-962.267725,-10436.903782,536.266849
559.960234,-592.164754,-11177.109724,919.314598
559.960558,-222.061783,-11177.109724,612.876398
559.960882,-888.247130,-9844.739029,612.876398
559.961206,-592.164754,-9030.512492,612.876398
559.961530,296.082377,-9252.574275,0.000000
559.961854,592.164754,-9178.553681,459.657299
559.962178,814.226536,-9252.574275,766.095498
559.962503,74.020594,-8734.430116,229.828649
559.962827,-814.226536,-8882.471304,153.219100
559.963151,-1924.535449,-9030.512492,-306.438199
559.963475,-2220.617826,-9178.553681,-842.705048
559.963799,-2516.700203,-9474.636058,459.657299
559.964123,-2072.576638,-9770.718434,1225.752797
559.964447,-370.102971,-10436.903782,1225.752797
559.964771,-1332.370696,-9918.759623,1072.533697
559.965096,-1184.329507,-9104.533087,919.314598
559.965420,-1184.329507,-7846.182985,306.438199
559.965744,-1036.288319,-7846.182985,-229.828649
559.966068,-296.082377,-7846.182985,0.000000
559.966392,1184.329507,-8216.285956,612.876398
559.966716,2146.597232,-8438.347739,536.266849
559.967040,1554.432478,-8290.306550,995.924147
559.967365,666.185348,-8586.388927,229.828649
559.967689,-222.061783,-9252.574275,-459.657299
559.968013,-592.164754,-10288.862594,-459.657299
559.968337,-740.205942,-10732.986159,-536.266849
559.968661,-370.102971,-11547.212695,-229.828649
559.968985,-1258.350101,-11251.130318,-153.219100
559.969309,-1924.535449,-11029.068536,-919.314598
559.969634,-2220.617826,-10066.800811,-1838.629195
559.969958,-1110.308913,-9622.677246,-2145.067394
559.970282,518.144159,-9696.697840,-2221.676944
559.970606,1258.350101,-11177.109724,-1532.190996
559.970930,1554.432478,-11769.274478,-612.876398
559.971254,2072.576638,-11251.130318,-1225.752797
559.971578,814.226536,-11399.171507,-1302.362347
559.971903,370.102971,-11251.130318,-1378.971896
559.972227,814.226536,-11547.212695,-1762.019645
559.972551,740.205942,-12213.398043,-1302.362347
559.972875,444.123565,-12213.398043,-919.314598
559.973199,148.041188,-11399.171507,-1072.533697
559.973523,222.061783,-10658.965565,-1302.362347
559.973847,0.000000,-10066.800811,-766.095498
559.974171,1554.432478,-9622.677246,-459.657299
559.974496,2886.803174,-9104.533087,0.000000
559.974820,2146.597232,-9474.636058,689.485948
559.975144,1554.432478,-9178.553681,459.657299
559.975468,592.164754,-8956.491898,153.219100
559.975792,-592.164754,-8956.491898,229.828649
559.976116,-666.185348,-8438.347739,-383.047749
559.976440,-740.205942,-8438.347739,0.000000
559.976765,-1924.535449,-8956.491898,-842.705048
559.977089,-2516.700203,-8290.306550,-459.657299
559.977413,-2368.659014,-7550.100608,-766.095498
559.977737,-2368.659014,-7105.977043,-306.438199
559.978061,-1184.329507,-7179.997637,-153.219100
559.978385,74.020594,-7550.100608,-459.657299
559.978709,148.041188,-6957.935855,229.828649
559.979034,-222.061783,-7254.018232,766.095498
559.979358,592.164754,-7920.203579,459.657299
559.979682,148.041188,-8586.388927,766.095498
559.980006,0.000000,-9326.594869,919.314598
559.980330,444.123565,-9622.677246,459.657299
559.980654,740.205942,-10362.883188,689.485948
559.980978,148.041188,-10510.924376,612.876398
559.981303,-518.144159,-9918.759623,-229.828649
559.981627,-1110.308913,-9622.677246,-995.924147
559.981951,-592.164754,-9844.739029,-919.314598
559.982275,518.144159,-10436.903782,-383.047749
559.982599,888.247130,-11843.295072,0.000000
559.982923,888.247130,-11621.233289,76.609550
559.983247,666.185348,-10807.006753,0.000000
559.983571,296.082377,-10288.862594,0.000000
559.983896,0.000000,-11769.274478,459.657299
559.984220,-222.061783,-11473.192101,229.828649
559.984544,-740.205942,-11917.315666,536.266849
559.984868,-1258.350101,-11547.212695,459.657299
559.985192,-1406.391290,-10362.883188,0.000000
559.985516,-1702.473667,-10140.821405,153.219100
559.985840,-2220.617826,-10214.842000,229.828649
559.986165,-592.164754,-9696.697840,-536.266849
559.986489,0.000000,-9400.615463,459.657299
559.986813,-814.226536,-9918.759623,306.438199
559.987137,0.000000,-10066.800811,459.657299
559.987461,1332.370696,-9252.574275,0.000000
559.987785,1850.514855,-8808.450710,919.314598
559.988109,1554.432478,-9252.574275,536.266849
559.988434,1702.473667,-10732.986159,536.266849
559.988758,814.226536,-10955.047942,1455.581446
559.989082,592.164754,-10140.821405,1302.362347
559.989406,-148.041188,-8512.368333,919.314598
559.989730,-592.164754,-8586.388927,612.876398
559.990054,0.000000,-8956.491898,842.705048
559.990378,1406.391290,-9474.636058,1072.533697
559.990703,1332.370696,-8882.471304,995.924147
559.991027,74.020594,-7994.224174,766.095498
559.991351,-592.164754,-7550.100608,-153.219100
559.991675,-148.041188,-8068.244768,-1225.752797
559.991999,0.000000,-8142.265362,-459.657299
559.992323,-888.247130,-8586.388927,-842.705048
559.992647,-1406.391290,-9770.718434,-229.828649
559.992971,-1628.453072,-9326.594869,0.000000
559.993296,-888.247130,-8290.306550,-306.438199
559.993620,-962.267725,-8364.327145,153.219100
559.993944,-370.102971,-8734.430116,-612.876398
559.994268,74.020594,-9030.512492,-842.705048
559.994592,0.000000,-9474.636058,459.657299
559.994916,222.061783,-9474.636058,76.609550
559.995240,296.082377,-9104.533087,0.000000
559.995565,814.226536,-9326.594869,-612.876398
559.995889,1184.329507,-9696.697840,-459.657299
559.996213,1998.556043,-9992.780217,-919.314598
559.996537,1998.556043,-10584.944971,-766.095498
559.996861,666.185348,-10658.965565,-689.485948
559.997185,444.123565,-10436.903782,-919.314598
559.997509,-888.247130,-10510.924376,-995.924147
559.997834,-1332.370696,-10955.047942,-995.924147
559.998158,-1258.350101,-10362.883188,-1455.581446
559.998482,-814.226536,-10066.800811,-1225.752797
559.998806,-518.144159,-10362.883188,-919.314598
559.999130,-370.102971,-10140.821405,-689.485948
559.999454,-666.185348,-9696.697840,-995.924147
559.999778,-666.185348,-9918.759623,-612.876398
560.000103,-296.082377,-10214.842000,-1149.143247
560.000427,74.020594,-11325.150913,-1455.581446
560.000751,-222.061783,-11473.192101,-459.657299
560.001075,-296.082377,-10955.047942,-383.047749
560.001399,-444.123565,-11621.233289,-383.047749
560.001723,-518.144159,-10955.047942,-153.219100
560.002047,148.041188,-11029.068536,-536.266849
560.002371,444.123565,-10584.944971,-536.266849
560.002696,74.020594,-10510.924376,-229.828649
560.003020,-666.185348,-10066.800811,-306.438199
560.003344,-1110.308913,-9178.553681,-306.438199
560.003668,-814.226536,-8290.306550,0.000000
560.003992,-962.267725,-7920.203579,-536.266849
560.004316,-1036.288319,-8068.244768,76.609550
560.004640,-1110.308913,-8438.347739,0.000000
560.004965,-962.267725,-8142.265362,-536.266849
560.005289,-1776.494261,-7476.080014,-229.828649
560.005613,-1480.411884,-7846.182985,383.047749
560.005937,-296.082377,-8882.471304,536.266849
560.006261,222.061783,-9326.594869,1149.143247
560.006585,222.061783,-9400.615463,919.314598
560.006909,0.000000,-8882.471304,-153.219100
560.007234,-370.102971,-8512.368333,-536.266849
560.007558,222.061783,-8956.491898,0.000000
560.007882,814.226536,-9770.718434,459.657299
560.008206,1554.432478,-11029.068536,1072.533697
560.008530,1924.535449,-10658.965565,1072.533697
560.008854,1924.535449,-10214.842000,612.876398
560.009178,2072.576638,-9400.615463,153.219100
560.009503,1998.556043,-10510.924376,306.438199
560.009827,2146.597232,-11621.233289,459.657299
560.010151,2368.659014,-11547.212695,229.828649
560.010475,2220.617826,-10955.047942,383.047749
560.010799,1184.329507,-11029.068536,536.266849
560.011123,1110.308913,-10584.944971,-76.609550
560.011447,740.205942,-10066.800811,0.000000
560.011772,592.164754,-9918.759623,536.266849
560.012096,1184.329507,-10140.821405,-383.047749
560.012420,444.123565,-10436.903782,-153.219100
560.012744,-666.185348,-9992.780217,383.047749
560.013068,-888.247130,-9622.677246,536.266849
560.013392,-740.205942,-10140.821405,-229.828649
560.013716,-1406.391290,-9696.697840,-306.438199
560.014040,-1258.350101,-9992.780217,0.000000
560.014365,-1184.329507,-10658.965565,306.438199
560.014689,-1480.411884,-10807.006753,229.828649
560.015013,-1850.514855,-10140.821405,229.828649
560.015337,-2368.659014,-9622.677246,-229.828649
560.015661,-2072.576638,-9178.553681,76.609550
560.015985,-296.082377,-9030.512492,306.438199
560.016309,1184.329507,-9326.594869,536.266849
560.016634,740.205942,-9770.718434,1378.971896
560.016958,518.144159,-8438.347739,459.657299
560.017282,444.123565,-7550.100608,0.000000
560.017606,666.185348,-7698.141797,229.828649
560.017930,888.247130,-7550.100608,153.219100
560.018254,1184.329507,-8142.265362,383.047749
560.018578,-370.102971,-8142.265362,0.000000
560.018903,-1554.432478,-7254.018232,76.609550
560.019227,-1258.350101,-7254.018232,-612.876398
560.019551,-1036.288319,-7698.141797,-536.266849
560.019875,-962.267725,-7994.224174,-612.876398
560.020199,-592.164754,-8290.306550,-229.828649
560.020523,-666.185348,-9326.594869,-383.047749
560.020847,-666.185348,-9770.718434,-689.485948
560.021172,-444.123565,-9622.677246,-383.047749
560.021496,-518.144159,-10807.006753,-383.047749
560.021820,-1036.288319,-11251.130318,-1072.533697
560.022144,-888.247130,-11769.274478,-842.705048
560.022468,-888.247130,-11991.336260,-919.314598
560.022792,-962.267725,-11843.295072,-1838.629195
560.023116,-1406.391290,-11251.130318,-1991.848295
560.023440,-740.205942,-10658.965565,-1532.190996
560.023765,148.041188,-11473.192101,-612.876398
560.024089,1406.391290,-11251.130318,-919.314598
560.024413,2146.597232,-10658.965565,-919.314598
560.024737,2368.659014,-10214.842000,-536.266849
560.025061,2590.720797,-9696.697840,-1225.752797
560.025385,2146.597232,-9474.636058,-842.705048
560.025709,1258.350101,-10807.006753,0.000000
560.026034,1702.473667,-11251.130318,0.000000
560.026358,740.205942,-11325.150913,-459.657299
560.026682,-962.267725,-10807.006753,-459.657299
560.027006,-1924.535449,-10436.903782,-1532.190996
560.027330,-1924.535449,-9770.718434,-1455.581446
560.027654,-1184.329507,-9474.636058,-689.485948
560.027978,-1036.288319,-9918.759623,-383.047749
560.028303,74.020594,-9770.718434,76.609550
560.028627,370.102971,-9474.636058,0.000000
560.028951,-296.082377,-9252.574275,0.000000
560.029275,-222.061783,-9696.697840,-689.485948
560.029599,0.000000,-9918.759623,-153.219100
560.029923,518.144159,-10288.862594,1072.533697
560.030247,1258.350101,-10807.006753,1608.800546
560.030572,888.247130,-10140.821405,1302.362347
560.030896,-148.041188,-9770.718434,842.705048
560.031220,-1110.308913,-8882.471304,995.924147
560.031544,-1184.329507,-8438.347739,536.266849
560.031868,-666.185348,-8290.306550,383.047749
560.032192,-370.102971,-7402.059420,306.438199
560.032517,444.123565,-8216.285956,1455.581446
560.032841,888.247130,-7846.182985,1225.752797
560.033165,1110.308913,-6957.935855,0.000000
560.033489,148.041188,-5921.647536,0.000000
560.033814,0.000000,-6291.750507,-383.047749
560.034138,1036.288319,-7920.203579,-229.828649
560.034462,814.226536,-9474.636058,1378.971896
560.034786,-444.123565,-9178.553681,1378.971896
560.035110,-1850.514855,-8512.368333,919.314598
560.035435,-2368.659014,-8882.471304,229.828649
560.035759,-1998.556043,-9400.615463,0.000000
560.036083,-1258.350101,-9548.656652,0.000000
560.036407,-962.267725,-10584.944971,153.219100
560.036732,-962.267725,-10362.883188,-612.876398
560.037056,-666.185348,-9400.615463,-919.314598
560.037380,0.000000,-9252.574275,-1072.533697
560.037704,1332.370696,-10362.883188,-1225.752797
560.038028,2590.720797,-11547.212695,-1762.019645
560.038353,2368.659014,-11251.130318,-1378.971896
560.038677,1184.329507,-11843.295072,0.000000
560.039001,962.267725,-12361.439231,-842.705048
560.039325,592.164754,-12435.459826,-919.314598
560.039649,-148.041188,-11843.295072,-842.705048
560.039974,74.020594,-11621.233289,-1378.971896
560.040298,814.226536,-11769.274478,-766.095498
560.040622,814.226536,-11177.109724,383.047749
560.040946,1110.308913,-9696.697840,-919.314598
560.041271,370.102971,-8734.430116,-919.314598
560.041595,-296.082377,-9252.574275,-1455.581446
560.041919,0.000000,-9918.759623,-1838.629195
560.042243,444.123565,-10807.006753,-766.095498
560.042567,-222.061783,-11473.192101,-153.219100
560.042892,-1554.432478,-11029.068536,-612.876398
560.043216,-2960.823768,-9992.780217,-689.485948
560.043540,-3627.009116,-10066.800811,-612.876398
560.043864,-3330.926739,-10362.883188,-919.314598
560.044189,-2294.638420,-10658.965565,-306.438199
560.044513,-1776.494261,-9474.636058,459.657299
560.044837,-740.205942,-8290.306550,1149.143247
560.045161,0.000000,-7402.059420,383.047749
560.045485,222.061783,-7031.956449,76.609550
560.045810,962.267725,-7031.956449,689.485948
560.046134,1776.494261,-7476.080014,766.095498
560.046458,1924.535449,-8956.491898,1762.019645
560.046782,1110.308913,-8364.327145,1991.848295
560.047107,0.000000,-7476.080014,1685.410096
560.047431,-888.247130,-8142.265362,995.924147
560.047755,-1036.288319,-8882.471304,383.047749
560.048079,-370.102971,-8586.388927,76.609550
560.048403,0.000000,-8068.244768,536.266849
560.048728,0.000000,-7031.956449,0.000000
560.049052,148.041188,-7031.956449,0.000000
560.049376,740.205942,-7254.018232,0.000000
560.049700,1628.453072,-7624.121203,0.000000
560.050024,1628.453072,-8438.347739,0.000000
560.050349,1406.391290,-9400.615463,306.438199
560.050673,962.267725,-10362.883188,766.095498
560.050997,296.082377,-11769.274478,306.438199
560.051321,-222.061783,-11621.233289,76.609550
560.051646,-962.267725,-11843.295072,-536.266849
560.051970,-592.164754,-12435.459826,-1149.143247
560.052294,-740.205942,-13471.748144,-842.705048
560.052618,-592.164754,-13101.645173,-842.705048
560.052942,0.000000,-11695.253884,-842.705048
560.053267,-518.144159,-11177.109724,-612.876398
560.053591,148.041188,-11325.150913,-1225.752797
560.053915,1776.494261,-11917.315666,-1225.752797
560.054239,2368.659014,-12731.542202,-689.485948
560.054564,2516.700203,-12657.521608,76.609550
560.054888,1628.453072,-11621.233289,-383.047749
560.055212,74.020594,-10807.006753,-612.876398
560.055536,-1998.556043,-11029.068536,76.609550
560.055860,-1850.514855,-10584.944971,-689.485948
560.056185,-666.185348,-10732.986159,0.000000
560.056509,0.000000,-9474.636058,383.047749
560.056833,666.185348,-8068.244768,689.485948
560.057157,814.226536,-6883.915261,306.438199
560.057482,962.267725,-6513.812290,0.000000
560.057806,1110.308913,-6587.832884,536.266849
560.058130,1480.411884,-7105.977043,-766.095498
560.058454,518.144159,-8216.285956,612.876398
560.058778,-740.205942,-7179.997637,612.876398
560.059103,-1110.308913,-7476.080014,76.609550
560.059427,-1480.411884,-9030.512492,612.876398
560.059751,-1850.514855,-9474.636058,0.000000
560.060075,-1628.453072,-9622.677246,153.219100
560.060400,-2516.700203,-8956.491898,306.438199
560.060724,-1702.473667,-8586.388927,0.000000
560.061048,-888.247130,-7772.162391,0.000000
560.061372,-740.205942,-8660.409521,0.000000
560.061696,-296.082377,-8660.409521,76.609550
560.062021,740.205942,-8660.409521,612.876398
560.062345,1998.556043,-9770.718434,536.266849
560.062669,2294.638420,-10066.800811,995.924147
560.062993,1554.432478,-9622.677246,76.609550
560.063317,148.041188,-9474.636058,153.219100
560.063642,-1036.288319,-10362.883188,-153.219100
560.063966,-1406.391290,-10955.047942,-689.485948
560.064290,-1776.494261,-10732.986159,-995.924147
560.064614,-2072.576638,-10066.800811,-1225.752797
560.064939,-1332.370696,-9178.553681,-995.924147
560.065263,-222.061783,-8882.471304,-1378.971896
560.065587,592.164754,-9474.636058,-766.095498
560.065911,1480.411884,-9770.718434,-459.657299
560.066235,1776.494261,-10140.821405,0.000000
560.066560,888.247130,-10732.986159,459.657299
560.066884,74.020594,-10658.965565,153.219100
560.067208,-148.041188,-11547.212695,0.000000
560.067532,222.061783,-12435.459826,306.438199
560.067857,0.000000,-11769.274478,-612.876398
560.068181,-148.041188,-12435.459826,-459.657299
560.068505,-1184.329507,-12065.356855,229.828649
560.068829,-1628.453072,-11325.150913,-153.219100
560.069153,-1850.514855,-10584.944971,-766.095498
560.069478,-1628.453072,-9992.780217,-1072.533697
560.069802,-444.123565,-9696.697840,-842.705048
560.070126,1628.453072,-9622.677246,0.000000
560.070450,2368.659014,-9252.574275,459.657299
560.070775,2368.659014,-9178.553681,536.266849
560.071099,1480.411884,-9326.594869,842.705048
560.071423,666.185348,-8808.450710,536.266849
560.071747,74.020594,-8660.409521,76.609550
560.072071,-296.082377,-8808.450710,229.828649
560.072396,-222.061783,-9326.594869,153.219100
560.072720,-296.082377,-8512.368333,-306.438199
560.073044,-222.061783,-7772.162391,0.000000
560.073368,-518.144159,-7328.038826,0.000000
560.073693,-222.061783,-7402.059420,-153.219100
560.074017,-296.082377,-6883.915261,0.000000
560.074341,74.020594,-7994.224174,459.657299
560.074665,0.000000,-8808.450710,306.438199
560.074989,-148.041188,-9252.574275,153.219100
560.075314,-444.123565,-9178.553681,612.876398
560.075638,-296.082377,-9400.615463,153.219100
560.075962,-222.061783,-9474.636058,0.000000
560.076286,-370.102971,-9770.718434,-459.657299
560.076610,0.000000,-9844.739029,-689.485948
560.076935,0.000000,-9400.615463,-1302.362347
560.077259,-148.041188,-9178.553681,-919.314598
560.077583,444.123565,-9400.615463,-1072.533697
560.077907,1332.370696,-9400.615463,-1072.533697
560.078232,1998.556043,-9992.780217,-612.876398
560.078556,1332.370696,-9918.759623,-1225.752797
560.078880,592.164754,-9696.697840,-766.095498
560.079204,148.041188,-10955.047942,-1072.533697
560.079528,0.000000,-11547.212695,-612.876398
560.079853,888.247130,-11695.253884,-1072.533697
560.080177,518.144159,-12139.377449,-766.095498
560.080501,-296.082377,-11769.274478,-459.657299
560.080825,-1184.329507,-11103.089130,-1225.752797
560.081150,-1184.329507,-11325.150913,-766.095498
560.081474,-1184.329507,-11251.130318,-1378.971896
560.081798,0.000000,-11103.089130,-1149.143247
560.082122,666.185348,-11251.130318,0.000000
560.082446,222.061783,-11769.274478,-306.438199
560.082771,0.000000,-10955.047942,-919.314598
560.083095,-740.205942,-10214.842000,-153.219100
560.083419,-666.185348,-10436.903782,229.828649
560.083743,0.000000,-10362.883188,-229.828649
560.084068,0.000000,-10584.944971,612.876398
560.084392,-666.185348,-9918.759623,919.314598
560.084716,-1184.329507,-9030.512492,612.876398
560.085040,-1480.411884,-8586.388927,689.485948
560.085364,-2072.576638,-8512.368333,689.485948
560.085689,-1110.308913,-7476.080014,1685.410096
560.086013,-296.082377,-7328.038826,1149.143247
560.086337,296.082377,-7550.100608,1608.800546
560.086661,222.061783,-7179.997637,766.095498
560.086985,-296.082377,-6661.853478,536.266849
560.087310,-296.082377,-7624.121203,1225.752797
560.087634,592.164754,-8512.368333,1685.410096
560.087958,962.267725,-8808.450710,1149.143247
560.088282,-296.082377,-9548.656652,1149.143247
560.088607,-1924.535449,-9252.574275,995.924147
560.088931,-1998.556043,-9178.553681,153.219100
560.089255,-1924.535449,-9474.636058,229.828649
560.089579,-1406.391290,-9252.574275,76.609550
560.089903,-370.102971,-8808.450710,76.609550
560.090228,-296.082377,-9178.553681,229.828649
560.090552,0.000000,-9474.636058,383.047749
560.090876,296.082377,-9400.615463,0.000000
560.091200,814.226536,-9992.780217,459.657299
560.091525,1036.288319,-9400.615463,-306.438199
560.091849,1258.350101,-10288.862594,-306.438199
560.092173,1110.308913,-11325.150913,-459.657299
560.092497,1406.391290,-11251.130318,-1302.362347
560.092821,962.267725,-11103.089130,-919.314598
560.093146,518.144159,-11103.089130,-383.047749
560.093470,666.185348,-11325.150913,-919.314598
560.093794,962.267725,-10807.006753,-995.924147
560.094118,1184.329507,-10807.006753,-306.438199
560.094443,1184.329507,-11251.130318,-1149.143247
560.094767,814.226536,-10658.965565,-1838.629195
560.095091,518.144159,-10288.862594,-1149.143247
560.095415,1184.329507,-10362.883188,-766.095498
560.095739,1628.453072,-10584.944971,-766.095498
560.096064,1184.329507,-11029.068536,-1072.533697
560.096388,0.000000,-11399.171507,-612.876398
560.096712,-962.267725,-10436.903782,-1532.190996
560.097036,-1110.308913,-10140.821405,-1225.752797
560.097361,-740.205942,-10955.047942,306.438199
560.097685,814.226536,-10955.047942,-383.047749
560.098009,1554.432478,-10214.842000,-306.438199
560.098333,444.123565,-9474.636058,459.657299
560.098657,-148.041188,-9326.594869,-229.828649
560.098982,222.061783,-9252.574275,-459.657299
560.099306,444.123565,-8808.450710,0.000000
560.099630,888.247130,-8882.471304,612.876398
560.099954,1924.535449,-9252.574275,842.705048
560.100278,814.226536,-9326.594869,919.314598
560.100603,-444.123565,-8216.285956,153.219100
560.100927,-1258.350101,-7328.038826,-536.266849
560.101251,-2368.659014,-8290.306550,-153.219100
560.101575,-1406.391290,-8216.285956,0.000000
560.101900,-222.061783,-8364.327145,536.266849
560.102224,-740.205942,-9178.553681,1378.971896
560.102548,-814.226536,-8364.327145,536.266849
560.102872,-444.123565,-7772.162391,842.705048
560.103196,-1110.308913,-8512.368333,995.924147
560.103521,-370.102971,-8956.491898,919.314598
560.103845,74.020594,-9178.553681,689.485948
560.104169,-148.041188,-9992.780217,1302.362347
560.104493,-518.144159,-9622.677246,536.266849
560.104818,-962.267725,-9104.533087,229.828649
560.105142,-2368.659014,-9474.636058,0.000000
560.105466,-1924.535449,-9548.656652,-459.657299
560.105790,-1036.288319,-10362.883188,-383.047749
560.106114,-888.247130,-10584.944971,383.047749
560.106439,-1702.473667,-11177.109724,459.657299
560.106763,-1776.494261,-10288.862594,0.000000
560.107087,-592.164754,-9474.636058,0.000000
560.107411,444.123565,-9844.739029,229.828649
560.107736,1628.453072,-10140.821405,536.266849
560.108060,2072.576638,-10436.903782,153.219100
560.108384,888.247130,-11177.109724,459.657299
560.108708,222.061783,-11029.068536,-689.485948
560.109032,0.000000,-10510.924376,-612.876398
560.109357,-592.164754,-10362.883188,-689.485948
560.109681,148.041188,-10510.924376,-766.095498
560.110005,888.247130,-10658.965565,-689.485948
560.110329,296.082377,-10658.965565,-383.047749
560.110653,-1110.308913,-9844.739029,-766.095498
560.110978,-814.226536,-9918.759623,-459.657299
560.111302,0.000000,-10214.842000,-612.876398
560.111626,592.164754,-9548.656652,-383.047749
560.111950,1184.329507,-9400.615463,0.000000
560.112275,740.205942,-9622.677246,0.000000
560.112599,888.247130,-10140.821405,306.438199
560.112923,1184.329507,-10288.862594,612.876398
560.113247,814.226536,-9548.656652,306.438199
560.113571,740.205942,-9474.636058,-153.219100
560.113896,518.144159,-9770.718434,-306.438199
560.114220,-148.041188,-10140.821405,-612.876398
560.114544,-592.164754,-9474.636058,-766.095498
560.114868,-740.205942,-8660.409521,-383.047749
560.115193,-296.082377,-8142.265362,0.000000
560.115517,888.247130,-8364.327145,-306.438199
560.115841,1850.514855,-7994.224174,229.828649
560.116165,1406.391290,-8290.306550,459.657299
560.116489,1036.288319,-8290.306550,0.000000
560.116814,296.082377,-7846.182985,0.000000
560.117138,74.020594,-7994.224174,689.485948
560.117462,1036.288319,-8734.430116,153.219100
560.117786,888.247130,-8956.491898,-153.219100
560.118111,-222.061783,-9178.553681,-612.876398
560.118435,-1480.411884,-9548.656652,229.828649
560.118759,-1406.391290,-10066.800811,-306.438199
560.119083,-962.267725,-9104.533087,-383.047749
560.119407,-370.102971,-8660.409521,-383.047749
560.119732,370.102971,-9548.656652,-766.095498
560.120056,888.247130,-10140.821405,-383.047749
560.120380,1258.350101,-10658.965565,0.000000
560.120704,1258.350101,-9474.636058,-76.609550
560.121029,1480.411884,-10362.883188,229.828649
560.121353,0.000000,-11325.150913,76.609550
560.121677,0.000000,-12065.356855,0.000000
560.122001,-740.205942,-12435.459826,-229.828649
560.122325,-2072.576638,-11917.315666,-689.485948
560.122650,-2220.617826,-10881.027347,-229.828649
560.122974,-1776.494261,-10436.903782,76.609550
560.123298,-518.144159,-10436.903782,0.000000
560.123622,0.000000,-9770.718434,0.000000
560.123946,-148.041188,-9844.739029,0.000000
560.124271,-1184.329507,-9252.574275,-1225.752797
560.124595,-1628.453072,-8290.306550,-1149.143247
560.124919,-1998.556043,-8364.327145,306.438199
560.125243,-666.185348,-9770.718434,0.000000
560.125568,74.020594,-10066.800811,689.485948
560.125892,296.082377,-9696.697840,383.047749
560.126216,-296.082377,-10066.800811,842.705048
560.126540,-518.144159,-10436.903782,0.000000
560.126864,-740.205942,-9844.739029,536.266849
560.127189,-1184.329507,-9474.636058,1302.362347
560.127513,-888.247130,-9178.553681,919.314598
560.127837,148.041188,-9474.636058,1072.533697
560.128161,740.205942,-9474.636058,1915.238745
560.128486,666.185348,-8734.430116,76.609550
560.128810,-444.123565,-7994.224174,0.000000
560.129134,-1258.350101,-8808.450710,0.000000
560.129458,-888.247130,-9178.553681,-536.266849
560.129782,0.000000,-9548.656652,76.609550
560.130107,-740.205942,-9992.780217,612.876398
560.130431,-1258.350101,-9918.759623,306.438199
560.130755,-1184.329507,-8882.471304,-536.266849
560.131079,-814.226536,-9030.512492,459.657299
560.131404,444.123565,-9474.636058,383.047749
560.131728,1554.432478,-9252.574275,306.438199
560.132052,1628.453072,-9178.553681,1072.533697
560.132376,1702.473667,-9030.512492,689.485948
560.132701,2072.576638,-8660.409521,383.047749
560.133025,1998.556043,-8290.306550,0.000000
560.133349,1702.473667,-9474.636058,-306.438199
560.133673,1480.411884,-9992.780217,-689.485948
560.133998,1110.308913,-11029.068536,-306.438199
560.134322,370.102971,-11547.212695,-612.876398
560.134646,-222.061783,-10362.883188,-1072.533697
560.134971,-1258.350101,-9622.677246,-689.485948
560.135295,-1480.411884,-9474.636058,-995.924147
560.135619,-444.123565,-10066.800811,-383.047749
560.135944,814.226536,-10066.800811,0.000000
560.136268,1776.494261,-9474.636058,-229.828649
560.136592,1406.391290,-8956.491898,0.000000
560.136916,1332.370696,-8660.409521,-459.657299
560.137241,2220.617826,-9030.512492,-306.438199
560.137565,2664.741391,-9844.739029,-306.438199
560.137889,2812.782580,-10732.986159,306.438199
560.138214,1480.411884,-11103.089130,0.000000
560.138538,222.061783,-11103.089130,-919.314598
560.138862,-666.185348,-10881.027347,-612.876398
560.139186,-1036.288319,-11177.109724,-536.266849
560.139511,-814.226536,-10658.965565,-1149.143247
560.139835,-666.185348,-10584.944971,-919.314598
560.140159,-666.185348,-10288.862594,76.609550
560.140484,148.041188,-9548.656652,0.000000
560.140808,296.082377,-9622.677246,0.000000
560.141132,222.061783,-9770.718434,766.095498
560.141456,1332.370696,-9696.697840,612.876398
560.141781,1258.350101,-9696.697840,612.876398
560.142105,222.061783,-9326.594869,536.266849
560.142429,-1258.350101,-9844.739029,-383.047749
560.142754,-2516.700203,-9770.718434,-995.924147
560.143078,-3330.926739,-9548.656652,-153.219100
560.143402,-3330.926739,-9474.636058,0.000000
560.143727,-2442.679609,-8808.450710,153.219100
560.144051,-1924.535449,-9030.512492,612.876398
560.144375,-1702.473667,-8734.430116,306.438199
560.144699,-1184.329507,-7772.162391,-383.047749
560.145024,-740.205942,-7105.977043,536.266849
560.145348,-296.082377,-7624.121203,0.000000
560.145672,148.041188,-8734.430116,459.657299
560.145997,296.082377,-9770.718434,1149.143247
560.146321,-444.123565,-9844.739029,1455.581446
560.146645,-1406.391290,-9770.718434,689.485948
560.146969,-1702.473667,-9696.697840,842.705048
560.147294,-1036.288319,-9918.759623,536.266849
560.147618,-592.164754,-10658.965565,919.314598
560.147942,-1406.391290,-10362.883188,766.095498
560.148267,-1258.350101,-9474.636058,153.219100
560.148591,-1332.370696,-8290.306550,-612.876398
560.148915,-814.226536,-8216.285956,-383.047749
560.149239,148.041188,-9178.553681,383.047749
560.149564,1628.453072,-10288.862594,229.828649
560.149888,1628.453072,-10066.800811,689.485948
560.150212,1480.411884,-10436.903782,689.485948
560.150537,1036.288319,-10881.027347,76.609550
560.150861,592.164754,-10510.924376,-459.657299
560.151185,222.061783,-10881.027347,-153.219100
560.151510,592.164754,-11473.192101,-306.438199
560.151834,1332.370696,-10658.965565,-536.266849
560.152158,962.267725,-9548.656652,-919.314598
560.152482,1184.329507,-8956.491898,-459.657299
560.152807,1628.453072,-8882.471304,-306.438199
560.153131,1776.494261,-9474.636058,-383.047749
560.153455,1480.411884,-9474.636058,-842.705048
560.153780,1924.535449,-9474.636058,-306.438199
560.154104,1998.556043,-10584.944971,383.047749
560.154428,1036.288319,-10955.047942,-459.657299
560.154752,-148.041188,-10066.800811,-689.485948
560.155077,-962.267725,-9474.636058,-229.828649
560.155401,-518.144159,-10436.903782,-306.438199
560.155725,444.123565,-11103.089130,153.219100
560.156050,1332.370696,-10881.027347,842.705048
560.156374,1036.288319,-9474.636058,0.000000
560.156698,740.205942,-7920.203579,0.000000
560.157022,370.102971,-7698.141797,0.000000
560.157347,1036.288319,-8512.368333,-612.876398
560.157671,1702.473667,-8364.327145,76.609550
560.157995,1110.308913,-8364.327145,-612.876398
560.158320,0.000000,-8438.347739,-612.876398
560.158644,-1110.308913,-8438.347739,-766.095498
560.158968,-888.247130,-9030.512492,0.000000
560.159293,-592.164754,-9770.718434,459.657299
560.159617,-592.164754,-9326.594869,306.438199
560.159941,-592.164754,-9474.636058,842.705048
560.160265,-814.226536,-9178.553681,0.000000
560.160590,-518.144159,-8956.491898,76.609550
560.160914,-296.082377,-8586.388927,-536.266849
560.161238,0.000000,-8882.471304,0.000000
560.161563,222.061783,-9474.636058,0.000000
560.161887,740.205942,-10214.842000,0.000000
560.162211,0.000000,-10807.006753,229.828649
560.162535,-1776.494261,-10436.903782,-229.828649
560.162860,-2516.700203,-10732.986159,-612.876398
560.163184,-2516.700203,-11769.274478,-459.657299
560.163508,-2294.638420,-11843.295072,-459.657299
560.163833,-2368.659014,-10955.047942,-689.485948
560.164157,-3330.926739,-9992.780217,-842.705048
560.164481,-2960.823768,-9548.656652,-1225.752797
560.164805,-2294.638420,-9844.739029,-383.047749
560.165130,-888.247130,-10584.944971,459.657299
560.165454,370.102971,-9622.677246,919.314598
560.165778,1406.391290,-9474.636058,1225.752797
560.166103,1850.514855,-9622.677246,1072.533697
560.166427,888.247130,-10066.800811,459.657299
560.166751,0.000000,-9622.677246,229.828649
560.167075,-296.082377,-9844.739029,383.047749
560.167400,-370.102971,-10658.965565,153.219100
560.167724,-518.144159,-10362.883188,-153.219100
560.168048,-592.164754,-9474.636058,689.485948
560.168373,-1110.308913,-9474.636058,0.000000
560.168697,-888.247130,-9474.636058,0.000000
560.169021,-666.185348,-9326.594869,153.219100
560.169346,0.000000,-8586.388927,0.000000
560.169670,1258.350101,-8438.347739,766.095498
560.169994,2146.597232,-9326.594869,919.314598
560.170318,2442.679609,-9474.636058,995.924147
560.170643,1702.473667,-9178.553681,1149.143247
560.170967,888.247130,-9622.677246,1762.019645
560.171291,1184.329507,-9696.697840,919.314598
560.171616,1258.350101,-9622.677246,842.705048
560.171940,0.000000,-9844.739029,536.266849
560.172264,-1110.308913,-9474.636058,-383.047749
560.172588,-222.061783,-8660.409521,-766.095498
560.172913,-222.061783,-7698.141797,0.000000
560.173237,592.164754,-7846.182985,-153.219100
560.173561,2072.576638,-8734.430116,0.000000
560.173886,1850.514855,-8586.388927,612.876398
560.174210,1702.473667,-8586.388927,153.219100
560.174534,1258.350101,-8512.368333,-306.438199
560.174858,740.205942,-9104.533087,76.609550
560.175183,740.205942,-9474.636058,536.266849
560.175507,1184.329507,-9992.780217,919.314598
560.175831,444.123565,-9918.759623,0.000000
560.176156,-518.144159,-9770.718434,-459.657299
560.176480,-1184.329507,-10066.800811,-1378.971896
560.176804,-1036.288319,-9696.697840,-1455.581446
560.177129,-740.205942,-9474.636058,-1532.190996
560.177453,0.000000,-9104.533087,-1072.533697
560.177777,1036.288319,-9992.780217,-459.657299
560.178101,1184.329507,-10955.047942,0.000000
560.178426,74.020594,-10807.006753,-383.047749
560.178750,0.000000,-10807.006753,-842.705048
560.179074,0.000000,-10955.047942,-995.924147
560.179399,74.020594,-12065.356855,-536.266849
560.179723,222.061783,-12657.521608,153.219100
560.180047,222.061783,-11843.295072,-766.095498
560.180371,-370.102971,-10881.027347,76.609550
560.180696,-740.205942,-10140.821405,-383.047749
560.181020,-518.144159,-10658.965565,-689.485948
560.181344,0.000000,-10584.944971,-306.438199
560.181669,518.144159,-10066.800811,306.438199
560.181993,592.164754,-9918.759623,153.219100
560.182317,-592.164754,-9770.718434,-612.876398
560.182641,-1110.308913,-9326.594869,153.219100
560.182966,-1036.288319,-8734.430116,383.047749
560.183290,0.000000,-9030.512492,-306.438199
560.183614,-518.144159,-8660.409521,0.000000
560.183939,-1998.556043,-8586.388927,842.705048
560.184263,-2442.679609,-8660.409521,842.705048
560.184587,-1628.453072,-9252.574275,1149.143247
560.184912,-1702.473667,-8290.306550,689.485948
560.185236,-1776.494261,-7846.182985,1455.581446
560.185560,-1184.329507,-8290.306550,1378.971896
560.185884,-370.102971,-8882.471304,1455.581446
560.186209,-666.185348,-9104.533087,1225.752797
560.186533,-1332.370696,-8364.327145,919.314598
560.186857,-1332.370696,-8068.244768,842.705048
560.187182,-1036.288319,-8438.347739,842.705048
560.187506,0.000000,-9326.594869,306.438199
560.187830,-444.123565,-9548.656652,1149.143247
560.188154,-1332.370696,-10214.842000,459.657299
560.188479,-1850.514855,-10140.821405,153.219100
560.188803,-1628.453072,-9178.553681,153.219100
560.189127,-888.247130,-9030.512492,459.657299
560.189452,592.164754,-9548.656652,229.828649
560.189776,1480.411884,-10066.800811,919.314598
560.190100,1406.391290,-10140.821405,766.095498
560.190424,1406.391290,-8586.388927,0.000000
560.190749,1332.370696,-8512.368333,0.000000
560.191073,1480.411884,-9104.533087,-229.828649
560.191397,1702.473667,-9622.677246,-536.266849
560.191722,1332.370696,-10807.006753,-383.047749
560.192046,518.144159,-11029.068536,-306.438199
560.192370,814.226536,-10362.883188,-919.314598
560.192695,1258.350101,-9992.780217,-459.657299
560.193019,1184.329507,-9770.718434,-919.314598
560.193343,1036.288319,-10140.821405,-1685.410096
560.193667,1332.370696,-10436.903782,-1072.533697
560.193992,1776.494261,-10881.027347,-229.828649
560.194316,2738.761985,-11029.068536,153.219100
560.194640,2664.741391,-9918.759623,229.828649
560.194965,1776.494261,-9696.697840,0.000000
560.195289,1332.370696,-9400.615463,-306.438199
560.195613,888.247130,-10955.047942,-1149.143247
560.195937,444.123565,-12213.398043,-612.876398
560.196262,0.000000,-11399.171507,-689.485948
560.196586,-740.205942,-10436.903782,-536.266849
560.196910,-1036.288319,-9474.636058,-1072.533697
560.197235,-1332.370696,-8734.430116,-1608.800546
560.197559,-814.226536,-9474.636058,-1378.971896
560.197883,-740.205942,-9474.636058,-919.314598
560.198207,-814.226536,-8956.491898,-919.314598
560.198532,-222.061783,-7920.203579,-842.705048
560.198856,148.041188,-7402.059420,-306.438199
560.199180,592.164754,-7920.203579,76.609550
560.199505,814.226536,-9030.512492,-153.219100
560.199829,666.185348,-10140.821405,766.095498
560.200153,0.000000,-9992.780217,-229.828649
560.200478,-518.144159,-9474.636058,-153.219100
560.200802,-740.205942,-9474.636058,229.828649
560.201126,-592.164754,-10436.903782,0.000000
560.201450,-518.144159,-10214.842000,-306.438199
560.201775,-1184.329507,-9770.718434,-383.047749
560.202099,-2368.659014,-9474.636058,-383.047749
560.202423,-2960.823768,-8956.491898,-766.095498
560.202748,-2294.638420,-8882.471304,-536.266849
560.203072,-2072.576638,-8882.471304,0.000000
560.203396,-1702.473667,-9770.718434,0.000000
560.203720,-1110.308913,-9992.780217,459.657299
560.204045,-1406.391290,-9770.718434,536.266849
560.204369,-2220.617826,-9474.636058,689.485948
560.204693,-2442.679609,-9548.656652,842.705048
560.205018,-1998.556043,-9918.759623,0.000000
560.205342,-1702.473667,-9326.594869,459.657299
560.205666,-1332.370696,-8882.471304,689.485948
560.205990,-1184.329507,-9178.553681,306.438199
560.206315,-1110.308913,-9178.553681,153.219100
560.206639,-444.123565,-8586.388927,612.876398
560.206963,888.247130,-8512.368333,383.047749
560.207288,2368.659014,-9474.636058,76.609550
560.207612,3330.926739,-9844.739029,612.876398
560.207936,3404.947333,-10436.903782,1149.143247
560.208260,2812.782580,-10288.862594,1455.581446
560.208585,1776.494261,-10214.842000,995.924147
560.208909,1332.370696,-10955.047942,1072.533697
560.209233,1110.308913,-11177.109724,536.266849
560.209558,1184.329507,-11547.212695,919.314598
560.209882,592.164754,-11399.171507,1072.533697
560.210206,-592.164754,-10140.821405,306.438199
560.210531,-1258.350101,-9030.512492,-383.047749
560.210855,-592.164754,-8956.491898,-383.047749
560.211179,-444.123565,-9252.574275,-459.657299
560.211503,370.102971,-9326.594869,-229.828649
560.211828,814.226536,-9696.697840,76.609550
560.212152,1554.432478,-9474.636058,459.657299
560.212476,1776.494261,-9030.512492,995.924147
560.212801,1628.453072,-9400.615463,689.485948
560.213125,1702.473667,-9770.718434,689.485948
560.213449,1998.556043,-9918.759623,995.924147
560.213773,1850.514855,-10510.924376,995.924147
560.214098,666.185348,-10066.800811,842.705048
560.214422,-296.082377,-8956.491898,229.828649
560.214746,-814.226536,-7920.203579,383.047749
560.215071,-148.041188,-8216.285956,0.000000
560.215395,1036.288319,-8734.430116,76.609550
560.215719,962.267725,-8438.347739,459.657299
560.216043,296.082377,-7476.080014,-383.047749
560.216368,-666.185348,-7328.038826,-1072.533697
560.216692,-1332.370696,-8734.430116,-995.924147
560.217016,-962.267725,-10066.800811,-919.314598
560.217341,-1110.308913,-10140.821405,536.266849
560.217665,-814.226536,-9844.739029,0.000000
560.217989,-1036.288319,-9844.739029,-612.876398
560.218314,-1480.411884,-9918.759623,-919.314598
560.218638,-1332.370696,-10214.842000,-536.266849
560.218962,-222.061783,-10955.047942,-153.219100
560.219286,592.164754,-10881.027347,-153.219100
560.219611,1702.473667,-9918.759623,76.609550
560.219935,888.247130,-9474.636058,306.438199
560.220259,518.144159,-9622.677246,-766.095498
560.220584,-666.185348,-9696.697840,-1302.362347
560.220908,-1628.453072,-10510.924376,-1378.971896
560.221232,-1258.350101,-11029.068536,-1608.800546
560.221556,-888.247130,-11177.109724,-766.095498
560.221881,-1184.329507,-10658.965565,-995.924147
560.222205,-1184.329507,-10658.965565,-1685.410096
560.222529,-2590.720797,-10214.842000,-995.924147
560.222854,-1702.473667,-10955.047942,-1225.752797
560.223178,-888.247130,-10436.903782,-842.705048
560.223502,444.123565,-9622.677246,-153.219100
560.223826,1332.370696,-9474.636058,153.219100
560.224151,370.102971,-10807.006753,766.095498
560.224475,-518.144159,-9770.718434,-306.438199
560.224799,-1036.288319,-8068.244768,0.000000
560.225124,-1258.350101,-9474.636058,612.876398
560.225448,-740.205942,-9992.780217,229.828649
560.225772,0.000000,-10436.903782,229.828649
560.226097,-1998.556043,-10362.883188,689.485948
560.226421,-2294.638420,-8734.430116,-383.047749
560.226745,-2516.700203,-8290.306550,-153.219100
560.227069,-2294.638420,-7846.182985,-1532.190996
560.227394,-1036.288319,-7846.182985,-459.657299
560.227718,1036.288319,-8956.491898,459.657299
560.228042,2368.659014,-9474.636058,766.095498
560.228367,2664.741391,-8956.491898,995.924147
560.228691,1480.411884,-8290.306550,689.485948
560.229015,888.247130,-8882.471304,229.828649
560.229339,1110.308913,-9844.739029,0.000000
560.229664,666.185348,-10732.986159,229.828649
560.229988,148.041188,-11251.130318,153.219100
560.230312,0.000000,-9992.780217,-383.047749
560.230637,-222.061783,-9178.553681,0.000000
560.230961,-296.082377,-9474.636058,-383.047749
560.231285,740.205942,-9844.739029,0.000000
560.231609,1184.329507,-10140.821405,536.266849
560.231934,1110.308913,-9992.780217,383.047749
560.232258,888.247130,-8734.430116,-383.047749
560.232582,962.267725,-8956.491898,0.000000
560.232906,1184.329507,-10066.800811,229.828649
560.233230,1776.494261,-10436.903782,306.438199
560.233555,2072.576638,-10732.986159,459.657299
560.233879,962.267725,-10288.862594,383.047749
560.234203,0.000000,-9992.780217,-383.047749
560.234527,0.000000,-9844.739029,-689.485948
560.234851,0.000000,-9844.739029,-459.657299
560.235175,74.020594,-9548.656652,-766.095498
560.235499,814.226536,-8956.491898,-153.219100
560.235824,1258.350101,-8660.409521,536.266849
560.236148,1480.411884,-9030.512492,229.828649
560.236472,1036.288319,-8586.388927,76.609550
560.236796,666.185348,-8660.409521,0.000000
560.237120,888.247130,-9104.533087,-459.657299
560.237444,740.205942,-10066.800811,689.485948
560.237768,370.102971,-10807.006753,919.314598
560.238093,-666.185348,-10510.924376,0.000000
560.238417,-2442.679609,-9622.677246,0.000000
560.238741,-3552.988522,-9918.759623,-536.266849
560.239065,-2368.659014,-10807.006753,-919.314598
560.239389,-444.123565,-10584.944971,-459.657299
560.239713,370.102971,-9844.739029,306.438199
560.240037,296.082377,-9326.594869,0.000000
560.240362,0.000000,-9178.553681,-842.705048
560.240686,-370.102971,-9400.615463,76.609550
560.241010,-444.123565,-9548.656652,0.000000
560.241334,592.164754,-10066.800811,-459.657299
560.241658,0.000000,-10584.944971,995.924147
560.241982,0.000000,-11177.109724,842.705048
560.242306,-1036.288319,-10436.903782,229.828649
560.242631,-2368.659014,-9696.697840,459.657299
560.242955,-2368.659014,-9622.677246,306.438199
560.243279,-1554.432478,-9252.574275,-612.876398
560.243603,-1554.432478,-8956.491898,229.828649
560.243927,-1924.535449,-8290.306550,383.047749
560.244251,-740.205942,-7624.121203,-153.219100
560.244575,74.020594,-8142.265362,536.266849
560.244899,370.102971,-8956.491898,459.657299
560.245224,0.000000,-8956.491898,306.438199
560.245548,-74.020594,-9252.574275,612.876398
560.245872,-666.185348,-10214.842000,0.000000
560.246196,-518.144159,-11399.171507,536.266849
560.246520,-518.144159,-10584.944971,689.485948
560.246844,-1184.329507,-9844.739029,689.485948
560.247168,-1184.329507,-10140.821405,229.828649
560.247493,-740.205942,-10214.842000,0.000000
560.247817,-148.041188,-9844.739029,0.000000
560.248141,-148.041188,-8512.368333,-612.876398
560.248465,0.000000,-7920.203579,-306.438199
560.248789,-518.144159,-8068.244768,-1072.533697
560.249113,-222.061783,-9104.533087,-689.485948
560.249437,444.123565,-10362.883188,76.609550
560.249762,888.247130,-10955.047942,-612.876398
560.250086,222.061783,-10362.883188,-995.924147
560.250410,74.020594,-10140.821405,0.000000
560.250734,1924.535449,-12139.377449,689.485948
560.251058,3330.926739,-12139.377449,153.219100
560.251382,2960.823768,-10881.027347,229.828649
560.251706,2146.597232,-10436.903782,536.266849
560.252031,1998.556043,-10288.862594,-995.924147
560.252355,1776.494261,-9178.553681,-842.705048
560.252679,1628.453072,-8068.244768,-306.438199
560.253003,2072.576638,-8512.368333,-766.095498
560.253327,1850.514855,-9770.718434,-1149.143247
560.253651,666.185348,-10214.842000,0.000000
560.253975,-592.164754,-9474.636058,-1072.533697
560.254300,-1998.556043,-9400.615463,-1532.190996
560.254624,-2738.761985,-9844.739029,-1149.143247
560.254948,-2294.638420,-10066.800811,-689.485948
560.255272,-814.226536,-9474.636058,-766.095498
560.255596,-222.061783,-9030.512492,-306.438199
560.255920,370.102971,-9474.636058,229.828649
560.256244,1184.329507,-8808.450710,-383.047749
560.256569,1776.494261,-8290.306550,383.047749
560.256893,2590.720797,-8586.388927,383.047749
560.257217,2960.823768,-8586.388927,0.000000
560.257541,2368.659014,-9474.636058,459.657299
560.257865,740.205942,-10362.883188,-536.266849
560.258189,-1036.288319,-10140.821405,-1608.800546
560.258513,-1998.556043,-9400.615463,-1225.752797
560.258837,-2368.659014,-10140.821405,-1225.752797
560.259162,-2664.741391,-10732.986159,-1991.848295
560.259486,-3404.947333,-9770.718434,-1302.362347
560.259810,-3108.864956,-9548.656652,-995.924147
560.260134,-2812.782580,-9178.553681,-1149.143247
560.260458,-740.205942,-8882.471304,229.828649
560.260782,666.185348,-8956.491898,229.828649
560.261106,1998.556043,-9400.615463,76.609550
560.261431,2590.720797,-9770.718434,689.485948
560.261755,3108.864956,-11843.295072,1762.019645
560.262079,2812.782580,-12213.398043,1378.971896
560.262403,1480.411884,-11621.233289,1302.362347
560.262727,0.000000,-10510.924376,842.705048
560.263051,-1258.350101,-10955.047942,-612.876398
560.263375,-1998.556043,-11991.336260,-919.314598
560.263700,-2590.720797,-12213.398043,0.000000
560.264024,-3478.967927,-10510.924376,0.000000
560.264348,-3775.050304,-8660.409521,-536.266849
560.264672,-3182.885551,-7476.080014,-459.657299
560.264996,-1776.494261,-8364.327145,0.000000
560.265320,-370.102971,-9474.636058,689.485948
560.265644,1258.350101,-8808.450710,1915.238745
560.265969,1850.514855,-8438.347739,1302.362347
560.266293,1998.556043,-7846.182985,1302.362347
560.266617,1554.432478,-8808.450710,1915.238745
560.266941,1184.329507,-10066.800811,1608.800546
560.267265,740.205942,-10066.800811,1378.971896
560.267589,-370.102971,-10288.862594,1685.410096
560.267913,-666.185348,-9252.574275,1149.143247
560.268238,-296.082377,-8290.306550,229.828649
560.268562,-592.164754,-7698.141797,842.705048
560.268886,-1110.308913,-8512.368333,383.047749
560.269210,-1184.329507,-8956.491898,0.000000
560.269534,-1332.370696,-8068.244768,383.047749
560.269858,-740.205942,-7550.100608,383.047749
560.270182,-740.205942,-7994.224174,306.438199
560.270507,-444.123565,-8808.450710,383.047749
560.270831,-370.102971,-9474.636058,76.609550
560.271155,148.041188,-10288.862594,306.438199
560.271479,1036.288319,-10066.800811,995.924147
560.271803,2368.659014,-10436.903782,842.705048
560.272127,2664.741391,-10140.821405,1149.143247
560.272451,2738.761985,-10140.821405,1072.533697
560.272775,2738.761985,-10214.842000,842.705048
560.273100,1998.556043,-10510.924376,-459.657299
560.273424,1628.453072,-10362.883188,612.876398
560.273748,1480.411884,-11029.068536,459.657299
560.274072,888.247130,-10881.027347,-536.266849
560.274396,-296.082377,-9918.759623,-536.266849
560.274720,-1480.411884,-9474.636058,-612.876398
560.275044,-1850.514855,-9992.780217,-1991.848295
560.275369,-1480.411884,-10732.986159,-1915.238745
560.275693,-1406.391290,-10066.800811,-1072.533697
560.276017,-740.205942,-9104.533087,-1532.190996
560.276341,-296.082377,-8660.409521,-1378.971896
560.276665,74.020594,-9178.553681,-1302.362347
560.276989,814.226536,-9696.697840,-1072.533697
560.277313,814.226536,-10362.883188,-689.485948
560.277638,1480.411884,-10881.027347,0.000000
560.277962,1406.391290,-10584.944971,-229.828649
560.278286,1406.391290,-9992.780217,-536.266849
560.278610,666.185348,-10066.800811,-383.047749
560.278934,148.041188,-10807.006753,-1225.752797
560.279258,222.061783,-11251.130318,-1532.190996
560.279582,-222.061783,-10584.944971,-1608.800546
560.279907,-444.123565,-9622.677246,-2145.067394
560.280231,-814.226536,-9178.553681,-1608.800546
560.280555,-962.267725,-8956.491898,-1685.410096
560.280879,-1998.556043,-8660.409521,-2451.505594
560.281203,-2294.638420,-9622.677246,-1762.019645
560.281527,-1406.391290,-10140.821405,-1532.190996
560.281851,0.000000,-10066.800811,-1455.581446
560.282176,-148.041188,-9474.636058,-689.485948
560.282500,0.000000,-9474.636058,-536.266849
560.282824,-666.185348,-9844.739029,-995.924147
560.283148,-1258.350101,-10881.027347,-1532.190996
560.283472,-592.164754,-11177.109724,612.876398
560.283796,-592.164754,-10584.944971,0.000000
560.284120,-888.247130,-9104.533087,0.000000
560.284445,-1184.329507,-8068.244768,0.000000
560.284769,-1258.350101,-7994.224174,-842.705048
560.285093,-1332.370696,-8882.471304,-1378.971896
560.285417,-2146.597232,-9178.553681,0.000000
560.285741,-1110.308913,-8956.491898,306.438199
560.286065,-444.123565,-8290.306550,153.219100
560.286389,-518.144159,-8068.244768,383.047749
560.286713,-296.082377,-8956.491898,383.047749
560.287038,-148.041188,-9918.759623,0.000000
560.287362,0.000000,-10510.924376,689.485948
560.287686,-444.123565,-10066.800811,919.314598
560.288010,444.123565,-9474.636058,612.876398
560.288334,592.164754,-9474.636058,919.314598
560.288658,592.164754,-10214.842000,1455.581446
560.288982,518.144159,-10955.047942,1149.143247
560.289307,814.226536,-11325.150913,1378.971896
560.289631,1110.308913,-10510.924376,1532.190996
560.289955,1036.288319,-9696.697840,612.876398
560.290279,740.205942,-9918.759623,0.000000
560.290603,222.061783,-10584.944971,153.219100
560.290927,74.020594,-10658.965565,0.000000
560.291251,-222.061783,-10732.986159,766.095498
560.291576,0.000000,-10584.944971,766.095498
560.291900,-592.164754,-9844.739029,383.047749
560.292224,-592.164754,-9252.574275,842.705048
560.292548,-592.164754,-9104.533087,766.095498
560.292872,370.102971,-9770.718434,689.485948
560.293196,1184.329507,-9474.636058,1685.410096
560.293520,2072.576638,-9474.636058,1608.800546
560.293845,2590.720797,-8882.471304,1149.143247
560.294169,2442.679609,-8216.285956,766.095498
560.294493,2072.576638,-8216.285956,459.657299
560.294817,2368.659014,-8586.388927,459.657299
560.295141,1998.556043,-8586.388927,689.485948
560.295465,1332.370696,-8512.368333,689.485948
560.295789,0.000000,-8586.388927,-229.828649
560.296114,-1480.411884,-8438.347739,-459.657299
560.296438,-1998.556043,-9252.574275,-383.047749
560.296762,-1998.556043,-9474.636058,-995.924147
560.297086,-1480.411884,-9178.553681,-306.438199
560.297410,-962.267725,-9252.574275,229.828649
560.297734,-592.164754,-9548.656652,-306.438199
560.298058,74.020594,-9474.636058,-995.924147
560.298383,-296.082377,-9252.574275,-153.219100
560.298707,0.000000,-9844.739029,-383.047749
560.299031,1406.391290,-11029.068536,-612.876398
560.299355,1776.494261,-10584.944971,153.219100
560.299679,1480.411884,-9844.739029,-153.219100
560.300003,1258.350101,-10362.883188,-995.924147
560.300327,-148.041188,-10584.944971,-1455.581446
560.300651,-444.123565,-10881.027347,-1378.971896
560.300976,-296.082377,-10807.006753,-1225.752797
560.301300,-666.185348,-10584.944971,-919.314598
560.301624,-1480.411884,-10288.862594,-1455.581446
560.301948,-2368.659014,-9622.677246,-1762.019645
560.302272,-1998.556043,-8586.388927,-1225.752797
560.302596,-1480.411884,-9252.574275,-766.095498
560.302920,-740.205942,-9474.636058,-383.047749
560.303245,-222.061783,-9326.594869,-229.828649
560.303569,0.000000,-9104.533087,0.000000
560.303893,-222.061783,-9622.677246,-459.657299
560.304217,-444.123565,-9474.636058,76.609550
560.304541,-1110.308913,-9326.594869,0.000000
560.304865,-1924.535449,-9770.718434,-766.095498
560.305189,-1924.535449,-9918.759623,-689.485948
560.305514,-2146.597232,-9770.718434,-306.438199
560.305838,-2220.617826,-9474.636058,-1072.533697
560.306162,-2220.617826,-9326.594869,-459.657299
560.306486,-1258.350101,-8956.491898,-689.485948
560.306810,0.000000,-8290.306550,-612.876398
560.307134,1036.288319,-8142.265362,0.000000
560.307458,1036.288319,-8512.368333,153.219100
560.307783,518.144159,-9326.594869,-459.657299
560.308107,74.020594,-9696.697840,76.609550
560.308431,296.082377,-9770.718434,229.828649
560.308755,1036.288319,-10214.842000,0.000000
560.309079,1406.391290,-10140.821405,919.314598
560.309403,1628.453072,-10436.903782,0.000000
560.309727,888.247130,-10510.924376,-1838.629195
560.310052,74.020594,-10214.842000,-689.485948
560.310376,-148.041188,-10288.862594,0.000000
560.310700,962.267725,-10214.842000,-919.314598
560.311024,1776.494261,-10214.842000,-612.876398
560.311348,1480.411884,-10658.965565,0.000000
560.311672,1776.494261,-10140.821405,-612.876398
560.311996,1110.308913,-10066.800811,-919.314598
560.312321,0.000000,-9992.780217,0.000000
560.312645,222.061783,-10732.986159,0.000000
560.312969,1184.329507,-10807.006753,-306.438199
560.313293,740.205942,-10510.924376,459.657299
560.313617,-518.144159,-9918.759623,76.609550
560.313941,-1184.329507,-10140.821405,-612.876398
560.314265,-1480.411884,-9918.759623,0.000000
560.314589,-296.082377,-9622.677246,229.828649
560.314914,0.000000,-9030.512492,536.266849
560.315238,814.226536,-9548.656652,306.438199
560.315562,1036.288319,-9696.697840,-153.219100
560.315886,222.061783,-8882.471304,-612.876398
560.316210,-296.082377,-8586.388927,536.266849
560.316534,-222.061783,-9252.574275,-306.438199
560.316858,74.020594,-9548.656652,-689.485948
560.317183,296.082377,-9548.656652,689.485948
560.317507,296.082377,-10066.800811,842.705048
560.317831,296.082377,-10214.842000,76.609550
560.318155,0.000000,-9030.512492,689.485948
560.318479,222.061783,-8512.368333,689.485948
560.318803,666.185348,-8586.388927,-153.219100
560.319127,1258.350101,-9326.594869,1378.971896
560.319452,1110.308913,-9326.594869,766.095498
560.319776,1406.391290,-8808.450710,536.266849
560.320100,518.144159,-8956.491898,229.828649
560.320424,-740.205942,-9400.615463,459.657299
560.320748,-1110.308913,-9844.739029,-536.266849
560.321072,-1480.411884,-10510.924376,0.000000
560.321396,-1628.453072,-10436.903782,0.000000
560.321721,-1998.556043,-9992.780217,-1072.533697
560.322045,-2368.659014,-9326.594869,0.000000
560.322369,-2368.659014,-8808.450710,-919.314598
560.322693,-1850.514855,-9548.656652,-459.657299
560.323017,-962.267725,-10214.842000,-306.438199
560.323341,-370.102971,-9992.780217,612.876398
560.323665,148.041188,-9844.739029,842.705048
560.323990,740.205942,-9548.656652,612.876398
560.324314,1110.308913,-9696.697840,766.095498
560.324638,0.000000,-10436.903782,766.095498
560.324962,1184.329507,-11991.336260,1072.533697
560.325286,814.226536,-12509.480420,1302.362347
560.325610,0.000000,-11399.171507,536.266849
560.325934,-1406.391290,-9770.718434,-306.438199
560.326259,-2368.659014,-9400.615463,-612.876398
560.326583,-1554.432478,-9104.533087,-1532.190996
560.326907,-888.247130,-8956.491898,-1225.752797
560.327231,-148.041188,-8882.471304,536.266849
560.327555,740.205942,-8068.244768,-306.438199
560.327879,444.123565,-7031.956449,-919.314598
560.328203,0.000000,-7920.203579,0.000000
560.328527,296.082377,-8882.471304,-306.438199
560.328852,1036.288319,-10362.883188,0.000000
560.329176,444.123565,-10584.944971,229.828649
560.329500,222.061783,-10140.821405,229.828649
560.329824,148.041188,-10140.821405,-536.266849
560.330148,0.000000,-10288.862594,0.000000
560.330472,0.000000,-10510.924376,153.219100
560.330796,0.000000,-10214.842000,-459.657299
560.331121,518.144159,-10510.924376,-229.828649
560.331445,1258.350101,-9992.780217,-383.047749
560.331769,1850.514855,-10066.800811,-536.266849
560.332093,1628.453072,-10214.842000,0.000000
560.332417,1554.432478,-9918.759623,-306.438199
560.332741,1036.288319,-10214.842000,-612.876398
560.333068,518.144159,-10066.800811,-306.438199
560.333392,0.000000,-9918.759623,0.000000
560.333716,-1110.308913,-10510.924376,-383.047749
560.334040,-1998.556043,-9918.759623,-536.266849
560.334364,-2294.638420,-8364.327145,-1149.143247
560.334689,-1554.432478,-7994.224174,-919.314598
560.335013,-1110.308913,-8438.347739,0.000000
560.335337,444.123565,-9178.553681,0.000000
560.335661,296.082377,-8216.285956,-383.047749
560.335985,296.082377,-7328.038826,-306.438199
560.336309,518.144159,-7476.080014,-536.266849
560.336634,1406.391290,-8438.347739,-1225.752797
560.336958,1924.535449,-9918.759623,153.219100
560.337282,2294.638420,-11473.192101,459.657299
560.337606,1924.535449,-11695.253884,229.828649
560.337930,518.144159,-11325.150913,-153.219100
560.338255,-1036.288319,-10214.842000,-76.609550
560.338579,-1258.350101,-10288.862594,-689.485948
560.338903,-814.226536,-11029.068536,-1072.533697
560.339227,-1332.370696,-11103.089130,-306.438199
560.339551,-1184.329507,-9548.656652,-995.924147
560.339876,0.000000,-8660.409521,-1149.143247
560.340200,-370.102971,-8882.471304,-459.657299
560.340524,74.020594,-9844.739029,-229.828649
560.340848,74.020594,-10066.800811,-612.876398
560.341172,-592.164754,-10732.986159,76.609550
560.341496,-666.185348,-11177.109724,0.000000
560.341821,-1110.308913,-11029.068536,-536.266849
560.342145,-1480.411884,-10584.944971,153.219100
560.342469,-962.267725,-10732.986159,995.924147
560.342793,-296.082377,-10732.986159,0.000000
560.343117,-740.205942,-10288.862594,0.000000
560.343442,-740.205942,-9548.656652,842.705048
560.343766,-444.123565,-9326.594869,306.438199
560.344090,0.000000,-8660.409521,153.219100
560.344414,-148.041188,-8068.244768,229.828649
560.344738,0.000000,-8586.388927,612.876398
560.345062,-740.205942,-9178.553681,0.000000
560.345387,-1184.329507,-9104.533087,612.876398
560.345711,-1554.432478,-9252.574275,766.095498
560.346035,-1850.514855,-9696.697840,459.657299
560.346359,-2072.576638,-9770.718434,459.657299
560.346683,-1480.411884,-9252.574275,459.657299
560.347008,-370.102971,-9622.677246,459.657299
560.347332,0.000000,-9844.739029,612.876398
560.347656,-148.041188,-8586.388927,766.095498
560.347980,148.041188,-8068.244768,689.485948
560.348304,1258.350101,-7846.182985,1072.533697
560.348629,2368.659014,-8512.368333,229.828649
560.348953,2368.659014,-9030.512492,536.266849
560.349277,1924.535449,-9622.677246,919.314598
560.349601,1702.473667,-9844.739029,0.000000
560.349925,518.144159,-9696.697840,229.828649
560.350249,740.205942,-9844.739029,612.876398
560.350574,444.123565,-9474.636058,-842.705048
560.350898,518.144159,-9918.759623,-689.485948
560.351222,666.185348,-10362.883188,-229.828649
560.351546,1406.391290,-9622.677246,-383.047749
560.351870,1480.411884,-9178.553681,0.000000
560.352195,518.144159,-9252.574275,459.657299
560.352519,2146.597232,-9548.656652,153.219100
560.352843,2738.761985,-10140.821405,0.000000
560.353167,2220.617826,-10732.986159,536.266849
560.353491,1184.329507,-11251.130318,0.000000
560.353815,-222.061783,-11473.192101,-1072.533697
560.354140,-1332.370696,-10658.965565,-995.924147
560.354464,-1406.391290,-10436.903782,-995.924147
560.354788,-1628.453072,-10584.944971,-1378.971896
560.355112,-1332.370696,-10881.027347,-842.705048
560.355436,-1184.329507,-10584.944971,-995.924147
560.355761,-370.102971,-9400.615463,-1072.533697
560.356085,1110.308913,-8956.491898,-383.047749
560.356409,1702.473667,-8956.491898,76.609550
560.356733,1702.473667,-9400.615463,383.047749
560.357057,1184.329507,-10288.862594,1225.752797
560.357382,1184.329507,-9844.739029,689.485948
560.357706,1036.288319,-9992.780217,766.095498
560.358030,148.041188,-10658.965565,1302.362347
560.358354,0.000000,-10436.903782,766.095498
560.358678,-740.205942,-9252.574275,153.219100
560.359002,-1480.411884,-8142.265362,-153.219100
560.359327,-2368.659014,-7624.121203,-995.924147
560.359651,-2442.679609,-7550.100608,-1532.190996
560.359975,-2146.597232,-6661.853478,-612.876398
560.360299,-1332.370696,-7105.977043,-229.828649
560.360623,74.020594,-7476.080014,-459.657299
560.360948,1036.288319,-8068.244768,76.609550
560.361272,1110.308913,-9030.512492,689.485948
560.361596,888.247130,-9622.677246,229.828649
560.361920,-740.205942,-9992.780217,0.000000
560.362244,-1776.494261,-10214.842000,919.314598
560.362569,-1110.308913,-11103.089130,0.000000
560.362893,-1110.308913,-11473.192101,229.828649
560.363217,-1332.370696,-11621.233289,536.266849
560.363541,-1258.350101,-11103.089130,-612.876398
560.363865,-1924.535449,-10362.883188,-842.705048
560.364189,-2072.576638,-9030.512492,-612.876398
560.364514,-1258.350101,-9104.533087,-766.095498
560.364838,-518.144159,-9918.759623,-919.314598
560.365162,296.082377,-10658.965565,-153.219100
560.365486,-740.205942,-10510.924376,-459.657299
560.365810,-1628.453072,-10732.986159,-1149.143247
560.366135,-1850.514855,-10436.903782,-612.876398
560.366459,-888.247130,-10140.821405,-612.876398
560.366783,-296.082377,-11325.150913,383.047749
560.367107,148.041188,-11621.233289,306.438199
560.367431,0.000000,-10584.944971,536.266849
560.367755,0.000000,-9696.697840,0.000000
560.368080,740.205942,-9030.512492,76.609550
560.368404,1776.494261,-8512.368333,0.000000
560.368728,2516.700203,-8956.491898,-995.924147
560.369052,2368.659014,-8882.471304,-306.438199
560.369376,2516.700203,-9178.553681,-153.219100
560.369701,2294.638420,-10436.903782,-229.828649
560.370025,1332.370696,-10510.924376,153.219100
560.370349,0.000000,-9918.759623,-612.876398
560.370673,-962.267725,-9548.656652,0.000000
560.370997,-666.185348,-11325.150913,-153.219100
560.371322,0.000000,-10732.986159,-229.828649
560.371646,-148.041188,-9326.594869,229.828649
560.371970,-148.041188,-8290.306550,612.876398
560.372294,740.205942,-8586.388927,306.438199
560.372618,2146.597232,-8956.491898,536.266849
560.372942,1184.329507,-8438.347739,1149.143247
560.373267,814.226536,-8660.409521,459.657299
560.373591,0.000000,-8142.265362,-766.095498
560.373915,-148.041188,-8364.327145,0.000000
560.374239,0.000000,-8586.388927,153.219100
560.374563,74.020594,-8956.491898,0.000000
560.374888,-444.123565,-9474.636058,153.219100
560.375212,-370.102971,-9770.718434,229.828649
560.375536,-962.267725,-8068.244768,-919.314598
560.375860,-962.267725,-7772.162391,-612.876398
560.376184,-740.205942,-7846.182985,0.000000
560.376509,444.123565,-8882.471304,229.828649
560.376833,1628.453072,-10510.924376,1225.752797
560.377157,2368.659014,-10066.800811,1532.190996
560.377481,2220.617826,-8808.450710,536.266849
560.377805,1628.453072,-8956.491898,-306.438199
560.378129,1036.288319,-9770.718434,-919.314598
560.378454,148.041188,-10584.944971,-459.657299
560.378778,-148.041188,-11843.295072,-689.485948
560.379102,-740.205942,-12065.356855,-229.828649
560.379426,-592.164754,-11769.274478,-612.876398
560.379750,-518.144159,-10214.842000,-995.924147
560.380075,-1110.308913,-10140.821405,-459.657299
560.380399,-1036.288319,-10807.006753,-1225.752797
560.380723,-370.102971,-11325.150913,-306.438199
560.381047,0.000000,-11769.274478,536.266849
560.381371,296.082377,-10732.986159,612.876398
560.381695,0.000000,-10140.821405,612.876398
560.382020,-740.205942,-10584.944971,1532.190996
560.382344,-370.102971,-10436.903782,-383.047749
560.382668,-222.061783,-10362.883188,76.609550
560.382992,-888.247130,-10807.006753,995.924147
560.383316,-1628.453072,-10807.006753,766.095498
560.383641,-2146.597232,-9918.759623,-153.219100
560.383965,-2368.659014,-8956.491898,0.000000
560.384289,-2146.597232,-8068.244768,-306.438199
560.384613,-1776.494261,-8660.409521,0.000000
560.384937,-1406.391290,-9104.533087,1225.752797
560.385262,-1480.411884,-7772.162391,1072.533697
560.385586,-1776.494261,-7105.977043,995.924147
560.385910,-1184.329507,-7402.059420,919.314598
560.386234,-222.061783,-8290.306550,1072.533697
560.386558,518.144159,-8808.450710,1378.971896
560.386882,962.267725,-8660.409521,1608.800546
560.387207,0.000000,-9252.574275,1378.971896
560.387531,-1184.329507,-9178.553681,459.657299
560.387855,-1332.370696,-8808.450710,689.485948
560.388179,-296.082377,-9252.574275,689.485948
560.388503,1258.350101,-9474.636058,0.000000
560.388828,1776.494261,-8660.409521,536.266849
560.389152,2072.576638,-8216.285956,-229.828649
560.389476,1628.453072,-9326.594869,-689.485948
560.389800,1036.288319,-9474.636058,-842.705048
560.390124,962.267725,-9400.615463,-383.047749
560.390449,1110.308913,-9770.718434,-612.876398
560.390773,1036.288319,-10066.800811,0.000000
560.391097,1258.350101,-10436.903782,-229.828649
560.391421,814.226536,-10362.883188,-689.485948
560.391745,148.041188,-10066.800811,-1225.752797
560.392069,-444.123565,-10066.800811,-842.705048
560.392394,518.144159,-10066.800811,-919.314598
560.392718,1850.514855,-10510.924376,-919.314598
560.393042,2294.638420,-10658.965565,-689.485948
560.393366,1258.350101,-10288.862594,-842.705048
560.393690,518.144159,-10955.047942,-1762.019645
560.394015,518.144159,-10807.006753,-1991.848295
560.394339,888.247130,-9622.677246,-1532.190996
560.394663,888.247130,-9992.780217,-1532.190996
560.394987,1036.288319,-10955.047942,-1302.362347
560.395311,-222.061783,-11843.295072,-1149.143247
560.395635,-2146.597232,-10732.986159,-1838.629195
560.395960,-2738.761985,-9770.718434,-1532.190996
560.396284,-1628.453072,-10288.862594,-1225.752797
560.396608,296.082377,-10584.944971,-459.657299
560.396932,740.205942,-10140.821405,459.657299
560.397256,518.144159,-9548.656652,536.266849
560.397581,518.144159,-9548.656652,0.000000
560.397905,370.102971,-9104.533087,76.609550
560.398229,666.185348,-9252.574275,0.000000
560.398553,1036.288319,-9548.656652,153.219100
560.398877,2072.576638,-10436.903782,766.095498
560.399202,1480.411884,-10140.821405,306.438199
560.399526,-296.082377,-9030.512492,0.000000
560.399850,-2072.576638,-8882.471304,-536.266849
560.400174,-2738.761985,-8956.491898,-536.266849
560.400498,-2072.576638,-9178.553681,-153.219100
560.400822,-1924.535449,-9178.553681,229.828649
560.401147,-1702.473667,-8808.450710,919.314598
560.401471,-1702.473667,-8216.285956,919.314598
560.401795,-2220.617826,-7624.121203,229.828649
560.402119,-962.267725,-7402.059420,306.438199
560.402443,0.000000,-7772.162391,306.438199
560.402768,962.267725,-9548.656652,1685.410096
560.403092,740.205942,-10288.862594,1685.410096
560.403416,-222.061783,-9474.636058,1302.362347
560.403740,-1110.308913,-9474.636058,612.876398
560.404064,-1406.391290,-10214.842000,0.000000
560.404389,0.000000,-10881.027347,536.266849
560.404713,0.000000,-10584.944971,919.314598
560.405037,-296.082377,-10510.924376,1455.581446
560.405361,-1258.350101,-9696.697840,459.657299
560.405685,-2146.597232,-9474.636058,229.828649
560.406009,-2220.617826,-9178.553681,383.047749
560.406334,-740.205942,-8586.388927,229.828649
560.406658,0.000000,-8808.450710,612.876398
560.406982,370.102971,-9104.533087,1149.143247
560.407306,1258.350101,-9622.677246,1072.533697
560.407630,814.226536,-9844.739029,0.000000
560.407955,-296.082377,-9548.656652,0.000000
560.408279,-370.102971,-9992.780217,383.047749
560.408603,0.000000,-10658.965565,153.219100
560.408927,592.164754,-11029.068536,919.314598
560.409251,1184.329507,-10658.965565,766.095498
560.409575,1258.350101,-9918.759623,-383.047749
560.409900,370.102971,-9844.739029,-229.828649
560.410224,1110.308913,-9548.656652,0.000000
560.410548,2146.597232,-9326.594869,0.000000
560.410872,2368.659014,-9696.697840,0.000000
560.411196,1628.453072,-9474.636058,-383.047749
560.411521,444.123565,-8660.409521,-536.266849
560.411845,-296.082377,-9696.697840,-766.095498
560.412169,370.102971,-10066.800811,-229.828649
560.412493,74.020594,-9696.697840,-766.095498
560.412817,-148.041188,-10362.883188,536.266849
560.413142,-444.123565,-10288.862594,306.438199
560.413466,-740.205942,-10288.862594,0.000000
560.413790,-1036.288319,-9326.594869,0.000000
560.414114,-888.247130,-8290.306550,-76.609550
560.414438,-148.041188,-9326.594869,-536.266849
560.414762,666.185348,-10436.903782,842.705048
560.415087,1776.494261,-9770.718434,229.828649
560.415411,1628.453072,-8956.491898,229.828649
560.415735,0.000000,-9104.533087,-612.876398
560.416059,-1036.288319,-9178.553681,-1225.752797
560.416383,-666.185348,-9326.594869,-1149.143247
560.416708,74.020594,-10066.800811,-459.657299
560.417032,74.020594,-10362.883188,-306.438199
560.417356,-592.164754,-9992.780217,-383.047749
560.417680,-814.226536,-9104.533087,-153.219100
560.418004,0.000000,-8586.388927,-76.609550
560.418329,74.020594,-9104.533087,0.000000
560.418653,74.020594,-9400.615463,-306.438199
560.418977,592.164754,-9474.636058,689.485948
560.419301,1332.370696,-9548.656652,0.000000
560.419625,518.144159,-9326.594869,0.000000
560.419949,-444.123565,-9400.615463,-153.219100
560.420274,-962.267725,-9992.780217,-995.924147
560.420598,-1332.370696,-10658.965565,-1685.410096
560.420922,-888.247130,-11103.089130,-766.095498
560.421246,-1332.370696,-11547.212695,-383.047749
560.421570,-1332.370696,-11621.233289,-689.485948
560.421895,-1184.329507,-10436.903782,-842.705048
560.422219,-740.205942,-9252.574275,-1149.143247
560.422543,-370.102971,-9622.677246,-919.314598
560.422867,148.041188,-10881.027347,306.438199
560.423191,296.082377,-10140.821405,0.000000
560.423515,-592.164754,-8734.430116,153.219100
560.423840,-1332.370696,-9252.574275,306.438199
560.424164,-888.247130,-10066.800811,153.219100
560.424488,-148.041188,-10288.862594,0.000000
560.424812,-296.082377,-10214.842000,153.219100
560.425136,-888.247130,-9622.677246,0.000000
560.425461,-1702.473667,-9696.697840,-612.876398
560.425785,-1332.370696,-9696.697840,76.609550
560.426109,-666.185348,-9326.594869,0.000000
560.426433,370.102971,-8808.450710,-229.828649
560.426757,740.205942,-9030.512492,0.000000
560.427082,888.247130,-9474.636058,0.000000
560.427406,1258.350101,-8808.450710,0.000000
560.427730,888.247130,-9252.574275,459.657299
560.428054,222.061783,-9474.636058,1378.971896
560.428378,444.123565,-9474.636058,383.047749
560.428702,0.000000,-10214.842000,1149.143247
560.429027,-222.061783,-10955.047942,1532.190996
560.429351,-370.102971,-10732.986159,612.876398
560.429675,-888.247130,-8882.471304,229.828649
560.429999,-1776.494261,-7846.182985,76.609550
560.430323,-1184.329507,-8142.265362,459.657299
560.430648,148.041188,-9104.533087,0.000000
560.430972,1628.453072,-9474.636058,1149.143247
560.431296,1332.370696,-8216.285956,919.314598
560.431620,1480.411884,-8364.327145,612.876398
560.431944,1628.453072,-9252.574275,536.266849
560.432268,1850.514855,-9622.677246,919.314598
560.432593,1258.350101,-10066.800811,842.705048
560.432917,814.226536,-10288.862594,1149.143247
560.433241,74.020594,-10807.006753,689.485948
560.433565,-222.061783,-10362.883188,842.705048
560.433889,-222.061783,-9474.636058,689.485948
560.434214,-222.061783,-9252.574275,229.828649
560.434538,74.020594,-9400.615463,76.609550
560.434862,740.205942,-9326.594869,383.047749
560.435186,666.185348,-8808.450710,0.000000
560.435510,666.185348,-7846.182985,-689.485948
560.435835,444.123565,-7994.224174,0.000000
560.436159,888.247130,-9918.759623,0.000000
560.436483,1406.391290,-10955.047942,-306.438199
560.436807,1110.308913,-10658.965565,-153.219100
560.437131,296.082377,-10436.903782,153.219100
560.437456,0.000000,-11695.253884,-536.266849
560.437780,-814.226536,-11769.274478,-229.828649
560.438104,-592.164754,-11103.089130,-229.828649
560.438428,-444.123565,-10510.924376,0.000000
560.438752,370.102971,-10807.006753,383.047749
560.439077,814.226536,-10658.965565,229.828649
560.439401,666.185348,-9474.636058,-229.828649
560.439725,518.144159,-8438.347739,-76.609550
560.440049,888.247130,-8290.306550,-536.266849
560.440373,814.226536,-8956.491898,-842.705048
560.440698,-740.205942,-9178.553681,-1225.752797
560.441022,-1850.514855,-9696.697840,-689.485948
560.441346,-1850.514855,-10510.924376,-995.924147
560.441670,-2368.659014,-10214.842000,-1149.143247
560.441994,-3330.926739,-9474.636058,-995.924147
560.442318,-2738.761985,-9030.512492,-536.266849
560.442643,-1702.473667,-9104.533087,-842.705048
560.442967,-814.226536,-9696.697840,0.000000
560.443291,-666.185348,-9474.636058,229.828649
560.443615,-296.082377,-9030.512492,536.266849
560.443939,666.185348,-8808.450710,612.876398
560.444264,1258.350101,-8882.471304,536.266849
560.444588,666.185348,-9696.697840,229.828649
560.444912,0.000000,-11103.089130,306.438199
560.445236,-1036.288319,-11621.233289,459.657299
560.445560,-1998.556043,-10732.986159,0.000000
560.445885,-2812.782580,-10066.800811,-229.828649
560.446209,-2812.782580,-10362.883188,-766.095498
560.446533,-2294.638420,-10436.903782,-766.095498
560.446857,-1924.535449,-9474.636058,153.219100
560.447181,-962.267725,-8734.430116,995.924147
560.447506,-444.123565,-8364.327145,229.828649
560.447830,962.267725,-7550.100608,153.219100
560.448154,2072.576638,-7772.162391,536.266849
560.448478,3108.864956,-8808.450710,536.266849
560.448802,3404.947333,-10066.800811,459.657299
560.449127,2368.659014,-10584.944971,995.924147
560.449451,1628.453072,-10362.883188,1685.410096
560.449775,1036.288319,-9770.718434,1302.362347
560.450099,666.185348,-9844.739029,0.000000
560.450423,814.226536,-10881.027347,0.000000
560.450748,1258.350101,-10955.047942,-153.219100
560.451072,1924.535449,-10066.800811,0.000000
560.451396,1702.473667,-9104.533087,689.485948
560.451720,814.226536,-8364.327145,229.828649
560.452044,592.164754,-8734.430116,766.095498
560.452369,740.205942,-9252.574275,-229.828649
560.452693,-222.061783,-9622.677246,-383.047749
560.453017,0.000000,-10066.800811,229.828649
560.453341,-444.123565,-10510.924376,-383.047749
560.453665,-1258.350101,-9918.759623,-306.438199
560.453990,-1332.370696,-9622.677246,306.438199
560.454314,-444.123565,-9326.594869,0.000000
560.454638,518.144159,-10436.903782,-383.047749
560.454962,296.082377,-10288.862594,536.266849
560.455286,592.164754,-9178.553681,-153.219100
560.455611,592.164754,-7476.080014,-229.828649
560.455935,1110.308913,-7846.182985,0.000000
560.456259,2294.638420,-8586.388927,-229.828649
560.456583,2294.638420,-9622.677246,-689.485948
560.456907,814.226536,-9622.677246,459.657299
560.457232,-814.226536,-9992.780217,-306.438199
560.457556,-1184.329507,-10584.944971,-1302.362347
560.457880,-1480.411884,-10658.965565,-919.314598
560.458204,-1480.411884,-10658.965565,-536.266849
560.458528,-888.247130,-11325.150913,-383.047749
560.458853,-222.061783,-11103.089130,383.047749
560.459177,-518.144159,-9918.759623,306.438199
560.459501,0.000000,-9252.574275,-229.828649
560.459825,296.082377,-9548.656652,0.000000
560.460149,1036.288319,-10140.821405,153.219100
560.460474,1850.514855,-10436.903782,689.485948
560.460798,1628.453072,-10807.006753,612.876398
560.461122,518.144159,-9992.780217,-536.266849
560.461446,-962.267725,-9770.718434,-612.876398
560.461770,-1998.556043,-10510.924376,689.485948
560.462095,-1776.494261,-10362.883188,-766.095498
560.462419,-2072.576638,-9696.697840,-306.438199
560.462743,-2516.700203,-9178.553681,0.000000
560.463067,-2886.803174,-8290.306550,-459.657299
560.463391,-2664.741391,-8142.265362,-383.047749
560.463716,-2368.659014,-7920.203579,612.876398
560.464040,-592.164754,-8216.285956,306.438199
560.464364,518.144159,-8068.244768,919.314598
560.464688,1480.411884,-8142.265362,1378.971896
560.465012,1776.494261,-9104.533087,995.924147
560.465337,444.123565,-9326.594869,842.705048
560.465661,-1184.329507,-9474.636058,306.438199
560.465985,-1850.514855,-9474.636058,306.438199
560.466309,-1924.535449,-10214.842000,153.219100
560.466633,-1332.370696,-10214.842000,689.485948
560.466958,-1258.350101,-10436.903782,612.876398
560.467282,-1480.411884,-9400.615463,766.095498
560.467606,-1702.473667,-9104.533087,-306.438199
560.467930,-1258.350101,-8290.306550,-612.876398
560.468254,222.061783,-8364.327145,-153.219100
560.468579,1702.473667,-9548.656652,306.438199
560.468903,1702.473667,-10140.821405,-229.828649
560.469227,1110.308913,-9104.533087,0.000000
560.469551,296.082377,-9474.636058,-306.438199
560.469875,814.226536,-10362.883188,-459.657299
560.470200,814.226536,-11325.150913,-153.219100
560.470524,296.082377,-10881.027347,-306.438199
560.470848,370.102971,-10510.924376,0.000000
560.471172,962.267725,-10658.965565,-153.219100
560.471496,1406.391290,-10362.883188,-306.438199
560.471821,1184.329507,-9474.636058,-536.266849
560.472145,1480.411884,-9696.697840,-536.266849
560.472469,2368.659014,-10584.944971,229.828649
560.472793,2738.761985,-11399.171507,0.000000
560.473117,1554.432478,-10584.944971,0.000000
560.473442,222.061783,-10510.924376,0.000000
560.473766,-444.123565,-10955.047942,-689.485948
560.474090,74.020594,-11103.089130,-1455.581446
560.474414,370.102971,-10807.006753,-689.485948
560.474738,740.205942,-10955.047942,0.000000
560.475063,296.082377,-10066.800811,-383.047749
560.475387,-444.123565,-9474.636058,-459.657299
560.475711,-592.164754,-8808.450710,-459.657299
560.476035,-222.061783,-8808.450710,-536.266849
560.476359,1036.288319,-9030.512492,-229.828649
560.476684,1554.432478,-8956.491898,229.828649
560.477008,1406.391290,-8290.306550,1072.533697
560.477332,148.041188,-8068.244768,612.876398
560.477656,74.020594,-8586.388927,229.828649
560.477980,0.000000,-8808.450710,0.000000
560.478305,296.082377,-9252.574275,0.000000
560.478629,296.082377,-10140.821405,153.219100
560.478953,0.000000,-9992.780217,229.828649
560.479277,74.020594,-9326.594869,306.438199
560.479601,74.020594,-8882.471304,76.609550
560.479926,222.061783,-8882.471304,383.047749
560.480250,-370.102971,-9104.533087,153.219100
560.480574,-592.164754,-9474.636058,459.657299
560.480898,-592.164754,-9474.636058,612.876398
560.481222,-1258.350101,-9548.656652,153.219100
560.481547,-1998.556043,-9474.636058,229.828649
560.481871,-2442.679609,-8734.430116,229.828649
560.482195,-2442.679609,-9030.512492,842.705048
560.482519,-2738.761985,-9770.718434,76.609550
560.482843,-3330.926739,-9918.759623,76.609550
560.483168,-3108.864956,-9252.574275,306.438199
560.483492,-2368.659014,-9104.533087,689.485948
560.483816,-1554.432478,-8808.450710,0.000000
560.484140,-1036.288319,-8364.327145,-153.219100
560.484464,-1480.411884,-8956.491898,0.000000
560.484789,-1406.391290,-9474.636058,-459.657299
560.485113,-1628.453072,-8956.491898,-459.657299
560.485437,-1554.432478,-9178.553681,0.000000
560.485761,-1332.370696,-9030.512492,-153.219100
560.486085,-962.267725,-9474.636058,-612.876398
560.486410,-592.164754,-10362.883188,-689.485948
560.486734,-592.164754,-11325.150913,383.047749
560.487058,-222.061783,-11843.295072,-536.266849
560.487382,-1554.432478,-10436.903782,-1455.581446
560.487706,-2886.803174,-9622.677246,-1532.190996
560.488031,-2368.659014,-10288.862594,-1762.019645
560.488355,-1110.308913,-11769.274478,-1838.629195
560.488679,-740.205942,-12065.356855,-1225.752797
560.489003,0.000000,-10732.986159,-1302.362347
560.489327,74.020594,-9252.574275,-1685.410096
560.489652,-296.082377,-10066.800811,-1762.019645
560.489976,592.164754,-11103.089130,-1455.581446
560.490300,1702.473667,-10288.862594,-1532.190996
560.490624,2072.576638,-10584.944971,-995.924147
560.490948,1184.329507,-10732.986159,-689.485948
560.491273,444.123565,-9770.718434,-1455.581446
560.491597,-740.205942,-8956.491898,-1302.362347
560.491921,-2516.700203,-8512.368333,-1608.800546
560.492245,-2812.782580,-8216.285956,-3140.991542
560.492569,-2294.638420,-6735.874072,-3140.991542
560.492894,-2368.659014,-7179.997637,-1915.238745
560.493218,-2368.659014,-8364.327145,-2068.457845
560.493542,-2220.617826,-8586.388927,-2604.724693
560.493866,-2368.659014,-7698.141797,-2221.676944
560.494190,-1924.535449,-8216.285956,-2221.676944
560.494515,-740.205942,-9030.512492,-2528.115143
560.494839,74.020594,-9696.697840,-1838.629195
560.495163,0.000000,-11325.150913,-1378.971896
560.495487,-962.267725,-11991.336260,-2604.724693
560.495811,-2516.700203,-11473.192101,-3064.381992
560.496136,-3552.988522,-11103.089130,-3600.648841
560.496460,-4293.194464,-11399.171507,-3370.820191
560.496784,-3775.050304,-10732.986159,-2757.943793
560.497108,-3552.988522,-8882.471304,-2757.943793
560.497432,-2886.803174,-8438.347739,-3064.381992
560.497757,-2072.576638,-9474.636058,-3140.991542
560.498081,-2368.659014,-8734.430116,-3524.039291
560.498405,-2886.803174,-8660.409521,-2987.772442
560.498729,-3182.885551,-9474.636058,-2834.553343
560.499053,-2738.761985,-10214.842000,-2681.334243
560.499378,-2442.679609,-9770.718434,-2528.115143
560.499702,-2294.638420,-9252.574275,-2604.724693
560.500026,-2220.617826,-9474.636058,-2451.505594
560.500350,-1776.494261,-10881.027347,-3064.381992
560.500674,-2516.700203,-10807.006753,-2987.772442
560.500999,-2960.823768,-10362.883188,-2298.286494
560.501323,-2960.823768,-10881.027347,-2528.115143
560.501647,-2886.803174,-11473.192101,-3217.601092
560.501971,-2442.679609,-11473.192101,-2604.724693
560.502295,-1628.453072,-11029.068536,-1838.629195
560.502620,74.020594,-11843.295072,-1378.971896
560.502944,296.082377,-11621.233289,-1378.971896
560.503268,-666.185348,-10362.883188,-1302.362347
560.503592,-2516.700203,-9918.759623,-1378.971896
560.503916,-3923.091493,-10214.842000,-1838.629195
560.504241,-4219.173869,-9326.594869,-1532.190996
560.504565,-4071.132681,-8956.491898,-1915.238745
560.504889,-5107.421000,-8660.409521,-1608.800546
560.505213,-5329.482782,-8586.388927,-1455.581446
560.505537,-3256.906145,-7846.182985,-1225.752797
560.505862,-1924.535449,-7476.080014,-1149.143247
560.506186,-2664.741391,-7550.100608,-1149.143247
560.506510,-3330.926739,-8808.450710,-306.438199
560.506834,-2294.638420,-9178.553681,-536.266849
560.507158,-370.102971,-8512.368333,0.000000
560.507483,0.000000,-8438.347739,76.609550
560.507807,-592.164754,-9474.636058,766.095498
560.508131,-666.185348,-9770.718434,-306.438199
560.508455,-444.123565,-8290.306550,-536.266849
560.508779,-370.102971,-7846.182985,-766.095498
560.509104,-1184.329507,-8734.430116,-1685.410096
560.509428,-3404.947333,-10881.027347,-1455.581446
560.509752,-5107.421000,-11399.171507,-1762.019645
560.510076,-5255.462188,-9474.636058,-3217.601092
560.510400,-4885.359217,-8512.368333,-2221.676944
560.510725,-4219.173869,-9326.594869,-1838.629195
560.511049,-2516.700203,-10214.842000,-1762.019645
560.511373,-888.247130,-9400.615463,-1455.581446
560.511697,-666.185348,-8882.471304,-1685.410096
560.512021,-1258.350101,-9770.718434,-1838.629195
560.512346,-1110.308913,-10658.965565,-1762.019645
560.512670,370.102971,-9622.677246,-1762.019645
560.512994,1036.288319,-9104.533087,-1762.019645
560.513318,-222.061783,-10955.047942,-2298.286494
560.513642,-2220.617826,-13323.706956,-2987.772442
560.513966,-3182.885551,-12287.418637,-3753.867940
560.514291,-2072.576638,-10510.924376,-3370.820191
560.514615,-666.185348,-10436.903782,-3140.991542
560.514939,0.000000,-11621.233289,-2987.772442
560.515263,222.061783,-11769.274478,-1838.629195
560.515587,-1110.308913,-10214.842000,-2298.286494
560.515912,-1850.514855,-9104.533087,-2681.334243
560.516236,-2368.659014,-9030.512492,-2911.162892
560.516560,-1332.370696,-9030.512492,-2298.286494
560.516884,0.000000,-8956.491898,-1991.848295
560.517208,-370.102971,-8882.471304,-2298.286494
560.517533,-2146.597232,-10881.027347,-2681.334243
560.517857,-4219.173869,-11917.315666,-2757.943793
560.518181,-5181.441594,-11769.274478,-3830.477490
560.518505,-5847.626942,-9992.780217,-3447.429741
560.518829,-5921.647536,-8956.491898,-3447.429741
560.519154,-4219.173869,-9178.553681,-2604.724693
560.519478,-1702.473667,-9326.594869,-1685.410096
560.519802,222.061783,-8956.491898,-1685.410096
560.520126,740.205942,-8142.265362,-1225.752797
560.520450,-518.144159,-7698.141797,-1838.629195
560.520775,-1110.308913,-8660.409521,-1915.238745
560.521099,-3034.844362,-9252.574275,-1838.629195
560.521423,-4367.215058,-9474.636058,-2068.457845
560.521747,-4959.379811,-9474.636058,-2451.505594
560.522071,-4219.173869,-9104.533087,-2221.676944
560.522396,-2368.659014,-8882.471304,-1378.971896
560.522720,-592.164754,-8808.450710,-1225.752797
560.523044,-740.205942,-8660.409521,-1532.190996
560.523368,-1258.350101,-8660.409521,-2298.286494
560.523692,-2146.597232,-8882.471304,-2221.676944
560.524017,-2738.761985,-9252.574275,-1991.848295
560.524341,-3404.947333,-9474.636058,-2221.676944
560.524665,-4071.132681,-9252.574275,-2221.676944
560.524989,-2886.803174,-9104.533087,-1762.019645
560.525313,-2738.761985,-9770.718434,-1915.238745
560.525638,-2368.659014,-9844.739029,-2145.067394
560.525962,-2072.576638,-9548.656652,-2374.896044
560.526286,-2294.638420,-9252.574275,-2374.896044
560.526610,-2442.679609,-10214.842000,-2374.896044
560.526934,-2294.638420,-10881.027347,-2374.896044
560.527259,-1924.535449,-10140.821405,-2068.457845
560.527583,-1776.494261,-10066.800811,-2298.286494
560.527907,-2220.617826,-10288.862594,-2911.162892
560.528231,-2368.659014,-11917.315666,-2528.115143
560.528555,-2738.761985,-13101.645173,-2528.115143
560.528880,-2960.823768,-13101.645173,-2911.162892
560.529204,-3034.844362,-13027.624579,-3064.381992
560.529528,-2590.720797,-11695.253884,-2911.162892
560.529852,-1702.473667,-10288.862594,-2221.676944
560.530176,-1184.329507,-8586.388927,-2145.067394
560.530501,-444.123565,-7994.224174,-2834.553343
560.530825,0.000000,-8290.306550,-2451.505594
560.531149,0.000000,-8956.491898,-1991.848295
560.531473,-296.082377,-9178.553681,-1838.629195
560.531797,-1184.329507,-9326.594869,-1685.410096
560.532122,-3256.906145,-9326.594869,-2451.505594
560.532446,-4737.318029,-10066.800811,-2298.286494
560.532770,-5033.400406,-9770.718434,-3600.648841
560.533094,-4737.318029,-10658.965565,-3140.991542
560.533418,-3404.947333,-11843.295072,-2145.067394
560.533743,-1776.494261,-11843.295072,-1762.019645
560.534067,-814.226536,-10584.944971,-1072.533697
560.534391,-592.164754,-8882.471304,-1685.410096
560.534715,518.144159,-8586.388927,-2145.067394
560.535039,1480.411884,-8956.491898,-1608.800546
560.535363,2368.659014,-9104.533087,-536.266849
560.535687,3108.864956,-8808.450710,229.828649
560.536012,2812.782580,-8438.347739,0.000000
560.536336,592.164754,-8438.347739,-229.828649
560.536660,-2220.617826,-8438.347739,-1149.143247
560.536984,-4663.297435,-9104.533087,-1915.238745
560.537308,-6957.935855,-9474.636058,-2681.334243
560.537632,-7550.100608,-9252.574275,-2528.115143
560.537956,-6513.812290,-8882.471304,-1685.410096
560.538280,-4293.194464,-8660.409521,-1302.362347
560.538605,-2368.659014,-8438.347739,-842.705048
560.538929,-1480.411884,-8068.244768,-306.438199
560.539253,-296.082377,-7920.203579,-229.828649
560.539577,962.267725,-8438.347739,229.828649
560.539901,1480.411884,-8956.491898,153.219100
560.540225,1850.514855,-9400.615463,612.876398
560.540549,1332.370696,-10140.821405,306.438199
560.540873,-222.061783,-10510.924376,-766.095498
560.541198,-2368.659014,-10436.903782,-1225.752797
560.541522,-4441.235652,-10214.842000,-2451.505594
560.541846,-6291.750507,-9770.718434,-2681.334243
560.542170,-7105.977043,-9918.759623,-2604.724693
560.542494,-7550.100608,-9474.636058,-3294.210641
560.542818,-6661.853478,-9474.636058,-3064.381992
560.543142,-5403.503377,-9104.533087,-2451.505594
560.543466,-3701.029710,-9474.636058,-1762.019645
560.543791,-1776.494261,-9918.759623,-1532.190996
560.544115,-222.061783,-9770.718434,-1149.143247
560.544439,888.247130,-10288.862594,-995.924147
560.544763,1110.308913,-10362.883188,-919.314598
560.545087,1628.453072,-11399.171507,-1225.752797
560.545411,666.185348,-11251.130318,-1991.848295
560.545735,-370.102971,-11325.150913,-2298.286494
560.546059,-1998.556043,-11621.233289,-3294.210641
560.546384,-3775.050304,-11177.109724,-4136.915689
560.546708,-5403.503377,-9992.780217,-4519.963438
560.547032,-6513.812290,-9770.718434,-4903.011187
560.547356,-6735.874072,-8216.285956,-5515.887586
560.547680,-5995.668130,-8142.265362,-5056.230287
560.548004,-3923.091493,-8216.285956,-4366.744339
560.548328,-1628.453072,-8216.285956,-3524.039291
560.548652,0.000000,-8808.450710,-2987.772442
560.548977,888.247130,-9474.636058,-2221.676944
560.549301,518.144159,-10362.883188,-2145.067394
560.549625,0.000000,-10881.027347,-2374.896044
560.549949,-592.164754,-11251.130318,-2604.724693
560.550273,-2294.638420,-12065.356855,-3524.039291
560.550597,-3182.885551,-13915.871710,-3370.820191
560.550921,-2590.720797,-14211.954086,-3217.601092
560.551245,-1480.411884,-11843.295072,-3907.087040
560.551570,-814.226536,-8956.491898,-3677.258390
560.551894,-814.226536,-7105.977043,-4443.353888
560.552218,-296.082377,-7254.018232,-4060.306139
560.552542,-1110.308913,-7179.997637,-4903.011187
560.552866,-2664.741391,-7254.018232,-4366.744339
560.553190,-3923.091493,-7994.224174,-3983.696590
560.553514,-5033.400406,-8438.347739,-3830.477490
560.553838,-5551.544565,-8290.306550,-3447.429741
560.554163,-4737.318029,-8734.430116,-2604.724693
560.554487,-3404.947333,-9548.656652,-1915.238745
560.554811,-1998.556043,-10807.006753,-1685.410096
560.555135,-814.226536,-10881.027347,-1685.410096
560.555459,-444.123565,-10510.924376,-1378.971896
560.555783,-814.226536,-11695.253884,-1302.362347
560.556107,-1776.494261,-12065.356855,-1302.362347
560.556431,-888.247130,-11325.150913,-1838.629195
560.556756,888.247130,-8438.347739,-2528.115143
560.557080,1554.432478,-7624.121203,-2757.943793
560.557404,1998.556043,-8882.471304,-2911.162892
560.557728,814.226536,-9474.636058,-2528.115143
560.558052,-1924.535449,-9474.636058,-2681.334243
560.558376,-5255.462188,-8586.388927,-3370.820191
560.558700,-6883.915261,-7772.162391,-3600.648841
560.559024,-6957.935855,-7846.182985,-3294.210641
560.559349,-5625.565159,-8586.388927,-2451.505594
560.559673,-4441.235652,-10288.862594,-1225.752797
560.559997,-4589.276840,-11843.295072,0.000000
560.560321,-4663.297435,-12805.562797,229.828649
560.560645,-3330.926739,-12139.377449,0.000000
560.560969,-1036.288319,-10140.821405,153.219100
560.561293,1554.432478,-9474.636058,459.657299
560.561617,3478.967927,-9770.718434,0.000000
560.561942,3627.009116,-10066.800811,0.000000
560.562266,2664.741391,-9326.594869,-689.485948
560.562590,1554.432478,-8586.388927,-612.876398
560.562914,592.164754,-7994.224174,-1225.752797
560.563238,-1406.391290,-8290.306550,-1762.019645
560.563562,-4811.338623,-8882.471304,-2528.115143
560.563886,-8882.471304,-9770.718434,-2451.505594
560.564210,-10807.006753,-9622.677246,-3140.991542
560.564535,-9400.615463,-9474.636058,-3294.210641
560.564859,-6735.874072,-8586.388927,-2221.676944
560.565183,-4737.318029,-8808.450710,-1225.752797
560.565507,-3627.009116,-10436.903782,229.828649
560.565831,-2368.659014,-11843.295072,536.266849
560.566155,962.267725,-11399.171507,459.657299
560.566479,4293.194464,-9918.759623,536.266849
560.566803,6661.853478,-9400.615463,1149.143247
560.567128,7328.038826,-9622.677246,0.000000
560.567452,5699.585753,-9252.574275,-1072.533697
560.567776,2960.823768,-9622.677246,-1455.581446
560.568100,-740.205942,-11177.109724,-2145.067394
560.568424,-4293.194464,-12139.377449,-2911.162892
560.568748,-7846.182985,-9400.615463,-5132.839837
560.569072,-11103.089130,-6513.812290,-5286.058936
560.569397,-11843.295072,-7179.997637,-5515.887586
560.569721,-11103.089130,-9030.512492,-5822.325785
560.570045,-9548.656652,-7846.182985,-5439.278036
560.570369,-6809.894666,-6809.894666,-2911.162892
560.570693,-1998.556043,-8142.265362,-1608.800546
560.571017,2072.576638,-9918.759623,-536.266849
560.571341,2516.700203,-9696.697840,76.609550
560.571665,1406.391290,-10584.944971,1302.362347
560.571990,4589.276840,-13693.809927,1072.533697
560.572314,9326.594869,-13323.706956,383.047749
560.572638,10362.883188,-10362.883188,689.485948
560.572962,7105.977043,-10288.862594,842.705048
560.573286,3182.885551,-13693.809927,-1762.019645
560.573610,-1184.329507,-13027.624579,-3217.601092
560.573934,-5921.647536,-10362.883188,-4673.182538
560.574258,-9696.697840,-7179.997637,-5515.887586
560.574583,-12287.418637,-8808.450710,-6128.763984
560.574907,-12435.459826,-9326.594869,-7201.297681
560.575231,-10955.047942,-6735.874072,-6818.249932
560.575555,-9992.780217,-6957.935855,-5209.449386
560.575879,-7920.203579,-9104.533087,-4673.182538
560.576203,-4219.173869,-8364.327145,-4213.525239
560.576527,-888.247130,-6883.915261,-2068.457845
560.576851,1924.535449,-8290.306550,-919.314598
560.577176,4071.132681,-12657.521608,-995.924147
560.577500,4515.256246,-13915.871710,-459.657299
560.577824,5107.421000,-12287.418637,689.485948
560.578148,5773.606348,-11251.130318,306.438199
560.578472,4367.215058,-12361.439231,-383.047749
560.578796,1184.329507,-12287.418637,-612.876398
560.579120,-2220.617826,-11325.150913,-2451.505594
560.579444,-4959.379811,-9844.739029,-4826.401637
560.579769,-7476.080014,-9030.512492,-5515.887586
560.580093,-8512.368333,-8438.347739,-4673.182538
560.580417,-7402.059420,-6809.894666,-4366.744339
560.580741,-5699.585753,-5847.626942,-4903.011187
560.581065,-4293.194464,-6217.729913,-4290.134789
560.581389,-1628.453072,-7179.997637,-2911.162892
560.581713,1554.432478,-9622.677246,-766.095498
560.582037,2738.761985,-10362.883188,-766.095498
560.582362,2146.597232,-10658.965565,-459.657299
560.582686,1110.308913,-12731.542202,459.657299
560.583010,1332.370696,-14211.954086,153.219100
560.583334,2220.617826,-12953.603985,459.657299
