#time,accel_x,accel_y,accel_z
943.106544,148.041188,-9474.636058,0.000000
943.106868,0.000000,-9918.759623,0.000000
943.107192,-148.041188,-9770.718434,-229.828649
943.107516,-74.020594,-9548.656652,0.000000
943.107841,0.000000,-9622.677246,0.000000
943.108165,-296.082377,-9696.697840,-229.828649
943.108489,-296.082377,-9548.656652,0.000000
943.108813,-222.061783,-9844.739029,76.609550
943.109137,0.000000,-9770.718434,0.000000
943.109461,0.000000,-9474.636058,76.609550
943.109785,-296.082377,-9622.677246,306.438199
943.110109,-296.082377,-9548.656652,383.047749
943.110434,-740.205942,-9548.656652,0.000000
943.110758,-296.082377,-9474.636058,0.000000
943.111082,-148.041188,-9548.656652,0.000000
943.111406,0.000000,-9770.718434,0.000000
943.111730,0.000000,-9696.697840,689.485948
943.112054,518.144159,-9622.677246,76.609550
943.112378,148.041188,-9844.739029,0.000000
943.112702,0.000000,-9548.656652,0.000000
943.113027,-222.061783,-9548.656652,-306.438199
943.113351,74.020594,-9474.636058,76.609550
943.113675,148.041188,-9548.656652,153.219100
943.113999,74.020594,-9770.718434,0.000000
943.114323,148.041188,-9696.697840,229.828649
943.114647,0.000000,-9696.697840,-153.219100
943.114971,-222.061783,-9548.656652,0.000000
943.115295,0.000000,-9474.636058,-383.047749
943.115620,0.000000,-9770.718434,-306.438199
943.115944,-222.061783,-10066.800811,-153.219100
943.116268,-444.123565,-9622.677246,0.000000
943.116592,0.000000,-9696.697840,459.657299
943.116916,444.123565,-9326.594869,0.000000
943.117240,1036.288319,-9548.656652,153.219100
943.117564,740.205942,-9844.739029,-229.828649
943.117888,666.185348,-10214.842000,-229.828649
943.118213,0.000000,-9992.780217,766.095498
943.118537,-444.123565,-10214.842000,229.828649
943.118861,-444.123565,-9918.759623,0.000000
943.119185,-1110.308913,-9844.739029,76.609550
943.119509,-1184.329507,-9992.780217,306.438199
943.119833,-962.267725,-9400.615463,383.047749
943.120157,-666.185348,-8068.244768,-306.438199
943.120481,-444.123565,-7846.182985,842.705048
943.120806,-370.102971,-8660.409521,383.047749
943.121130,518.144159,-9770.718434,689.485948
943.121454,-148.041188,-10288.862594,1072.533697
943.121778,-1110.308913,-10658.965565,766.095498
943.122102,-2072.576638,-10584.944971,459.657299
943.122426,-2516.700203,-11029.068536,689.485948
943.122750,-2886.803174,-10732.986159,766.095498
943.123075,-2590.720797,-10584.944971,842.705048
943.123399,-2294.638420,-9992.780217,1149.143247
943.123723,-1776.494261,-9474.636058,766.095498
943.124047,-666.185348,-8660.409521,1378.971896
943.124371,0.000000,-8808.450710,1685.410096
943.124695,296.082377,-9474.636058,1685.410096
943.125019,-962.267725,-9104.533087,1378.971896
943.125343,-2516.700203,-9252.574275,1685.410096
943.125668,-2960.823768,-9992.780217,1455.581446
943.125992,-3256.906145,-10732.986159,1302.362347
943.126316,-3552.988522,-10807.006753,1532.190996
943.126640,-3478.967927,-10658.965565,1762.019645
943.126964,-2960.823768,-10584.944971,1455.581446
943.127288,-1554.432478,-9918.759623,2221.676944
943.127612,-888.247130,-8734.430116,2451.505594
943.127936,-370.102971,-8142.265362,2528.115143
943.128261,0.000000,-8734.430116,2451.505594
943.128585,0.000000,-9252.574275,2451.505594
943.128909,-592.164754,-9400.615463,2221.676944
943.129233,-2072.576638,-9400.615463,2068.457845
943.129557,-3034.844362,-10436.903782,2374.896044
943.129881,-4071.132681,-10584.944971,1838.629195
943.130205,-5181.441594,-10658.965565,2374.896044
943.130529,-5403.503377,-10584.944971,2681.334243
943.130854,-5403.503377,-10510.924376,2451.505594
943.131178,-4959.379811,-9770.718434,2451.505594
943.131502,-4737.318029,-9326.594869,2681.334243
943.131826,-3849.070898,-9992.780217,2987.772442
943.132150,-2294.638420,-9548.656652,3830.477490
943.132474,0.000000,-9474.636058,4290.134789
943.132798,1554.432478,-8438.347739,4749.792088
943.133122,2146.597232,-8068.244768,4290.134789
943.133447,1776.494261,-8290.306550,3524.039291
943.133771,814.226536,-8660.409521,3217.601092
943.134095,-74.020594,-9030.512492,2987.772442
943.134419,-1924.535449,-8364.327145,2298.286494
943.134743,-4589.276840,-7179.997637,-383.047749
943.135067,-7402.059420,-8808.450710,-536.266849
943.135391,-7846.182985,-12139.377449,842.705048
943.135715,-6143.709319,-11843.295072,76.609550
943.136040,-4811.338623,-10362.883188,2528.115143
943.136364,-3256.906145,-8586.388927,4213.525239
943.136688,444.123565,-8364.327145,3907.087040
943.137012,2812.782580,-8882.471304,3907.087040
943.137336,3997.112087,-9252.574275,4826.401637
943.137660,4959.379811,-10510.924376,4749.792088
943.137984,3701.029710,-10732.986159,4290.134789
943.138308,814.226536,-9770.718434,3600.648841
943.138633,-1702.473667,-8068.244768,2451.505594
943.138957,-4145.153275,-7846.182985,-1302.362347
943.139281,-7402.059420,-9844.739029,-2987.772442
943.139605,-8068.244768,-11843.295072,-1762.019645
943.139929,-5255.462188,-10584.944971,-1762.019645
943.140253,-2442.679609,-9474.636058,-306.438199
943.140577,-2812.782580,-8808.450710,1225.752797
943.140902,-2960.823768,-8734.430116,1149.143247
943.141226,-3330.926739,-9992.780217,995.924147
943.141550,-2738.761985,-11029.068536,842.705048
943.141874,-1184.329507,-11473.192101,3447.429741
943.142198,2516.700203,-11991.336260,4366.744339
943.142522,6143.709319,-12361.439231,4903.011187
943.142846,5921.647536,-11325.150913,4443.353888
943.143170,2664.741391,-10288.862594,3064.381992
943.143495,-1184.329507,-10362.883188,919.314598
943.143819,-4885.359217,-9918.759623,-766.095498
943.144143,-5921.647536,-7550.100608,-2911.162892
943.144467,-6143.709319,-6809.894666,-2451.505594
943.144791,-5329.482782,-10214.842000,-1302.362347
943.145115,-4293.194464,-11473.192101,-1608.800546
943.145439,-4515.256246,-10807.006753,-919.314598
943.145763,-5995.668130,-9252.574275,459.657299
943.146088,-5921.647536,-8586.388927,612.876398
943.146412,-4145.153275,-9178.553681,995.924147
943.146736,-1332.370696,-9918.759623,2451.505594
943.147060,1924.535449,-11473.192101,3907.087040
943.147384,3108.864956,-13249.686362,4213.525239
943.147708,2072.576638,-12065.356855,4060.306139
943.148032,148.041188,-9696.697840,3677.258390
943.148356,-888.247130,-8438.347739,2834.553343
943.148681,-1406.391290,-8586.388927,1608.800546
943.149005,-2146.597232,-9548.656652,1302.362347
943.149329,-2960.823768,-8290.306550,1149.143247
943.149653,-3701.029710,-7550.100608,919.314598
943.149977,-4737.318029,-7328.038826,1149.143247
943.150301,-4293.194464,-7105.977043,919.314598
943.150625,-3330.926739,-7254.018232,1378.971896
943.150949,-3849.070898,-7476.080014,1072.533697
943.151274,-5551.544565,-8808.450710,919.314598
943.151598,-6291.750507,-9696.697840,1378.971896
943.151922,-3997.112087,-9844.739029,2298.286494
943.152246,-1554.432478,-9548.656652,2528.115143
943.152570,222.061783,-9104.533087,2681.334243
943.152894,-518.144159,-10436.903782,3140.991542
943.153218,-666.185348,-12583.501014,3524.039291
943.153542,-222.061783,-12509.480420,3677.258390
943.153867,222.061783,-11251.130318,3447.429741
943.154191,0.000000,-9992.780217,2834.553343
943.154515,-1332.370696,-9918.759623,2451.505594
943.154839,-3108.864956,-11325.150913,2987.772442
943.155163,-3478.967927,-11325.150913,2681.334243
943.155487,-2886.803174,-9770.718434,2298.286494
943.155811,-3404.947333,-7698.141797,1455.581446
943.156135,-3923.091493,-7105.977043,1838.629195
943.156460,-3478.967927,-8438.347739,2298.286494
943.156784,-2368.659014,-9918.759623,2451.505594
943.157108,-2812.782580,-9474.636058,1608.800546
943.157432,-3923.091493,-9252.574275,1685.410096
943.157756,-3330.926739,-9474.636058,1991.848295
943.158080,-1036.288319,-10510.924376,3064.381992
943.158404,518.144159,-11251.130318,3370.820191
943.158729,0.000000,-10955.047942,3600.648841
943.159053,-592.164754,-10658.965565,4213.525239
943.159377,444.123565,-10362.883188,3447.429741
943.159701,1110.308913,-9770.718434,2681.334243
943.160025,-444.123565,-9400.615463,3524.039291
943.160349,-3034.844362,-10436.903782,2604.724693
943.160673,-4145.153275,-10362.883188,1608.800546
943.160997,-3330.926739,-8956.491898,1762.019645
943.161322,-2368.659014,-7402.059420,1838.629195
943.161646,-2960.823768,-8216.285956,1072.533697
943.161970,-3849.070898,-9252.574275,383.047749
943.162294,-3404.947333,-8364.327145,1608.800546
943.162618,-2146.597232,-8882.471304,2528.115143
943.162942,-1628.453072,-9992.780217,2298.286494
943.163266,-2146.597232,-9696.697840,1685.410096
943.163590,-1628.453072,-8216.285956,2681.334243
943.163915,0.000000,-8956.491898,3140.991542
943.164239,1110.308913,-10955.047942,2987.772442
943.164563,296.082377,-10807.006753,2528.115143
943.164887,-666.185348,-9178.553681,3370.820191
943.165211,-1480.411884,-9622.677246,2528.115143
943.165535,-1776.494261,-10436.903782,1455.581446
943.165859,-2368.659014,-8512.368333,2451.505594
943.166183,-3182.885551,-8290.306550,2757.943793
943.166508,-3849.070898,-9918.759623,919.314598
943.166832,-3404.947333,-9696.697840,-766.095498
943.167156,-3256.906145,-8068.244768,1378.971896
943.167480,-2664.741391,-9030.512492,1225.752797
943.167804,-2516.700203,-10214.842000,-612.876398
943.168128,-2960.823768,-9104.533087,995.924147
943.168452,-2368.659014,-9474.636058,1915.238745
943.168776,-1036.288319,-11695.253884,689.485948
943.169100,-370.102971,-11103.089130,995.924147
943.169424,-148.041188,-8734.430116,2221.676944
943.169748,1776.494261,-9326.594869,689.485948
943.170072,814.226536,-9770.718434,76.609550
943.170396,-148.041188,-9474.636058,689.485948
943.170720,-740.205942,-10362.883188,0.000000
943.171044,-2072.576638,-11769.274478,-766.095498
943.171368,-2960.823768,-10881.027347,0.000000
943.171692,-4071.132681,-9992.780217,-612.876398
943.172016,-4071.132681,-10436.903782,-689.485948
943.172340,-3330.926739,-9992.780217,-306.438199
943.172664,-1850.514855,-9918.759623,-995.924147
943.172988,-370.102971,-9474.636058,-612.876398
943.173312,-148.041188,-9030.512492,536.266849
943.173636,148.041188,-9326.594869,0.000000
943.173960,666.185348,-8882.471304,-383.047749
943.174284,370.102971,-9178.553681,1149.143247
943.174608,1628.453072,-10732.986159,153.219100
943.174932,1702.473667,-10658.965565,-383.047749
943.175256,444.123565,-10362.883188,0.000000
943.175580,-814.226536,-11029.068536,-1225.752797
943.175904,-1628.453072,-11843.295072,-2298.286494
943.176228,-2220.617826,-10881.027347,-153.219100
943.176552,-1110.308913,-10214.842000,-689.485948
943.176876,222.061783,-9474.636058,-1302.362347
943.177200,0.000000,-8438.347739,-459.657299
943.177524,444.123565,-8956.491898,0.000000
943.177848,1184.329507,-9622.677246,-612.876398
943.178172,1332.370696,-7920.203579,0.000000
943.178496,1036.288319,-7920.203579,1149.143247
943.178820,74.020594,-10066.800811,0.000000
943.179144,-814.226536,-10362.883188,0.000000
943.179468,-1776.494261,-10584.944971,1608.800546
943.179792,-1480.411884,-10955.047942,-689.485948
943.180116,-1406.391290,-9696.697840,-459.657299
943.180440,-518.144159,-9178.553681,1302.362347
943.180764,1184.329507,-9400.615463,383.047749
943.181088,1406.391290,-8586.388927,153.219100
943.181411,0.000000,-7846.182985,0.000000
943.181735,-592.164754,-8216.285956,-153.219100
943.182059,592.164754,-8216.285956,-153.219100
943.182383,1258.350101,-7698.141797,-153.219100
943.182707,592.164754,-8660.409521,76.609550
943.183031,-222.061783,-9622.677246,153.219100
943.183355,-222.061783,-11029.068536,612.876398
943.183679,74.020594,-11103.089130,1149.143247
943.184003,296.082377,-10140.821405,1455.581446
943.184327,-296.082377,-9622.677246,1455.581446
943.184651,296.082377,-10214.842000,995.924147
943.184975,74.020594,-10140.821405,919.314598
943.185299,74.020594,-9252.574275,153.219100
943.185623,296.082377,-9252.574275,459.657299
943.185947,814.226536,-8734.430116,919.314598
943.186271,666.185348,-8364.327145,919.314598
943.186595,0.000000,-9104.533087,1072.533697
943.186919,-370.102971,-9770.718434,536.266849
943.187243,-962.267725,-9992.780217,306.438199
943.187567,-518.144159,-9770.718434,612.876398
943.187891,0.000000,-9400.615463,306.438199
943.188215,-296.082377,-9622.677246,0.000000
943.188539,0.000000,-9474.636058,842.705048
943.188863,0.000000,-10362.883188,995.924147
943.189187,296.082377,-10807.006753,153.219100
943.189511,0.000000,-9770.718434,0.000000
943.189835,74.020594,-8808.450710,306.438199
943.190159,370.102971,-9474.636058,-766.095498
943.190483,74.020594,-10066.800811,-459.657299
943.190807,0.000000,-10214.842000,383.047749
943.191131,-666.185348,-10732.986159,-689.485948
943.191455,-222.061783,-10658.965565,0.000000
943.191779,666.185348,-9474.636058,-766.095498
943.192103,74.020594,-10066.800811,-536.266849
943.192427,74.020594,-11325.150913,-383.047749
943.192751,-518.144159,-10881.027347,-612.876398
943.193075,-1184.329507,-10510.924376,-612.876398
943.193399,-666.185348,-9178.553681,-459.657299
943.193723,-148.041188,-8586.388927,-1378.971896
943.194047,-666.185348,-9622.677246,-1762.019645
943.194371,-888.247130,-9770.718434,-1455.581446
943.194695,-888.247130,-9548.656652,-1915.238745
943.195019,-814.226536,-9178.553681,-1225.752797
943.195343,0.000000,-9030.512492,-612.876398
943.195667,1110.308913,-9104.533087,-766.095498
943.195991,1258.350101,-9548.656652,-306.438199
943.196315,296.082377,-10436.903782,306.438199
943.196639,-1036.288319,-10362.883188,0.000000
943.196963,-962.267725,-8882.471304,459.657299
943.197287,222.061783,-9474.636058,689.485948
943.197611,666.185348,-9474.636058,-383.047749
943.197935,148.041188,-9400.615463,306.438199
943.198259,-370.102971,-9474.636058,-995.924147
943.198583,-1184.329507,-10140.821405,-1225.752797
943.198907,-518.144159,-11029.068536,-689.485948
943.199231,962.267725,-9474.636058,-842.705048
943.199555,1776.494261,-9178.553681,-995.924147
943.199879,1036.288319,-9400.615463,-612.876398
943.200203,370.102971,-9844.739029,-995.924147
943.200527,0.000000,-10214.842000,-842.705048
943.200851,-148.041188,-9622.677246,0.000000
943.201175,444.123565,-8956.491898,0.000000
943.201499,666.185348,-9918.759623,0.000000
943.201823,-296.082377,-10584.944971,919.314598
943.202147,-592.164754,-10584.944971,995.924147
943.202471,-148.041188,-10214.842000,842.705048
943.202795,814.226536,-9326.594869,1149.143247
943.203119,1480.411884,-9104.533087,612.876398
943.203443,1406.391290,-9326.594869,-306.438199
943.203767,1184.329507,-8586.388927,-383.047749
943.204091,962.267725,-8882.471304,-766.095498
943.204415,74.020594,-10140.821405,-919.314598
943.204739,74.020594,-9622.677246,-459.657299
943.205063,148.041188,-8734.430116,-766.095498
943.205387,0.000000,-9474.636058,0.000000
943.205711,-518.144159,-11251.130318,76.609550
943.206035,-666.185348,-11177.109724,0.000000
943.206359,-814.226536,-9844.739029,842.705048
943.206683,0.000000,-8290.306550,1302.362347
943.207007,962.267725,-8438.347739,1225.752797
943.207331,888.247130,-9474.636058,1915.238745
943.207655,0.000000,-9326.594869,1455.581446
943.207979,-888.247130,-8364.327145,0.000000
943.208303,-1110.308913,-8216.285956,-536.266849
943.208627,-592.164754,-8142.265362,-842.705048
943.208951,74.020594,-8882.471304,-919.314598
943.209275,-296.082377,-9474.636058,-766.095498
943.209599,-592.164754,-9696.697840,-995.924147
943.209923,-888.247130,-10436.903782,-1302.362347
943.210247,-592.164754,-10362.883188,-153.219100
943.210571,888.247130,-10140.821405,0.000000
943.210895,1332.370696,-10214.842000,459.657299
943.211219,1036.288319,-10658.965565,689.485948
943.211543,370.102971,-11695.253884,306.438199
943.211867,148.041188,-11769.274478,306.438199
943.212191,518.144159,-10140.821405,1072.533697
943.212515,1406.391290,-9622.677246,1072.533697
943.212839,296.082377,-10732.986159,-229.828649
943.213163,-1480.411884,-10732.986159,-1225.752797
943.213487,-2368.659014,-10066.800811,-1455.581446
943.213811,-1480.411884,-10362.883188,-1685.410096
943.214135,-814.226536,-9844.739029,-2221.676944
943.214459,-444.123565,-9252.574275,-995.924147
943.214783,-592.164754,-8660.409521,-1072.533697
943.215107,-370.102971,-9844.739029,-842.705048
943.215431,-518.144159,-10510.924376,-995.924147
943.215755,-740.205942,-9918.759623,-229.828649
943.216079,-518.144159,-8364.327145,995.924147
943.216403,-370.102971,-9252.574275,-766.095498
943.216727,-1480.411884,-9548.656652,383.047749
943.217051,-1776.494261,-9474.636058,383.047749
943.217375,-1776.494261,-10066.800811,-153.219100
943.217699,-1480.411884,-10658.965565,-306.438199
943.218023,-370.102971,-9178.553681,-919.314598
943.218347,518.144159,-8290.306550,-383.047749
943.218671,1036.288319,-9622.677246,536.266849
943.218995,1480.411884,-10584.944971,-383.047749
943.219319,444.123565,-9992.780217,-1072.533697
943.219643,296.082377,-9104.533087,-153.219100
943.219967,1554.432478,-8512.368333,-229.828649
943.220291,1924.535449,-9326.594869,-383.047749
943.220615,444.123565,-9548.656652,306.438199
943.220939,-592.164754,-9474.636058,536.266849
943.221263,-1554.432478,-9400.615463,229.828649
943.221587,-1110.308913,-8364.327145,766.095498
943.221911,-296.082377,-7846.182985,536.266849
943.222235,74.020594,-8068.244768,459.657299
943.222559,666.185348,-9252.574275,1762.019645
943.222883,1776.494261,-9992.780217,1378.971896
943.223207,2294.638420,-9400.615463,919.314598
943.223531,2886.803174,-7920.203579,919.314598
943.223855,3182.885551,-8068.244768,612.876398
943.224179,2590.720797,-9918.759623,459.657299
943.224503,1258.350101,-11325.150913,842.705048
943.224827,0.000000,-11547.212695,0.000000
943.225151,-740.205942,-10214.842000,-306.438199
943.225475,-666.185348,-9104.533087,-689.485948
943.225799,-1332.370696,-9178.553681,-1149.143247
943.226123,-1628.453072,-10658.965565,-306.438199
943.226447,-2146.597232,-11251.130318,153.219100
943.226771,-1998.556043,-11103.089130,0.000000
943.227095,-1924.535449,-10436.903782,153.219100
943.227419,-962.267725,-9696.697840,383.047749
943.227743,0.000000,-9992.780217,0.000000
943.228067,0.000000,-10732.986159,459.657299
943.228391,-148.041188,-10881.027347,229.828649
943.228715,-296.082377,-11177.109724,-1302.362347
943.229039,0.000000,-10436.903782,-306.438199
943.229363,888.247130,-9622.677246,-536.266849
943.229687,1110.308913,-9844.739029,-919.314598
943.230011,0.000000,-10436.903782,-919.314598
943.230335,-1258.350101,-10584.944971,-1838.629195
943.230659,-1406.391290,-9252.574275,-1225.752797
943.230983,-444.123565,-7994.224174,0.000000
943.231307,814.226536,-7846.182985,0.000000
943.231631,-296.082377,-8512.368333,76.609550
943.231955,-962.267725,-9178.553681,0.000000
943.232279,-814.226536,-8956.491898,-229.828649
943.232603,-814.226536,-8882.471304,-229.828649
943.232927,-296.082377,-9030.512492,0.000000
943.233251,518.144159,-8364.327145,-153.219100
943.233575,518.144159,-9030.512492,-612.876398
943.233899,-148.041188,-9844.739029,0.000000
943.234223,-888.247130,-10732.986159,-536.266849
943.234547,-1036.288319,-10140.821405,-459.657299
943.234871,-370.102971,-9178.553681,-612.876398
943.235195,0.000000,-9474.636058,-612.876398
943.235519,-222.061783,-9992.780217,-766.095498
943.235843,-1110.308913,-10584.944971,-229.828649
943.236167,-1258.350101,-10881.027347,-306.438199
943.236491,-1036.288319,-9992.780217,-306.438199
943.236815,-296.082377,-8216.285956,306.438199
943.237139,0.000000,-8808.450710,383.047749
943.237463,-814.226536,-9918.759623,76.609550
943.237787,-962.267725,-10436.903782,229.828649
943.238111,-148.041188,-11177.109724,766.095498
943.238435,1110.308913,-10510.924376,842.705048
943.238759,2368.659014,-8660.409521,766.095498
943.239083,2368.659014,-7550.100608,-306.438199
943.239407,1554.432478,-10140.821405,153.219100
943.239731,1406.391290,-11399.171507,0.000000
943.240055,1110.308913,-10584.944971,-612.876398
943.240379,1036.288319,-8660.409521,612.876398
943.240703,1850.514855,-7920.203579,153.219100
943.241027,1776.494261,-8956.491898,-383.047749
943.241351,592.164754,-9696.697840,995.924147
943.241675,592.164754,-10362.883188,612.876398
943.241999,370.102971,-10140.821405,536.266849
943.242323,74.020594,-9178.553681,1302.362347
943.242647,518.144159,-8142.265362,1225.752797
943.242971,-518.144159,-9252.574275,536.266849
943.243295,-1554.432478,-10510.924376,306.438199
943.243619,-1406.391290,-10881.027347,-153.219100
943.243943,-666.185348,-10214.842000,76.609550
943.244267,1036.288319,-8290.306550,-229.828649
943.244591,1332.370696,-8068.244768,76.609550
943.244915,518.144159,-8956.491898,76.609550
943.245239,0.000000,-9844.739029,76.609550
943.245563,-592.164754,-11029.068536,0.000000
943.245887,-518.144159,-8956.491898,0.000000
943.246211,296.082377,-7105.977043,689.485948
943.246535,1110.308913,-8808.450710,-153.219100
943.246859,1332.370696,-10066.800811,1149.143247
943.247183,814.226536,-9696.697840,383.047749
943.247507,-666.185348,-9030.512492,-842.705048
943.247831,-1924.535449,-9030.512492,-995.924147
943.248155,-1998.556043,-8956.491898,-1455.581446
943.248479,-1110.308913,-9104.533087,-383.047749
943.248803,-666.185348,-10362.883188,-995.924147
943.249127,-1258.350101,-10732.986159,-766.095498
943.249451,-1776.494261,-10066.800811,-1378.971896
943.249775,-1554.432478,-10066.800811,-383.047749
943.250099,0.000000,-10214.842000,-612.876398
943.250423,518.144159,-10955.047942,0.000000
943.250747,148.041188,-11177.109724,536.266849
943.251071,0.000000,-10510.924376,306.438199
943.251395,-1184.329507,-10066.800811,0.000000
943.251719,-1258.350101,-9474.636058,-612.876398
943.252043,-1036.288319,-9030.512492,-1225.752797
943.252367,-888.247130,-9548.656652,-1302.362347
943.252691,-962.267725,-10584.944971,-1072.533697
943.253015,-888.247130,-10436.903782,-1225.752797
943.253339,-1406.391290,-9622.677246,-1455.581446
943.253663,-1628.453072,-9178.553681,-1302.362347
943.253987,-1036.288319,-9400.615463,-1149.143247
943.254311,-296.082377,-9992.780217,-536.266849
943.254635,370.102971,-10807.006753,612.876398
943.254959,592.164754,-10584.944971,459.657299
943.255283,518.144159,-10584.944971,612.876398
943.255607,1184.329507,-10140.821405,1532.190996
943.255930,962.267725,-10066.800811,919.314598
943.256254,296.082377,-10066.800811,459.657299
943.256578,-518.144159,-10214.842000,536.266849
943.256902,-888.247130,-10288.862594,-536.266849
943.257226,-814.226536,-9696.697840,-995.924147
943.257550,0.000000,-8438.347739,-842.705048
943.257874,148.041188,-8512.368333,-842.705048
943.258198,740.205942,-9326.594869,-383.047749
943.258522,0.000000,-9474.636058,306.438199
943.258846,-222.061783,-9178.553681,0.000000
943.259170,0.000000,-8512.368333,0.000000
943.259494,814.226536,-7920.203579,306.438199
943.259818,2294.638420,-8734.430116,842.705048
943.260142,2812.782580,-9474.636058,2145.067394
943.260466,2960.823768,-9622.677246,2145.067394
943.260790,1998.556043,-9104.533087,2451.505594
943.261114,2368.659014,-9104.533087,1685.410096
943.261438,3108.864956,-8956.491898,1378.971896
943.261762,2368.659014,-9104.533087,919.314598
943.262086,666.185348,-9474.636058,1608.800546
943.262410,0.000000,-9548.656652,153.219100
943.262734,-1184.329507,-9178.553681,-842.705048
943.263058,-1332.370696,-8364.327145,-536.266849
943.263382,-370.102971,-8586.388927,76.609550
943.263706,222.061783,-9918.759623,0.000000
943.264030,-518.144159,-9918.759623,383.047749
943.264354,-1332.370696,-9622.677246,0.000000
943.264678,-1406.391290,-9548.656652,-383.047749
943.265002,-740.205942,-10140.821405,459.657299
943.265326,740.205942,-9918.759623,689.485948
943.265650,1110.308913,-10066.800811,1455.581446
943.265974,1110.308913,-10955.047942,1532.190996
943.266298,740.205942,-10732.986159,842.705048
943.266622,-592.164754,-10140.821405,-229.828649
943.266946,-148.041188,-9622.677246,-1072.533697
943.267270,148.041188,-10362.883188,-1455.581446
943.267594,74.020594,-11177.109724,-1072.533697
943.267918,0.000000,-10288.862594,-383.047749
943.268242,-1258.350101,-10436.903782,-1225.752797
943.268566,-2368.659014,-10066.800811,-2221.676944
943.268890,-2442.679609,-8956.491898,-1915.238745
943.269214,-1332.370696,-9992.780217,-1685.410096
943.269538,-1110.308913,-10955.047942,-306.438199
943.269861,-1480.411884,-10881.027347,306.438199
943.270185,-1258.350101,-10288.862594,229.828649
943.270509,-740.205942,-10881.027347,689.485948
943.270833,-592.164754,-10584.944971,153.219100
943.271157,-888.247130,-9696.697840,-459.657299
943.271481,-1924.535449,-9548.656652,-459.657299
943.271805,-2368.659014,-10214.842000,-766.095498
943.272129,-2072.576638,-10436.903782,-1149.143247
943.272453,-1258.350101,-9474.636058,-995.924147
943.272776,-518.144159,-7920.203579,-536.266849
943.273100,-148.041188,-8808.450710,-229.828649
943.273424,-222.061783,-10066.800811,306.438199
943.273748,-740.205942,-8882.471304,-153.219100
943.274072,-222.061783,-8438.347739,-153.219100
943.274396,296.082377,-8438.347739,459.657299
943.274720,1258.350101,-8956.491898,0.000000
943.275044,740.205942,-8956.491898,0.000000
943.275368,222.061783,-9400.615463,842.705048
943.275691,0.000000,-9474.636058,-383.047749
943.276015,222.061783,-9696.697840,229.828649
943.276339,0.000000,-8882.471304,-153.219100
943.276663,888.247130,-8808.450710,-612.876398
943.276987,814.226536,-9844.739029,153.219100
943.277311,592.164754,-10658.965565,459.657299
943.277635,666.185348,-10955.047942,-459.657299
943.277959,370.102971,-9770.718434,0.000000
943.278282,1184.329507,-8586.388927,459.657299
943.278606,2072.576638,-9474.636058,536.266849
943.278930,2072.576638,-9992.780217,1149.143247
943.279254,1702.473667,-9400.615463,1072.533697
943.279578,1776.494261,-9030.512492,76.609550
943.279902,1406.391290,-8882.471304,-229.828649
943.280226,1924.535449,-8808.450710,459.657299
943.280550,2442.679609,-9252.574275,306.438199
943.280874,2516.700203,-9474.636058,612.876398
943.281197,1924.535449,-9474.636058,689.485948
943.281521,1184.329507,-9548.656652,612.876398
943.281845,814.226536,-9474.636058,536.266849
943.282169,1036.288319,-9400.615463,842.705048
943.282493,1110.308913,-9548.656652,766.095498
943.282817,518.144159,-9770.718434,1302.362347
943.283141,-222.061783,-10288.862594,1072.533697
943.283465,-1850.514855,-10214.842000,459.657299
943.283789,-1554.432478,-8660.409521,0.000000
943.284112,-1702.473667,-8512.368333,-229.828649
943.284436,-2368.659014,-9918.759623,-536.266849
943.284760,-2960.823768,-11251.130318,0.000000
943.285084,-2368.659014,-10658.965565,-612.876398
943.285408,-2294.638420,-9770.718434,-459.657299
943.285732,-1776.494261,-9474.636058,0.000000
943.286056,-740.205942,-9696.697840,0.000000
943.286380,444.123565,-9992.780217,229.828649
943.286704,0.000000,-9992.780217,153.219100
943.287027,0.000000,-10214.842000,-383.047749
943.287351,0.000000,-9770.718434,153.219100
943.287675,444.123565,-8808.450710,919.314598
943.287999,296.082377,-9474.636058,306.438199
943.288323,-1184.329507,-9474.636058,229.828649
943.288647,-1554.432478,-8364.327145,0.000000
943.288971,-962.267725,-8438.347739,-1072.533697
943.289295,-1332.370696,-9400.615463,-689.485948
943.289619,-666.185348,-8142.265362,-689.485948
943.289942,-814.226536,-8068.244768,-919.314598
943.290266,-1406.391290,-9474.636058,-536.266849
943.290590,-1184.329507,-10732.986159,-919.314598
943.290914,-666.185348,-10881.027347,-1302.362347
943.291238,-222.061783,-9918.759623,-612.876398
943.291562,0.000000,-10066.800811,-229.828649
943.291886,-518.144159,-10807.006753,-1225.752797
943.292210,-814.226536,-11769.274478,-766.095498
943.292533,-740.205942,-11843.295072,229.828649
943.292857,444.123565,-11621.233289,-306.438199
943.293181,444.123565,-10140.821405,0.000000
943.293505,296.082377,-10066.800811,76.609550
943.293829,740.205942,-10066.800811,153.219100
943.294153,888.247130,-10658.965565,306.438199
943.294477,1110.308913,-10436.903782,-842.705048
943.294801,296.082377,-9474.636058,-1072.533697
943.295125,296.082377,-8660.409521,-1072.533697
943.295448,666.185348,-7920.203579,-1532.190996
943.295772,518.144159,-8438.347739,-1378.971896
943.296096,148.041188,-9992.780217,-689.485948
943.296420,-296.082377,-9918.759623,-1455.581446
943.296744,-592.164754,-9030.512492,-1225.752797
943.297068,518.144159,-8216.285956,306.438199
943.297392,2146.597232,-8882.471304,1225.752797
943.297716,2294.638420,-10066.800811,1225.752797
943.298040,1258.350101,-9622.677246,1991.848295
943.298363,1332.370696,-8808.450710,2068.457845
943.298687,1480.411884,-9992.780217,766.095498
943.299011,1110.308913,-9178.553681,766.095498
943.299335,666.185348,-7994.224174,-459.657299
943.299659,0.000000,-8586.388927,-153.219100
943.299983,-1036.288319,-10288.862594,-689.485948
943.300307,-1332.370696,-9992.780217,-229.828649
943.300631,-1258.350101,-9622.677246,153.219100
943.300955,74.020594,-8142.265362,306.438199
943.301278,592.164754,-9474.636058,0.000000
943.301602,296.082377,-10214.842000,1225.752797
943.301926,1036.288319,-10288.862594,1915.238745
943.302250,1480.411884,-10288.862594,1378.971896
943.302574,1628.453072,-9548.656652,2451.505594
943.302898,1628.453072,-8216.285956,2068.457845
943.303222,1702.473667,-8660.409521,1532.190996
943.303546,666.185348,-9844.739029,1225.752797
943.303870,0.000000,-9770.718434,306.438199
943.304193,-592.164754,-8882.471304,-1302.362347
943.304517,-1406.391290,-8364.327145,-1072.533697
943.304841,-1258.350101,-8290.306550,-1608.800546
943.305165,-1184.329507,-8586.388927,-1378.971896
943.305489,-1406.391290,-10214.842000,-536.266849
943.305813,-962.267725,-10881.027347,-612.876398
943.306137,-1184.329507,-10881.027347,0.000000
943.306461,-518.144159,-9474.636058,459.657299
943.306784,0.000000,-9770.718434,766.095498
943.307108,-296.082377,-12435.459826,995.924147
943.307432,-592.164754,-12583.501014,1149.143247
943.307756,-814.226536,-10955.047942,536.266849
943.308080,-1036.288319,-9992.780217,-229.828649
943.308404,-1480.411884,-9252.574275,-919.314598
943.308728,-1406.391290,-9696.697840,-1532.190996
943.309052,-2368.659014,-10288.862594,-1302.362347
943.309376,-2886.803174,-10658.965565,-1455.581446
943.309699,-2886.803174,-9992.780217,-2451.505594
943.310023,-2368.659014,-9474.636058,-1991.848295
943.310347,-518.144159,-9770.718434,-1225.752797
943.310671,296.082377,-10732.986159,-1149.143247
943.310995,-222.061783,-10658.965565,0.000000
943.311319,-370.102971,-10955.047942,383.047749
943.311643,-222.061783,-10807.006753,0.000000
943.311967,0.000000,-9992.780217,1149.143247
943.312291,1184.329507,-9400.615463,1685.410096
943.312614,1702.473667,-10288.862594,1149.143247
943.312938,2072.576638,-10807.006753,1225.752797
943.313262,1036.288319,-9992.780217,306.438199
943.313586,592.164754,-8660.409521,-536.266849
943.313910,814.226536,-9252.574275,0.000000
943.314234,1554.432478,-9696.697840,-612.876398
943.314558,1184.329507,-9252.574275,-1149.143247
943.314882,-222.061783,-8956.491898,-229.828649
943.315206,-444.123565,-8734.430116,-1302.362347
943.315529,-592.164754,-8586.388927,-766.095498
943.315853,74.020594,-8808.450710,76.609550
943.316177,2072.576638,-8438.347739,459.657299
943.316501,2664.741391,-8586.388927,1302.362347
943.316825,2368.659014,-8808.450710,1762.019645
943.317149,2220.617826,-8142.265362,1762.019645
943.317473,1628.453072,-8438.347739,1608.800546
943.317797,1924.535449,-8216.285956,1302.362347
943.318121,2072.576638,-7772.162391,536.266849
943.318444,666.185348,-7698.141797,306.438199
943.318768,-444.123565,-8660.409521,-153.219100
943.319092,-1110.308913,-9474.636058,-919.314598
943.319416,-814.226536,-9474.636058,-842.705048
943.319740,-444.123565,-8586.388927,-689.485948
943.320064,-444.123565,-8882.471304,-766.095498
943.320388,-444.123565,-8956.491898,-229.828649
943.320712,296.082377,-10584.944971,229.828649
943.321035,888.247130,-11029.068536,689.485948
943.321359,1110.308913,-10658.965565,842.705048
943.321683,1924.535449,-9622.677246,383.047749
943.322007,1554.432478,-9770.718434,383.047749
943.322331,444.123565,-11325.150913,689.485948
943.322655,-1036.288319,-11769.274478,-919.314598
943.322979,-2516.700203,-10436.903782,-2145.067394
943.323303,-2590.720797,-10066.800811,-2145.067394
943.323627,-1480.411884,-10288.862594,-1762.019645
943.323950,-518.144159,-11103.089130,-1532.190996
943.324274,-296.082377,-11103.089130,-536.266849
943.324598,-1036.288319,-10955.047942,-689.485948
943.324922,-1480.411884,-11325.150913,-1378.971896
943.325246,-666.185348,-10658.965565,-153.219100
943.325570,962.267725,-9992.780217,0.000000
943.325894,1258.350101,-11251.130318,459.657299
943.326218,370.102971,-11251.130318,689.485948
943.326542,-370.102971,-10584.944971,229.828649
943.326865,-1702.473667,-10214.842000,-383.047749
943.327189,-1776.494261,-9622.677246,-1072.533697
943.327513,-1924.535449,-8956.491898,-1378.971896
943.327837,-2442.679609,-9474.636058,-689.485948
943.328161,-2442.679609,-10214.842000,0.000000
943.328485,-2590.720797,-9400.615463,-689.485948
943.328809,-2886.803174,-7920.203579,-383.047749
943.329133,-1332.370696,-8068.244768,153.219100
943.329457,0.000000,-8956.491898,0.000000
943.329780,74.020594,-9696.697840,1608.800546
943.330104,962.267725,-9622.677246,3064.381992
943.330428,1332.370696,-9400.615463,1532.190996
943.330752,888.247130,-8364.327145,2145.067394
943.331076,444.123565,-7698.141797,1685.410096
943.331400,1184.329507,-8142.265362,153.219100
943.331724,74.020594,-9252.574275,1455.581446
943.332048,296.082377,-9030.512492,919.314598
943.332372,-148.041188,-8068.244768,-612.876398
943.332695,-296.082377,-7846.182985,-612.876398
943.333019,814.226536,-7920.203579,-689.485948
943.333343,1258.350101,-9252.574275,-995.924147
943.333667,0.000000,-9252.574275,0.000000
943.333991,-370.102971,-9474.636058,536.266849
943.334315,0.000000,-9918.759623,0.000000
943.334639,1924.535449,-9844.739029,229.828649
943.334963,2960.823768,-9474.636058,1149.143247
943.335286,3182.885551,-10510.924376,1149.143247
943.335610,2812.782580,-10732.986159,1685.410096
943.335934,2220.617826,-10510.924376,1225.752797
943.336258,1480.411884,-10362.883188,842.705048
943.336582,2072.576638,-9992.780217,306.438199
943.336906,2072.576638,-10288.862594,-536.266849
943.337230,1036.288319,-10955.047942,0.000000
943.337554,0.000000,-10732.986159,-842.705048
943.337878,-962.267725,-10436.903782,-1915.238745
943.338201,-2072.576638,-9696.697840,-1149.143247
943.338525,-1480.411884,-9622.677246,-1225.752797
943.338849,-296.082377,-10214.842000,-1378.971896
943.339173,-740.205942,-10214.842000,-612.876398
943.339497,-740.205942,-10066.800811,229.828649
943.339821,888.247130,-9918.759623,229.828649
943.340145,1332.370696,-10066.800811,842.705048
943.340469,1998.556043,-10214.842000,1762.019645
943.340793,1924.535449,-9400.615463,766.095498
943.341116,592.164754,-9474.636058,383.047749
943.341440,-518.144159,-9474.636058,0.000000
943.341764,-592.164754,-9622.677246,-1149.143247
943.342088,-888.247130,-9030.512492,-1685.410096
943.342412,-1036.288319,-8438.347739,-1302.362347
943.342736,-1036.288319,-8956.491898,-995.924147
943.343060,-2442.679609,-9326.594869,-1991.848295
943.343384,-2960.823768,-8808.450710,-1991.848295
943.343708,-3627.009116,-9104.533087,-1608.800546
943.344031,-2812.782580,-9252.574275,-766.095498
943.344355,-888.247130,-9178.553681,0.000000
943.344679,74.020594,-9178.553681,536.266849
943.345003,148.041188,-9622.677246,766.095498
943.345327,444.123565,-9696.697840,0.000000
943.345651,-518.144159,-10288.862594,229.828649
943.345975,-1110.308913,-9178.553681,-306.438199
943.346299,-962.267725,-8438.347739,-995.924147
943.346623,-740.205942,-9400.615463,-1532.190996
943.346946,-1110.308913,-11473.192101,-536.266849
943.347270,-814.226536,-11769.274478,-1225.752797
943.347594,-814.226536,-10732.986159,-1302.362347
943.347918,-814.226536,-10658.965565,-306.438199
943.348242,-518.144159,-10807.006753,-919.314598
943.348566,74.020594,-11695.253884,229.828649
943.348890,592.164754,-11843.295072,1225.752797
943.349214,740.205942,-11843.295072,842.705048
943.349537,666.185348,-11103.089130,612.876398
943.349861,518.144159,-9474.636058,919.314598
943.350185,1110.308913,-9548.656652,842.705048
943.350509,444.123565,-10436.903782,842.705048
943.350833,-222.061783,-10658.965565,-153.219100
943.351157,-1110.308913,-9918.759623,-842.705048
943.351481,-1184.329507,-9030.512492,-612.876398
943.351805,0.000000,-8438.347739,-229.828649
943.352129,888.247130,-8808.450710,76.609550
943.352452,592.164754,-8956.491898,766.095498
943.352776,518.144159,-9400.615463,459.657299
943.353100,1036.288319,-9474.636058,76.609550
943.353424,1406.391290,-9104.533087,766.095498
943.353748,2072.576638,-8142.265362,1991.848295
943.354072,2146.597232,-8660.409521,2068.457845
943.354396,1702.473667,-9474.636058,1762.019645
943.354720,888.247130,-7994.224174,1455.581446
943.355044,1036.288319,-9178.553681,1915.238745
943.355367,1258.350101,-8956.491898,1455.581446
943.355691,1036.288319,-7994.224174,1072.533697
943.356015,0.000000,-7772.162391,842.705048
943.356339,-1332.370696,-8586.388927,536.266849
943.356663,-1628.453072,-9326.594869,0.000000
943.356987,-962.267725,-8586.388927,-306.438199
943.357311,-592.164754,-7550.100608,383.047749
943.357635,444.123565,-7105.977043,0.000000
943.357959,592.164754,-8956.491898,0.000000
943.358282,740.205942,-9770.718434,1685.410096
943.358606,740.205942,-9474.636058,842.705048
943.358930,74.020594,-9400.615463,612.876398
943.359254,74.020594,-8512.368333,766.095498
943.359578,1480.411884,-9178.553681,383.047749
943.359902,1628.453072,-10436.903782,1225.752797
943.360226,1110.308913,-10732.986159,383.047749
943.360550,148.041188,-10066.800811,-842.705048
943.360874,-814.226536,-9696.697840,-995.924147
943.361197,-296.082377,-9844.739029,-1915.238745
943.361521,-296.082377,-10510.924376,-2451.505594
943.361845,-1184.329507,-11769.274478,-1302.362347
943.362169,-1480.411884,-12583.501014,-1302.362347
943.362493,-1480.411884,-12657.521608,-2528.115143
943.362817,-2146.597232,-10732.986159,-1149.143247
943.363141,-1184.329507,-10214.842000,-995.924147
943.363465,-814.226536,-11399.171507,-1685.410096
943.363788,-1628.453072,-11769.274478,-1072.533697
943.364112,-1924.535449,-11325.150913,-229.828649
943.364436,-1480.411884,-10732.986159,-306.438199
943.364760,-1850.514855,-10658.965565,-153.219100
943.365084,-962.267725,-9844.739029,-689.485948
943.365408,-1110.308913,-9622.677246,-1149.143247
943.365732,-1850.514855,-10214.842000,-1225.752797
943.366056,-3256.906145,-10436.903782,-2528.115143
943.366380,-3627.009116,-10066.800811,-2451.505594
943.366703,-2072.576638,-9622.677246,-1455.581446
943.367027,-518.144159,-9918.759623,-919.314598
943.367351,-296.082377,-9696.697840,-536.266849
943.367675,0.000000,-9548.656652,383.047749
943.367999,1480.411884,-9474.636058,766.095498
943.368323,2664.741391,-9992.780217,1149.143247
943.368647,2960.823768,-8956.491898,1762.019645
943.368971,2738.761985,-7698.141797,1378.971896
943.369295,1332.370696,-7772.162391,1302.362347
943.369618,592.164754,-8586.388927,1915.238745
943.369942,-592.164754,-8364.327145,612.876398
943.370266,-1480.411884,-7698.141797,-459.657299
943.370590,-1406.391290,-6661.853478,-383.047749
943.370914,-518.144159,-7328.038826,-766.095498
943.371238,222.061783,-8586.388927,-153.219100
943.371562,444.123565,-8586.388927,536.266849
943.371886,0.000000,-7846.182985,76.609550
943.372210,444.123565,-8068.244768,153.219100
943.372534,1924.535449,-8216.285956,689.485948
943.372859,3034.844362,-9400.615463,1072.533697
943.373183,3627.009116,-10214.842000,1225.752797
943.373507,3330.926739,-10066.800811,1608.800546
943.373831,3552.988522,-10807.006753,1302.362347
943.374155,3923.091493,-10955.047942,1302.362347
943.374479,3404.947333,-10214.842000,612.876398
943.374803,1406.391290,-9326.594869,-306.438199
943.375127,222.061783,-10584.944971,-459.657299
943.375451,-592.164754,-11325.150913,-1302.362347
943.375775,-1110.308913,-10584.944971,-1532.190996
943.376099,-444.123565,-9548.656652,-306.438199
943.376424,814.226536,-9400.615463,-612.876398
943.376748,740.205942,-11251.130318,-153.219100
943.377072,0.000000,-10881.027347,306.438199
943.377396,0.000000,-10658.965565,76.609550
943.377720,-148.041188,-10510.924376,0.000000
943.378044,518.144159,-10066.800811,-306.438199
943.378368,666.185348,-9622.677246,-306.438199
943.378692,0.000000,-9770.718434,0.000000
943.379016,-666.185348,-10658.965565,-459.657299
943.379340,-444.123565,-10584.944971,-766.095498
943.379665,-296.082377,-10658.965565,-1072.533697
943.379989,-592.164754,-9474.636058,-2221.676944
943.380313,-518.144159,-9104.533087,-1455.581446
943.380637,-962.267725,-9992.780217,-919.314598
943.380961,-888.247130,-10658.965565,-842.705048
943.381285,-1776.494261,-10732.986159,-1302.362347
943.381609,-2368.659014,-9104.533087,-306.438199
943.381933,-1406.391290,-8586.388927,-459.657299
943.382257,-888.247130,-9178.553681,-689.485948
943.382581,-1924.535449,-9030.512492,0.000000
943.382905,-2146.597232,-8956.491898,0.000000
943.383230,-2220.617826,-9474.636058,0.000000
943.383554,-1850.514855,-10066.800811,842.705048
943.383878,-592.164754,-9548.656652,766.095498
943.384202,0.000000,-8512.368333,153.219100
943.384526,-1036.288319,-8216.285956,-229.828649
943.384850,-2516.700203,-8734.430116,-995.924147
943.385174,-2960.823768,-10362.883188,-1225.752797
943.385498,-1850.514855,-10288.862594,0.000000
943.385822,-1184.329507,-9104.533087,0.000000
943.386146,-1554.432478,-9400.615463,76.609550
943.386470,-1554.432478,-9400.615463,0.000000
943.386795,-962.267725,-9918.759623,-229.828649
943.387119,-740.205942,-10436.903782,0.000000
943.387443,0.000000,-9770.718434,995.924147
943.387767,1924.535449,-8882.471304,612.876398
943.388091,2812.782580,-9622.677246,1838.629195
943.388415,3330.926739,-9770.718434,1838.629195
943.388739,2294.638420,-9770.718434,766.095498
943.389063,740.205942,-10066.800811,0.000000
943.389387,370.102971,-9844.739029,-229.828649
943.389711,666.185348,-9696.697840,-306.438199
943.390036,814.226536,-9770.718434,459.657299
943.390360,666.185348,-9918.759623,0.000000
943.390684,74.020594,-9844.739029,-689.485948
943.391008,-148.041188,-10732.986159,-153.219100
943.391332,740.205942,-10066.800811,76.609550
943.391656,1628.453072,-9696.697840,536.266849
943.391980,2442.679609,-9622.677246,1302.362347
943.392304,2738.761985,-9918.759623,995.924147
943.392628,2146.597232,-10288.862594,0.000000
943.392952,1554.432478,-9992.780217,766.095498
943.393276,2072.576638,-9622.677246,76.609550
943.393601,1036.288319,-9474.636058,76.609550
943.393925,148.041188,-9400.615463,0.000000
943.394249,-518.144159,-9918.759623,0.000000
943.394573,-740.205942,-10214.842000,0.000000
943.394897,-518.144159,-9326.594869,-459.657299
943.395221,74.020594,-8586.388927,0.000000
943.395545,666.185348,-8808.450710,536.266849
943.395869,740.205942,-9400.615463,689.485948
943.396193,814.226536,-9030.512492,842.705048
943.396517,444.123565,-9400.615463,306.438199
943.396841,370.102971,-9474.636058,919.314598
943.397166,1110.308913,-8660.409521,459.657299
943.397490,370.102971,-8364.327145,-459.657299
943.397814,-962.267725,-8660.409521,0.000000
943.398138,-1480.411884,-8956.491898,-2068.457845
943.398462,-1554.432478,-9030.512492,-1455.581446
943.398786,-1702.473667,-8660.409521,-1149.143247
943.399110,-1184.329507,-8882.471304,-1915.238745
943.399434,-1036.288319,-9252.574275,-1838.629195
943.399758,-1184.329507,-9622.677246,-919.314598
943.400082,-1258.350101,-10066.800811,-1378.971896
943.400406,-740.205942,-10288.862594,-459.657299
943.400731,0.000000,-9770.718434,-459.657299
943.401055,296.082377,-9622.677246,-842.705048
943.401379,-444.123565,-10807.006753,-306.438199
943.401703,-444.123565,-10955.047942,-306.438199
943.402027,148.041188,-11547.212695,-766.095498
943.402351,-370.102971,-10955.047942,-383.047749
943.402675,-148.041188,-9104.533087,-1532.190996
943.402999,-370.102971,-9918.759623,-1838.629195
943.403323,-1332.370696,-10658.965565,-1455.581446
943.403647,-1924.535449,-10807.006753,-1915.238745
943.403972,-3034.844362,-10436.903782,-2757.943793
943.404296,-2960.823768,-9992.780217,-2145.067394
943.404620,-1406.391290,-9918.759623,-1838.629195
943.404944,0.000000,-10436.903782,-1302.362347
943.405268,-962.267725,-10732.986159,-842.705048
943.405592,-2072.576638,-11251.130318,-383.047749
943.405916,-1554.432478,-12065.356855,-229.828649
943.406240,444.123565,-11547.212695,995.924147
943.406564,2368.659014,-10584.944971,1532.190996
943.406888,3478.967927,-10436.903782,2221.676944
943.407212,2146.597232,-9400.615463,1378.971896
943.407537,1036.288319,-9918.759623,229.828649
943.407861,222.061783,-10214.842000,306.438199
943.408185,1332.370696,-9178.553681,76.609550
943.408509,2072.576638,-8364.327145,-229.828649
943.408833,1184.329507,-8438.347739,383.047749
943.409157,222.061783,-8586.388927,306.438199
943.409481,-592.164754,-8364.327145,-459.657299
943.409805,-1554.432478,-8068.244768,0.000000
943.410129,-444.123565,-7772.162391,1072.533697
943.410453,1184.329507,-7698.141797,383.047749
943.410777,1332.370696,-7772.162391,995.924147
943.411102,2072.576638,-8142.265362,3140.991542
943.411426,1998.556043,-9474.636058,1838.629195
943.411750,1554.432478,-9770.718434,1762.019645
943.412074,2072.576638,-8734.430116,2298.286494
943.412398,2368.659014,-8734.430116,1608.800546
943.412722,1406.391290,-9844.739029,1225.752797
943.413046,-444.123565,-10214.842000,766.095498
943.413370,-1036.288319,-10214.842000,229.828649
943.413694,-962.267725,-9844.739029,-612.876398
943.414018,-814.226536,-9326.594869,0.000000
943.414343,74.020594,-9252.574275,229.828649
943.414667,0.000000,-10214.842000,459.657299
943.414991,74.020594,-10066.800811,536.266849
943.415315,222.061783,-9326.594869,76.609550
943.415639,370.102971,-10214.842000,459.657299
943.415963,1554.432478,-9400.615463,0.000000
943.416287,1110.308913,-8808.450710,-153.219100
943.416611,-592.164754,-9474.636058,0.000000
943.416935,-518.144159,-10214.842000,-919.314598
943.417259,-296.082377,-10510.924376,-536.266849
943.417583,296.082377,-9844.739029,0.000000
943.417908,296.082377,-8956.491898,-766.095498
943.418232,0.000000,-8956.491898,-383.047749
943.418556,-1036.288319,-10214.842000,-919.314598
943.418880,-1924.535449,-10584.944971,-995.924147
943.419204,-1924.535449,-10436.903782,-1532.190996
943.419528,-962.267725,-9252.574275,-459.657299
943.419852,-370.102971,-9104.533087,-919.314598
943.420176,-1110.308913,-9918.759623,-919.314598
943.420500,-1998.556043,-9548.656652,-612.876398
943.420824,-2812.782580,-9844.739029,-2528.115143
943.421148,-3182.885551,-10066.800811,-1072.533697
943.421473,-2294.638420,-9770.718434,-1378.971896
943.421797,-1332.370696,-9992.780217,-1302.362347
943.422121,-962.267725,-10288.862594,-1378.971896
943.422445,-1554.432478,-10658.965565,-1149.143247
943.422769,-1924.535449,-11621.233289,-1455.581446
943.423093,-592.164754,-11399.171507,-383.047749
943.423417,518.144159,-10881.027347,76.609550
943.423741,1406.391290,-10362.883188,612.876398
943.424065,888.247130,-10584.944971,536.266849
943.424389,444.123565,-11029.068536,306.438199
943.424714,74.020594,-10584.944971,-536.266849
943.425038,222.061783,-9326.594869,-1072.533697
943.425362,444.123565,-8808.450710,-229.828649
943.425686,740.205942,-9326.594869,0.000000
943.426010,-222.061783,-9622.677246,0.000000
943.426334,-962.267725,-8882.471304,-995.924147
943.426658,-1480.411884,-8512.368333,-1991.848295
943.426982,-740.205942,-8586.388927,-766.095498
943.427306,1258.350101,-8512.368333,-766.095498
943.427630,2146.597232,-9696.697840,-229.828649
943.427954,1998.556043,-9474.636058,306.438199
943.428279,1406.391290,-9770.718434,153.219100
943.428603,1480.411884,-10510.924376,306.438199
943.428927,2146.597232,-10140.821405,1378.971896
943.429251,2886.803174,-9992.780217,1991.848295
943.429575,2812.782580,-9622.677246,1378.971896
943.429899,1406.391290,-9252.574275,1149.143247
943.430223,518.144159,-9326.594869,995.924147
943.430547,370.102971,-10140.821405,0.000000
943.430871,370.102971,-9548.656652,76.609550
943.431195,0.000000,-8290.306550,-459.657299
943.431519,-740.205942,-8734.430116,-383.047749
943.431844,-740.205942,-9474.636058,-229.828649
943.432168,-740.205942,-9400.615463,-919.314598
943.432492,-518.144159,-8956.491898,-229.828649
943.432816,370.102971,-8586.388927,0.000000
943.433140,1406.391290,-9178.553681,306.438199
943.433464,1480.411884,-9548.656652,1685.410096
943.433788,1184.329507,-9548.656652,1455.581446
943.434112,518.144159,-9696.697840,842.705048
943.434436,962.267725,-10288.862594,1225.752797
943.434760,1924.535449,-9548.656652,1608.800546
943.435084,1628.453072,-8882.471304,995.924147
943.435409,296.082377,-9178.553681,612.876398
943.435733,-1036.288319,-9474.636058,229.828649
943.436057,-1924.535449,-9844.739029,-1455.581446
943.436381,-2442.679609,-9474.636058,-1532.190996
943.436705,-2664.741391,-8808.450710,-1532.190996
943.437029,-2220.617826,-8734.430116,-2221.676944
943.437353,-1850.514855,-9770.718434,-1302.362347
943.437677,-1628.453072,-10066.800811,-1608.800546
943.438001,-1554.432478,-10288.862594,-1225.752797
943.438325,-1036.288319,-9770.718434,-842.705048
943.438650,-370.102971,-9844.739029,-536.266849
943.438974,0.000000,-10510.924376,0.000000
943.439298,222.061783,-11251.130318,1225.752797
943.439622,74.020594,-11399.171507,689.485948
943.439946,-518.144159,-10732.986159,0.000000
943.440270,-888.247130,-9992.780217,0.000000
943.440594,-444.123565,-9474.636058,-1455.581446
943.440918,-444.123565,-9844.739029,-1838.629195
943.441242,-1406.391290,-9918.759623,-995.924147
943.441566,-2294.638420,-9992.780217,-1762.019645
943.441890,-2146.597232,-10732.986159,-2451.505594
943.442215,-1258.350101,-9918.759623,-1685.410096
943.442539,74.020594,-9770.718434,-995.924147
943.442863,1702.473667,-11103.089130,-612.876398
943.443187,2442.679609,-11325.150913,459.657299
943.443511,1998.556043,-11177.109724,612.876398
943.443835,814.226536,-10658.965565,919.314598
943.444159,740.205942,-10066.800811,919.314598
943.444483,444.123565,-9770.718434,536.266849
943.444807,666.185348,-10066.800811,842.705048
943.445131,296.082377,-9474.636058,306.438199
943.445455,-666.185348,-9104.533087,459.657299
943.445780,-1628.453072,-9696.697840,842.705048
943.446104,-592.164754,-9252.574275,306.438199
943.446428,0.000000,-8808.450710,-459.657299
943.446752,-370.102971,-8882.471304,-153.219100
943.447076,-518.144159,-9030.512492,-383.047749
943.447400,-444.123565,-9474.636058,306.438199
943.447724,222.061783,-9252.574275,1991.848295
943.448048,1850.514855,-8734.430116,2145.067394
943.448372,2590.720797,-8068.244768,2374.896044
943.448696,2146.597232,-8290.306550,2221.676944
943.449021,1480.411884,-8882.471304,1838.629195
943.449345,148.041188,-9252.574275,1838.629195
943.449669,0.000000,-8290.306550,2221.676944
943.449993,0.000000,-8142.265362,1608.800546
943.450317,-888.247130,-7994.224174,383.047749
943.450641,-1332.370696,-8290.306550,1378.971896
943.450965,-1480.411884,-9178.553681,306.438199
943.451289,-1036.288319,-9548.656652,612.876398
943.451613,0.000000,-9252.574275,1532.190996
943.451937,888.247130,-7994.224174,766.095498
943.452261,370.102971,-8068.244768,459.657299
943.452586,0.000000,-8438.347739,306.438199
943.452910,222.061783,-9844.739029,459.657299
943.453234,1110.308913,-10362.883188,536.266849
943.453558,1406.391290,-9252.574275,612.876398
943.453882,666.185348,-8882.471304,459.657299
943.454206,222.061783,-9770.718434,0.000000
943.454530,-444.123565,-10584.944971,-1225.752797
943.454854,-1258.350101,-10140.821405,-1685.410096
943.455178,-1332.370696,-10066.800811,-1608.800546
943.455502,0.000000,-9918.759623,-1378.971896
943.455826,814.226536,-10066.800811,-1149.143247
943.456151,518.144159,-10510.924376,-612.876398
943.456475,74.020594,-11325.150913,-1762.019645
943.456799,-1110.308913,-11325.150913,-2528.115143
943.457123,-1184.329507,-10510.924376,-1838.629195
943.457447,444.123565,-10510.924376,-1225.752797
943.457771,1850.514855,-10807.006753,-1762.019645
943.458095,666.185348,-10881.027347,-1455.581446
943.458419,-370.102971,-11695.253884,-1302.362347
943.458743,-296.082377,-11991.336260,-1991.848295
943.459067,-444.123565,-11325.150913,-1762.019645
943.459391,-962.267725,-10214.842000,-1915.238745
943.459716,-1776.494261,-9622.677246,-2451.505594
943.460040,-2960.823768,-10955.047942,-2834.553343
943.460364,-2960.823768,-11769.274478,-2451.505594
943.460688,-2442.679609,-11029.068536,-2374.896044
943.461012,-1628.453072,-9326.594869,-1455.581446
943.461336,-1036.288319,-9030.512492,-1915.238745
943.461660,-740.205942,-9770.718434,-1302.362347
943.461984,-148.041188,-9622.677246,-459.657299
943.462308,666.185348,-9474.636058,76.609550
943.462632,592.164754,-10510.924376,536.266849
943.462957,1776.494261,-9104.533087,1072.533697
943.463281,2220.617826,-8586.388927,383.047749
943.463605,1332.370696,-8512.368333,459.657299
943.463929,0.000000,-8734.430116,76.609550
943.464253,-962.267725,-9104.533087,-1302.362347
943.464577,-1702.473667,-8068.244768,-306.438199
943.464901,-1406.391290,-7328.038826,306.438199
943.465225,-222.061783,-8364.327145,-153.219100
943.465549,-296.082377,-8438.347739,0.000000
943.465873,-666.185348,-8734.430116,383.047749
943.466197,-962.267725,-9030.512492,306.438199
943.466522,74.020594,-9030.512492,1302.362347
943.466846,2072.576638,-8660.409521,2221.676944
943.467170,3034.844362,-8216.285956,2221.676944
943.467494,3256.906145,-8438.347739,2451.505594
943.467818,2516.700203,-9992.780217,2451.505594
943.468142,2072.576638,-10881.027347,2221.676944
943.468466,2072.576638,-9992.780217,2374.896044
943.468790,2294.638420,-8882.471304,1378.971896
943.469114,962.267725,-8956.491898,459.657299
943.469438,-666.185348,-9696.697840,689.485948
943.469762,-1036.288319,-10436.903782,-383.047749
943.470087,-1776.494261,-9474.636058,-612.876398
943.470411,-1184.329507,-9474.636058,459.657299
943.470735,0.000000,-9474.636058,306.438199
943.471059,888.247130,-9844.739029,689.485948
943.471383,666.185348,-10140.821405,1685.410096
943.471707,888.247130,-10955.047942,842.705048
943.472031,592.164754,-11547.212695,842.705048
943.472355,740.205942,-11843.295072,1149.143247
943.472679,1332.370696,-10214.842000,459.657299
943.473003,222.061783,-10214.842000,383.047749
943.473327,-1184.329507,-10658.965565,-229.828649
943.473651,-2368.659014,-11103.089130,-1685.410096
943.473975,-1850.514855,-10584.944971,-1455.581446
943.474299,0.000000,-9992.780217,-612.876398
943.474623,592.164754,-9400.615463,-612.876398
943.474947,444.123565,-9252.574275,-383.047749
943.475271,-1110.308913,-9326.594869,-383.047749
943.475595,-1332.370696,-10214.842000,-1225.752797
943.475919,-1406.391290,-10288.862594,-1072.533697
943.476243,-296.082377,-9252.574275,536.266849
943.476567,222.061783,-8956.491898,229.828649
943.476891,0.000000,-8364.327145,-842.705048
943.477215,-814.226536,-8290.306550,-459.657299
943.477539,-1628.453072,-9252.574275,-1225.752797
943.477863,-1702.473667,-9104.533087,-995.924147
943.478187,-962.267725,-7698.141797,-995.924147
943.478511,-1110.308913,-7402.059420,-995.924147
943.478835,-962.267725,-7476.080014,-1685.410096
943.479159,0.000000,-8586.388927,-1225.752797
943.479483,-740.205942,-9770.718434,-689.485948
943.479807,-666.185348,-10584.944971,0.000000
943.480131,222.061783,-10214.842000,153.219100
943.480455,518.144159,-9918.759623,0.000000
943.480779,296.082377,-9992.780217,383.047749
943.481103,74.020594,-10955.047942,0.000000
943.481427,-370.102971,-11769.274478,306.438199
943.481751,0.000000,-11843.295072,1378.971896
943.482075,1776.494261,-9992.780217,459.657299
943.482399,1554.432478,-8660.409521,-766.095498
943.482723,0.000000,-9474.636058,-842.705048
943.483047,-888.247130,-11325.150913,-1225.752797
943.483371,-666.185348,-11991.336260,-1532.190996
943.483695,-222.061783,-10436.903782,-766.095498
943.484019,0.000000,-8586.388927,-1072.533697
943.484343,0.000000,-8216.285956,-1149.143247
943.484667,370.102971,-9770.718434,-536.266849
943.484991,666.185348,-11103.089130,0.000000
943.485315,444.123565,-10584.944971,1302.362347
943.485639,814.226536,-9474.636058,1455.581446
943.485963,666.185348,-9104.533087,995.924147
943.486287,740.205942,-9252.574275,1685.410096
943.486611,1110.308913,-9622.677246,1685.410096
943.486935,1036.288319,-11029.068536,536.266849
943.487259,0.000000,-10881.027347,842.705048
943.487583,222.061783,-8512.368333,536.266849
943.487907,74.020594,-7920.203579,-306.438199
943.488231,-1332.370696,-9326.594869,0.000000
943.488555,-1480.411884,-9918.759623,-689.485948
943.488879,-740.205942,-9696.697840,-766.095498
943.489203,0.000000,-9474.636058,306.438199
943.489527,814.226536,-8364.327145,766.095498
943.489851,1480.411884,-8142.265362,919.314598
943.490175,2220.617826,-8660.409521,1838.629195
943.490499,1776.494261,-9252.574275,1685.410096
943.490823,444.123565,-9548.656652,1455.581446
943.491147,-148.041188,-8512.368333,1838.629195
943.491471,888.247130,-7179.997637,689.485948
943.491795,962.267725,-7624.121203,-383.047749
943.492119,0.000000,-8216.285956,-459.657299
943.492443,-1332.370696,-8956.491898,-1608.800546
943.492767,-1850.514855,-9104.533087,-2221.676944
943.493091,-370.102971,-8512.368333,-1762.019645
943.493415,518.144159,-8438.347739,-1685.410096
943.493739,518.144159,-9622.677246,-1455.581446
943.494063,0.000000,-11547.212695,-1302.362347
943.494387,0.000000,-12213.398043,-1685.410096
943.494711,444.123565,-12065.356855,-612.876398
943.495035,1110.308913,-11621.233289,536.266849
943.495359,740.205942,-11251.130318,-536.266849
943.495683,-814.226536,-10881.027347,-383.047749
943.496007,-1702.473667,-11251.130318,-306.438199
943.496331,-2294.638420,-11695.253884,-1302.362347
943.496655,-3182.885551,-11695.253884,-842.705048
943.496979,-2590.720797,-9622.677246,-1685.410096
943.497303,-2294.638420,-8142.265362,-2374.896044
943.497627,-1554.432478,-9178.553681,-1915.238745
943.497951,-1554.432478,-10362.883188,-1608.800546
943.498275,-1480.411884,-11029.068536,-1302.362347
943.498599,-666.185348,-10066.800811,-766.095498
943.498923,962.267725,-9178.553681,0.000000
943.499247,1554.432478,-9474.636058,0.000000
943.499571,1184.329507,-9770.718434,306.438199
943.499895,148.041188,-10066.800811,-306.438199
943.500219,-296.082377,-9696.697840,0.000000
943.500543,148.041188,-10140.821405,995.924147
943.500867,814.226536,-10066.800811,766.095498
943.501192,518.144159,-8734.430116,459.657299
943.501516,-814.226536,-9030.512492,995.924147
943.501840,-1776.494261,-10066.800811,-153.219100
943.502164,-2146.597232,-10510.924376,-766.095498
943.502488,-1850.514855,-9400.615463,1225.752797
943.502812,148.041188,-9400.615463,919.314598
943.503136,814.226536,-9474.636058,842.705048
943.503460,740.205942,-9992.780217,1302.362347
943.503784,592.164754,-9844.739029,459.657299
943.504108,814.226536,-9400.615463,842.705048
943.504432,1850.514855,-8586.388927,1302.362347
943.504756,2738.761985,-8660.409521,1378.971896
943.505080,3108.864956,-8956.491898,2528.115143
943.505404,2960.823768,-8364.327145,2451.505594
943.505728,2294.638420,-8438.347739,1225.752797
943.506052,814.226536,-8142.265362,612.876398
943.506376,370.102971,-7698.141797,689.485948
943.506700,370.102971,-8216.285956,842.705048
943.507024,740.205942,-9104.533087,842.705048
943.507348,518.144159,-8660.409521,76.609550
943.507672,-888.247130,-8882.471304,-536.266849
943.507996,-666.185348,-9474.636058,0.000000
943.508320,1332.370696,-10066.800811,536.266849
943.508644,1924.535449,-9992.780217,153.219100
943.508968,888.247130,-9326.594869,383.047749
943.509292,74.020594,-9696.697840,0.000000
943.509616,148.041188,-11695.253884,-766.095498
943.509940,740.205942,-11695.253884,306.438199
943.510264,740.205942,-10584.944971,-536.266849
943.510588,0.000000,-10140.821405,-842.705048
943.510912,-814.226536,-11103.089130,-612.876398
943.511236,-1776.494261,-11473.192101,-766.095498
943.511560,-1702.473667,-11251.130318,-1685.410096
943.511884,-2664.741391,-9622.677246,-1762.019645
943.512208,-2590.720797,-8956.491898,-1991.848295
943.512532,-1554.432478,-9844.739029,-2068.457845
943.512856,-666.185348,-9696.697840,-766.095498
943.513180,-296.082377,-10140.821405,-536.266849
943.513504,-370.102971,-10066.800811,-689.485948
943.513828,0.000000,-8586.388927,0.000000
943.514152,1184.329507,-8808.450710,-995.924147
943.514476,888.247130,-9326.594869,-919.314598
943.514800,222.061783,-9918.759623,-1378.971896
943.515124,-148.041188,-10066.800811,-612.876398
943.515448,-592.164754,-10362.883188,-612.876398
943.515772,-518.144159,-9844.739029,-383.047749
943.516096,74.020594,-9548.656652,-1149.143247
943.516420,-1036.288319,-9696.697840,-919.314598
943.516744,-2368.659014,-10436.903782,-842.705048
943.517068,-814.226536,-10807.006753,0.000000
943.517392,-444.123565,-11103.089130,1225.752797
943.517716,740.205942,-10584.944971,1532.190996
943.518040,148.041188,-9844.739029,536.266849
943.518364,-1036.288319,-9992.780217,459.657299
943.518688,-1036.288319,-10214.842000,612.876398
943.519012,-666.185348,-9918.759623,-1225.752797
943.519336,-444.123565,-9030.512492,76.609550
943.519660,370.102971,-8364.327145,76.609550
943.519984,0.000000,-8438.347739,-689.485948
943.520308,-962.267725,-8956.491898,153.219100
943.520632,-888.247130,-9252.574275,-153.219100
943.520956,-592.164754,-8734.430116,-689.485948
943.521280,148.041188,-8142.265362,0.000000
943.521604,962.267725,-7846.182985,536.266849
943.521928,1702.473667,-8882.471304,612.876398
943.522252,1110.308913,-9474.636058,995.924147
943.522576,592.164754,-10140.821405,612.876398
943.522900,0.000000,-10140.821405,689.485948
943.523224,0.000000,-9622.677246,842.705048
943.523548,148.041188,-8808.450710,0.000000
943.523872,222.061783,-9474.636058,306.438199
943.524196,148.041188,-10066.800811,842.705048
943.524520,592.164754,-10955.047942,0.000000
943.524844,296.082377,-10140.821405,0.000000
943.525168,1110.308913,-8660.409521,0.000000
943.525492,1628.453072,-8512.368333,-766.095498
943.525816,962.267725,-10066.800811,-306.438199
943.526140,518.144159,-10807.006753,229.828649
943.526464,740.205942,-10288.862594,0.000000
943.526788,296.082377,-10510.924376,842.705048
943.527112,1184.329507,-9992.780217,919.314598
943.527436,2072.576638,-9770.718434,0.000000
943.527760,1628.453072,-9622.677246,612.876398
943.528084,1332.370696,-9992.780217,995.924147
943.528408,814.226536,-10362.883188,-383.047749
943.528732,666.185348,-9474.636058,536.266849
943.529056,1258.350101,-8290.306550,153.219100
943.529380,1554.432478,-8808.450710,-383.047749
943.529704,666.185348,-9178.553681,0.000000
943.530028,222.061783,-9326.594869,-842.705048
943.530352,-962.267725,-9992.780217,-1072.533697
943.530676,-1332.370696,-9844.739029,-1149.143247
943.531000,-444.123565,-9400.615463,-919.314598
943.531324,-666.185348,-10214.842000,-383.047749
943.531648,-1480.411884,-10362.883188,0.000000
943.531972,-2516.700203,-9844.739029,-536.266849
943.532296,-3997.112087,-9992.780217,-689.485948
943.532620,-3108.864956,-9992.780217,-229.828649
943.532944,-1184.329507,-10066.800811,-153.219100
943.533268,-666.185348,-9844.739029,689.485948
943.533592,-888.247130,-9474.636058,1762.019645
943.533916,-740.205942,-9770.718434,1149.143247
943.534240,-1110.308913,-9696.697840,0.000000
943.534564,-1332.370696,-8882.471304,76.609550
943.534888,-1554.432478,-8660.409521,-229.828649
943.535212,-1776.494261,-9030.512492,-612.876398
943.535536,-2072.576638,-8734.430116,-1072.533697
943.535860,-2516.700203,-8216.285956,-1532.190996
943.536184,-1998.556043,-8290.306550,-995.924147
943.536508,-296.082377,-8956.491898,-153.219100
943.536832,296.082377,-8882.471304,-919.314598
943.537156,0.000000,-9252.574275,306.438199
943.537480,148.041188,-9400.615463,766.095498
943.537804,666.185348,-10881.027347,689.485948
943.538128,814.226536,-10732.986159,1455.581446
943.538452,1628.453072,-9770.718434,919.314598
943.538776,1184.329507,-9548.656652,-536.266849
943.539100,0.000000,-11103.089130,306.438199
943.539424,-370.102971,-10955.047942,-383.047749
943.539748,370.102971,-11103.089130,-459.657299
943.540072,0.000000,-10214.842000,-689.485948
943.540396,-666.185348,-9992.780217,-919.314598
943.540720,222.061783,-10658.965565,-1378.971896
943.541044,888.247130,-11029.068536,0.000000
943.541368,1184.329507,-11251.130318,-612.876398
943.541692,592.164754,-10436.903782,-919.314598
943.542016,592.164754,-9474.636058,-306.438199
943.542340,1850.514855,-9622.677246,0.000000
943.542664,2146.597232,-10214.842000,995.924147
943.542988,2442.679609,-9770.718434,766.095498
943.543312,2146.597232,-9548.656652,459.657299
943.543636,1480.411884,-9770.718434,536.266849
943.543960,2368.659014,-9474.636058,842.705048
943.544284,3034.844362,-8956.491898,153.219100
943.544608,1924.535449,-8734.430116,153.219100
943.544932,814.226536,-9030.512492,919.314598
943.545256,666.185348,-9400.615463,0.000000
943.545580,518.144159,-9548.656652,-229.828649
943.545904,740.205942,-9326.594869,919.314598
943.546228,814.226536,-8734.430116,229.828649
943.546552,-296.082377,-9252.574275,-383.047749
943.546876,-1184.329507,-8882.471304,383.047749
943.547200,-1332.370696,-8956.491898,76.609550
943.547524,-814.226536,-9474.636058,229.828649
943.547848,-814.226536,-9030.512492,459.657299
943.548172,-962.267725,-8660.409521,229.828649
943.548496,-518.144159,-9104.533087,919.314598
943.548820,0.000000,-9178.553681,689.485948
943.549144,-1110.308913,-9104.533087,-229.828649
943.549468,-1850.514855,-8660.409521,536.266849
943.549792,-962.267725,-8808.450710,0.000000
943.550116,0.000000,-9178.553681,-766.095498
943.550440,-814.226536,-8956.491898,-842.705048
943.550764,-1998.556043,-8586.388927,-1225.752797
943.551088,-2442.679609,-9400.615463,-1991.848295
943.551412,-962.267725,-9474.636058,-1072.533697
943.551736,814.226536,-9104.533087,-919.314598
943.552060,370.102971,-8956.491898,-766.095498
943.552384,-518.144159,-9992.780217,0.000000
943.552708,-1110.308913,-11177.109724,-612.876398
943.553032,-1628.453072,-11547.212695,-766.095498
943.553356,-1628.453072,-10881.027347,306.438199
943.553680,-444.123565,-10807.006753,0.000000
943.554004,-444.123565,-11399.171507,-766.095498
943.554328,-2220.617826,-10214.842000,-459.657299
943.554652,-3256.906145,-11325.150913,-612.876398
943.554976,-3552.988522,-12509.480420,-1072.533697
943.555301,-2590.720797,-11843.295072,-689.485948
943.555625,-1184.329507,-9844.739029,-995.924147
943.555949,-592.164754,-9548.656652,-383.047749
943.556273,444.123565,-11029.068536,0.000000
943.556597,962.267725,-11325.150913,0.000000
943.556921,1258.350101,-10066.800811,76.609550
943.557245,1628.453072,-9104.533087,306.438199
943.557569,2146.597232,-9252.574275,153.219100
943.557893,1924.535449,-9844.739029,1302.362347
943.558217,1702.473667,-9474.636058,689.485948
943.558541,740.205942,-8808.450710,0.000000
943.558865,-296.082377,-8586.388927,0.000000
943.559189,740.205942,-8142.265362,306.438199
943.559513,1184.329507,-8882.471304,0.000000
943.559837,740.205942,-8660.409521,536.266849
943.560161,0.000000,-8660.409521,536.266849
943.560485,-592.164754,-9104.533087,0.000000
943.560809,-222.061783,-8956.491898,842.705048
943.561133,1184.329507,-8512.368333,612.876398
943.561457,1628.453072,-9104.533087,1149.143247
943.561781,1258.350101,-9474.636058,1838.629195
943.562105,1480.411884,-10214.842000,1302.362347
943.562429,1258.350101,-10288.862594,1149.143247
943.562753,1110.308913,-9326.594869,995.924147
943.563077,962.267725,-8882.471304,689.485948
943.563401,148.041188,-9770.718434,-229.828649
943.563725,0.000000,-9400.615463,919.314598
943.564049,888.247130,-9696.697840,842.705048
943.564373,296.082377,-9548.656652,766.095498
943.564697,444.123565,-8956.491898,689.485948
943.565021,1036.288319,-8734.430116,459.657299
943.565345,814.226536,-10066.800811,766.095498
943.565669,814.226536,-9770.718434,1149.143247
943.565993,888.247130,-8808.450710,76.609550
943.566317,296.082377,-8290.306550,383.047749
943.566641,592.164754,-9178.553681,1072.533697
943.566965,1258.350101,-9252.574275,-612.876398
943.567289,370.102971,-9030.512492,-153.219100
943.567613,0.000000,-9326.594869,153.219100
943.567937,-814.226536,-10584.944971,-1225.752797
943.568261,-1332.370696,-10140.821405,-1149.143247
943.568585,-1406.391290,-9030.512492,-612.876398
943.568909,-740.205942,-9474.636058,-1455.581446
943.569233,-444.123565,-10732.986159,-1225.752797
943.569557,-666.185348,-10881.027347,-689.485948
943.569881,-1110.308913,-10881.027347,-919.314598
943.570205,-1628.453072,-10732.986159,-229.828649
943.570530,-888.247130,-10510.924376,-229.828649
943.570854,-518.144159,-10140.821405,-612.876398
943.571178,-1998.556043,-10362.883188,0.000000
943.571502,-2368.659014,-10436.903782,-919.314598
943.571826,-1850.514855,-9992.780217,-689.485948
943.572150,-1258.350101,-9770.718434,76.609550
943.572474,-740.205942,-8808.450710,-459.657299
943.572798,-1258.350101,-8734.430116,-1991.848295
943.573123,-1998.556043,-8808.450710,-1532.190996
943.573447,-2146.597232,-9622.677246,-1762.019645
943.573771,-2146.597232,-10288.862594,-1532.190996
943.574095,-2294.638420,-9326.594869,-306.438199
943.574419,-962.267725,-8808.450710,-995.924147
943.574743,-518.144159,-9326.594869,-612.876398
943.575067,-222.061783,-10140.821405,0.000000
943.575392,-370.102971,-10510.924376,0.000000
943.575716,-518.144159,-10214.842000,689.485948
943.576040,592.164754,-10214.842000,1149.143247
943.576364,2812.782580,-10288.862594,1455.581446
943.576688,3478.967927,-10288.862594,1685.410096
943.577012,2886.803174,-9622.677246,1072.533697
943.577336,1850.514855,-10066.800811,-612.876398
943.577661,148.041188,-10066.800811,-919.314598
943.577985,222.061783,-9474.636058,-842.705048
943.578309,740.205942,-9548.656652,-766.095498
943.578633,0.000000,-10214.842000,-306.438199
943.578957,-666.185348,-9622.677246,-842.705048
943.579281,-1110.308913,-9548.656652,-459.657299
943.579605,-592.164754,-9992.780217,689.485948
943.579929,1480.411884,-9548.656652,1302.362347
943.580254,2738.761985,-9474.636058,1225.752797
943.580578,2294.638420,-9400.615463,2374.896044
943.580902,2442.679609,-9622.677246,2528.115143
943.581226,1998.556043,-9104.533087,1762.019645
943.581550,518.144159,-9104.533087,1915.238745
943.581874,-518.144159,-8808.450710,995.924147
943.582198,0.000000,-9474.636058,0.000000
943.582523,444.123565,-9770.718434,612.876398
943.582847,1184.329507,-10214.842000,306.438199
943.583171,0.000000,-9474.636058,-459.657299
943.583495,-1036.288319,-8290.306550,383.047749
943.583819,0.000000,-8956.491898,153.219100
943.584143,814.226536,-9622.677246,0.000000
943.584467,1332.370696,-8956.491898,1072.533697
943.584791,1110.308913,-9030.512492,1072.533697
943.585116,814.226536,-9622.677246,919.314598
943.585440,1628.453072,-9400.615463,1378.971896
943.585764,1850.514855,-8586.388927,995.924147
943.586088,74.020594,-9030.512492,919.314598
943.586412,-1850.514855,-9178.553681,76.609550
943.586736,-1776.494261,-9696.697840,-995.924147
943.587060,-2146.597232,-9992.780217,-842.705048
943.587385,-1332.370696,-9844.739029,-536.266849
943.587709,-444.123565,-9474.636058,-1532.190996
943.588033,-888.247130,-9030.512492,-1225.752797
943.588357,-962.267725,-9622.677246,-689.485948
943.588681,-740.205942,-10584.944971,-1762.019645
943.589005,-1184.329507,-11177.109724,-612.876398
943.589329,-962.267725,-9844.739029,-536.266849
943.589653,-370.102971,-9400.615463,-842.705048
943.589978,-518.144159,-9918.759623,-689.485948
943.590302,-592.164754,-11103.089130,-536.266849
943.590626,-740.205942,-10807.006753,-1225.752797
943.590950,-962.267725,-9992.780217,-612.876398
943.591274,-296.082377,-10436.903782,-612.876398
943.591598,-962.267725,-10140.821405,-1225.752797
943.591922,-1702.473667,-9696.697840,-842.705048
943.592247,-2146.597232,-9844.739029,-1378.971896
943.592571,-1850.514855,-10807.006753,-1991.848295
943.592895,-888.247130,-10881.027347,-995.924147
943.593219,-222.061783,-9992.780217,76.609550
943.593543,-370.102971,-9696.697840,-459.657299
943.593867,-370.102971,-10214.842000,-229.828649
943.594191,-814.226536,-10214.842000,-459.657299
943.594515,-1480.411884,-10658.965565,-995.924147
943.594840,-1258.350101,-10140.821405,0.000000
943.595164,370.102971,-9474.636058,229.828649
943.595488,1258.350101,-9770.718434,536.266849
943.595812,888.247130,-9992.780217,1072.533697
943.596136,740.205942,-10658.965565,229.828649
943.596460,666.185348,-9770.718434,1072.533697
943.596784,1628.453072,-9696.697840,536.266849
943.597109,1332.370696,-9252.574275,612.876398
943.597433,592.164754,-9178.553681,689.485948
943.597757,222.061783,-8808.450710,612.876398
943.598081,518.144159,-9400.615463,306.438199
943.598405,888.247130,-8956.491898,229.828649
943.598729,1406.391290,-8216.285956,1149.143247
943.599053,2368.659014,-8068.244768,1455.581446
943.599377,2368.659014,-7994.224174,1608.800546
943.599702,2368.659014,-8216.285956,1838.629195
943.600026,1480.411884,-8956.491898,1149.143247
943.600350,1406.391290,-9178.553681,766.095498
943.600674,1480.411884,-8068.244768,459.657299
943.600998,1554.432478,-7550.100608,995.924147
943.601322,518.144159,-8660.409521,842.705048
943.601646,-592.164754,-9474.636058,229.828649
943.601971,-1554.432478,-9474.636058,-536.266849
943.602295,-1850.514855,-9548.656652,-536.266849
943.602619,-1110.308913,-9992.780217,-306.438199
943.602943,0.000000,-10214.842000,229.828649
943.603267,518.144159,-9992.780217,1302.362347
943.603591,1332.370696,-10214.842000,612.876398
943.603915,740.205942,-10362.883188,153.219100
943.604239,814.226536,-10584.944971,229.828649
943.604564,1406.391290,-10140.821405,76.609550
943.604888,740.205942,-10066.800811,0.000000
943.605212,148.041188,-10288.862594,-229.828649
943.605536,-296.082377,-10436.903782,-1302.362347
943.605860,-814.226536,-9992.780217,-1302.362347
943.606184,-962.267725,-9992.780217,-1149.143247
943.606508,-592.164754,-10288.862594,-1838.629195
943.606833,-666.185348,-9622.677246,-1685.410096
943.607157,-1258.350101,-9400.615463,-1149.143247
943.607481,-1406.391290,-10584.944971,-995.924147
943.607805,-1332.370696,-11547.212695,-459.657299
943.608129,-296.082377,-11325.150913,0.000000
943.608453,296.082377,-9844.739029,0.000000
943.608777,0.000000,-9178.553681,0.000000
943.609102,-222.061783,-9474.636058,-459.657299
943.609426,-888.247130,-10066.800811,-459.657299
943.609750,-1406.391290,-10140.821405,-612.876398
943.610074,-1480.411884,-9918.759623,-153.219100
943.610398,-1480.411884,-9178.553681,-1225.752797
943.610722,-2146.597232,-8586.388927,-1149.143247
943.611046,-2368.659014,-9474.636058,-1762.019645
943.611370,-1998.556043,-11029.068536,-1685.410096
943.611695,-1406.391290,-11103.089130,-689.485948
943.612019,-1110.308913,-9548.656652,76.609550
943.612343,-1036.288319,-8438.347739,0.000000
943.612667,-518.144159,-9474.636058,995.924147
943.612991,0.000000,-10214.842000,536.266849
943.613315,-222.061783,-10140.821405,459.657299
943.613639,0.000000,-9400.615463,1532.190996
943.613964,148.041188,-8808.450710,842.705048
943.614288,592.164754,-8438.347739,229.828649
943.614612,0.000000,-7994.224174,1455.581446
943.614936,0.000000,-8586.388927,689.485948
943.615260,-592.164754,-9696.697840,-612.876398
943.615584,-814.226536,-8808.450710,-612.876398
943.615908,296.082377,-7698.141797,0.000000
943.616232,1332.370696,-9030.512492,0.000000
943.616557,1850.514855,-9622.677246,383.047749
943.616881,1110.308913,-9400.615463,536.266849
943.617205,0.000000,-9548.656652,919.314598
943.617529,666.185348,-9474.636058,536.266849
943.617853,1628.453072,-10066.800811,995.924147
943.618177,1850.514855,-10510.924376,1532.190996
943.618501,1702.473667,-9400.615463,1225.752797
943.618826,1628.453072,-9770.718434,995.924147
943.619150,1924.535449,-10436.903782,1685.410096
943.619474,3923.091493,-10732.986159,1455.581446
943.619798,4145.153275,-10436.903782,1532.190996
943.620122,2590.720797,-9992.780217,612.876398
943.620446,1036.288319,-9696.697840,0.000000
943.620770,-370.102971,-10288.862594,-1225.752797
943.621094,-1110.308913,-10436.903782,-536.266849
943.621419,-740.205942,-10881.027347,-612.876398
943.621743,0.000000,-9474.636058,-1378.971896
943.622067,-1110.308913,-8216.285956,-536.266849
943.622391,-962.267725,-9252.574275,-383.047749
943.622715,-370.102971,-10658.965565,-383.047749
943.623039,-518.144159,-10288.862594,612.876398
943.623363,-370.102971,-9104.533087,842.705048
943.623688,222.061783,-8882.471304,76.609550
943.624012,74.020594,-9104.533087,76.609550
943.624336,0.000000,-9326.594869,-383.047749
943.624660,-444.123565,-9696.697840,-306.438199
943.624984,-2220.617826,-10140.821405,-1072.533697
943.625308,-2886.803174,-9104.533087,-2221.676944
943.625632,-2294.638420,-8290.306550,-1838.629195
943.625956,-1110.308913,-9252.574275,-1762.019645
943.626281,-1110.308913,-10881.027347,-1455.581446
943.626605,-1850.514855,-10288.862594,-1532.190996
943.626929,-1628.453072,-9400.615463,-383.047749
943.627253,-518.144159,-9474.636058,-612.876398
943.627577,518.144159,-9992.780217,-306.438199
943.627901,296.082377,-10362.883188,229.828649
943.628225,0.000000,-10732.986159,153.219100
943.628550,-814.226536,-10288.862594,76.609550
943.628874,-296.082377,-9474.636058,995.924147
943.629198,0.000000,-9178.553681,0.000000
943.629522,-1110.308913,-9992.780217,-766.095498
943.629846,-1998.556043,-10140.821405,-842.705048
943.630170,-1332.370696,-10362.883188,-1608.800546
943.630494,-1110.308913,-10436.903782,-536.266849
943.630818,-666.185348,-9918.759623,0.000000
943.631143,0.000000,-9844.739029,-536.266849
943.631467,222.061783,-10288.862594,76.609550
943.631791,444.123565,-10214.842000,306.438199
943.632115,148.041188,-11103.089130,229.828649
943.632439,0.000000,-10807.006753,766.095498
943.632763,1480.411884,-9400.615463,1302.362347
943.633087,2960.823768,-9548.656652,1225.752797
943.633412,2368.659014,-9918.759623,919.314598
943.633736,666.185348,-9696.697840,76.609550
943.634060,-518.144159,-9918.759623,-995.924147
943.634384,-1036.288319,-10214.842000,306.438199
943.634708,444.123565,-9400.615463,0.000000
943.635032,888.247130,-9326.594869,-459.657299
943.635356,-148.041188,-9104.533087,612.876398
943.635681,222.061783,-9474.636058,-229.828649
943.636005,666.185348,-10140.821405,-689.485948
943.636329,1036.288319,-9030.512492,1378.971896
943.636653,1480.411884,-7698.141797,1149.143247
943.636977,2072.576638,-8364.327145,1608.800546
943.637301,1702.473667,-8882.471304,1532.190996
943.637625,740.205942,-8734.430116,919.314598
943.637949,0.000000,-8512.368333,536.266849
943.638274,148.041188,-8142.265362,919.314598
943.638598,222.061783,-7550.100608,76.609550
943.638922,0.000000,-8512.368333,0.000000
943.639246,-1184.329507,-8882.471304,0.000000
943.639570,-1036.288319,-9548.656652,-919.314598
943.639894,-1332.370696,-9400.615463,0.000000
943.640218,74.020594,-9252.574275,76.609550
943.640543,1184.329507,-9844.739029,919.314598
943.640867,1110.308913,-10066.800811,1915.238745
943.641191,222.061783,-9770.718434,1149.143247
943.641515,0.000000,-9770.718434,-229.828649
943.641839,-1110.308913,-9622.677246,536.266849
943.642163,222.061783,-9622.677246,383.047749
943.642487,1184.329507,-10140.821405,-229.828649
943.642811,296.082377,-10140.821405,-383.047749
943.643136,-148.041188,-9770.718434,-306.438199
943.643460,-962.267725,-10436.903782,-1762.019645
943.643784,-888.247130,-11029.068536,-689.485948
943.644108,-148.041188,-10214.842000,-1149.143247
943.644432,-148.041188,-10362.883188,-1302.362347
943.644756,-888.247130,-10362.883188,-1378.971896
943.645080,-962.267725,-10732.986159,-1225.752797
943.645405,-740.205942,-10658.965565,-459.657299
943.645729,-814.226536,-10436.903782,-1225.752797
943.646053,-592.164754,-9844.739029,-459.657299
943.646377,-518.144159,-9696.697840,-1072.533697
943.646701,-148.041188,-10140.821405,-153.219100
943.647025,74.020594,-10510.924376,-229.828649
943.647349,0.000000,-10881.027347,-536.266849
943.647673,-740.205942,-9918.759623,-383.047749
943.647998,-962.267725,-9326.594869,-1455.581446
943.648322,-1110.308913,-10140.821405,-1378.971896
943.648646,-1036.288319,-11103.089130,-536.266849
943.648970,-1850.514855,-10658.965565,-1225.752797
943.649294,-1850.514855,-9622.677246,-1378.971896
943.649618,-1258.350101,-9104.533087,-766.095498
943.649942,-666.185348,-8956.491898,-612.876398
943.650267,-296.082377,-9252.574275,612.876398
943.650591,-518.144159,-9178.553681,459.657299
943.650915,-1110.308913,-9326.594869,459.657299
943.651239,-888.247130,-8734.430116,842.705048
943.651563,518.144159,-8512.368333,1378.971896
943.651887,1702.473667,-7994.224174,612.876398
943.652211,1332.370696,-8142.265362,919.314598
943.652535,0.000000,-8660.409521,153.219100
943.652860,-222.061783,-8956.491898,-1072.533697
943.653184,-592.164754,-8068.244768,0.000000
943.653508,0.000000,-7772.162391,0.000000
943.653832,814.226536,-8142.265362,-919.314598
943.654156,740.205942,-9030.512492,0.000000
943.654480,740.205942,-10066.800811,76.609550
943.654804,592.164754,-10807.006753,0.000000
943.655129,1628.453072,-10066.800811,1072.533697
943.655453,3256.906145,-10140.821405,1991.848295
943.655777,3552.988522,-10584.944971,1838.629195
943.656101,2368.659014,-10807.006753,1915.238745
943.656425,592.164754,-9992.780217,1455.581446
943.656749,0.000000,-10807.006753,536.266849
943.657073,296.082377,-11325.150913,612.876398
943.657397,962.267725,-10658.965565,0.000000
943.657722,814.226536,-9622.677246,0.000000
943.658046,-592.164754,-10214.842000,0.000000
943.658370,-666.185348,-9992.780217,-1225.752797
943.658694,-518.144159,-9622.677246,-1378.971896
943.659018,-592.164754,-9400.615463,383.047749
943.659342,518.144159,-9696.697840,-612.876398
943.659666,1258.350101,-9178.553681,-153.219100
943.659991,1036.288319,-8956.491898,766.095498
943.660315,1184.329507,-10066.800811,612.876398
943.660639,1406.391290,-10881.027347,995.924147
943.660963,1554.432478,-9918.759623,1225.752797
943.661287,1184.329507,-8808.450710,612.876398
943.661611,518.144159,-8660.409521,0.000000
943.661935,-666.185348,-9770.718434,-612.876398
943.662259,-1924.535449,-9992.780217,-1532.190996
943.662584,-2664.741391,-9326.594869,-1532.190996
943.662908,-2368.659014,-9030.512492,-1072.533697
943.663232,-1554.432478,-9474.636058,-1532.190996
943.663556,-2146.597232,-8956.491898,-1455.581446
943.663880,-1850.514855,-9178.553681,-995.924147
943.664204,-2146.597232,-9918.759623,-1532.190996
943.664528,-2294.638420,-9918.759623,-1225.752797
943.664853,-2664.741391,-9400.615463,-995.924147
943.665177,-2442.679609,-9178.553681,-842.705048
943.665501,-2442.679609,-9326.594869,-459.657299
943.665825,-1998.556043,-9400.615463,-766.095498
943.666149,-2516.700203,-10066.800811,-1225.752797
943.666473,-2146.597232,-9770.718434,-383.047749
943.666797,-1110.308913,-9474.636058,-612.876398
943.667122,-592.164754,-8882.471304,-1378.971896
943.667446,-444.123565,-9030.512492,-1072.533697
943.667770,222.061783,-10510.924376,-1225.752797
943.668094,1406.391290,-11547.212695,-1225.752797
943.668418,2738.761985,-11695.253884,-1455.581446
943.668742,3404.947333,-11547.212695,-766.095498
943.669066,2294.638420,-10881.027347,0.000000
943.669390,2368.659014,-12213.398043,766.095498
943.669715,2072.576638,-13027.624579,76.609550
943.670039,888.247130,-11621.233289,-536.266849
943.670363,0.000000,-9474.636058,459.657299
943.670687,444.123565,-9622.677246,-153.219100
943.671011,0.000000,-9918.759623,-689.485948
943.671335,-518.144159,-9474.636058,459.657299
943.671659,-1110.308913,-8882.471304,-459.657299
943.671984,-1554.432478,-9622.677246,-689.485948
943.672308,-1258.350101,-8882.471304,-1378.971896
943.672622,-1184.329507,-7772.162391,-1608.800546
943.672947,-814.226536,-8068.244768,0.000000
943.673271,444.123565,-9918.759623,-306.438199
943.673595,1554.432478,-10214.842000,306.438199
943.673919,2220.617826,-9622.677246,1685.410096
943.674243,3552.988522,-8808.450710,2528.115143
943.674567,4737.318029,-8956.491898,1685.410096
943.674892,4589.276840,-8956.491898,2068.457845
943.675216,3182.885551,-8808.450710,3064.381992
943.675540,1850.514855,-9622.677246,1838.629195
943.675864,0.000000,-9030.512492,1838.629195
943.676188,-296.082377,-7476.080014,1225.752797
943.676512,-1702.473667,-7031.956449,-459.657299
943.676837,-3478.967927,-7476.080014,-383.047749
943.677161,-4071.132681,-8512.368333,-842.705048
943.677485,-2960.823768,-8586.388927,-842.705048
943.677809,-1850.514855,-8142.265362,0.000000
943.678133,-1036.288319,-8586.388927,-383.047749
943.678457,-296.082377,-8956.491898,383.047749
943.678781,666.185348,-9844.739029,1378.971896
943.679106,1702.473667,-10881.027347,1608.800546
943.679430,1776.494261,-11473.192101,1608.800546
943.679754,1702.473667,-10955.047942,1455.581446
943.680078,2146.597232,-10732.986159,1378.971896
943.680402,1850.514855,-10807.006753,1149.143247
943.680726,148.041188,-11325.150913,229.828649
943.681051,-2072.576638,-10214.842000,-1149.143247
943.681375,-3182.885551,-9918.759623,-2068.457845
943.681699,-2442.679609,-9770.718434,-1991.848295
943.682023,-1184.329507,-9918.759623,-1915.238745
943.682347,-370.102971,-9918.759623,-1302.362347
943.682671,-888.247130,-10066.800811,-919.314598
943.682996,-1184.329507,-9548.656652,-1838.629195
943.683320,-518.144159,-10066.800811,-1302.362347
943.683644,666.185348,-9844.739029,-383.047749
943.683968,888.247130,-10288.862594,-842.705048
943.684292,370.102971,-10881.027347,76.609550
943.684616,222.061783,-10955.047942,76.609550
943.684941,0.000000,-11621.233289,-153.219100
943.685265,-740.205942,-10658.965565,-383.047749
943.685589,-148.041188,-10140.821405,-536.266849
943.685913,-1036.288319,-9622.677246,-766.095498
943.686237,-1332.370696,-9770.718434,-1072.533697
943.686561,-1554.432478,-9770.718434,-689.485948
943.686885,-1406.391290,-9770.718434,-383.047749
943.687210,-814.226536,-9918.759623,-612.876398
943.687534,0.000000,-8734.430116,-766.095498
943.687858,370.102971,-8512.368333,-229.828649
943.688182,370.102971,-9548.656652,306.438199
943.688506,0.000000,-9770.718434,76.609550
943.688830,-888.247130,-10066.800811,536.266849
943.689155,-740.205942,-9030.512492,383.047749
943.689479,370.102971,-8882.471304,612.876398
943.689803,1406.391290,-8734.430116,1838.629195
943.690127,1554.432478,-8290.306550,1532.190996
943.690451,1110.308913,-8734.430116,1378.971896
943.690775,222.061783,-7328.038826,153.219100
943.691100,148.041188,-7402.059420,0.000000
943.691424,888.247130,-8068.244768,0.000000
943.691748,740.205942,-8882.471304,0.000000
943.692072,-296.082377,-9178.553681,459.657299
943.692396,-1628.453072,-9326.594869,-995.924147
943.692720,-1332.370696,-10066.800811,-536.266849
943.693044,-444.123565,-9918.759623,459.657299
943.693369,1924.535449,-10584.944971,536.266849
943.693693,2072.576638,-10510.924376,842.705048
943.694017,1628.453072,-10214.842000,995.924147
943.694341,1924.535449,-10658.965565,842.705048
943.694665,2368.659014,-11103.089130,1302.362347
943.694989,2590.720797,-10732.986159,1149.143247
943.695314,1702.473667,-10436.903782,153.219100
943.695638,-296.082377,-9474.636058,306.438199
943.695962,-740.205942,-10732.986159,-459.657299
943.696286,-814.226536,-11103.089130,-995.924147
943.696610,-370.102971,-10362.883188,0.000000
943.696934,-74.020594,-10140.821405,-383.047749
943.697259,-740.205942,-10288.862594,-1762.019645
943.697583,-1258.350101,-9622.677246,-153.219100
943.697907,-1036.288319,-9474.636058,-229.828649
943.698231,-814.226536,-10288.862594,-459.657299
943.698555,74.020594,-9622.677246,-306.438199
943.698879,888.247130,-8660.409521,-306.438199
943.699203,888.247130,-8956.491898,-383.047749
943.699528,518.144159,-9992.780217,-766.095498
943.699852,-296.082377,-9992.780217,-842.705048
943.700176,-148.041188,-9252.574275,-1225.752797
943.700500,-444.123565,-9326.594869,-1072.533697
943.700824,-888.247130,-9770.718434,-995.924147
943.701148,-222.061783,-9400.615463,-306.438199
943.701473,-296.082377,-10140.821405,-229.828649
943.701797,-1332.370696,-10807.006753,-689.485948
943.702121,-1480.411884,-10584.944971,-153.219100
943.702445,-296.082377,-9474.636058,766.095498
943.702769,518.144159,-8956.491898,459.657299
943.703093,-370.102971,-9252.574275,0.000000
943.703418,-888.247130,-9178.553681,-766.095498
943.703742,-1850.514855,-9326.594869,-1149.143247
943.704066,-1554.432478,-8956.491898,-1225.752797
943.704390,-1258.350101,-9178.553681,-995.924147
943.704714,-1184.329507,-9030.512492,-1685.410096
943.705038,-1554.432478,-8660.409521,-1072.533697
943.705362,-1924.535449,-9474.636058,-536.266849
943.705687,-1480.411884,-10807.006753,-842.705048
943.706011,-592.164754,-9918.759623,-383.047749
943.706335,592.164754,-9622.677246,612.876398
943.706659,1110.308913,-10732.986159,995.924147
943.706983,1554.432478,-10732.986159,766.095498
943.707307,814.226536,-10140.821405,842.705048
943.707632,-222.061783,-10140.821405,153.219100
943.707956,-370.102971,-10362.883188,-383.047749
943.708280,-444.123565,-9770.718434,-536.266849
943.708604,-222.061783,-10584.944971,0.000000
943.708928,-296.082377,-10362.883188,-612.876398
943.709252,-222.061783,-9918.759623,-536.266849
943.709577,-222.061783,-9918.759623,-536.266849
943.709901,296.082377,-9548.656652,-612.876398
943.710225,888.247130,-9326.594869,-536.266849
943.710549,1924.535449,-9622.677246,-306.438199
943.710873,2812.782580,-10066.800811,919.314598
943.711197,3256.906145,-10436.903782,306.438199
943.711521,2664.741391,-9992.780217,766.095498
943.711846,2072.576638,-9696.697840,919.314598
943.712170,2220.617826,-9918.759623,459.657299
943.712494,2442.679609,-10288.862594,766.095498
943.712818,1776.494261,-9474.636058,536.266849
943.713142,1184.329507,-9030.512492,459.657299
943.713466,370.102971,-8808.450710,76.609550
943.713791,740.205942,-8956.491898,612.876398
943.714115,222.061783,-8216.285956,-459.657299
943.714439,-1480.411884,-8586.388927,-766.095498
943.714763,-2146.597232,-9030.512492,-766.095498
943.715087,-1184.329507,-9030.512492,-153.219100
943.715411,-444.123565,-8438.347739,306.438199
943.715736,-370.102971,-8586.388927,459.657299
943.716060,0.000000,-9030.512492,76.609550
943.716384,74.020594,-9400.615463,919.314598
943.716708,740.205942,-9918.759623,766.095498
943.717032,592.164754,-9918.759623,766.095498
943.717356,148.041188,-10140.821405,995.924147
943.717681,370.102971,-9252.574275,76.609550
943.718005,888.247130,-9326.594869,919.314598
943.718329,-148.041188,-9474.636058,229.828649
943.718653,-1554.432478,-9696.697840,-1072.533697
943.718977,-3108.864956,-9178.553681,-2068.457845
943.719301,-2664.741391,-8956.491898,-1608.800546
943.719625,-1332.370696,-9844.739029,-1378.971896
943.719950,-1036.288319,-10288.862594,-1225.752797
943.720274,-1554.432478,-9844.739029,-919.314598
943.720598,-1480.411884,-10584.944971,-766.095498
943.720922,-962.267725,-11251.130318,-459.657299
943.721246,0.000000,-11325.150913,229.828649
943.721570,518.144159,-10881.027347,459.657299
943.721895,814.226536,-10510.924376,459.657299
943.722219,0.000000,-10140.821405,1225.752797
943.722543,-444.123565,-11695.253884,536.266849
943.722867,-1480.411884,-11843.295072,459.657299
943.723191,-1850.514855,-10436.903782,383.047749
943.723515,-2072.576638,-9400.615463,-536.266849
943.723840,-2590.720797,-9474.636058,-995.924147
943.724164,-2590.720797,-9474.636058,-1685.410096
943.724488,-2442.679609,-9474.636058,-1378.971896
943.724812,-1628.453072,-9474.636058,-995.924147
943.725136,-296.082377,-8512.368333,-459.657299
943.725460,814.226536,-8956.491898,383.047749
943.725784,1702.473667,-9696.697840,1455.581446
943.726109,2664.741391,-9622.677246,1225.752797
943.726433,2516.700203,-9844.739029,1762.019645
943.726757,2220.617826,-9770.718434,1072.533697
943.727081,1480.411884,-9104.533087,612.876398
943.727405,1036.288319,-9104.533087,459.657299
943.727729,814.226536,-8956.491898,229.828649
943.728054,0.000000,-9474.636058,-306.438199
943.728378,-1554.432478,-8956.491898,-306.438199
943.728702,-2072.576638,-8364.327145,-1302.362347
943.729026,-1480.411884,-8734.430116,-1225.752797
943.729350,-296.082377,-10066.800811,-459.657299
943.729674,1184.329507,-10362.883188,0.000000
943.729999,1258.350101,-9992.780217,0.000000
943.730323,518.144159,-9696.697840,383.047749
943.730647,1184.329507,-9474.636058,1685.410096
943.730971,3108.864956,-10066.800811,1378.971896
943.731295,3182.885551,-10436.903782,1915.238745
943.731619,2146.597232,-9844.739029,1762.019645
943.731943,1850.514855,-9326.594869,1072.533697
943.732268,1628.453072,-9400.615463,536.266849
943.732592,666.185348,-8660.409521,153.219100
943.732916,-444.123565,-7920.203579,-842.705048
943.733240,-1258.350101,-8512.368333,-1302.362347
943.733564,-1110.308913,-9030.512492,-1225.752797
943.733888,-296.082377,-8808.450710,-1225.752797
943.734213,-296.082377,-8512.368333,0.000000
943.734537,0.000000,-8808.450710,0.000000
943.734861,0.000000,-9474.636058,-306.438199
943.735185,370.102971,-9548.656652,306.438199
943.735509,518.144159,-10362.883188,76.609550
943.735833,-296.082377,-10584.944971,0.000000
943.736158,0.000000,-9844.739029,766.095498
943.736482,814.226536,-9992.780217,536.266849
943.736806,148.041188,-10288.862594,-689.485948
943.737130,-740.205942,-10658.965565,-229.828649
943.737454,-1702.473667,-11029.068536,-689.485948
943.737778,-2294.638420,-10955.047942,-1532.190996
943.738102,-1998.556043,-10658.965565,-1225.752797
943.738427,-1998.556043,-10140.821405,-1532.190996
943.738751,-1776.494261,-10436.903782,-2145.067394
943.739075,-1406.391290,-10658.965565,-1072.533697
943.739399,-1628.453072,-10584.944971,-1225.752797
943.739723,-1406.391290,-10658.965565,-842.705048
943.740047,-518.144159,-10584.944971,-536.266849
943.740372,444.123565,-9474.636058,0.000000
943.740696,518.144159,-9770.718434,-229.828649
943.741020,0.000000,-10362.883188,-1072.533697
943.741344,296.082377,-10140.821405,-459.657299
943.741668,666.185348,-9918.759623,0.000000
943.741992,888.247130,-10214.842000,306.438199
943.742317,518.144159,-9400.615463,-842.705048
943.742641,-740.205942,-9474.636058,-995.924147
943.742965,-1628.453072,-10214.842000,-536.266849
943.743289,-1184.329507,-11399.171507,-842.705048
943.743613,-740.205942,-10807.006753,383.047749
943.743937,148.041188,-9548.656652,995.924147
943.744261,296.082377,-9178.553681,0.000000
943.744586,0.000000,-9178.553681,306.438199
943.744910,-592.164754,-10140.821405,766.095498
943.745234,-740.205942,-10362.883188,153.219100
943.745558,0.000000,-9326.594869,689.485948
943.745882,296.082377,-7994.224174,1302.362347
943.746206,148.041188,-8142.265362,0.000000
943.746531,-296.082377,-8660.409521,-306.438199
943.746855,-222.061783,-9252.574275,842.705048
943.747179,370.102971,-9400.615463,-536.266849
943.747503,74.020594,-8660.409521,-536.266849
943.747827,296.082377,-7624.121203,-383.047749
943.748151,888.247130,-8438.347739,153.219100
943.748476,1998.556043,-9252.574275,383.047749
943.748800,1998.556043,-9992.780217,536.266849
943.749124,1110.308913,-9474.636058,1225.752797
943.749448,1332.370696,-9178.553681,1149.143247
943.749772,2812.782580,-9252.574275,1838.629195
943.750096,3256.906145,-9474.636058,1378.971896
943.750421,2220.617826,-9400.615463,1608.800546
943.750745,370.102971,-9844.739029,383.047749
943.751069,-1406.391290,-9844.739029,-612.876398
943.751393,-1184.329507,-9252.574275,153.219100
943.751717,-888.247130,-9474.636058,76.609550
943.752041,-1628.453072,-9548.656652,-1378.971896
943.752365,-2072.576638,-9770.718434,-536.266849
943.752690,-1332.370696,-10066.800811,-612.876398
943.753014,296.082377,-10807.006753,0.000000
943.753338,666.185348,-10214.842000,459.657299
943.753662,888.247130,-9696.697840,689.485948
943.753986,1332.370696,-10584.944971,919.314598
943.754310,1924.535449,-10732.986159,1072.533697
943.754635,1850.514855,-11177.109724,1225.752797
943.754959,518.144159,-10140.821405,995.924147
943.755283,148.041188,-9252.574275,-229.828649
943.755607,148.041188,-8956.491898,-919.314598
943.755931,-518.144159,-9548.656652,-229.828649
943.756255,-592.164754,-10881.027347,-459.657299
943.756580,-2294.638420,-9622.677246,-459.657299
943.756904,-3034.844362,-8512.368333,-536.266849
943.757228,-2146.597232,-8512.368333,-1072.533697
943.757552,-740.205942,-9326.594869,-689.485948
943.757876,0.000000,-10214.842000,0.000000
943.758200,0.000000,-10066.800811,0.000000
943.758524,-74.020594,-9474.636058,-459.657299
943.758849,-740.205942,-8956.491898,-383.047749
943.759173,74.020594,-9030.512492,229.828649
943.759497,518.144159,-9770.718434,-383.047749
943.759821,-592.164754,-9992.780217,-612.876398
943.760145,-1258.350101,-10066.800811,-842.705048
943.760469,-1332.370696,-10436.903782,-995.924147
943.760794,-518.144159,-9696.697840,-229.828649
943.761118,0.000000,-8808.450710,-766.095498
943.761442,-740.205942,-8956.491898,-766.095498
943.761766,-666.185348,-9770.718434,-536.266849
943.762090,-740.205942,-10362.883188,-306.438199
943.762414,-888.247130,-10658.965565,-229.828649
943.762739,-370.102971,-9474.636058,0.000000
943.763063,-148.041188,-8734.430116,-612.876398
943.763387,-444.123565,-9326.594869,-536.266849
943.763711,-370.102971,-10436.903782,76.609550
943.764035,-666.185348,-10584.944971,0.000000
943.764359,-1036.288319,-10436.903782,0.000000
943.764683,222.061783,-9400.615463,536.266849
943.765008,1406.391290,-9030.512492,0.000000
943.765332,1554.432478,-9696.697840,-153.219100
943.765656,1258.350101,-10066.800811,0.000000
943.765980,1480.411884,-10214.842000,-919.314598
943.766304,666.185348,-9474.636058,0.000000
943.766628,296.082377,-9548.656652,153.219100
943.766953,740.205942,-8956.491898,-536.266849
943.767277,592.164754,-9622.677246,-459.657299
943.767601,444.123565,-10436.903782,-842.705048
943.767925,592.164754,-10214.842000,0.000000
943.768249,814.226536,-10140.821405,536.266849
943.768573,1776.494261,-9844.739029,1149.143247
943.768898,1110.308913,-8882.471304,536.266849
943.769222,1258.350101,-9030.512492,612.876398
943.769546,1110.308913,-9992.780217,612.876398
943.769870,296.082377,-10955.047942,229.828649
943.770194,296.082377,-10214.842000,1378.971896
943.770518,814.226536,-8808.450710,919.314598
943.770842,148.041188,-9030.512492,-153.219100
943.771167,-1110.308913,-8882.471304,0.000000
943.771491,-1332.370696,-8734.430116,-1455.581446
943.771815,-1480.411884,-8734.430116,-1072.533697
943.772139,-962.267725,-8512.368333,689.485948
943.772463,666.185348,-8068.244768,995.924147
943.772787,1924.535449,-7994.224174,1915.238745
943.773112,2368.659014,-9030.512492,2451.505594
943.773436,1258.350101,-9474.636058,1838.629195
943.773760,0.000000,-8882.471304,995.924147
943.774084,-518.144159,-9178.553681,1149.143247
943.774408,-1184.329507,-9400.615463,842.705048
943.774732,-1850.514855,-9252.574275,76.609550
943.775056,-2368.659014,-9104.533087,-383.047749
943.775380,-2812.782580,-9474.636058,-1991.848295
943.775704,-2516.700203,-9474.636058,-1685.410096
943.776028,-1406.391290,-9474.636058,-612.876398
943.776352,74.020594,-9770.718434,0.000000
943.776676,592.164754,-10066.800811,536.266849
943.777000,740.205942,-9696.697840,76.609550
943.777324,518.144159,-10732.986159,-995.924147
943.777648,0.000000,-11325.150913,-1455.581446
943.777972,74.020594,-11103.089130,-995.924147
943.778297,370.102971,-10732.986159,0.000000
943.778621,-222.061783,-11473.192101,229.828649
943.778945,-1332.370696,-11325.150913,-689.485948
943.779269,-2368.659014,-10807.006753,-1149.143247
943.779593,-2368.659014,-10955.047942,-1302.362347
943.779917,-1776.494261,-10584.944971,-1608.800546
943.780241,-1554.432478,-9844.739029,-1302.362347
943.780565,-1554.432478,-10140.821405,-1302.362347
943.780889,-1332.370696,-10214.842000,-1302.362347
943.781213,-740.205942,-10807.006753,-306.438199
943.781537,74.020594,-11029.068536,-536.266849
943.781861,1258.350101,-10955.047942,-459.657299
943.782185,1036.288319,-10807.006753,-689.485948
943.782509,518.144159,-10807.006753,229.828649
943.782833,666.185348,-10658.965565,229.828649
943.783158,1184.329507,-10807.006753,153.219100
943.783482,1110.308913,-10436.903782,842.705048
943.783806,1628.453072,-9770.718434,-842.705048
943.784130,1332.370696,-8882.471304,-306.438199
943.784454,740.205942,-8290.306550,0.000000
943.784778,888.247130,-8216.285956,0.000000
943.785102,814.226536,-8586.388927,0.000000
943.785426,1702.473667,-7846.182985,-689.485948
943.785750,1406.391290,-6291.750507,-1072.533697
943.786074,1480.411884,-6291.750507,-919.314598
943.786398,1628.453072,-7328.038826,-689.485948
943.786722,1702.473667,-8882.471304,-1072.533697
943.787046,1258.350101,-8586.388927,-689.485948
943.787370,2294.638420,-7698.141797,612.876398
943.787694,2960.823768,-8660.409521,153.219100
943.788018,3923.091493,-9770.718434,536.266849
943.788343,3404.947333,-8364.327145,766.095498
943.788667,2294.638420,-8438.347739,0.000000
943.788991,2220.617826,-8512.368333,-766.095498
943.789315,2516.700203,-8216.285956,-919.314598
943.789639,1850.514855,-8808.450710,-1532.190996
943.789963,962.267725,-9030.512492,-1608.800546
943.790287,-740.205942,-9696.697840,-1762.019645
943.790611,-2442.679609,-10140.821405,-2757.943793
943.790935,-2738.761985,-10140.821405,-2298.286494
943.791259,-1036.288319,-9770.718434,-1532.190996
943.791583,1036.288319,-10510.924376,-1149.143247
943.791907,2664.741391,-10955.047942,-1302.362347
943.792231,3923.091493,-10362.883188,76.609550
943.792555,3997.112087,-11251.130318,-383.047749
943.792879,4219.173869,-11547.212695,-1225.752797
943.793204,4145.153275,-9548.656652,-1915.238745
943.793528,3701.029710,-9474.636058,-2221.676944
943.793852,2294.638420,-11399.171507,-3447.429741
943.794176,1258.350101,-11843.295072,-3677.258390
943.794500,-370.102971,-11621.233289,-3600.648841
943.794824,-1480.411884,-11843.295072,-4903.011187
943.795148,-1258.350101,-10584.944971,-3907.087040
943.795472,-296.082377,-10288.862594,-2528.115143
943.795796,1480.411884,-11843.295072,-1838.629195
943.796120,2516.700203,-11103.089130,-2604.724693
943.796444,2886.803174,-9622.677246,-1532.190996
943.796768,2442.679609,-10732.986159,-1378.971896
943.797092,3478.967927,-10510.924376,-2451.505594
943.797416,3256.906145,-9030.512492,-1838.629195
943.797740,2664.741391,-9252.574275,-1149.143247
943.798064,2368.659014,-10362.883188,-3217.601092
943.798389,2072.576638,-10140.821405,-3370.820191
943.798713,222.061783,-10214.842000,-3140.991542
943.799037,296.082377,-10066.800811,-3524.039291
943.799361,592.164754,-9178.553681,-4443.353888
943.799685,0.000000,-8956.491898,-2987.772442
943.800009,666.185348,-8068.244768,-2528.115143
943.800333,2368.659014,-7994.224174,-2681.334243
943.800657,3256.906145,-7846.182985,-1762.019645
943.800981,2812.782580,-8142.265362,-1225.752797
943.801305,3923.091493,-7624.121203,-1225.752797
943.801629,3552.988522,-8364.327145,-842.705048
943.801953,3182.885551,-9474.636058,-229.828649
943.802277,3034.844362,-9104.533087,-766.095498
943.802601,2294.638420,-8808.450710,-1685.410096
943.802925,1036.288319,-9770.718434,-1455.581446
943.803250,962.267725,-9844.739029,-2068.457845
943.803574,666.185348,-8808.450710,-3064.381992
943.803898,-518.144159,-8660.409521,-2987.772442
943.804222,-666.185348,-9400.615463,-2987.772442
943.804546,74.020594,-9178.553681,-3294.210641
943.804870,1036.288319,-8438.347739,-3447.429741
943.805194,1480.411884,-7846.182985,-2451.505594
943.805518,3108.864956,-9474.636058,-1685.410096
943.805842,5625.565159,-11399.171507,-1225.752797
943.806166,6143.709319,-10214.842000,-459.657299
943.806490,4959.379811,-10066.800811,0.000000
943.806814,4367.215058,-11103.089130,-229.828649
943.807138,4367.215058,-11843.295072,-766.095498
943.807462,3256.906145,-10584.944971,-1302.362347
943.807786,2442.679609,-9992.780217,-1838.629195
943.808110,1998.556043,-10214.842000,-2145.067394
943.808435,2590.720797,-9918.759623,-2145.067394
943.808759,2886.803174,-9252.574275,-2298.286494
943.809083,1406.391290,-8808.450710,-2911.162892
943.809407,-518.144159,-9030.512492,-3294.210641
943.809731,-222.061783,-9474.636058,-3294.210641
943.810055,888.247130,-9326.594869,-2451.505594
943.810379,2368.659014,-9474.636058,-1838.629195
943.810703,3034.844362,-10584.944971,-1225.752797
943.811027,3108.864956,-11473.192101,-612.876398
943.811351,3849.070898,-10955.047942,-306.438199
943.811675,4515.256246,-10140.821405,229.828649
943.811999,3849.070898,-10066.800811,-1225.752797
943.812323,2368.659014,-10881.027347,-1302.362347
943.812647,370.102971,-9844.739029,-2221.676944
943.812971,74.020594,-9400.615463,-2528.115143
943.813296,222.061783,-9252.574275,-2911.162892
943.813620,666.185348,-9030.512492,-3217.601092
943.813944,1184.329507,-8438.347739,-3294.210641
943.814268,1258.350101,-7920.203579,-2528.115143
943.814592,1480.411884,-8290.306550,-2451.505594
943.814916,1554.432478,-8586.388927,-2451.505594
943.815240,2220.617826,-8882.471304,-1532.190996
943.815564,2812.782580,-9326.594869,-1378.971896
943.815888,4071.132681,-9400.615463,-995.924147
943.816212,3404.947333,-9474.636058,-1378.971896
943.816536,1110.308913,-9770.718434,-1685.410096
943.816860,-370.102971,-10214.842000,-1991.848295
943.817184,592.164754,-9178.553681,-2068.457845
943.817508,1406.391290,-8808.450710,-2298.286494
943.817832,1924.535449,-9770.718434,-2145.067394
943.818156,370.102971,-10584.944971,-3140.991542
943.818481,-814.226536,-10510.924376,-3447.429741
943.818805,-962.267725,-9474.636058,-2987.772442
943.819129,1036.288319,-8660.409521,-2298.286494
943.819453,3849.070898,-9696.697840,-1455.581446
943.819777,4737.318029,-9474.636058,-1762.019645
943.820101,4367.215058,-10214.842000,-1608.800546
943.820425,3701.029710,-11177.109724,-2068.457845
943.820749,3108.864956,-11473.192101,-2068.457845
943.821073,1998.556043,-10955.047942,-1838.629195
943.821397,740.205942,-9918.759623,-2145.067394
943.821721,296.082377,-9474.636058,-2451.505594
943.822045,1036.288319,-9622.677246,-2451.505594
943.822369,2738.761985,-10288.862594,-1532.190996
943.822693,3404.947333,-10362.883188,-1915.238745
943.823017,3034.844362,-9474.636058,-1915.238745
943.823342,1702.473667,-8512.368333,-2221.676944
943.823666,222.061783,-8142.265362,-2604.724693
943.823990,-370.102971,-8364.327145,-2604.724693
943.824314,296.082377,-9030.512492,-2528.115143
943.824638,1702.473667,-9474.636058,-3140.991542
943.824962,4071.132681,-9474.636058,-2068.457845
943.825286,5625.565159,-9400.615463,-1762.019645
943.825610,5995.668130,-9474.636058,-2068.457845
943.825934,4811.338623,-9622.677246,-2528.115143
943.826258,2886.803174,-9770.718434,-2681.334243
943.826582,1554.432478,-9844.739029,-2604.724693
943.826906,1406.391290,-9844.739029,-1991.848295
943.827230,1924.535449,-9918.759623,-1225.752797
943.827554,2442.679609,-9992.780217,-766.095498
943.827878,2960.823768,-9918.759623,-919.314598
943.828203,3478.967927,-9622.677246,-612.876398
943.828527,3256.906145,-9252.574275,-306.438199
943.828851,2886.803174,-9104.533087,-459.657299
943.829175,1998.556043,-8734.430116,-1225.752797
943.829499,1184.329507,-9326.594869,-2451.505594
943.829823,592.164754,-9474.636058,-3600.648841
943.830147,-370.102971,-9178.553681,-4596.572988
943.830471,-962.267725,-9474.636058,-5056.230287
943.830795,-814.226536,-9400.615463,-4673.182538
943.831119,222.061783,-9400.615463,-3983.696590
943.831443,1702.473667,-9548.656652,-2757.943793
943.831767,2960.823768,-10732.986159,-1915.238745
943.832091,3849.070898,-10881.027347,-919.314598
943.832415,3775.050304,-10584.944971,0.000000
943.832739,3923.091493,-10807.006753,459.657299
943.833063,3849.070898,-11103.089130,766.095498
943.833388,3108.864956,-10955.047942,995.924147
943.833712,2220.617826,-10955.047942,153.219100
943.834036,962.267725,-9918.759623,-1532.190996
943.834360,-814.226536,-9252.574275,-2834.553343
943.834684,-2368.659014,-9326.594869,-4443.353888
943.835008,-3330.926739,-9104.533087,-6128.763984
943.835332,-3849.070898,-8438.347739,-6741.640382
943.835656,-2664.741391,-8290.306550,-4979.620737
943.835980,-222.061783,-7994.224174,-4136.915689
943.836304,2886.803174,-8142.265362,-2374.896044
943.836628,5329.482782,-8586.388927,-919.314598
943.836952,6883.915261,-9474.636058,459.657299
943.837276,7550.100608,-11251.130318,1608.800546
943.837600,7402.059420,-12139.377449,1455.581446
943.837924,6735.874072,-11843.295072,1915.238745
943.838249,5033.400406,-10955.047942,1225.752797
943.838573,3330.926739,-10807.006753,-919.314598
943.838897,592.164754,-10658.965565,-2604.724693
943.839221,-2072.576638,-9992.780217,-3753.867940
943.839545,-3627.009116,-8956.491898,-5209.449386
943.839869,-3478.967927,-7920.203579,-4979.620737
943.840193,-4219.173869,-6439.791695,-3753.867940
943.840517,-2664.741391,-7105.977043,-2451.505594
943.840841,-518.144159,-8660.409521,-995.924147
943.841165,1850.514855,-9548.656652,842.705048
943.841489,4515.256246,-10436.903782,1915.238745
943.841813,4811.338623,-10436.903782,2221.676944
943.842137,4145.153275,-9844.739029,0.000000
943.842461,3256.906145,-9104.533087,0.000000
943.842785,2368.659014,-9844.739029,-612.876398
943.843109,1628.453072,-11843.295072,-2221.676944
943.843434,1184.329507,-11843.295072,-2451.505594
943.843758,1332.370696,-11251.130318,-2298.286494
943.844082,1776.494261,-10658.965565,-1838.629195
943.844406,1702.473667,-9770.718434,-2374.896044
943.844730,1332.370696,-8364.327145,-2528.115143
943.845054,1184.329507,-7031.956449,-2221.676944
943.845378,2516.700203,-7254.018232,-1455.581446
943.845702,4145.153275,-7846.182985,-612.876398
943.846026,5773.606348,-8364.327145,689.485948
943.846350,6809.894666,-8512.368333,1072.533697
943.846674,6217.729913,-9326.594869,383.047749
943.846998,4145.153275,-9548.656652,-1072.533697
943.847322,1554.432478,-9400.615463,-2451.505594
943.847646,814.226536,-9474.636058,-3294.210641
943.847970,1554.432478,-10584.944971,-3370.820191
943.848295,2368.659014,-10436.903782,-3524.039291
943.848619,2664.741391,-9918.759623,-3600.648841
943.848943,2886.803174,-9326.594869,-3064.381992
943.849267,2738.761985,-9030.512492,-3524.039291
943.849591,3182.885551,-8808.450710,-3447.429741
943.849915,2738.761985,-8142.265362,-2451.505594
943.850239,2664.741391,-8438.347739,-2221.676944
943.850563,2738.761985,-8956.491898,-1991.848295
943.850887,3108.864956,-9696.697840,-1838.629195
943.851211,3034.844362,-10362.883188,-2145.067394
943.851535,3034.844362,-10436.903782,-2451.505594
943.851859,2368.659014,-10214.842000,-3294.210641
943.852183,1406.391290,-9992.780217,-4366.744339
943.852507,0.000000,-9992.780217,-5669.106685
943.852831,-962.267725,-10362.883188,-6741.640382
943.853155,-2442.679609,-10066.800811,-7124.688131
943.853480,-3034.844362,-9992.780217,-7277.907231
943.853804,-2664.741391,-10066.800811,-6894.859482
943.854128,-1628.453072,-9548.656652,-5286.058936
943.854452,888.247130,-9696.697840,-3907.087040
943.854776,3849.070898,-10362.883188,-2911.162892
943.855100,6661.853478,-11769.274478,-1685.410096
943.855424,7846.182985,-12731.542202,-1149.143247
943.855748,7179.997637,-12731.542202,-766.095498
943.856072,5699.585753,-12509.480420,-1455.581446
943.856396,3108.864956,-11843.295072,-2757.943793
943.856720,148.041188,-12287.418637,-4213.525239
943.857044,-2368.659014,-11103.089130,-4979.620737
943.857368,-3330.926739,-10214.842000,-5669.106685
943.857692,-2072.576638,-9474.636058,-5515.887586
943.858016,0.000000,-8734.430116,-4903.011187
943.858341,1702.473667,-8290.306550,-4290.134789
943.858665,2368.659014,-8216.285956,-4136.915689
943.858989,1924.535449,-7772.162391,-3140.991542
943.859313,1332.370696,-7920.203579,-1838.629195
943.859637,2960.823768,-8734.430116,-919.314598
943.859961,4959.379811,-9474.636058,919.314598
943.860285,7179.997637,-9474.636058,1685.410096
943.860609,8216.285956,-10214.842000,1608.800546
943.860933,6883.915261,-10732.986159,995.924147
943.861257,3330.926739,-10362.883188,-459.657299
943.861581,0.000000,-9474.636058,-995.924147
943.861905,-2294.638420,-7772.162391,-1072.533697
943.862229,-2368.659014,-7179.997637,-1915.238745
943.862553,-1554.432478,-6735.874072,-2145.067394
943.862877,-740.205942,-7105.977043,-2221.676944
943.863201,-592.164754,-7624.121203,-1685.410096
943.863526,-296.082377,-7179.997637,-842.705048
943.863850,222.061783,-6809.894666,919.314598
943.864174,1776.494261,-7179.997637,1532.190996
943.864498,4219.173869,-8216.285956,1838.629195
943.864822,5551.544565,-9252.574275,2451.505594
943.865146,5625.565159,-10214.842000,2068.457845
943.865470,4959.379811,-10658.965565,1455.581446
943.865794,3923.091493,-10140.821405,1225.752797
943.866118,3330.926739,-9178.553681,459.657299
943.866442,2960.823768,-8956.491898,-612.876398
943.866766,1036.288319,-8956.491898,-2221.676944
943.867090,-740.205942,-10066.800811,-2757.943793
943.867414,-1702.473667,-9770.718434,-3294.210641
943.867738,-444.123565,-9844.739029,-2987.772442
943.868062,1776.494261,-9696.697840,-1762.019645
943.868387,3849.070898,-9770.718434,-1072.533697
943.868711,3552.988522,-10214.842000,-995.924147
943.869035,3182.885551,-11177.109724,-1149.143247
943.869359,3701.029710,-12213.398043,-766.095498
943.869683,4737.318029,-11843.295072,-689.485948
943.870007,4441.235652,-12509.480420,-536.266849
943.870331,2738.761985,-12731.542202,-1149.143247
943.870655,814.226536,-11843.295072,-2221.676944
943.870979,0.000000,-11695.253884,-2757.943793
943.871303,74.020594,-11251.130318,-2987.772442
943.871627,666.185348,-10066.800811,-4136.915689
943.871951,888.247130,-9400.615463,-3907.087040
943.872275,814.226536,-8808.450710,-3447.429741
943.872599,1702.473667,-9548.656652,-3830.477490
943.872923,1702.473667,-9474.636058,-3907.087040
943.873247,1628.453072,-9104.533087,-3217.601092
943.873572,2072.576638,-9104.533087,-2757.943793
943.873896,2960.823768,-9474.636058,-2374.896044
943.874220,3849.070898,-9622.677246,-1608.800546
943.874544,3775.050304,-9918.759623,-2068.457845
943.874868,3627.009116,-10584.944971,-1915.238745
943.875192,3034.844362,-10066.800811,-1532.190996
943.875516,3034.844362,-9622.677246,-2145.067394
943.875840,814.226536,-8882.471304,-2451.505594
943.876165,-1554.432478,-8216.285956,-3140.991542
943.876489,-2368.659014,-8142.265362,-2604.724693
943.876813,-296.082377,-7994.224174,-2451.505594
943.877137,370.102971,-7254.018232,-2604.724693
943.877461,296.082377,-7179.997637,-2681.334243
943.877785,740.205942,-8068.244768,-2451.505594
943.878109,2294.638420,-8808.450710,-2604.724693
943.878433,3552.988522,-8068.244768,-2911.162892
943.878757,2812.782580,-8142.265362,-2834.553343
943.879082,2220.617826,-9400.615463,-3294.210641
943.879406,3256.906145,-10288.862594,-3600.648841
943.879730,5181.441594,-9696.697840,-2068.457845
943.880054,5551.544565,-10288.862594,-2221.676944
943.880378,4959.379811,-11843.295072,-2681.334243
943.880702,3108.864956,-11251.130318,-2911.162892
943.881026,1850.514855,-10140.821405,-2451.505594
943.881350,1406.391290,-9770.718434,-2911.162892
943.881674,1998.556043,-10510.924376,-2911.162892
943.881999,1998.556043,-9918.759623,-1762.019645
943.882323,2294.638420,-10436.903782,-2145.067394
943.882647,2220.617826,-10436.903782,-2604.724693
943.882971,1924.535449,-10214.842000,-2528.115143
943.883295,1554.432478,-9992.780217,-2757.943793
943.883619,1110.308913,-10362.883188,-3447.429741
943.883943,-444.123565,-9696.697840,-4136.915689
943.884267,-444.123565,-10066.800811,-4443.353888
943.884592,1258.350101,-10436.903782,-4826.401637
943.884916,2220.617826,-11029.068536,-4366.744339
943.885240,2590.720797,-11547.212695,-3064.381992
943.885564,2812.782580,-11621.233289,-2451.505594
943.885888,2146.597232,-10510.924376,-2298.286494
943.886212,888.247130,-10732.986159,-612.876398
943.886536,1110.308913,-12213.398043,383.047749
943.886860,2294.638420,-12213.398043,536.266849
943.887184,1184.329507,-10955.047942,1455.581446
943.887509,740.205942,-9770.718434,1838.629195
943.887833,2220.617826,-9104.533087,383.047749
943.888157,3552.988522,-7772.162391,-306.438199
943.888481,2220.617826,-6661.853478,-919.314598
943.888805,148.041188,-7031.956449,-3140.991542
943.889129,-2368.659014,-7920.203579,-2987.772442
943.889453,-4885.359217,-8290.306550,-3600.648841
943.889777,-6587.832884,-9178.553681,-4443.353888
943.890101,-6069.688724,-8438.347739,-3600.648841
943.890426,-3330.926739,-8142.265362,-1915.238745
943.890750,0.000000,-9548.656652,-766.095498
943.891074,3256.906145,-9178.553681,612.876398
943.891398,4885.359217,-8734.430116,2987.772442
943.891722,5329.482782,-11769.274478,4903.011187
943.892046,5625.565159,-11325.150913,3294.210641
943.892370,6069.688724,-9474.636058,4903.011187
943.892694,4441.235652,-11103.089130,5592.497135
943.893018,3849.070898,-11695.253884,2604.724693
943.893343,888.247130,-7476.080014,76.609550
943.893667,-4367.215058,-6217.729913,0.000000
943.893991,-7402.059420,-8956.491898,-2987.772442
943.894315,-6661.853478,-10510.924376,-4673.182538
943.894639,-7476.080014,-8660.409521,-3294.210641
943.894963,-7328.038826,-7698.141797,-1762.019645
943.895287,-3923.091493,-7772.162391,-1225.752797
943.895611,-592.164754,-8216.285956,766.095498
943.895936,3182.885551,-7772.162391,2145.067394
943.896260,7476.080014,-7624.121203,3830.477490
943.896584,8290.306550,-10362.883188,3524.039291
943.896908,6735.874072,-12657.521608,4060.306139
943.897232,4885.359217,-11769.274478,4826.401637
943.897556,2368.659014,-12361.439231,4903.011187
943.897880,-222.061783,-12953.603985,2221.676944
943.898204,-1480.411884,-10584.944971,1072.533697
943.898528,-2072.576638,-9696.697840,0.000000
943.898853,-2442.679609,-9696.697840,-1915.238745
943.899177,-4145.153275,-9400.615463,-2681.334243
943.899501,-5699.585753,-7624.121203,-1838.629195
943.899825,-4663.297435,-6957.935855,-2145.067394
943.900149,-2516.700203,-7105.977043,-2528.115143
943.900473,-1480.411884,-7179.997637,-1685.410096
943.900797,592.164754,-7994.224174,-229.828649
943.901121,2960.823768,-9400.615463,76.609550
943.901445,4885.359217,-11399.171507,1915.238745
943.901770,5403.503377,-11991.336260,3830.477490
943.902094,5255.462188,-12805.562797,3677.258390
943.902418,3034.844362,-13175.665768,2374.896044
943.902742,592.164754,-12509.480420,612.876398
943.903066,-666.185348,-10881.027347,229.828649
943.903390,-592.164754,-10658.965565,-842.705048
943.903714,444.123565,-9474.636058,-1072.533697
943.904038,222.061783,-8068.244768,-229.828649
943.904362,-592.164754,-8364.327145,-1762.019645
943.904687,-2886.803174,-8142.265362,-2911.162892
943.905011,-4515.256246,-7254.018232,-3600.648841
943.905335,-5329.482782,-7624.121203,-3907.087040
943.905659,-4441.235652,-9178.553681,-2604.724693
943.905983,-2368.659014,-10732.986159,-1455.581446
943.906307,0.000000,-10732.986159,-459.657299
943.906631,1776.494261,-10658.965565,306.438199
943.906955,1998.556043,-10510.924376,306.438199
943.907280,2220.617826,-10584.944971,459.657299
943.907604,2738.761985,-11177.109724,1608.800546
943.907928,2516.700203,-11103.089130,766.095498
943.908252,814.226536,-9770.718434,-306.438199
943.908576,-1332.370696,-9178.553681,-1838.629195
943.908900,-2220.617826,-9104.533087,-3140.991542
943.909224,-1628.453072,-7994.224174,-3370.820191
943.909548,-1258.350101,-7550.100608,-3677.258390
943.909872,-2294.638420,-8660.409521,-3447.429741
943.910197,-2812.782580,-9844.739029,-2987.772442
943.910521,-2072.576638,-10510.924376,-1915.238745
943.910845,0.000000,-9770.718434,-1225.752797
943.911169,2442.679609,-9252.574275,0.000000
943.911493,3923.091493,-9474.636058,459.657299
943.911817,4367.215058,-9474.636058,229.828649
943.912141,3478.967927,-8660.409521,459.657299
943.912465,2368.659014,-9252.574275,1072.533697
943.912789,814.226536,-10436.903782,-383.047749
943.913114,-444.123565,-9548.656652,-1302.362347
943.913438,-666.185348,-8290.306550,-1991.848295
943.913762,-1184.329507,-8808.450710,-2911.162892
943.914086,-1850.514855,-9770.718434,-2451.505594
943.914410,-2516.700203,-10436.903782,-2145.067394
943.914734,-2220.617826,-10955.047942,-995.924147
943.915058,148.041188,-10658.965565,0.000000
943.915382,1554.432478,-10436.903782,459.657299
943.915707,814.226536,-10584.944971,689.485948
943.916031,0.000000,-10658.965565,689.485948
943.916355,-444.123565,-10436.903782,229.828649
943.916679,-222.061783,-10436.903782,919.314598
943.917003,-148.041188,-10288.862594,1685.410096
943.917327,0.000000,-10066.800811,1072.533697
943.917651,-444.123565,-9400.615463,0.000000
943.917975,-1332.370696,-8586.388927,0.000000
943.918299,-1702.473667,-9030.512492,0.000000
943.918624,-1850.514855,-9252.574275,-842.705048
