#time,accel_x,accel_y,accel_z
502.947376,1702.473667,-11695.253884,3600.648841
502.947700,222.061783,-13175.665768,1838.629195
502.948024,-2442.679609,-11547.212695,76.609550
502.948349,-4515.256246,-9178.553681,-995.924147
502.948673,-3923.091493,-8216.285956,-1225.752797
502.948997,-1924.535449,-8882.471304,-229.828649
502.949321,592.164754,-8586.388927,766.095498
502.949646,3997.112087,-7698.141797,1532.190996
502.949970,6069.688724,-8068.244768,2221.676944
502.950294,6661.853478,-9770.718434,1378.971896
502.950619,6513.812290,-10955.047942,1072.533697
502.950943,5995.668130,-11843.295072,1378.971896
502.951267,5329.482782,-11991.336260,1378.971896
502.951592,3330.926739,-12435.459826,1072.533697
502.951916,592.164754,-11843.295072,76.609550
502.952240,-1184.329507,-11843.295072,-1149.143247
502.952565,-2516.700203,-11029.068536,-1225.752797
502.952889,-2442.679609,-10510.924376,-1378.971896
502.953213,-1924.535449,-9400.615463,-612.876398
502.953538,-1110.308913,-8660.409521,383.047749
502.953862,1036.288319,-8142.265362,842.705048
502.954186,2812.782580,-8290.306550,1455.581446
502.954511,3997.112087,-8586.388927,1149.143247
502.954835,4367.215058,-9252.574275,1838.629195
502.955159,4811.338623,-10658.965565,1838.629195
502.955484,5847.626942,-11029.068536,1608.800546
502.955808,6069.688724,-11251.130318,1608.800546
502.956132,5625.565159,-11843.295072,1915.238745
502.956457,4811.338623,-11917.315666,1608.800546
502.956781,3701.029710,-11103.089130,2145.067394
502.957105,2738.761985,-9918.759623,2528.115143
502.957430,2442.679609,-9548.656652,2834.553343
502.957754,1480.411884,-9474.636058,2911.162892
502.958078,148.041188,-8438.347739,2987.772442
502.958402,0.000000,-7550.100608,2757.943793
502.958727,-296.082377,-7254.018232,2987.772442
502.959051,148.041188,-7179.997637,2528.115143
502.959375,888.247130,-7105.977043,2604.724693
502.959700,1258.350101,-6957.935855,2451.505594
502.960024,1850.514855,-7920.203579,2987.772442
502.960348,1480.411884,-8586.388927,2451.505594
502.960673,2442.679609,-9622.677246,3064.381992
502.960997,3627.009116,-10362.883188,3753.867940
502.961321,4367.215058,-10732.986159,4060.306139
502.961646,4367.215058,-10807.006753,4136.915689
502.961970,3849.070898,-11029.068536,4366.744339
502.962294,1998.556043,-10732.986159,4596.572988
502.962619,888.247130,-10362.883188,4060.306139
502.962943,1036.288319,-9400.615463,4443.353888
502.963267,1924.535449,-8290.306550,4136.915689
502.963592,3182.885551,-7698.141797,3677.258390
502.963916,4145.153275,-6883.915261,3140.991542
502.964240,4293.194464,-6069.688724,3370.820191
502.964565,3182.885551,-7476.080014,2451.505594
502.964889,1702.473667,-9474.636058,2298.286494
502.965213,-148.041188,-10732.986159,1762.019645
502.965538,-1036.288319,-10807.006753,2451.505594
502.965862,-1332.370696,-10658.965565,2757.943793
502.966186,-740.205942,-10436.903782,3140.991542
502.966511,740.205942,-10066.800811,3524.039291
502.966835,2368.659014,-10140.821405,3677.258390
502.967159,3627.009116,-9844.739029,3600.648841
502.967483,3627.009116,-10140.821405,3370.820191
502.967808,3034.844362,-9548.656652,3064.381992
502.968132,2368.659014,-9252.574275,1915.238745
502.968456,1332.370696,-8882.471304,919.314598
502.968781,296.082377,-8512.368333,306.438199
502.969105,148.041188,-8512.368333,383.047749
502.969429,2368.659014,-10066.800811,459.657299
502.969754,4441.235652,-10807.006753,1225.752797
502.970078,5329.482782,-11621.233289,1685.410096
502.970402,5181.441594,-12361.439231,2451.505594
502.970727,3034.844362,-11695.253884,1915.238745
502.971051,444.123565,-10066.800811,1838.629195
502.971375,-444.123565,-9844.739029,1762.019645
502.971700,0.000000,-9992.780217,1685.410096
502.972024,962.267725,-10066.800811,1608.800546
502.972348,1110.308913,-9326.594869,1762.019645
502.972673,1480.411884,-8142.265362,229.828649
502.972997,1258.350101,-6587.832884,-1149.143247
502.973321,1406.391290,-5921.647536,-1455.581446
502.973646,2294.638420,-7105.977043,-1378.971896
502.973970,2960.823768,-8956.491898,-766.095498
502.974294,3775.050304,-10881.027347,0.000000
502.974619,3701.029710,-11325.150913,0.000000
502.974943,3775.050304,-10807.006753,1225.752797
502.975267,3256.906145,-10807.006753,1149.143247
502.975592,2738.761985,-11029.068536,1685.410096
502.975916,2368.659014,-11547.212695,1915.238745
502.976240,888.247130,-11917.315666,1455.581446
502.976564,-962.267725,-11991.336260,995.924147
502.976888,-2220.617826,-10066.800811,229.828649
502.977212,-592.164754,-9030.512492,306.438199
502.977536,2368.659014,-8586.388927,306.438199
502.977860,3627.009116,-8956.491898,-306.438199
502.978184,2368.659014,-8734.430116,-536.266849
502.978508,296.082377,-8364.327145,-919.314598
502.978832,0.000000,-8808.450710,-1149.143247
502.979156,1036.288319,-9474.636058,229.828649
502.979480,3182.885551,-10584.944971,1225.752797
502.979805,3701.029710,-10584.944971,2068.457845
502.980129,2590.720797,-9622.677246,2298.286494
502.980453,1258.350101,-8734.430116,2068.457845
502.980777,1036.288319,-8956.491898,1608.800546
502.981101,518.144159,-9696.697840,2451.505594
502.981425,-148.041188,-9918.759623,2145.067394
502.981749,-666.185348,-8882.471304,1455.581446
502.982073,518.144159,-8290.306550,612.876398
502.982397,1406.391290,-8512.368333,153.219100
502.982721,1776.494261,-9548.656652,536.266849
502.983045,370.102971,-9548.656652,-842.705048
502.983369,-1184.329507,-8808.450710,-1302.362347
502.983693,-1480.411884,-9178.553681,-459.657299
502.984017,1110.308913,-11103.089130,612.876398
502.984341,3552.988522,-13101.645173,2451.505594
502.984665,2516.700203,-11769.274478,2987.772442
502.984990,1628.453072,-10140.821405,2451.505594
502.985314,1036.288319,-9918.759623,2451.505594
502.985638,1998.556043,-11251.130318,2757.943793
502.985962,2368.659014,-11325.150913,2834.553343
502.986286,1406.391290,-9770.718434,2145.067394
502.986610,0.000000,-8216.285956,1532.190996
502.986934,-1776.494261,-8216.285956,766.095498
502.987258,-2294.638420,-9548.656652,0.000000
502.987582,-2664.741391,-8956.491898,-1072.533697
502.987906,-3552.988522,-7402.059420,-1762.019645
502.988230,-3552.988522,-7402.059420,-1685.410096
502.988554,-1776.494261,-9030.512492,229.828649
502.988878,888.247130,-10436.903782,2374.896044
502.989202,4071.132681,-9622.677246,3447.429741
502.989526,4737.318029,-8142.265362,2911.162892
502.989850,4737.318029,-9326.594869,2681.334243
502.990175,3923.091493,-11029.068536,2145.067394
502.990499,1776.494261,-11473.192101,1685.410096
502.990823,-1036.288319,-10658.965565,1532.190996
502.991147,-2590.720797,-10510.924376,1072.533697
502.991471,-3182.885551,-11547.212695,383.047749
502.991795,-3034.844362,-10955.047942,-153.219100
502.992119,-1776.494261,-9474.636058,-536.266849
502.992443,-592.164754,-8142.265362,-689.485948
502.992767,-592.164754,-8216.285956,-1072.533697
502.993091,-1036.288319,-9400.615463,0.000000
502.993415,-888.247130,-8216.285956,383.047749
502.993739,222.061783,-7254.018232,153.219100
502.994063,592.164754,-6957.935855,153.219100
502.994387,666.185348,-7920.203579,995.924147
502.994711,0.000000,-9104.533087,459.657299
502.995035,148.041188,-8808.450710,536.266849
502.995359,74.020594,-7254.018232,0.000000
502.995684,-148.041188,-7698.141797,-766.095498
502.996008,-1258.350101,-9622.677246,-919.314598
502.996332,-1184.329507,-10881.027347,-995.924147
502.996656,-740.205942,-9770.718434,-1532.190996
502.996980,-666.185348,-9252.574275,-2145.067394
502.997304,-1036.288319,-11251.130318,-1532.190996
502.997628,-666.185348,-12139.377449,-1378.971896
502.997952,1036.288319,-10955.047942,-1532.190996
502.998276,2368.659014,-10140.821405,-1532.190996
502.998600,2442.679609,-11843.295072,-1608.800546
502.998924,518.144159,-13323.706956,-1838.629195
502.999248,-148.041188,-11917.315666,-1762.019645
502.999572,74.020594,-9622.677246,-919.314598
502.999896,222.061783,-10436.903782,-1532.190996
503.000220,-296.082377,-11325.150913,-1455.581446
503.000544,0.000000,-10658.965565,-1302.362347
503.000869,1776.494261,-8364.327145,-612.876398
503.001193,3256.906145,-8142.265362,-306.438199
503.001517,2516.700203,-10510.924376,-229.828649
503.001841,814.226536,-11843.295072,-306.438199
503.002165,-296.082377,-10214.842000,-612.876398
503.002489,-148.041188,-8808.450710,-842.705048
503.002813,-518.144159,-9474.636058,-1762.019645
503.003137,-1258.350101,-10732.986159,-1915.238745
503.003461,-592.164754,-10732.986159,-919.314598
503.003785,518.144159,-9030.512492,-612.876398
503.004109,148.041188,-9548.656652,-689.485948
503.004433,-1480.411884,-10732.986159,-306.438199
503.004757,-1998.556043,-10807.006753,-383.047749
503.005081,-370.102971,-8734.430116,459.657299
503.005405,1480.411884,-7698.141797,842.705048
503.005729,1110.308913,-9104.533087,995.924147
503.006054,74.020594,-10362.883188,1455.581446
503.006378,666.185348,-9252.574275,2374.896044
503.006702,962.267725,-7476.080014,1685.410096
503.007026,-666.185348,-7402.059420,842.705048
503.007350,-3849.070898,-8808.450710,0.000000
503.007674,-4737.318029,-9178.553681,-459.657299
503.007998,-3256.906145,-7624.121203,-995.924147
503.008322,-2516.700203,-7328.038826,-766.095498
503.008646,-3256.906145,-8438.347739,-842.705048
503.008970,-2516.700203,-9178.553681,76.609550
503.009294,518.144159,-8142.265362,1225.752797
503.009618,1776.494261,-7402.059420,1072.533697
503.009942,370.102971,-8882.471304,766.095498
503.010266,-296.082377,-11399.171507,229.828649
503.010590,444.123565,-11029.068536,612.876398
503.010914,1702.473667,-9474.636058,766.095498
503.011238,1702.473667,-9622.677246,842.705048
503.011563,740.205942,-11621.233289,766.095498
503.011887,-148.041188,-11695.253884,0.000000
503.012211,518.144159,-9252.574275,-229.828649
503.012535,740.205942,-8438.347739,-612.876398
503.012859,-444.123565,-10732.986159,-612.876398
503.013183,-1110.308913,-12139.377449,0.000000
503.013507,74.020594,-11029.068536,153.219100
503.013831,740.205942,-9030.512492,383.047749
503.014155,-148.041188,-10066.800811,-153.219100
503.014479,-740.205942,-11769.274478,229.828649
503.014803,518.144159,-11843.295072,536.266849
503.015127,1924.535449,-9918.759623,612.876398
503.015451,1110.308913,-9770.718434,76.609550
503.015775,-370.102971,-11621.233289,76.609550
503.016099,0.000000,-12361.439231,-153.219100
503.016423,1480.411884,-9326.594869,459.657299
503.016748,1628.453072,-7328.038826,383.047749
503.017072,740.205942,-8586.388927,842.705048
503.017396,592.164754,-10436.903782,689.485948
503.017720,2220.617826,-8734.430116,1608.800546
503.018044,3256.906145,-6587.832884,1762.019645
503.018368,1702.473667,-7698.141797,842.705048
503.018692,-296.082377,-10288.862594,766.095498
503.019016,-1036.288319,-10214.842000,919.314598
503.019340,-444.123565,-8586.388927,1915.238745
503.019664,-1480.411884,-8364.327145,1072.533697
503.019988,-3034.844362,-9770.718434,0.000000
503.020312,-3404.947333,-9918.759623,0.000000
503.020636,-1850.514855,-8956.491898,76.609550
503.020960,-592.164754,-7846.182985,383.047749
503.021284,-1998.556043,-9400.615463,153.219100
503.021608,-2590.720797,-10362.883188,0.000000
503.021933,-1258.350101,-8882.471304,229.828649
503.022257,814.226536,-6809.894666,383.047749
503.022581,1332.370696,-7402.059420,153.219100
503.022905,74.020594,-9770.718434,459.657299
503.023229,370.102971,-9548.656652,689.485948
503.023553,1850.514855,-7105.977043,842.705048
503.023877,2516.700203,-6661.853478,536.266849
503.024201,1110.308913,-9030.512492,76.609550
503.024525,-444.123565,-11695.253884,383.047749
503.024849,-740.205942,-10066.800811,-306.438199
503.025173,-888.247130,-8586.388927,-1149.143247
503.025497,-1924.535449,-9622.677246,-1762.019645
503.025821,-2516.700203,-11251.130318,-1378.971896
503.026145,-1184.329507,-11843.295072,-1378.971896
503.026469,814.226536,-10807.006753,-459.657299
503.026793,666.185348,-10881.027347,-1378.971896
503.027117,-740.205942,-12583.501014,-2298.286494
503.027442,-1332.370696,-13249.686362,-2068.457845
503.027766,370.102971,-10955.047942,-1685.410096
503.028090,2368.659014,-9548.656652,-1378.971896
503.028414,1554.432478,-11399.171507,-1608.800546
503.028738,740.205942,-12805.562797,-536.266849
503.029062,2516.700203,-10658.965565,0.000000
503.029386,3849.070898,-8512.368333,383.047749
503.029710,2442.679609,-9252.574275,-536.266849
503.030034,-148.041188,-11029.068536,-612.876398
503.030358,-814.226536,-10955.047942,-612.876398
503.030682,-296.082377,-8808.450710,-536.266849
503.031006,-1110.308913,-8956.491898,-766.095498
503.031330,-2664.741391,-9844.739029,-919.314598
503.031654,-2516.700203,-10584.944971,-1225.752797
503.031978,-1332.370696,-9252.574275,-766.095498
503.032302,-370.102971,-8068.244768,-919.314598
503.032627,-1258.350101,-9474.636058,-1149.143247
503.032951,-1850.514855,-10807.006753,-612.876398
503.033275,-444.123565,-9252.574275,766.095498
503.033599,2294.638420,-7254.018232,459.657299
503.033923,1998.556043,-7179.997637,1225.752797
503.034247,296.082377,-9622.677246,1149.143247
503.034571,666.185348,-9992.780217,1302.362347
503.034895,2072.576638,-6957.935855,1302.362347
503.035219,1776.494261,-6661.853478,1225.752797
503.035543,-814.226536,-9030.512492,459.657299
503.035867,-2664.741391,-10658.965565,1378.971896
503.036191,-2368.659014,-8956.491898,919.314598
503.036515,-1480.411884,-7476.080014,229.828649
503.036839,-2960.823768,-7698.141797,-1072.533697
503.037163,-3330.926739,-9104.533087,-766.095498
503.037487,-1332.370696,-9252.574275,0.000000
503.037811,1036.288319,-8364.327145,306.438199
503.038136,888.247130,-9104.533087,0.000000
503.038460,-370.102971,-11103.089130,-383.047749
503.038784,0.000000,-11399.171507,-306.438199
503.039108,2220.617826,-9770.718434,536.266849
503.039432,3330.926739,-9474.636058,766.095498
503.039756,2294.638420,-11399.171507,842.705048
503.040080,1258.350101,-12805.562797,766.095498
503.040404,2442.679609,-10584.944971,1838.629195
503.040728,3478.967927,-8808.450710,842.705048
503.041052,1850.514855,-10807.006753,612.876398
503.041376,-888.247130,-12435.459826,612.876398
503.041700,-1258.350101,-11621.233289,536.266849
503.042024,-518.144159,-9326.594869,459.657299
503.042348,-962.267725,-9770.718434,-459.657299
503.042672,-1776.494261,-11251.130318,-919.314598
503.042996,-962.267725,-11769.274478,0.000000
503.043321,518.144159,-9770.718434,-153.219100
503.043645,370.102971,-9326.594869,-383.047749
503.043969,-962.267725,-10955.047942,-229.828649
503.044293,-1480.411884,-11917.315666,-536.266849
503.044617,0.000000,-10807.006753,-229.828649
503.044941,1480.411884,-8808.450710,842.705048
503.045265,1110.308913,-9326.594869,766.095498
503.045589,0.000000,-11029.068536,842.705048
503.045913,592.164754,-9770.718434,1608.800546
503.046237,1776.494261,-7328.038826,2145.067394
503.046561,1850.514855,-7846.182985,995.924147
503.046885,-1036.288319,-9474.636058,1149.143247
503.047209,-1850.514855,-9770.718434,995.924147
503.047533,-1258.350101,-7105.977043,459.657299
503.047857,-962.267725,-6365.771101,153.219100
503.048181,-1702.473667,-8142.265362,-306.438199
503.048506,-1628.453072,-9400.615463,0.000000
503.048830,-444.123565,-7179.997637,383.047749
503.049154,888.247130,-7105.977043,689.485948
503.049478,222.061783,-8512.368333,76.609550
503.049802,-1110.308913,-10807.006753,0.000000
503.050126,-1110.308913,-10658.965565,459.657299
503.050450,592.164754,-8956.491898,995.924147
503.050774,1258.350101,-8956.491898,536.266849
503.051098,0.000000,-10658.965565,0.000000
503.051422,-888.247130,-10955.047942,0.000000
503.051746,148.041188,-8290.306550,-306.438199
503.052070,1332.370696,-7254.018232,-383.047749
503.052394,0.000000,-9622.677246,-842.705048
503.052718,-962.267725,-11769.274478,-766.095498
503.053042,148.041188,-10288.862594,-306.438199
503.053366,1110.308913,-8216.285956,-459.657299
503.053690,74.020594,-8956.491898,-1225.752797
503.054015,-740.205942,-11621.233289,-1455.581446
503.054339,148.041188,-12065.356855,-1532.190996
503.054663,1480.411884,-10584.944971,-689.485948
503.054987,1036.288319,-10732.986159,-842.705048
503.055311,-1184.329507,-12139.377449,-1685.410096
503.055635,-2294.638420,-13101.645173,-1685.410096
503.055959,-1406.391290,-11177.109724,-1838.629195
503.056283,0.000000,-9474.636058,-1608.800546
503.056607,-814.226536,-10658.965565,-1302.362347
503.056931,-740.205942,-12139.377449,-1838.629195
503.057255,0.000000,-10732.986159,-995.924147
503.057579,1776.494261,-8586.388927,-919.314598
503.057903,1406.391290,-9252.574275,-1225.752797
503.058227,-592.164754,-11103.089130,-842.705048
503.058551,-518.144159,-11325.150913,-612.876398
503.058875,1036.288319,-8068.244768,459.657299
503.059200,1850.514855,-8068.244768,306.438199
503.059524,74.020594,-9474.636058,-306.438199
503.059848,-592.164754,-10584.944971,153.219100
503.060172,666.185348,-8956.491898,995.924147
503.060496,1406.391290,-7698.141797,306.438199
503.060820,-444.123565,-8660.409521,0.000000
503.061144,-1998.556043,-10436.903782,383.047749
503.061468,-1332.370696,-10362.883188,-306.438199
503.061792,666.185348,-8734.430116,536.266849
503.062116,444.123565,-8142.265362,153.219100
503.062440,-1110.308913,-9474.636058,153.219100
503.062764,-1258.350101,-10288.862594,306.438199
503.063088,370.102971,-8734.430116,766.095498
503.063412,1776.494261,-7550.100608,612.876398
503.063736,0.000000,-8290.306550,153.219100
503.064060,-1776.494261,-10362.883188,383.047749
503.064385,-740.205942,-9770.718434,1072.533697
503.064709,666.185348,-7179.997637,1149.143247
503.065033,-444.123565,-7624.121203,383.047749
503.065357,-2220.617826,-9622.677246,0.000000
503.065681,-1850.514855,-9622.677246,0.000000
503.066005,740.205942,-9030.512492,536.266849
503.066329,222.061783,-8808.450710,-153.219100
503.066653,-1628.453072,-10658.965565,-612.876398
503.066977,-1850.514855,-11843.295072,-766.095498
503.067301,74.020594,-10214.842000,-229.828649
503.067625,1924.535449,-9252.574275,0.000000
503.067949,1110.308913,-10510.924376,-229.828649
503.068273,592.164754,-11991.336260,306.438199
503.068597,2516.700203,-10732.986159,842.705048
503.068921,4737.318029,-9326.594869,1378.971896
503.069245,3552.988522,-9548.656652,766.095498
503.069569,1110.308913,-11473.192101,689.485948
503.069894,74.020594,-11917.315666,995.924147
503.070218,518.144159,-9696.697840,766.095498
503.070542,0.000000,-8660.409521,536.266849
503.070866,-1850.514855,-9918.759623,0.000000
503.071190,-2516.700203,-10584.944971,0.000000
503.071514,-592.164754,-9104.533087,-153.219100
503.071838,-148.041188,-8142.265362,229.828649
503.072162,-1554.432478,-9696.697840,-766.095498
503.072486,-2886.803174,-10732.986159,-1072.533697
503.072810,-1924.535449,-9770.718434,-536.266849
503.073134,222.061783,-7550.100608,536.266849
503.073458,962.267725,-8586.388927,-383.047749
503.073782,0.000000,-10436.903782,-766.095498
503.074106,592.164754,-10807.006753,689.485948
503.074430,2960.823768,-8734.430116,1378.971896
503.074754,3552.988522,-7846.182985,1302.362347
503.075079,1406.391290,-9844.739029,1225.752797
503.075403,-370.102971,-11251.130318,689.485948
503.075727,222.061783,-9474.636058,1302.362347
503.076051,296.082377,-7846.182985,842.705048
503.076375,-1702.473667,-8882.471304,153.219100
503.076699,-3627.009116,-10140.821405,76.609550
503.077023,-2812.782580,-8956.491898,153.219100
503.077347,-962.267725,-7402.059420,76.609550
503.077672,-1258.350101,-8068.244768,-842.705048
503.077996,-2664.741391,-9918.759623,-995.924147
503.078320,-2738.761985,-10288.862594,-1225.752797
503.078644,-1628.453072,-8364.327145,-536.266849
503.078968,-592.164754,-8068.244768,-383.047749
503.079293,-740.205942,-9918.759623,-689.485948
503.079617,-888.247130,-11251.130318,-689.485948
503.079941,888.247130,-10214.842000,0.000000
503.080265,2442.679609,-8660.409521,0.000000
503.080589,2368.659014,-10362.883188,842.705048
503.080914,518.144159,-12361.439231,0.000000
503.081238,222.061783,-11843.295072,689.485948
503.081562,1036.288319,-9992.780217,229.828649
503.081886,444.123565,-9622.677246,-1072.533697
503.082210,-1332.370696,-10732.986159,-1225.752797
503.082535,-962.267725,-10807.006753,-766.095498
503.082859,1554.432478,-9400.615463,-306.438199
503.083183,1998.556043,-8438.347739,-842.705048
503.083507,370.102971,-10214.842000,-1378.971896
503.083831,-1258.350101,-11473.192101,-1685.410096
503.084156,-444.123565,-10362.883188,-1378.971896
503.084480,814.226536,-8808.450710,-995.924147
503.084804,518.144159,-9326.594869,-766.095498
503.085128,-592.164754,-11177.109724,-689.485948
503.085452,0.000000,-11325.150913,-459.657299
503.085777,1332.370696,-9474.636058,76.609550
503.086101,1406.391290,-8586.388927,-229.828649
503.086425,0.000000,-10732.986159,-919.314598
503.086749,-1332.370696,-11177.109724,-766.095498
503.087073,0.000000,-9474.636058,76.609550
503.087398,814.226536,-8660.409521,0.000000
503.087722,-444.123565,-9992.780217,-383.047749
503.088046,-1332.370696,-10436.903782,-383.047749
503.088370,222.061783,-8438.347739,153.219100
503.088695,2072.576638,-7254.018232,229.828649
503.089019,1332.370696,-8142.265362,76.609550
503.089343,-370.102971,-10584.944971,0.000000
503.089667,-814.226536,-10732.986159,153.219100
503.089991,740.205942,-8734.430116,536.266849
503.090316,740.205942,-7846.182985,383.047749
503.090640,-518.144159,-9474.636058,459.657299
503.090964,-1332.370696,-10584.944971,153.219100
503.091288,0.000000,-8734.430116,383.047749
503.091612,888.247130,-7254.018232,689.485948
503.091937,-888.247130,-8660.409521,-229.828649
503.092261,-2886.803174,-10584.944971,-229.828649
503.092585,-1924.535449,-9696.697840,76.609550
503.092909,74.020594,-7994.224174,153.219100
503.093233,-444.123565,-8068.244768,-689.485948
503.093558,-1924.535449,-9992.780217,-766.095498
503.093882,-1480.411884,-10140.821405,306.438199
503.094206,666.185348,-8808.450710,612.876398
503.094530,1776.494261,-8586.388927,383.047749
503.094854,-370.102971,-10510.924376,0.000000
503.095179,-1554.432478,-11621.233289,-383.047749
503.095503,-222.061783,-9918.759623,-383.047749
503.095827,1776.494261,-8882.471304,459.657299
503.096151,1480.411884,-10214.842000,842.705048
503.096475,-148.041188,-11843.295072,-153.219100
503.096800,518.144159,-11325.150913,383.047749
503.097124,2220.617826,-9252.574275,306.438199
503.097448,1628.453072,-9770.718434,0.000000
503.097772,-148.041188,-12213.398043,-306.438199
503.098096,-962.267725,-12583.501014,306.438199
503.098421,444.123565,-10140.821405,536.266849
503.098745,888.247130,-8956.491898,229.828649
503.099069,-370.102971,-10214.842000,0.000000
503.099393,-888.247130,-11621.233289,229.828649
503.099717,1036.288319,-10288.862594,536.266849
503.100042,2368.659014,-8068.244768,1378.971896
503.100366,1332.370696,-8438.347739,536.266849
503.100690,-888.247130,-10288.862594,229.828649
503.101014,-1036.288319,-9844.739029,229.828649
503.101338,74.020594,-7624.121203,1149.143247
503.101663,962.267725,-7846.182985,919.314598
503.101987,-444.123565,-9992.780217,919.314598
503.102311,-1184.329507,-9992.780217,919.314598
503.102635,74.020594,-7624.121203,612.876398
503.102959,888.247130,-6957.935855,76.609550
503.103284,-296.082377,-8734.430116,229.828649
503.103608,-1406.391290,-10510.924376,383.047749
503.103932,-370.102971,-9474.636058,842.705048
503.104256,222.061783,-7772.162391,995.924147
503.104581,-518.144159,-8216.285956,0.000000
503.104905,-1776.494261,-9992.780217,-306.438199
503.105229,-1184.329507,-9844.739029,306.438199
503.105553,962.267725,-7698.141797,766.095498
503.105877,518.144159,-7698.141797,-689.485948
503.106202,-1036.288319,-9992.780217,0.000000
503.106526,-2368.659014,-11177.109724,-229.828649
503.106850,-1406.391290,-9252.574275,-612.876398
503.107174,0.000000,-7698.141797,-842.705048
503.107498,-1184.329507,-9030.512492,-919.314598
503.107823,-1184.329507,-10584.944971,-459.657299
503.108147,0.000000,-10066.800811,-1608.800546
503.108471,1406.391290,-8660.409521,-383.047749
503.108795,666.185348,-9474.636058,-919.314598
503.109119,-1184.329507,-11769.274478,-1608.800546
503.109444,-1258.350101,-12213.398043,-1532.190996
503.109768,0.000000,-10214.842000,-1149.143247
503.110092,962.267725,-9622.677246,-1685.410096
503.110416,222.061783,-11029.068536,-2528.115143
503.110740,-296.082377,-11473.192101,-1915.238745
503.111065,2146.597232,-10288.862594,-229.828649
503.111389,3404.947333,-10066.800811,-306.438199
503.111713,1924.535449,-11621.233289,-1302.362347
503.112037,-962.267725,-12213.398043,-1608.800546
503.112361,-1184.329507,-10658.965565,-1302.362347
503.112686,296.082377,-9400.615463,-1302.362347
503.113010,1332.370696,-10436.903782,-766.095498
503.113334,-814.226536,-10881.027347,-766.095498
503.113658,-962.267725,-10288.862594,-842.705048
503.113982,592.164754,-8438.347739,-612.876398
503.114307,1110.308913,-7994.224174,-612.876398
503.114631,0.000000,-10140.821405,-842.705048
503.114955,-1258.350101,-11399.171507,0.000000
503.115279,-444.123565,-9770.718434,153.219100
503.115603,296.082377,-8586.388927,536.266849
503.115928,370.102971,-9030.512492,306.438199
503.116252,-666.185348,-10288.862594,306.438199
503.116576,296.082377,-9474.636058,842.705048
503.116900,1998.556043,-7624.121203,1225.752797
503.117224,1480.411884,-8216.285956,689.485948
503.117549,-1184.329507,-9696.697840,766.095498
503.117873,-2294.638420,-10140.821405,459.657299
503.118197,-1406.391290,-7031.956449,153.219100
503.118521,-1110.308913,-5255.462188,-536.266849
503.118845,-2220.617826,-7550.100608,-459.657299
503.119170,-2442.679609,-9918.759623,229.828649
503.119494,-148.041188,-8882.471304,1302.362347
503.119818,1776.494261,-6957.935855,1838.629195
503.120142,1184.329507,-7772.162391,766.095498
503.120466,-1184.329507,-10066.800811,153.219100
503.120791,-1406.391290,-10807.006753,153.219100
503.121115,0.000000,-9474.636058,383.047749
503.121439,148.041188,-9622.677246,612.876398
503.121763,-592.164754,-11177.109724,229.828649
503.122088,-296.082377,-11621.233289,383.047749
503.122412,1628.453072,-9622.677246,-306.438199
503.122736,2146.597232,-8660.409521,-1302.362347
503.123060,-444.123565,-10436.903782,-1302.362347
503.123384,-2368.659014,-12287.418637,-1225.752797
503.123709,-962.267725,-11103.089130,-459.657299
503.124033,1184.329507,-8512.368333,0.000000
503.124357,1406.391290,-8882.471304,-536.266849
503.124681,-148.041188,-11769.274478,0.000000
503.125005,518.144159,-12287.418637,383.047749
503.125330,2220.617826,-10214.842000,1455.581446
503.125654,2664.741391,-9030.512492,842.705048
503.125978,888.247130,-10955.047942,153.219100
503.126302,-222.061783,-13397.727550,612.876398
503.126626,888.247130,-12213.398043,612.876398
503.126951,1776.494261,-10140.821405,536.266849
503.127275,592.164754,-10436.903782,153.219100
503.127599,-148.041188,-11621.233289,0.000000
503.127923,592.164754,-10584.944971,0.000000
503.128247,1850.514855,-8068.244768,0.000000
503.128572,592.164754,-8290.306550,-766.095498
503.128896,-1924.535449,-9770.718434,-1149.143247
503.129220,-2294.638420,-9844.739029,-766.095498
503.129544,74.020594,-6957.935855,612.876398
503.129868,1776.494261,-5995.668130,919.314598
503.130193,-444.123565,-7772.162391,536.266849
503.130517,-1110.308913,-9474.636058,919.314598
503.130841,0.000000,-7920.203579,1685.410096
503.131165,1776.494261,-6883.915261,2068.457845
503.131489,814.226536,-8290.306550,1072.533697
503.131814,-1628.453072,-9622.677246,536.266849
503.132138,-1998.556043,-9474.636058,383.047749
503.132462,-370.102971,-8808.450710,-306.438199
503.132786,-962.267725,-8660.409521,-689.485948
503.133110,-2738.761985,-9474.636058,-995.924147
503.133435,-2442.679609,-9844.739029,-689.485948
503.133759,222.061783,-8882.471304,-229.828649
503.134083,1406.391290,-7920.203579,-306.438199
503.134407,-592.164754,-9474.636058,-995.924147
503.134731,-2368.659014,-11473.192101,-1225.752797
503.135056,-1998.556043,-10140.821405,-689.485948
503.135380,814.226536,-8364.327145,229.828649
503.135704,222.061783,-8734.430116,0.000000
503.136028,-1480.411884,-10510.924376,-383.047749
503.136352,-962.267725,-10732.986159,0.000000
503.136677,1406.391290,-9400.615463,0.000000
503.137001,2072.576638,-9696.697840,-459.657299
503.137325,-444.123565,-11325.150913,-995.924147
503.137649,-1776.494261,-12731.542202,-1149.143247
503.137974,0.000000,-11547.212695,-2221.676944
503.138298,888.247130,-10510.924376,-1838.629195
503.138622,0.000000,-11843.295072,-1915.238745
503.138946,-296.082377,-13619.789333,-1608.800546
503.139270,1480.411884,-12879.583391,-229.828649
503.139595,3849.070898,-10362.883188,-459.657299
503.139919,2886.803174,-10658.965565,-842.705048
503.140243,-592.164754,-11917.315666,-1532.190996
503.140567,-1628.453072,-11769.274478,-1532.190996
503.140891,296.082377,-9548.656652,-229.828649
503.141216,1332.370696,-8290.306550,-153.219100
503.141540,-444.123565,-9474.636058,-766.095498
503.141864,-1702.473667,-9474.636058,-612.876398
503.142188,0.000000,-7179.997637,-383.047749
503.142512,444.123565,-6365.771101,-383.047749
503.142837,-296.082377,-8734.430116,-612.876398
503.143161,-1924.535449,-10510.924376,-383.047749
503.143485,-814.226536,-9474.636058,229.828649
503.143809,1628.453072,-8142.265362,689.485948
503.144133,1480.411884,-8734.430116,689.485948
503.144458,0.000000,-10214.842000,0.000000
503.144782,148.041188,-10288.862594,689.485948
503.145106,2220.617826,-8290.306550,1072.533697
503.145430,2368.659014,-7846.182985,842.705048
503.145754,-592.164754,-9178.553681,229.828649
503.146079,-2812.782580,-10066.800811,-306.438199
503.146403,-1702.473667,-8586.388927,0.000000
503.146727,-222.061783,-6661.853478,153.219100
503.147051,-1628.453072,-6957.935855,536.266849
503.147375,-3108.864956,-9178.553681,842.705048
503.147700,-2368.659014,-8142.265362,383.047749
503.148024,148.041188,-6291.750507,842.705048
503.148348,592.164754,-7179.997637,306.438199
503.148672,-1184.329507,-10214.842000,306.438199
503.148996,-1332.370696,-11325.150913,919.314598
503.149321,518.144159,-9548.656652,1072.533697
503.149645,1480.411884,-8956.491898,0.000000
503.149969,444.123565,-10510.924376,-306.438199
503.150293,74.020594,-12805.562797,153.219100
503.150617,2294.638420,-11769.274478,689.485948
503.150942,3552.988522,-10066.800811,459.657299
503.151266,1332.370696,-11177.109724,0.000000
503.151590,-1480.411884,-13027.624579,-536.266849
503.151914,-1702.473667,-12509.480420,-919.314598
503.152238,-518.144159,-9030.512492,-459.657299
503.152563,148.041188,-9104.533087,-1455.581446
503.152887,-1480.411884,-11399.171507,-536.266849
503.153211,-1332.370696,-11769.274478,0.000000
503.153535,888.247130,-8956.491898,383.047749
503.153859,1776.494261,-7920.203579,689.485948
503.154184,518.144159,-10362.883188,76.609550
503.154508,-1480.411884,-12361.439231,459.657299
503.154832,-222.061783,-11843.295072,1302.362347
503.155156,2072.576638,-9992.780217,1072.533697
503.155481,1998.556043,-10362.883188,689.485948
503.155805,518.144159,-11695.253884,153.219100
503.156129,740.205942,-11843.295072,536.266849
503.156453,2738.761985,-10066.800811,842.705048
503.156777,3034.844362,-9030.512492,612.876398
503.157102,74.020594,-10362.883188,0.000000
503.157426,-2072.576638,-10510.924376,-229.828649
503.157750,-962.267725,-8290.306550,229.828649
503.158074,370.102971,-6661.853478,153.219100
503.158398,-666.185348,-7476.080014,0.000000
503.158723,-1998.556043,-8882.471304,0.000000
503.159047,-962.267725,-7105.977043,1378.971896
503.159371,1184.329507,-5033.400406,919.314598
503.159695,814.226536,-5551.544565,459.657299
503.160019,-1406.391290,-8216.285956,229.828649
503.160344,-2294.638420,-9474.636058,229.828649
503.160668,-296.082377,-8290.306550,612.876398
503.160992,888.247130,-7550.100608,919.314598
503.161316,0.000000,-8882.471304,229.828649
503.161640,-444.123565,-9992.780217,766.095498
503.161965,222.061783,-9992.780217,229.828649
503.162289,1258.350101,-8808.450710,-383.047749
503.162613,74.020594,-9548.656652,-842.705048
503.162937,-2072.576638,-11621.233289,-1378.971896
503.163261,-2220.617826,-11029.068536,-1072.533697
503.163586,-296.082377,-8364.327145,-1608.800546
503.163910,0.000000,-8068.244768,-995.924147
503.164234,-2072.576638,-9770.718434,-1991.848295
503.164558,-2368.659014,-10140.821405,-1762.019645
503.164882,-296.082377,-7476.080014,-1149.143247
503.165207,1702.473667,-7550.100608,-766.095498
503.165531,0.000000,-10510.924376,-1378.971896
503.165855,-1776.494261,-12879.583391,-1149.143247
503.166179,-1258.350101,-12435.459826,-536.266849
503.166503,0.000000,-11251.130318,-1455.581446
503.166828,-444.123565,-11917.315666,-1532.190996
503.167152,-1480.411884,-13101.645173,-1225.752797
503.167476,0.000000,-13619.789333,-1072.533697
503.167800,2738.761985,-12213.398043,-919.314598
503.168124,2812.782580,-11769.274478,-1378.971896
503.168449,518.144159,-12509.480420,-1915.238745
503.168773,-444.123565,-13027.624579,-1532.190996
503.169097,1554.432478,-10214.842000,-612.876398
503.169421,2812.782580,-8586.388927,229.828649
503.169745,1036.288319,-9622.677246,-612.876398
503.170070,-740.205942,-11399.171507,-842.705048
503.170394,-222.061783,-9400.615463,-459.657299
503.170718,1702.473667,-7254.018232,459.657299
503.171042,814.226536,-8142.265362,612.876398
503.171367,-1110.308913,-10881.027347,536.266849
503.171691,-1332.370696,-9622.677246,612.876398
503.172015,74.020594,-7698.141797,383.047749
503.172339,444.123565,-7698.141797,306.438199
503.172663,-666.185348,-9178.553681,0.000000
503.172988,-962.267725,-9252.574275,459.657299
503.173312,888.247130,-7402.059420,1149.143247
503.173636,2072.576638,-6217.729913,536.266849
503.173960,74.020594,-8438.347739,0.000000
503.174284,-1998.556043,-9400.615463,-153.219100
503.174609,-1258.350101,-8512.368333,-153.219100
503.174933,666.185348,-6587.832884,76.609550
503.175257,222.061783,-6661.853478,612.876398
503.175581,-1628.453072,-8882.471304,689.485948
503.175905,-1406.391290,-8808.450710,995.924147
503.176230,740.205942,-6809.894666,1608.800546
503.176554,740.205942,-6291.750507,919.314598
503.176878,-1184.329507,-8438.347739,536.266849
503.177202,-2516.700203,-10510.924376,842.705048
503.177526,-962.267725,-9548.656652,1072.533697
503.177850,1036.288319,-7846.182985,153.219100
503.178174,0.000000,-9252.574275,-995.924147
503.178498,-1924.535449,-11325.150913,-383.047749
503.178822,-814.226536,-11547.212695,-1608.800546
503.179146,1258.350101,-10436.903782,-995.924147
503.179470,592.164754,-11399.171507,-1149.143247
503.179794,-1110.308913,-13249.686362,-1532.190996
503.180118,-814.226536,-13841.851115,-1072.533697
503.180443,1776.494261,-12435.459826,0.000000
503.180767,2812.782580,-11103.089130,995.924147
503.181091,1702.473667,-12731.542202,689.485948
503.181415,-370.102971,-12805.562797,1149.143247
503.181739,666.185348,-10584.944971,1455.581446
503.182063,2738.761985,-8808.450710,1149.143247
503.182387,1480.411884,-9474.636058,459.657299
503.182711,-1036.288319,-11251.130318,76.609550
503.183035,-1776.494261,-10436.903782,229.828649
503.183359,222.061783,-8142.265362,0.000000
503.183683,222.061783,-8068.244768,-766.095498
503.184007,-1480.411884,-9844.739029,-842.705048
503.184331,-1702.473667,-10288.862594,-306.438199
503.184655,666.185348,-8956.491898,229.828649
503.184979,1628.453072,-8364.327145,919.314598
503.185303,518.144159,-9622.677246,536.266849
503.185627,-962.267725,-10881.027347,229.828649
503.185951,0.000000,-9696.697840,766.095498
503.186275,1554.432478,-7994.224174,766.095498
503.186599,1184.329507,-7402.059420,459.657299
503.186923,-1258.350101,-9252.574275,383.047749
503.187248,-1258.350101,-8956.491898,766.095498
503.187572,814.226536,-7105.977043,842.705048
503.187896,1258.350101,-6439.791695,536.266849
503.188220,-1332.370696,-8586.388927,306.438199
503.188544,-2368.659014,-9400.615463,0.000000
503.188868,-1258.350101,-7624.121203,0.000000
503.189192,296.082377,-7179.997637,0.000000
503.189516,-740.205942,-8660.409521,-766.095498
503.189840,-1702.473667,-9992.780217,-306.438199
503.190164,-74.020594,-9474.636058,0.000000
503.190488,1998.556043,-8438.347739,0.000000
503.190812,1702.473667,-9252.574275,-1302.362347
503.191136,-592.164754,-11399.171507,-1378.971896
503.191460,-592.164754,-12139.377449,-1302.362347
503.191784,1184.329507,-10807.006753,-1072.533697
503.192108,1480.411884,-9770.718434,-1378.971896
503.192432,0.000000,-11547.212695,-1762.019645
503.192756,-740.205942,-13175.665768,-1455.581446
503.193080,148.041188,-11325.150913,-1455.581446
503.193404,2146.597232,-9622.677246,-842.705048
503.193729,592.164754,-9992.780217,-1838.629195
503.194053,-1702.473667,-11991.336260,-1838.629195
503.194377,-1776.494261,-11991.336260,-1532.190996
503.194701,-518.144159,-9844.739029,-1532.190996
503.195025,-962.267725,-10288.862594,-2068.457845
503.195349,-2812.782580,-11103.089130,-2451.505594
503.195673,-2220.617826,-11621.233289,-1149.143247
503.195997,666.185348,-10066.800811,-919.314598
503.196321,1924.535449,-9844.739029,-1149.143247
503.196645,518.144159,-11325.150913,-1685.410096
503.196969,-1258.350101,-12361.439231,-919.314598
503.197293,74.020594,-11399.171507,229.828649
503.197617,2146.597232,-9178.553681,919.314598
503.197941,962.267725,-8882.471304,612.876398
503.198265,-962.267725,-10362.883188,-229.828649
503.198589,-962.267725,-8956.491898,306.438199
503.198913,1110.308913,-7179.997637,459.657299
503.199237,1110.308913,-6365.771101,459.657299
503.199561,-888.247130,-7846.182985,76.609550
503.199885,-2072.576638,-8068.244768,153.219100
503.200210,-1036.288319,-5995.668130,383.047749
503.200534,-296.082377,-6365.771101,0.000000
503.200858,-1776.494261,-7402.059420,0.000000
503.201182,-2220.617826,-8660.409521,459.657299
503.201506,444.123565,-8660.409521,1225.752797
503.201830,2590.720797,-7772.162391,1838.629195
503.202154,2146.597232,-9104.533087,1532.190996
503.202478,0.000000,-11029.068536,612.876398
503.202802,-740.205942,-11547.212695,1838.629195
503.203126,1184.329507,-10066.800811,1685.410096
503.203450,2146.597232,-8956.491898,919.314598
503.203774,-370.102971,-10436.903782,0.000000
503.204098,-2220.617826,-11251.130318,0.000000
503.204422,-296.082377,-9622.677246,-153.219100
503.204746,1406.391290,-8290.306550,229.828649
503.205070,-222.061783,-9252.574275,-536.266849
503.205394,-2072.576638,-10807.006753,-1149.143247
503.205718,-1258.350101,-10214.842000,536.266849
503.206042,518.144159,-8438.347739,842.705048
503.206366,1110.308913,-9844.739029,842.705048
503.206690,0.000000,-11325.150913,612.876398
503.207015,0.000000,-11177.109724,1072.533697
503.207339,2294.638420,-9696.697840,1762.019645
503.207663,2812.782580,-9696.697840,1225.752797
503.207987,444.123565,-11843.295072,306.438199
503.208311,-888.247130,-12435.459826,0.000000
503.208635,148.041188,-11547.212695,-689.485948
503.208959,1036.288319,-9548.656652,-229.828649
503.209283,74.020594,-10066.800811,-995.924147
503.209607,-1554.432478,-11547.212695,-1302.362347
503.209931,-592.164754,-10732.986159,-612.876398
503.210255,1998.556043,-8808.450710,-306.438199
503.210579,1332.370696,-8586.388927,306.438199
503.210903,-888.247130,-10510.924376,-612.876398
503.211227,-1776.494261,-10510.924376,0.000000
503.211551,148.041188,-8808.450710,766.095498
503.211875,666.185348,-8512.368333,459.657299
503.212199,-592.164754,-9474.636058,459.657299
503.212523,-1406.391290,-9400.615463,919.314598
503.212847,222.061783,-8660.409521,1455.581446
503.213171,2442.679609,-7846.182985,1455.581446
503.213496,444.123565,-8734.430116,0.000000
503.213820,-2146.597232,-9918.759623,-459.657299
503.214144,-1998.556043,-10140.821405,0.000000
503.214468,0.000000,-8586.388927,306.438199
503.214792,1110.308913,-8068.244768,306.438199
503.215116,0.000000,-9770.718434,229.828649
503.215440,-444.123565,-9252.574275,-153.219100
503.215764,740.205942,-7105.977043,76.609550
503.216088,2294.638420,-6291.750507,-306.438199
503.216412,592.164754,-7920.203579,-229.828649
503.216736,-962.267725,-9918.759623,76.609550
503.217060,0.000000,-9252.574275,1225.752797
503.217384,962.267725,-7402.059420,1149.143247
503.217708,-370.102971,-7994.224174,-536.266849
503.218032,-2664.741391,-9252.574275,-842.705048
503.218356,-2368.659014,-9844.739029,0.000000
503.218680,0.000000,-9474.636058,0.000000
503.219004,148.041188,-9770.718434,-153.219100
503.219328,-1924.535449,-11325.150913,-536.266849
503.219652,-2664.741391,-12657.521608,-612.876398
503.219976,-1036.288319,-11621.233289,-1225.752797
503.220301,666.185348,-9992.780217,-1608.800546
503.220625,74.020594,-11029.068536,-2221.676944
503.220949,-592.164754,-12953.603985,-2145.067394
503.221273,370.102971,-12805.562797,-995.924147
503.221597,1850.514855,-10362.883188,-919.314598
503.221921,1036.288319,-10066.800811,-1608.800546
503.222245,-222.061783,-12065.356855,-1378.971896
503.222569,-444.123565,-12361.439231,-1149.143247
503.222893,1036.288319,-10881.027347,-229.828649
503.223217,666.185348,-8586.388927,-536.266849
503.223541,-814.226536,-9622.677246,-1149.143247
503.223865,-1480.411884,-11177.109724,-689.485948
503.224189,296.082377,-10066.800811,-383.047749
503.224513,1850.514855,-8142.265362,-383.047749
503.224837,592.164754,-8808.450710,-1532.190996
503.225161,-962.267725,-10732.986159,-919.314598
503.225485,0.000000,-11103.089130,-1149.143247
503.225809,1258.350101,-9252.574275,-766.095498
503.226133,1184.329507,-8808.450710,-766.095498
503.226457,0.000000,-10510.924376,-766.095498
503.226782,296.082377,-11547.212695,0.000000
503.227106,2738.761985,-10066.800811,1149.143247
503.227430,3478.967927,-8586.388927,1455.581446
503.227754,888.247130,-9622.677246,383.047749
503.228078,-1332.370696,-11325.150913,689.485948
503.228402,-962.267725,-9992.780217,919.314598
503.228726,0.000000,-7402.059420,842.705048
503.229050,-814.226536,-7179.997637,229.828649
503.229374,-2220.617826,-8660.409521,306.438199
503.229698,-1406.391290,-8808.450710,995.924147
503.230022,888.247130,-6291.750507,306.438199
503.230346,444.123565,-5847.626942,-689.485948
503.230670,-1924.535449,-8586.388927,-1072.533697
503.230994,-2368.659014,-9696.697840,-459.657299
503.231318,0.000000,-8586.388927,306.438199
503.231642,962.267725,-7698.141797,1149.143247
503.231966,0.000000,-8808.450710,153.219100
503.232290,-666.185348,-10955.047942,0.000000
503.232614,888.247130,-11103.089130,1225.752797
503.232938,2516.700203,-9104.533087,919.314598
503.233263,1332.370696,-8734.430116,306.438199
503.233587,-1628.453072,-10362.883188,0.000000
503.233911,-2442.679609,-11029.068536,0.000000
503.234235,-1110.308913,-9474.636058,0.000000
503.234559,-1036.288319,-8660.409521,-536.266849
503.234883,-2294.638420,-9992.780217,-689.485948
503.235207,-1924.535449,-11029.068536,-919.314598
503.235531,0.000000,-9548.656652,0.000000
503.235855,888.247130,-8660.409521,-383.047749
503.236179,-888.247130,-10510.924376,-766.095498
503.236503,-2368.659014,-12953.603985,-383.047749
503.236827,-1036.288319,-11917.315666,-229.828649
503.237151,1480.411884,-9844.739029,306.438199
503.237475,1628.453072,-9474.636058,-229.828649
503.237799,814.226536,-11325.150913,0.000000
503.238123,962.267725,-12361.439231,459.657299
503.238447,2812.782580,-10584.944971,1072.533697
503.238771,2738.761985,-9178.553681,229.828649
503.239095,740.205942,-10584.944971,-383.047749
503.239419,-1406.391290,-11177.109724,-689.485948
503.239743,-888.247130,-9918.759623,-229.828649
503.240068,74.020594,-8586.388927,-689.485948
503.240392,-1406.391290,-9622.677246,-919.314598
503.240716,-1702.473667,-10436.903782,-766.095498
503.241040,1036.288319,-9770.718434,306.438199
503.241364,3627.009116,-8364.327145,1149.143247
503.241688,2664.741391,-8808.450710,919.314598
503.242012,0.000000,-10436.903782,383.047749
503.242336,-962.267725,-10658.965565,459.657299
503.242660,666.185348,-9178.553681,995.924147
503.242984,1776.494261,-7772.162391,383.047749
503.243308,518.144159,-8808.450710,459.657299
503.243632,-592.164754,-10214.842000,689.485948
503.243956,518.144159,-9030.512492,536.266849
503.244280,1184.329507,-7550.100608,536.266849
503.244604,-592.164754,-7772.162391,-383.047749
503.244928,-2294.638420,-10214.842000,-536.266849
503.245252,-2368.659014,-9696.697840,-383.047749
503.245576,-592.164754,-7846.182985,0.000000
503.245900,-592.164754,-7772.162391,-536.266849
503.246224,-1924.535449,-8808.450710,-842.705048
503.246549,-1776.494261,-9770.718434,0.000000
503.246873,370.102971,-8808.450710,919.314598
503.247197,1406.391290,-8660.409521,153.219100
503.247521,-74.020594,-9696.697840,-459.657299
503.247845,-1924.535449,-11177.109724,0.000000
503.248169,-666.185348,-11103.089130,0.000000
503.248493,1628.453072,-9326.594869,0.000000
503.248817,1110.308913,-8586.388927,-842.705048
503.249141,148.041188,-11029.068536,-766.095498
503.249465,444.123565,-11843.295072,-536.266849
503.249789,2368.659014,-10288.862594,0.000000
503.250113,1850.514855,-9474.636058,-766.095498
503.250437,-148.041188,-11103.089130,-1685.410096
503.250761,-1332.370696,-12361.439231,-1072.533697
503.251085,148.041188,-11843.295072,-383.047749
503.251409,1110.308913,-10288.862594,-306.438199
503.251733,0.000000,-10436.903782,-612.876398
503.252057,-1258.350101,-11325.150913,-995.924147
503.252381,370.102971,-10658.965565,306.438199
503.252705,2368.659014,-9252.574275,383.047749
503.253029,1554.432478,-9696.697840,-383.047749
503.253354,-1480.411884,-11029.068536,-459.657299
503.253678,-1702.473667,-11251.130318,-153.219100
503.254002,666.185348,-9326.594869,229.828649
503.254326,1628.453072,-8734.430116,383.047749
503.254650,0.000000,-9104.533087,459.657299
503.254974,-1702.473667,-9622.677246,306.438199
503.255298,0.000000,-8586.388927,383.047749
503.255622,1554.432478,-7105.977043,1149.143247
503.255946,444.123565,-7920.203579,0.000000
503.256270,-1702.473667,-9696.697840,0.000000
503.256594,-1406.391290,-9104.533087,842.705048
503.256918,296.082377,-7772.162391,229.828649
503.257242,0.000000,-7402.059420,0.000000
503.257566,-2146.597232,-8364.327145,612.876398
503.257890,-1776.494261,-9400.615463,1225.752797
503.258214,518.144159,-8438.347739,1532.190996
503.258538,1480.411884,-7624.121203,995.924147
503.258862,-666.185348,-8882.471304,153.219100
503.259186,-2590.720797,-9992.780217,0.000000
503.259510,-1184.329507,-9400.615463,1072.533697
503.259835,1184.329507,-6957.935855,612.876398
503.260159,0.000000,-7846.182985,306.438199
503.260483,-1998.556043,-9918.759623,0.000000
503.260807,-1184.329507,-10288.862594,0.000000
503.261131,1184.329507,-8290.306550,229.828649
503.261455,1184.329507,-8216.285956,-306.438199
503.261779,-814.226536,-10362.883188,-1072.533697
503.262103,-1554.432478,-11917.315666,0.000000
503.262427,296.082377,-10881.027347,383.047749
503.262751,1628.453072,-10066.800811,76.609550
503.263075,296.082377,-10955.047942,-919.314598
503.263399,-1184.329507,-12287.418637,-842.705048
503.263723,148.041188,-11621.233289,-919.314598
503.264047,2294.638420,-10510.924376,-919.314598
503.264371,1554.432478,-11103.089130,-1608.800546
503.264695,-1036.288319,-12065.356855,-2145.067394
503.265019,-1628.453072,-12065.356855,-1685.410096
503.265343,1332.370696,-10140.821405,-1225.752797
503.265667,2368.659014,-9400.615463,-1225.752797
503.265991,444.123565,-11177.109724,-1532.190996
503.266316,-444.123565,-12435.459826,-1225.752797
503.266640,1776.494261,-11103.089130,536.266849
503.266964,2886.803174,-9770.718434,-153.219100
503.267288,962.267725,-10510.924376,-919.314598
503.267612,-1480.411884,-12287.418637,153.219100
503.267936,-592.164754,-12287.418637,612.876398
503.268260,1184.329507,-10658.965565,459.657299
503.268584,814.226536,-9326.594869,689.485948
503.268908,-1406.391290,-9252.574275,-153.219100
503.269232,-1036.288319,-9474.636058,-153.219100
503.269556,1184.329507,-7550.100608,383.047749
503.269880,1702.473667,-6217.729913,383.047749
503.270204,-814.226536,-7550.100608,-459.657299
503.270528,-2294.638420,-8142.265362,-383.047749
503.270852,-740.205942,-6587.832884,459.657299
503.271176,1702.473667,-4811.338623,766.095498
503.271500,888.247130,-5699.585753,536.266849
503.271824,-1628.453072,-7328.038826,689.485948
503.272148,-1184.329507,-7772.162391,1149.143247
503.272472,148.041188,-7105.977043,1838.629195
503.272796,-222.061783,-7920.203579,1915.238745
503.273121,-2072.576638,-9696.697840,1378.971896
503.273445,-2590.720797,-10955.047942,1608.800546
503.273769,-666.185348,-10807.006753,1991.848295
503.274093,-370.102971,-9252.574275,459.657299
503.274417,-1480.411884,-9326.594869,-306.438199
503.274741,-2146.597232,-10066.800811,-689.485948
503.275065,296.082377,-10362.883188,-383.047749
503.275389,2590.720797,-9622.677246,229.828649
503.275713,1998.556043,-9844.739029,-229.828649
503.276037,0.000000,-11029.068536,-536.266849
503.276361,-444.123565,-11177.109724,-536.266849
503.276685,1702.473667,-9400.615463,153.219100
503.277009,2590.720797,-9030.512492,306.438199
503.277333,592.164754,-10881.027347,76.609550
503.277657,-740.205942,-11917.315666,306.438199
503.277981,74.020594,-10584.944971,842.705048
503.278306,814.226536,-9400.615463,-689.485948
503.278630,-814.226536,-10510.924376,-919.314598
503.278954,-2886.803174,-12361.439231,-919.314598
503.279278,-2368.659014,-12361.439231,-1302.362347
503.279602,-1406.391290,-10955.047942,-1302.362347
503.279926,-1776.494261,-11177.109724,-1608.800546
503.280250,-2146.597232,-12435.459826,-1991.848295
503.280574,-444.123565,-13175.665768,-1302.362347
503.280899,2590.720797,-11769.274478,-229.828649
503.281223,3552.988522,-11029.068536,-1225.752797
503.281547,1184.329507,-11103.089130,-612.876398
503.281871,666.185348,-12435.459826,76.609550
503.282195,1850.514855,-10955.047942,766.095498
503.282519,3182.885551,-9326.594869,1378.971896
503.282843,1702.473667,-9030.512492,766.095498
503.283167,-444.123565,-9474.636058,842.705048
503.283492,-296.082377,-8438.347739,995.924147
503.283816,1184.329507,-6661.853478,1149.143247
503.284140,518.144159,-6365.771101,306.438199
503.284464,-1480.411884,-7698.141797,-306.438199
503.284788,-2220.617826,-8068.244768,229.828649
503.285112,-962.267725,-6513.812290,0.000000
503.285436,-592.164754,-5551.544565,-229.828649
503.285760,-1850.514855,-6365.771101,-842.705048
503.286085,-1998.556043,-8438.347739,-766.095498
503.286409,0.000000,-7402.059420,995.924147
503.286733,2220.617826,-7105.977043,1149.143247
503.287057,1702.473667,-8216.285956,383.047749
503.287381,-1110.308913,-9622.677246,383.047749
503.287705,-1110.308913,-9844.739029,689.485948
503.288029,740.205942,-8216.285956,1455.581446
503.288353,1184.329507,-8216.285956,1762.019645
503.288678,-888.247130,-9474.636058,536.266849
503.289002,-1776.494261,-9696.697840,459.657299
503.289326,0.000000,-8142.265362,459.657299
503.289650,1406.391290,-7772.162391,0.000000
503.289974,0.000000,-9474.636058,-995.924147
503.290298,-1850.514855,-11029.068536,-1149.143247
503.290622,-962.267725,-10955.047942,-536.266849
503.290946,-148.041188,-10140.821405,-1378.971896
503.291271,-888.247130,-10288.862594,-1302.362347
503.291595,-1480.411884,-11325.150913,-1685.410096
503.291919,0.000000,-12139.377449,-919.314598
503.292243,1702.473667,-11399.171507,0.000000
503.292567,1702.473667,-11251.130318,-459.657299
503.292891,-518.144159,-12509.480420,-1225.752797
503.293215,-962.267725,-13323.706956,-919.314598
503.293539,296.082377,-11473.192101,-306.438199
503.293864,1850.514855,-10066.800811,-536.266849
503.294188,0.000000,-10658.965565,-1608.800546
503.294512,-1480.411884,-11991.336260,-1302.362347
503.294836,-148.041188,-11251.130318,-536.266849
503.295160,1998.556043,-9770.718434,-536.266849
503.295484,1110.308913,-10214.842000,-995.924147
503.295808,-1258.350101,-11325.150913,-1455.581446
503.296132,-2072.576638,-10436.903782,-919.314598
503.296457,-740.205942,-10066.800811,-459.657299
503.296781,-444.123565,-10066.800811,-459.657299
503.297105,-1554.432478,-9770.718434,-689.485948
503.297429,-1406.391290,-9770.718434,0.000000
503.297753,296.082377,-9178.553681,689.485948
503.298077,1924.535449,-8512.368333,1455.581446
503.298401,888.247130,-8882.471304,689.485948
503.298725,-296.082377,-9770.718434,612.876398
503.299050,-222.061783,-8512.368333,1149.143247
503.299374,1850.514855,-6957.935855,995.924147
503.299698,1554.432478,-7105.977043,383.047749
503.300022,-592.164754,-8290.306550,229.828649
503.300346,-814.226536,-8512.368333,536.266849
503.300670,1332.370696,-6735.874072,1072.533697
503.300994,2220.617826,-6217.729913,1225.752797
503.301318,0.000000,-7550.100608,306.438199
503.301643,-1850.514855,-8364.327145,383.047749
503.301967,-1480.411884,-8660.409521,919.314598
503.302291,-740.205942,-8586.388927,536.266849
503.302615,-1554.432478,-8660.409521,0.000000
503.302939,-3034.844362,-9178.553681,-689.485948
503.303263,-1998.556043,-8808.450710,766.095498
503.303587,592.164754,-9030.512492,689.485948
503.303911,1258.350101,-9992.780217,612.876398
503.304236,-1110.308913,-10807.006753,-689.485948
503.304560,-1998.556043,-11029.068536,-459.657299
503.304884,0.000000,-10362.883188,-76.609550
503.305208,1998.556043,-9622.677246,229.828649
503.305532,1406.391290,-10732.986159,-383.047749
503.305856,222.061783,-11695.253884,0.000000
503.306180,1406.391290,-10510.924376,76.609550
503.306504,3108.864956,-9696.697840,153.219100
503.306829,1554.432478,-10214.842000,-153.219100
503.307153,-740.205942,-11769.274478,-383.047749
503.307477,-1406.391290,-11843.295072,76.609550
503.307801,0.000000,-11103.089130,383.047749
503.308125,-296.082377,-10510.924376,-842.705048
503.308449,-1850.514855,-11251.130318,-689.485948
503.308773,-2072.576638,-11769.274478,-229.828649
503.309097,296.082377,-11621.233289,0.000000
503.309422,1850.514855,-10881.027347,-536.266849
503.309746,444.123565,-11029.068536,-689.485948
503.310070,-518.144159,-11843.295072,-383.047749
503.310394,1184.329507,-11399.171507,0.000000
503.310718,2886.803174,-9474.636058,306.438199
503.311042,3330.926739,-8956.491898,919.314598
503.311366,1406.391290,-9918.759623,459.657299
503.311690,1184.329507,-10288.862594,1072.533697
503.312015,2960.823768,-8216.285956,1685.410096
503.312339,2368.659014,-7031.956449,1225.752797
503.312663,-962.267725,-7920.203579,76.609550
503.312987,-2886.803174,-8586.388927,0.000000
503.313311,-1924.535449,-7698.141797,919.314598
503.313635,-518.144159,-7105.977043,766.095498
503.313959,-1998.556043,-7105.977043,-306.438199
503.314283,-3404.947333,-7402.059420,-383.047749
503.314608,-2368.659014,-7772.162391,-229.828649
503.314932,370.102971,-7772.162391,153.219100
503.315256,444.123565,-7772.162391,-383.047749
503.315580,-1184.329507,-9030.512492,-842.705048
503.315904,-814.226536,-10140.821405,536.266849
503.316228,1850.514855,-9474.636058,306.438199
503.316552,2738.761985,-8290.306550,306.438199
503.316876,1110.308913,-9252.574275,0.000000
503.317201,-222.061783,-10955.047942,229.828649
503.317525,1036.288319,-10362.883188,1302.362347
503.317849,2368.659014,-8290.306550,459.657299
503.318173,148.041188,-7772.162391,-229.828649
503.318497,-2738.761985,-9992.780217,-612.876398
503.318821,-3552.988522,-11177.109724,-842.705048
503.319145,-2220.617826,-9844.739029,-1302.362347
503.319469,-2220.617826,-8956.491898,-1762.019645
503.319794,-2812.782580,-9844.739029,-1915.238745
503.320118,-1628.453072,-11473.192101,-1685.410096
503.320442,814.226536,-11325.150913,-766.095498
503.320766,1036.288319,-10732.986159,-1455.581446
503.321090,-666.185348,-11547.212695,-1608.800546
503.321414,-888.247130,-13545.768739,-1532.190996
503.321738,1258.350101,-12583.501014,-612.876398
503.322062,3552.988522,-10510.924376,0.000000
503.322387,2516.700203,-10584.944971,153.219100
503.322711,518.144159,-12805.562797,-229.828649
503.323035,740.205942,-12139.377449,76.609550
503.323359,2072.576638,-9918.759623,689.485948
503.323683,1480.411884,-8956.491898,-383.047749
503.324007,-1628.453072,-10436.903782,-1149.143247
503.324331,-3182.885551,-11177.109724,-612.876398
503.324655,-1924.535449,-9992.780217,-229.828649
503.324980,-666.185348,-8660.409521,-689.485948
503.325304,-1776.494261,-8586.388927,-995.924147
503.325628,-1924.535449,-9252.574275,0.000000
503.325952,888.247130,-9030.512492,612.876398
503.326276,3552.988522,-8734.430116,1455.581446
503.326600,3108.864956,-9178.553681,1072.533697
503.326924,444.123565,-9770.718434,536.266849
503.327248,-148.041188,-9400.615463,919.314598
503.327573,1554.432478,-7920.203579,1072.533697
503.327897,1850.514855,-7031.956449,1149.143247
503.328221,-370.102971,-8216.285956,536.266849
503.328545,-2072.576638,-9104.533087,689.485948
503.328869,-666.185348,-7550.100608,1072.533697
503.329193,888.247130,-6069.688724,995.924147
503.329517,-592.164754,-6809.894666,383.047749
503.329841,-2516.700203,-9030.512492,766.095498
503.330166,-1628.453072,-9030.512492,1762.019645
503.330490,296.082377,-7476.080014,1608.800546
503.330814,222.061783,-7550.100608,612.876398
503.331138,-1110.308913,-9178.553681,383.047749
503.331462,-518.144159,-10066.800811,766.095498
503.331786,2220.617826,-9696.697840,919.314598
503.332110,3108.864956,-9252.574275,1072.533697
503.332434,1258.350101,-10955.047942,0.000000
503.332759,-444.123565,-12435.459826,0.000000
503.333083,-222.061783,-10732.986159,0.000000
503.333407,740.205942,-9548.656652,229.828649
503.333731,0.000000,-9696.697840,-536.266849
503.334055,-2072.576638,-10955.047942,-919.314598
503.334379,-1332.370696,-9918.759623,-306.438199
503.334703,888.247130,-8586.388927,459.657299
503.335027,1258.350101,-9770.718434,-383.047749
503.335352,-1924.535449,-10881.027347,-995.924147
503.335676,-2960.823768,-11399.171507,-229.828649
503.336000,-1110.308913,-10658.965565,0.000000
503.336324,74.020594,-10807.006753,-459.657299
503.336648,-740.205942,-11177.109724,-995.924147
503.336972,-814.226536,-11917.315666,-229.828649
503.337296,740.205942,-11843.295072,0.000000
503.337620,2664.741391,-11399.171507,0.000000
503.337945,1480.411884,-11177.109724,-153.219100
503.338269,-518.144159,-12435.459826,-995.924147
503.338593,-444.123565,-12953.603985,-1072.533697
503.338917,1480.411884,-11399.171507,-229.828649
503.339241,1776.494261,-9696.697840,0.000000
503.339565,148.041188,-10140.821405,0.000000
503.339889,-518.144159,-10510.924376,0.000000
503.340213,1036.288319,-8586.388927,306.438199
503.340538,1776.494261,-6883.915261,76.609550
503.340862,222.061783,-7920.203579,-766.095498
503.341186,-2368.659014,-8364.327145,-306.438199
503.341510,-1554.432478,-7550.100608,766.095498
503.341834,148.041188,-7105.977043,919.314598
503.342158,-814.226536,-7031.956449,-229.828649
503.342482,-2516.700203,-7031.956449,-459.657299
503.342806,-1406.391290,-7402.059420,153.219100
503.343131,1258.350101,-7476.080014,689.485948
503.343455,1480.411884,-7846.182985,383.047749
503.343779,-222.061783,-9030.512492,-153.219100
503.344103,-1258.350101,-9918.759623,0.000000
503.344427,222.061783,-9844.739029,229.828649
503.344751,1702.473667,-9252.574275,689.485948
503.345075,740.205942,-8808.450710,383.047749
503.345399,-444.123565,-9696.697840,0.000000
503.345724,370.102971,-9918.759623,229.828649
503.346048,2072.576638,-8660.409521,383.047749
503.346372,888.247130,-7994.224174,-383.047749
503.346696,-1406.391290,-9400.615463,-919.314598
503.347020,-1850.514855,-10066.800811,-229.828649
503.347344,-518.144159,-8290.306550,-459.657299
503.347668,0.000000,-7550.100608,-995.924147
503.347992,-1628.453072,-9326.594869,-1378.971896
503.348317,-1702.473667,-11029.068536,-1455.581446
503.348641,0.000000,-10584.944971,-842.705048
503.348965,740.205942,-10362.883188,-689.485948
503.349289,-444.123565,-11399.171507,-1225.752797
503.349613,-1924.535449,-12879.583391,-1838.629195
503.349937,-962.267725,-13027.624579,-689.485948
503.350261,740.205942,-11769.274478,-383.047749
503.350585,1776.494261,-11991.336260,-995.924147
503.350910,666.185348,-12879.583391,-1149.143247
503.351234,666.185348,-13027.624579,-383.047749
503.351558,2960.823768,-11103.089130,0.000000
503.351882,2960.823768,-9622.677246,-536.266849
503.352206,444.123565,-10732.986159,-919.314598
503.352530,-1850.514855,-12213.398043,-766.095498
503.352854,-888.247130,-11399.171507,0.000000
503.353178,592.164754,-9770.718434,383.047749
503.353503,-296.082377,-9326.594869,76.609550
503.353827,-1702.473667,-9696.697840,229.828649
503.354151,-1406.391290,-9252.574275,536.266849
503.354475,-148.041188,-7920.203579,766.095498
503.354799,888.247130,-7402.059420,459.657299
503.355123,-962.267725,-8586.388927,0.000000
503.355447,-1776.494261,-9178.553681,536.266849
503.355771,148.041188,-8290.306550,1225.752797
503.356096,1628.453072,-7402.059420,995.924147
503.356420,1184.329507,-7994.224174,1149.143247
503.356744,370.102971,-9474.636058,1838.629195
503.357068,1036.288319,-8364.327145,1762.019645
503.357392,2664.741391,-7105.977043,1532.190996
503.357716,1406.391290,-7624.121203,1762.019645
503.358040,-962.267725,-9696.697840,995.924147
503.358364,-1776.494261,-9622.677246,995.924147
503.358689,-962.267725,-8068.244768,1532.190996
503.359013,-1110.308913,-7179.997637,919.314598
503.359337,-2442.679609,-7846.182985,153.219100
503.359661,-2960.823768,-8586.388927,766.095498
503.359985,-592.164754,-7772.162391,1455.581446
503.360309,518.144159,-7846.182985,612.876398
503.360633,-1036.288319,-8660.409521,0.000000
503.360957,-2516.700203,-9474.636058,-536.266849
503.361282,-1628.453072,-9474.636058,-459.657299
503.361606,740.205942,-8882.471304,-153.219100
503.361930,962.267725,-9178.553681,-153.219100
503.362254,0.000000,-10732.986159,0.000000
503.362578,370.102971,-11547.212695,153.219100
503.362902,2146.597232,-10140.821405,153.219100
503.363226,2146.597232,-10140.821405,-459.657299
503.363550,0.000000,-11547.212695,-995.924147
503.363875,-1924.535449,-13249.686362,-383.047749
503.364199,-1406.391290,-12065.356855,0.000000
503.364523,370.102971,-10658.965565,-536.266849
503.364847,-666.185348,-10881.027347,-1455.581446
503.365171,-2294.638420,-11843.295072,-1685.410096
503.365495,-740.205942,-11843.295072,-1149.143247
503.365819,1998.556043,-10510.924376,-612.876398
503.366143,2072.576638,-10584.944971,-919.314598
503.366468,-148.041188,-11991.336260,-842.705048
503.366792,-148.041188,-12583.501014,-612.876398
503.367116,1110.308913,-10658.965565,-153.219100
503.367440,1998.556043,-9474.636058,-919.314598
503.367764,518.144159,-9770.718434,-1685.410096
503.368088,-444.123565,-10510.924376,-919.314598
503.368412,1036.288319,-10066.800811,383.047749
503.368736,2960.823768,-8808.450710,612.876398
503.369061,1628.453072,-7920.203579,-612.876398
503.369385,-740.205942,-9474.636058,-306.438199
503.369709,-1628.453072,-9844.739029,612.876398
503.370033,592.164754,-9030.512492,459.657299
503.370357,1110.308913,-7994.224174,306.438199
503.370681,-592.164754,-8438.347739,306.438199
503.371005,-592.164754,-9030.512492,229.828649
503.371329,1184.329507,-8364.327145,919.314598
503.371654,1998.556043,-7476.080014,0.000000
503.371978,296.082377,-8364.327145,-919.314598
503.372302,-1776.494261,-9918.759623,-612.876398
503.372626,-1036.288319,-9400.615463,-536.266849
503.372950,370.102971,-7550.100608,0.000000
503.373274,-148.041188,-7846.182985,-919.314598
503.373598,-1998.556043,-9474.636058,-842.705048
503.373922,-1924.535449,-10510.924376,0.000000
503.374247,296.082377,-8660.409521,995.924147
503.374571,222.061783,-7179.997637,0.000000
503.374895,-1628.453072,-8660.409521,-689.485948
503.375219,-2590.720797,-10214.842000,-383.047749
503.375543,-1258.350101,-9770.718434,459.657299
503.375867,740.205942,-7994.224174,0.000000
503.376191,0.000000,-7624.121203,-689.485948
503.376515,-1554.432478,-9030.512492,-612.876398
503.376840,444.123565,-9548.656652,-306.438199
503.377164,2294.638420,-9104.533087,-919.314598
503.377488,1480.411884,-9326.594869,-1915.238745
503.377812,-1258.350101,-11325.150913,-1838.629195
503.378138,-1332.370696,-13101.645173,-1225.752797
503.378462,666.185348,-12065.356855,-459.657299
503.378786,740.205942,-10881.027347,-689.485948
503.379110,-1036.288319,-11991.336260,-689.485948
503.379435,-1628.453072,-13323.706956,-306.438199
503.379759,740.205942,-12879.583391,153.219100
503.380083,2664.741391,-11177.109724,766.095498
503.380407,1258.350101,-10732.986159,76.609550
503.380731,-1110.308913,-12435.459826,-612.876398
503.381055,-888.247130,-12509.480420,229.828649
503.381379,1110.308913,-10584.944971,0.000000
503.381703,888.247130,-9474.636058,-766.095498
503.382027,-1406.391290,-9696.697840,-612.876398
503.382351,-1332.370696,-10140.821405,-306.438199
503.382675,1258.350101,-9030.512492,383.047749
503.382999,2294.638420,-7772.162391,689.485948
503.383323,444.123565,-8882.471304,612.876398
503.383647,-1850.514855,-9548.656652,995.924147
503.383971,-222.061783,-9030.512492,1302.362347
503.384295,1480.411884,-7179.997637,1991.848295
503.384619,814.226536,-7031.956449,1532.190996
503.384943,-592.164754,-8808.450710,1378.971896
503.385267,-444.123565,-8438.347739,2068.457845
503.385591,1702.473667,-6217.729913,2221.676944
503.385915,518.144159,-6069.688724,766.095498
503.386240,-1628.453072,-7846.182985,153.219100
503.386564,-2516.700203,-8956.491898,0.000000
503.386888,-888.247130,-8660.409521,229.828649
503.387212,-296.082377,-7698.141797,612.876398
503.387536,-1776.494261,-8290.306550,0.000000
503.387860,-2516.700203,-9622.677246,153.219100
503.388184,-814.226536,-9400.615463,1302.362347
503.388508,1702.473667,-7846.182985,1838.629195
503.388832,888.247130,-9178.553681,842.705048
503.389156,-1406.391290,-10658.965565,229.828649
503.389480,-2072.576638,-11103.089130,536.266849
503.389804,296.082377,-9474.636058,842.705048
503.390128,1702.473667,-8068.244768,0.000000
503.390452,222.061783,-9252.574275,-383.047749
503.390776,-518.144159,-10288.862594,-612.876398
503.391100,1554.432478,-10066.800811,-1149.143247
503.391424,2516.700203,-9474.636058,-1378.971896
503.391748,888.247130,-10881.027347,-1225.752797
503.392072,-888.247130,-12213.398043,-1455.581446
503.392396,-962.267725,-12361.439231,-1072.533697
503.392720,370.102971,-11029.068536,-383.047749
503.393044,740.205942,-11177.109724,-1608.800546
503.393369,-444.123565,-12435.459826,-919.314598
503.393693,0.000000,-12583.501014,306.438199
503.394017,2368.659014,-11177.109724,383.047749
503.394341,2442.679609,-9770.718434,-459.657299
503.394665,-296.082377,-10955.047942,-1225.752797
503.394989,-2442.679609,-11917.315666,-1838.629195
503.395313,-1258.350101,-10214.842000,-1608.800546
503.395637,740.205942,-9030.512492,-1225.752797
503.395961,518.144159,-9030.512492,-1072.533697
503.396285,-962.267725,-10140.821405,-1378.971896
503.396609,0.000000,-9992.780217,-536.266849
503.396933,1184.329507,-8808.450710,-306.438199
503.397257,1184.329507,-9252.574275,-383.047749
503.397581,-444.123565,-10584.944971,0.000000
503.397905,-370.102971,-10881.027347,612.876398
503.398229,1258.350101,-9400.615463,1225.752797
503.398553,2294.638420,-8068.244768,689.485948
503.398877,518.144159,-8734.430116,76.609550
503.399201,-148.041188,-9474.636058,76.609550
503.399525,1110.308913,-8364.327145,766.095498
503.399849,1924.535449,-6809.894666,459.657299
503.400174,370.102971,-7105.977043,-536.266849
503.400498,-2368.659014,-9030.512492,-842.705048
503.400822,-2590.720797,-9474.636058,-536.266849
503.401146,-1184.329507,-7698.141797,-383.047749
503.401470,-962.267725,-7254.018232,-459.657299
503.401794,-2146.597232,-8660.409521,-689.485948
503.402118,-2294.638420,-9474.636058,0.000000
503.402442,-444.123565,-8290.306550,383.047749
503.402766,814.226536,-7698.141797,76.609550
503.403090,-296.082377,-9400.615463,-153.219100
503.403414,-1628.453072,-10881.027347,-153.219100
503.403738,-814.226536,-10510.924376,536.266849
503.404062,1110.308913,-9178.553681,306.438199
503.404386,962.267725,-9622.677246,-612.876398
503.404710,-370.102971,-11029.068536,-919.314598
503.405034,148.041188,-11251.130318,-306.438199
503.405358,1998.556043,-10066.800811,-153.219100
503.405682,1850.514855,-10436.903782,-383.047749
503.406006,-1036.288319,-11547.212695,-1302.362347
503.406330,-2220.617826,-11991.336260,-1532.190996
503.406654,-592.164754,-10807.006753,-1149.143247
503.406978,888.247130,-9770.718434,-842.705048
503.407303,74.020594,-10214.842000,-842.705048
503.407627,-1110.308913,-11547.212695,-995.924147
503.407951,0.000000,-10584.944971,536.266849
503.408275,1406.391290,-9252.574275,-383.047749
503.408599,1332.370696,-9548.656652,-229.828649
503.408923,-592.164754,-11695.253884,-306.438199
503.409247,-740.205942,-12287.418637,0.000000
503.409571,518.144159,-11029.068536,689.485948
503.409895,370.102971,-10140.821405,689.485948
503.410219,-518.144159,-11029.068536,-306.438199
503.410543,-814.226536,-11103.089130,229.828649
503.410867,1036.288319,-9844.739029,1532.190996
503.411191,2664.741391,-9030.512492,995.924147
503.411515,1406.391290,-9030.512492,689.485948
503.411839,-222.061783,-9474.636058,689.485948
503.412163,-296.082377,-7846.182985,1072.533697
503.412487,1406.391290,-6217.729913,1225.752797
503.412811,1480.411884,-6291.750507,612.876398
503.413135,-518.144159,-7846.182985,689.485948
503.413459,-1850.514855,-8216.285956,1378.971896
503.413783,222.061783,-7031.956449,1685.410096
503.414108,814.226536,-6809.894666,1762.019645
503.414432,-740.205942,-8734.430116,842.705048
503.414756,-2294.638420,-9474.636058,1532.190996
503.415080,-1480.411884,-9474.636058,1608.800546
503.415404,-222.061783,-8808.450710,1838.629195
503.415728,-666.185348,-8586.388927,612.876398
503.416052,-1406.391290,-9326.594869,306.438199
503.416376,-370.102971,-9474.636058,612.876398
503.416700,2220.617826,-8882.471304,842.705048
503.417024,2294.638420,-9104.533087,0.000000
503.417348,148.041188,-9918.759623,-919.314598
503.417672,-1776.494261,-9844.739029,-1149.143247
503.417996,-962.267725,-9474.636058,-536.266849
503.418320,-370.102971,-8290.306550,-612.876398
503.418644,-1184.329507,-9252.574275,-919.314598
503.418968,-2294.638420,-10436.903782,-689.485948
503.419292,-1332.370696,-10362.883188,76.609550
503.419616,444.123565,-8586.388927,459.657299
503.419940,0.000000,-8734.430116,-766.095498
503.420264,-1924.535449,-10584.944971,-766.095498
503.420588,-2368.659014,-11843.295072,-766.095498
503.420913,-740.205942,-11325.150913,-995.924147
503.421237,296.082377,-10732.986159,-1225.752797
503.421561,0.000000,-11399.171507,-1532.190996
503.421885,0.000000,-12213.398043,-1762.019645
503.422209,1850.514855,-11547.212695,-1149.143247
503.422533,3034.844362,-10955.047942,-1225.752797
503.422857,2590.720797,-12509.480420,-1225.752797
503.423181,0.000000,-13027.624579,-2604.724693
503.423505,-296.082377,-11029.068536,-1225.752797
503.423829,1258.350101,-9474.636058,-536.266849
503.424153,1628.453072,-9992.780217,-995.924147
503.424477,-444.123565,-10955.047942,-995.924147
503.424801,-1258.350101,-10436.903782,536.266849
503.425125,1258.350101,-8512.368333,1302.362347
503.425449,2664.741391,-8586.388927,536.266849
503.425773,148.041188,-9104.533087,-306.438199
503.426097,-2072.576638,-9400.615463,-536.266849
503.426421,-1850.514855,-8808.450710,-919.314598
503.426745,-518.144159,-8290.306550,-842.705048
503.427069,-296.082377,-8586.388927,-919.314598
503.427393,-148.041188,-9030.512492,-306.438199
503.427717,962.267725,-9252.574275,0.000000
503.428042,2590.720797,-7994.224174,229.828649
503.428366,2146.597232,-8438.347739,-76.609550
503.428690,-222.061783,-9548.656652,-689.485948
503.429014,-1628.453072,-9622.677246,-229.828649
503.429338,0.000000,-8364.327145,612.876398
503.429662,1628.453072,-7179.997637,842.705048
503.429986,74.020594,-8142.265362,536.266849
503.430310,-1924.535449,-9030.512492,229.828649
503.430634,-1850.514855,-8290.306550,842.705048
503.430958,0.000000,-6809.894666,306.438199
503.431282,-888.247130,-7476.080014,-229.828649
503.431606,-3552.988522,-9474.636058,-1072.533697
503.431930,-3552.988522,-10510.924376,0.000000
503.432254,-1184.329507,-10214.842000,-153.219100
503.432578,666.185348,-10066.800811,-383.047749
503.432902,-148.041188,-10955.047942,-766.095498
503.433226,-296.082377,-10955.047942,-306.438199
503.433550,1924.535449,-10436.903782,0.000000
503.433874,3182.885551,-10807.006753,0.000000
503.434198,2220.617826,-11621.233289,-459.657299
503.434522,-296.082377,-11991.336260,-306.438199
503.434847,-888.247130,-10658.965565,76.609550
503.435171,1036.288319,-9252.574275,766.095498
503.435495,962.267725,-9030.512492,-383.047749
503.435819,-1258.350101,-10658.965565,-612.876398
503.436143,-1924.535449,-10955.047942,0.000000
503.436467,148.041188,-9474.636058,76.609550
503.436791,962.267725,-8364.327145,0.000000
503.437115,-1036.288319,-9918.759623,0.000000
503.437439,-1702.473667,-11621.233289,-306.438199
503.437763,74.020594,-11769.274478,0.000000
503.438087,1258.350101,-10362.883188,-229.828649
503.438411,962.267725,-10288.862594,-306.438199
503.438735,370.102971,-11325.150913,0.000000
503.439059,1850.514855,-11473.192101,919.314598
503.439383,3701.029710,-10288.862594,1302.362347
503.439707,2886.803174,-9548.656652,766.095498
503.440031,-740.205942,-10436.903782,0.000000
503.440355,-2072.576638,-10436.903782,76.609550
503.440679,-592.164754,-8438.347739,919.314598
503.441003,148.041188,-6883.915261,842.705048
503.441327,-1332.370696,-7328.038826,76.609550
503.441651,-3478.967927,-8142.265362,612.876398
503.441976,-1924.535449,-6809.894666,919.314598
503.442300,74.020594,-5329.482782,1149.143247
503.442624,222.061783,-7328.038826,229.828649
503.442948,-1924.535449,-8956.491898,229.828649
503.443272,-1406.391290,-8956.491898,766.095498
503.443596,1110.308913,-8586.388927,1225.752797
503.443920,1554.432478,-9400.615463,76.609550
503.444244,370.102971,-10140.821405,536.266849
503.444568,0.000000,-10807.006753,995.924147
503.444892,1480.411884,-9992.780217,1149.143247
503.445216,2368.659014,-9992.780217,612.876398
503.445540,0.000000,-11103.089130,-383.047749
503.445864,-2812.782580,-11547.212695,-766.095498
503.446188,-2812.782580,-10214.842000,-459.657299
503.446512,-666.185348,-8808.450710,-153.219100
503.446836,-814.226536,-8734.430116,-689.485948
503.447160,-2738.761985,-9622.677246,-1455.581446
503.447484,-3552.988522,-9400.615463,-1149.143247
503.447808,-296.082377,-8882.471304,-766.095498
503.448132,1110.308913,-8882.471304,-919.314598
503.448456,-296.082377,-11177.109724,-919.314598
503.448781,-1258.350101,-12065.356855,0.000000
503.449105,518.144159,-11621.233289,-306.438199
503.449429,2146.597232,-10732.986159,-306.438199
503.449753,1776.494261,-11399.171507,-229.828649
503.450077,666.185348,-12731.542202,-612.876398
503.450401,1628.453072,-11843.295072,0.000000
503.450725,3552.988522,-10436.903782,612.876398
503.451049,2960.823768,-10732.986159,-536.266849
503.451373,0.000000,-11695.253884,-1149.143247
503.451697,-1480.411884,-10955.047942,-1532.190996
503.452021,-370.102971,-7994.224174,-1072.533697
503.452345,0.000000,-7179.997637,-1302.362347
503.452669,-1628.453072,-8660.409521,-1685.410096
503.452993,-2886.803174,-9252.574275,-1225.752797
503.453317,-1036.288319,-7328.038826,-536.266849
503.453641,1110.308913,-6291.750507,-153.219100
503.453965,592.164754,-8290.306550,-229.828649
503.454289,-1850.514855,-9992.780217,-383.047749
503.454613,-1036.288319,-9918.759623,229.828649
503.454937,1332.370696,-9474.636058,1532.190996
503.455261,2516.700203,-9844.739029,1302.362347
503.455585,1998.556043,-10658.965565,1149.143247
503.455910,1480.411884,-10140.821405,1685.410096
503.456234,3478.967927,-9104.533087,1072.533697
503.456558,3256.906145,-9104.533087,153.219100
503.456882,740.205942,-10140.821405,-612.876398
503.457206,-2368.659014,-10436.903782,-459.657299
503.457530,-1702.473667,-8734.430116,-536.266849
503.457854,-296.082377,-6883.915261,-536.266849
503.458178,-1332.370696,-7179.997637,-919.314598
503.458502,-3256.906145,-9030.512492,-995.924147
503.458826,-2738.761985,-8660.409521,0.000000
503.459150,74.020594,-7105.977043,612.876398
503.459474,962.267725,-7105.977043,229.828649
503.459798,-666.185348,-9696.697840,153.219100
503.460122,-1554.432478,-10881.027347,459.657299
503.460446,-148.041188,-10066.800811,536.266849
503.460770,1554.432478,-9770.718434,383.047749
503.461094,1332.370696,-11177.109724,-153.219100
503.461418,962.267725,-12139.377449,-612.876398
503.461742,1702.473667,-11103.089130,-306.438199
503.462066,3108.864956,-10362.883188,-306.438199
503.462390,1702.473667,-12583.501014,-919.314598
503.462715,-1554.432478,-13915.871710,-1532.190996
503.463039,-2738.761985,-12805.562797,-1455.581446
503.463363,-1554.432478,-9992.780217,-536.266849
503.463687,0.000000,-9770.718434,-1072.533697
503.464011,-1554.432478,-11103.089130,-995.924147
503.464335,-2442.679609,-11399.171507,-306.438199
503.464659,-1258.350101,-8438.347739,76.609550
503.464983,1258.350101,-7772.162391,0.000000
503.465307,518.144159,-9326.594869,-76.609550
503.465631,-1554.432478,-10362.883188,0.000000
503.465955,-1258.350101,-9474.636058,0.000000
503.466279,740.205942,-8660.409521,76.609550
503.466603,1776.494261,-9548.656652,459.657299
503.466927,962.267725,-10436.903782,229.828649
503.467251,1702.473667,-9622.677246,995.924147
503.467575,2960.823768,-7994.224174,689.485948
503.467899,3775.050304,-8956.491898,842.705048
503.468223,1480.411884,-11473.192101,383.047749
503.468547,-962.267725,-11177.109724,536.266849
503.468871,-370.102971,-8586.388927,1378.971896
503.469195,1258.350101,-7105.977043,1072.533697
503.469519,0.000000,-7846.182985,459.657299
503.469844,-2590.720797,-9548.656652,229.828649
503.470168,-2368.659014,-9030.512492,1072.533697
503.470492,-518.144159,-6735.874072,766.095498
503.470816,-592.164754,-7254.018232,612.876398
503.471140,-2368.659014,-9252.574275,0.000000
503.471464,-2812.782580,-9548.656652,306.438199
503.471788,-888.247130,-8068.244768,689.485948
503.472112,0.000000,-8142.265362,766.095498
503.472436,-296.082377,-9696.697840,383.047749
503.472760,-814.226536,-9844.739029,459.657299
503.473084,1184.329507,-8808.450710,1455.581446
503.473408,3330.926739,-9104.533087,766.095498
503.473732,2368.659014,-10510.924376,229.828649
503.474056,-592.164754,-11399.171507,-76.609550
503.474380,-1110.308913,-10955.047942,153.219100
503.474704,444.123565,-9326.594869,-153.219100
503.475028,222.061783,-8438.347739,-459.657299
503.475352,-1110.308913,-9918.759623,-995.924147
503.475676,-2072.576638,-10955.047942,-1149.143247
503.476000,-814.226536,-9696.697840,-612.876398
503.476324,222.061783,-8586.388927,-1072.533697
503.476649,-1554.432478,-10140.821405,-1302.362347
503.476973,-2664.741391,-11917.315666,-1072.533697
503.477297,-1554.432478,-10955.047942,-995.924147
503.477621,0.000000,-9992.780217,-919.314598
503.477945,148.041188,-10955.047942,-1532.190996
503.478269,-148.041188,-11621.233289,-1532.190996
503.478593,740.205942,-11473.192101,-919.314598
503.478917,2886.803174,-10362.883188,0.000000
503.479241,3256.906145,-10732.986159,-612.876398
503.479565,1184.329507,-12139.377449,-1302.362347
503.479889,-666.185348,-13175.665768,-1072.533697
503.480213,148.041188,-10658.965565,-536.266849
503.480537,1776.494261,-9326.594869,-153.219100
503.480861,1258.350101,-10214.842000,-1149.143247
503.481185,-1110.308913,-10140.821405,-1072.533697
503.481509,-888.247130,-8734.430116,0.000000
503.481833,1184.329507,-7179.997637,76.609550
503.482157,1036.288319,-7698.141797,-995.924147
503.482481,-1554.432478,-9104.533087,-842.705048
503.482805,-1776.494261,-8882.471304,0.000000
503.483129,74.020594,-7698.141797,459.657299
503.483453,1036.288319,-8216.285956,612.876398
503.483777,0.000000,-8882.471304,0.000000
503.484101,-370.102971,-8586.388927,0.000000
503.484425,1036.288319,-7772.162391,383.047749
503.484749,1702.473667,-8438.347739,766.095498
503.485074,518.144159,-10214.842000,0.000000
503.485398,-1184.329507,-11325.150913,383.047749
503.485722,-1258.350101,-10584.944971,995.924147
503.486046,962.267725,-8438.347739,1149.143247
503.486370,1036.288319,-7772.162391,0.000000
503.486694,-1332.370696,-9474.636058,689.485948
503.487018,-2368.659014,-9844.739029,689.485948
503.487342,0.000000,-8660.409521,1072.533697
503.487666,1036.288319,-7031.956449,536.266849
503.487990,-1036.288319,-8586.388927,-536.266849
503.488314,-3256.906145,-10066.800811,-689.485948
503.488638,-1998.556043,-9474.636058,76.609550
503.488962,-444.123565,-8808.450710,383.047749
503.489286,-740.205942,-10140.821405,-766.095498
503.489610,-1924.535449,-11103.089130,-689.485948
503.489934,-592.164754,-10584.944971,229.828649
503.490258,1998.556043,-10140.821405,612.876398
503.490582,2664.741391,-11177.109724,76.609550
503.490906,814.226536,-12879.583391,153.219100
503.491230,-1110.308913,-12953.603985,689.485948
503.491554,592.164754,-11399.171507,229.828649
503.491878,2368.659014,-9622.677246,229.828649
503.492202,1924.535449,-10807.006753,0.000000
503.492526,-222.061783,-11917.315666,-459.657299
503.492850,0.000000,-10807.006753,-842.705048
503.493174,1184.329507,-8734.430116,-459.657299
503.493498,1110.308913,-9252.574275,-459.657299
503.493822,-1406.391290,-10732.986159,-229.828649
503.494147,-1998.556043,-10288.862594,0.000000
503.494471,-962.267725,-8068.244768,153.219100
503.494795,74.020594,-8734.430116,0.000000
503.495119,-444.123565,-10288.862594,-153.219100
503.495443,-444.123565,-10436.903782,689.485948
503.495767,1406.391290,-8660.409521,2145.067394
503.496091,3182.885551,-8142.265362,1149.143247
503.496415,2072.576638,-9622.677246,689.485948
503.496739,-148.041188,-10881.027347,612.876398
503.497063,-74.020594,-9992.780217,383.047749
503.497387,1480.411884,-7772.162391,229.828649
503.497711,1480.411884,-8068.244768,153.219100
503.498035,0.000000,-9918.759623,0.000000
503.498359,-444.123565,-9770.718434,0.000000
503.498683,-222.061783,-7179.997637,0.000000
503.499007,148.041188,-7105.977043,0.000000
503.499331,-1776.494261,-8808.450710,-459.657299
503.499655,-3627.009116,-9770.718434,0.000000
503.499979,-2442.679609,-7994.224174,766.095498
503.500303,-592.164754,-7105.977043,766.095498
503.500627,-814.226536,-8216.285956,919.314598
503.500951,-1332.370696,-9400.615463,612.876398
503.501275,-222.061783,-8216.285956,1378.971896
503.501599,1850.514855,-7105.977043,1149.143247
503.501923,1702.473667,-8512.368333,383.047749
503.502247,-666.185348,-10955.047942,-383.047749
503.502571,-1998.556043,-11325.150913,-689.485948
503.502895,-666.185348,-9622.677246,0.000000
503.503220,1184.329507,-9104.533087,-1225.752797
503.503544,518.144159,-10881.027347,-1225.752797
503.503868,-1332.370696,-11843.295072,-842.705048
503.504192,-814.226536,-11103.089130,-612.876398
503.504516,592.164754,-9992.780217,0.000000
503.504840,-222.061783,-10807.006753,-229.828649
503.505164,-2294.638420,-12509.480420,-612.876398
503.505488,-2886.803174,-11621.233289,-306.438199
503.505812,-888.247130,-9548.656652,-229.828649
503.506136,0.000000,-9548.656652,-995.924147
503.506460,-1332.370696,-11029.068536,-995.924147
503.506784,-1258.350101,-11473.192101,-995.924147
503.507108,740.205942,-9474.636058,-383.047749
503.507432,2294.638420,-9326.594869,-1225.752797
503.507756,1184.329507,-10807.006753,-1455.581446
503.508080,-370.102971,-12287.418637,-1762.019645
503.508404,0.000000,-11029.068536,-1149.143247
503.508728,2368.659014,-9770.718434,-153.219100
503.509052,3182.885551,-10214.842000,0.000000
503.509376,1998.556043,-11695.253884,153.219100
503.509700,740.205942,-10140.821405,383.047749
503.510024,1776.494261,-8216.285956,536.266849
503.510348,1998.556043,-8216.285956,0.000000
503.510672,-222.061783,-10066.800811,-306.438199
503.510996,-2368.659014,-9844.739029,153.219100
503.511320,-1258.350101,-7402.059420,229.828649
503.511644,148.041188,-6365.771101,-306.438199
503.511968,-222.061783,-7772.162391,-919.314598
503.512293,-1776.494261,-8808.450710,-842.705048
503.512617,-962.267725,-7772.162391,-612.876398
503.512941,888.247130,-6883.915261,-153.219100
503.513265,1110.308913,-7994.224174,229.828649
503.513589,0.000000,-10288.862594,153.219100
503.513913,-592.164754,-10955.047942,459.657299
503.514237,518.144159,-8438.347739,1685.410096
503.514561,1406.391290,-8364.327145,536.266849
503.514885,1036.288319,-10140.821405,383.047749
503.515209,-370.102971,-10732.986159,919.314598
503.515533,222.061783,-9178.553681,995.924147
503.515857,1036.288319,-7994.224174,383.047749
503.516181,74.020594,-9548.656652,0.000000
503.516505,-1776.494261,-11917.315666,0.000000
503.516829,-3034.844362,-9844.739029,-229.828649
503.517153,-1480.411884,-8290.306550,-459.657299
503.517477,-888.247130,-8364.327145,-842.705048
503.517801,-1776.494261,-10807.006753,-383.047749
503.518125,-1998.556043,-11029.068536,0.000000
503.518449,0.000000,-8586.388927,383.047749
503.518773,1628.453072,-8068.244768,689.485948
503.519097,962.267725,-11251.130318,306.438199
503.519421,-962.267725,-12435.459826,0.000000
503.519745,-444.123565,-11325.150913,919.314598
503.520069,1332.370696,-9622.677246,995.924147
503.520393,1998.556043,-11029.068536,76.609550
503.520717,296.082377,-12139.377449,229.828649
503.521042,-296.082377,-10955.047942,612.876398
503.521366,1406.391290,-9474.636058,766.095498
503.521690,1554.432478,-10140.821405,-306.438199
503.522014,0.000000,-11843.295072,-689.485948
503.522338,-2220.617826,-11325.150913,-612.876398
503.522662,-1332.370696,-9178.553681,-383.047749
503.522986,148.041188,-8734.430116,-536.266849
503.523310,0.000000,-9548.656652,153.219100
503.523634,-740.205942,-10732.986159,383.047749
503.523958,0.000000,-9030.512492,1072.533697
503.524282,2220.617826,-8068.244768,689.485948
503.524606,2146.597232,-8586.388927,229.828649
503.524930,222.061783,-10140.821405,76.609550
503.525254,-814.226536,-10362.883188,689.485948
503.525578,518.144159,-8364.327145,1455.581446
503.525902,1924.535449,-7476.080014,919.314598
503.526226,1480.411884,-9400.615463,689.485948
503.526550,370.102971,-10214.842000,229.828649
503.526874,518.144159,-8364.327145,229.828649
503.527198,1628.453072,-7328.038826,306.438199
503.527522,518.144159,-9326.594869,0.000000
503.527846,-1702.473667,-11029.068536,-153.219100
503.528170,-2146.597232,-9104.533087,383.047749
503.528494,-1036.288319,-7105.977043,306.438199
503.528818,-814.226536,-7698.141797,-612.876398
503.529142,-1480.411884,-9474.636058,-842.705048
503.529466,-1998.556043,-9326.594869,383.047749
503.529790,0.000000,-7402.059420,919.314598
503.530115,1258.350101,-7698.141797,459.657299
503.530439,-740.205942,-9622.677246,0.000000
503.530763,-2442.679609,-10955.047942,-306.438199
503.531087,-1628.453072,-9400.615463,383.047749
503.531411,0.000000,-7772.162391,-229.828649
503.531735,592.164754,-9252.574275,-612.876398
503.532059,-296.082377,-11177.109724,-383.047749
503.532383,296.082377,-10214.842000,0.000000
503.532707,1850.514855,-8956.491898,0.000000
503.533031,1480.411884,-9548.656652,-842.705048
503.533355,-518.144159,-12213.398043,-1149.143247
503.533679,-2220.617826,-11843.295072,-612.876398
503.534003,-592.164754,-10732.986159,-536.266849
503.534327,592.164754,-9844.739029,-995.924147
503.534651,148.041188,-11399.171507,-919.314598
503.534975,-666.185348,-12435.459826,-766.095498
503.535299,518.144159,-10881.027347,229.828649
503.535623,2590.720797,-9474.636058,229.828649
503.535947,2442.679609,-11103.089130,0.000000
503.536271,0.000000,-12657.521608,-919.314598
503.536595,-740.205942,-11843.295072,-919.314598
503.536919,740.205942,-9474.636058,-306.438199
503.537243,1702.473667,-9548.656652,-612.876398
503.537567,148.041188,-11251.130318,-1072.533697
503.537891,-592.164754,-10955.047942,-229.828649
503.538215,740.205942,-8808.450710,153.219100
503.538539,2146.597232,-8438.347739,-383.047749
503.538863,370.102971,-9548.656652,-995.924147
503.539188,-1776.494261,-10807.006753,-153.219100
503.539512,-1184.329507,-9770.718434,229.828649
503.539836,74.020594,-7846.182985,0.000000
503.540160,148.041188,-8586.388927,-306.438199
503.540484,-592.164754,-9326.594869,0.000000
503.540808,-296.082377,-9474.636058,383.047749
503.541132,1554.432478,-7698.141797,229.828649
503.541456,1332.370696,-7179.997637,-459.657299
503.541780,-1036.288319,-9326.594869,-306.438199
503.542104,-2368.659014,-9548.656652,0.000000
503.542428,-962.267725,-8068.244768,306.438199
503.542752,518.144159,-6883.915261,459.657299
503.543076,0.000000,-8216.285956,459.657299
503.543400,-740.205942,-9992.780217,0.000000
503.543724,-962.267725,-8882.471304,766.095498
503.544048,444.123565,-7328.038826,536.266849
503.544372,444.123565,-8734.430116,0.000000
503.544696,-1628.453072,-11103.089130,-306.438199
503.545020,-2294.638420,-11177.109724,153.219100
503.545344,-888.247130,-9178.553681,-229.828649
503.545668,518.144159,-9474.636058,-153.219100
503.545992,0.000000,-11325.150913,-229.828649
503.546316,-740.205942,-11325.150913,383.047749
503.546640,666.185348,-9844.739029,612.876398
503.546964,2220.617826,-9252.574275,-229.828649
503.547288,814.226536,-10584.944971,-842.705048
503.547612,-1332.370696,-11917.315666,-766.095498
503.547936,-1184.329507,-10732.986159,-306.438199
503.548261,666.185348,-8882.471304,76.609550
503.548585,1480.411884,-9178.553681,153.219100
503.548909,0.000000,-11251.130318,-76.609550
503.549233,0.000000,-11029.068536,459.657299
503.549557,1480.411884,-9474.636058,459.657299
503.549881,1480.411884,-8438.347739,76.609550
503.550205,-222.061783,-10510.924376,-612.876398
503.550529,-1702.473667,-12361.439231,-306.438199
503.550853,-1184.329507,-11325.150913,229.828649
503.551177,740.205942,-9548.656652,766.095498
503.551501,1036.288319,-10140.821405,76.609550
503.551825,0.000000,-11843.295072,-153.219100
503.552149,0.000000,-11325.150913,766.095498
503.552473,1628.453072,-9030.512492,919.314598
503.552797,2072.576638,-9474.636058,229.828649
503.553121,148.041188,-11251.130318,76.609550
503.553445,-962.267725,-11251.130318,995.924147
503.553769,-222.061783,-8586.388927,995.924147
503.554093,1332.370696,-6883.915261,306.438199
503.554417,0.000000,-7698.141797,0.000000
503.554741,-1776.494261,-9918.759623,76.609550
503.555065,-1036.288319,-8808.450710,766.095498
503.555389,148.041188,-6291.750507,842.705048
503.555713,0.000000,-7402.059420,689.485948
503.556037,-1184.329507,-9918.759623,1225.752797
503.556361,-2072.576638,-10362.883188,1532.190996
503.556685,-666.185348,-8216.285956,1378.971896
503.557010,0.000000,-7550.100608,459.657299
503.557334,-148.041188,-9178.553681,76.609550
503.557658,-740.205942,-9992.780217,153.219100
503.557982,592.164754,-8586.388927,766.095498
503.558306,2220.617826,-7476.080014,536.266849
503.558630,1036.288319,-9622.677246,-1302.362347
503.558954,-1110.308913,-11695.253884,-153.219100
503.559278,-1480.411884,-9992.780217,229.828649
503.559602,0.000000,-7920.203579,-536.266849
503.559926,74.020594,-8364.327145,-612.876398
503.560250,-1998.556043,-10881.027347,-612.876398
503.560574,-2368.659014,-11399.171507,-229.828649
503.560898,-592.164754,-8956.491898,76.609550
503.561222,148.041188,-7846.182985,0.000000
503.561546,-444.123565,-10288.862594,-383.047749
503.561870,-1924.535449,-12213.398043,-306.438199
503.562194,-666.185348,-11769.274478,0.000000
503.562518,888.247130,-9918.759623,-306.438199
503.562842,1258.350101,-10436.903782,-842.705048
503.563166,1258.350101,-11991.336260,-459.657299
503.563490,1554.432478,-11325.150913,-383.047749
503.563814,3478.967927,-9844.739029,-536.266849
503.564138,2664.741391,-9844.739029,-1378.971896
503.564462,222.061783,-11917.315666,-1532.190996
503.564786,-1406.391290,-11621.233289,-1608.800546
503.565110,-296.082377,-9252.574275,-842.705048
503.565434,740.205942,-8068.244768,-919.314598
503.565758,-148.041188,-9326.594869,-1225.752797
503.566083,-1554.432478,-10732.986159,-612.876398
503.566407,-962.267725,-8438.347739,0.000000
503.566731,296.082377,-7624.121203,-153.219100
503.567055,-148.041188,-9030.512492,-689.485948
503.567379,-1628.453072,-11029.068536,-536.266849
503.567703,-1776.494261,-10807.006753,0.000000
503.568027,0.000000,-9474.636058,0.000000
503.568351,1702.473667,-10140.821405,-459.657299
503.568675,740.205942,-10732.986159,-383.047749
503.568999,666.185348,-10807.006753,-536.266849
503.569323,2146.597232,-9474.636058,612.876398
503.569647,3182.885551,-9030.512492,-153.219100
503.569971,1110.308913,-9844.739029,-689.485948
503.570295,-888.247130,-10658.965565,229.828649
503.570619,-592.164754,-9252.574275,0.000000
503.570943,592.164754,-7105.977043,0.000000
503.571267,148.041188,-7179.997637,-383.047749
503.571591,-1554.432478,-9252.574275,0.000000
503.571915,-2146.597232,-9030.512492,306.438199
503.572239,-666.185348,-6809.894666,153.219100
503.572563,-518.144159,-6661.853478,153.219100
503.572887,-1924.535449,-9400.615463,153.219100
503.573211,-2590.720797,-10584.944971,0.000000
503.573535,-2072.576638,-9252.574275,459.657299
503.573859,0.000000,-8364.327145,459.657299
503.574183,370.102971,-10066.800811,0.000000
503.574507,370.102971,-11769.274478,0.000000
503.574831,1406.391290,-10955.047942,995.924147
503.575156,2294.638420,-9474.636058,612.876398
503.575480,2146.597232,-10214.842000,306.438199
503.575804,-370.102971,-11991.336260,-383.047749
503.576128,-1702.473667,-11843.295072,0.000000
503.576452,-666.185348,-9696.697840,0.000000
503.576776,0.000000,-8586.388927,-306.438199
503.577100,-1258.350101,-9844.739029,-383.047749
503.577424,-2368.659014,-10658.965565,-229.828649
503.577748,-1628.453072,-8290.306550,0.000000
503.578072,-444.123565,-6957.935855,-689.485948
503.578396,-1258.350101,-9252.574275,-383.047749
503.578720,-1998.556043,-11399.171507,-383.047749
503.579044,-1184.329507,-11029.068536,383.047749
503.579368,888.247130,-9474.636058,842.705048
503.579692,1998.556043,-9770.718434,306.438199
503.580016,1850.514855,-11843.295072,383.047749
503.580340,1776.494261,-12065.356855,1302.362347
503.580664,3108.864956,-10066.800811,1915.238745
503.580988,4145.153275,-10066.800811,766.095498
503.581312,1628.453072,-11103.089130,0.000000
503.581636,-888.247130,-11621.233289,0.000000
503.581960,-1184.329507,-9548.656652,0.000000
503.582284,370.102971,-7698.141797,-229.828649
503.582608,0.000000,-7624.121203,-383.047749
503.582932,-1998.556043,-8956.491898,689.485948
503.583256,-1628.453072,-8364.327145,536.266849
503.583581,518.144159,-5995.668130,612.876398
503.583905,370.102971,-6439.791695,0.000000
503.584229,-1110.308913,-9030.512492,229.828649
503.584553,-1924.535449,-10584.944971,459.657299
503.584877,-518.144159,-9474.636058,1225.752797
503.585201,1036.288319,-8586.388927,1225.752797
503.585525,1036.288319,-10066.800811,612.876398
503.585849,518.144159,-11843.295072,842.705048
503.586173,1036.288319,-10510.924376,1225.752797
503.586497,2294.638420,-9104.533087,612.876398
503.586821,1480.411884,-10066.800811,0.000000
503.587145,-444.123565,-11473.192101,-306.438199
503.587469,-1258.350101,-10658.965565,0.000000
503.587793,-888.247130,-7994.224174,76.609550
503.588117,-296.082377,-6883.915261,-306.438199
503.588441,-1850.514855,-9104.533087,-1302.362347
503.588765,-2664.741391,-10214.842000,-612.876398
503.589089,-1998.556043,-7698.141797,-459.657299
503.589413,-592.164754,-6365.771101,-689.485948
503.589738,-1258.350101,-8512.368333,-383.047749
503.590062,-1850.514855,-11473.192101,153.219100
503.590386,-1258.350101,-10807.006753,536.266849
503.590710,0.000000,-9326.594869,919.314598
503.591034,592.164754,-10140.821405,-229.828649
503.591358,444.123565,-11843.295072,-766.095498
503.591682,1258.350101,-11991.336260,-153.219100
503.592006,2664.741391,-10362.883188,459.657299
503.592330,3256.906145,-10066.800811,-306.438199
503.592654,1480.411884,-11843.295072,-1378.971896
503.592978,0.000000,-11917.315666,-1225.752797
503.593302,222.061783,-9844.739029,-1072.533697
503.593626,1258.350101,-8364.327145,-383.047749
503.593950,1036.288319,-9770.718434,-1378.971896
503.594274,-1480.411884,-10955.047942,-1072.533697
503.594598,-1998.556043,-9696.697840,-536.266849
503.594922,-222.061783,-7105.977043,0.000000
503.595246,0.000000,-7772.162391,-536.266849
503.595571,-1850.514855,-11029.068536,-383.047749
503.595895,-2146.597232,-11177.109724,153.219100
503.596219,-666.185348,-8956.491898,689.485948
503.596543,666.185348,-8586.388927,383.047749
503.596867,1110.308913,-10214.842000,0.000000
503.597191,592.164754,-11547.212695,-229.828649
503.597515,1776.494261,-10066.800811,0.000000
503.597839,2886.803174,-8882.471304,229.828649
503.598163,2146.597232,-10658.965565,-766.095498
503.598487,0.000000,-11843.295072,-612.876398
503.598811,-370.102971,-10362.883188,-153.219100
503.599135,888.247130,-7994.224174,-306.438199
503.599459,1110.308913,-7846.182985,-919.314598
503.599783,-1036.288319,-9474.636058,-1072.533697
503.600107,-2146.597232,-10066.800811,-229.828649
503.600431,-962.267725,-7846.182985,536.266849
503.600755,148.041188,-7031.956449,536.266849
503.601079,-2146.597232,-8882.471304,306.438199
503.601403,-3552.988522,-10436.903782,153.219100
503.601728,-2664.741391,-9474.636058,766.095498
503.602052,-740.205942,-7698.141797,383.047749
503.602376,148.041188,-8142.265362,-229.828649
503.602700,444.123565,-9918.759623,153.219100
503.603024,1184.329507,-10140.821405,1149.143247
503.603348,2886.803174,-9474.636058,536.266849
503.603672,2590.720797,-9622.677246,0.000000
503.603996,518.144159,-11473.192101,-766.095498
503.604320,-740.205942,-11843.295072,-689.485948
503.604644,0.000000,-9770.718434,-153.219100
503.604968,1628.453072,-8808.450710,0.000000
503.605292,518.144159,-9400.615463,-612.876398
503.605616,-962.267725,-10807.006753,153.219100
503.605940,-1258.350101,-9474.636058,1302.362347
503.606264,74.020594,-7476.080014,229.828649
503.606588,-592.164754,-8142.265362,0.000000
503.606912,-2590.720797,-10732.986159,229.828649
503.607236,-2442.679609,-11473.192101,842.705048
503.607560,-814.226536,-9622.677246,842.705048
503.607885,518.144159,-9104.533087,229.828649
503.608209,444.123565,-10288.862594,536.266849
503.608533,814.226536,-11251.130318,153.219100
503.608857,2664.741391,-9844.739029,536.266849
503.609181,3108.864956,-9252.574275,229.828649
503.609505,1924.535449,-10658.965565,76.609550
503.609829,444.123565,-12213.398043,-153.219100
503.610153,370.102971,-10658.965565,689.485948
503.610477,888.247130,-7846.182985,1072.533697
503.610801,370.102971,-7772.162391,766.095498
503.611125,-1406.391290,-9548.656652,0.000000
503.611449,-2294.638420,-10066.800811,689.485948
503.611773,-1184.329507,-7179.997637,919.314598
503.612097,-740.205942,-6069.688724,383.047749
503.612421,-2886.803174,-8364.327145,-383.047749
503.612745,-3849.070898,-10066.800811,-229.828649
503.613069,-2590.720797,-8660.409521,0.000000
503.613393,-296.082377,-7920.203579,229.828649
503.613717,444.123565,-9178.553681,0.000000
503.614042,444.123565,-11399.171507,383.047749
503.614366,1554.432478,-11547.212695,1072.533697
503.614690,3404.947333,-10140.821405,919.314598
503.615014,3404.947333,-9844.739029,383.047749
503.615338,814.226536,-11769.274478,-76.609550
503.615662,-888.247130,-12583.501014,-153.219100
503.615986,-1036.288319,-10066.800811,0.000000
503.616310,-592.164754,-8290.306550,-459.657299
503.616634,-1406.391290,-9474.636058,-842.705048
503.616958,-2738.761985,-11251.130318,-536.266849
503.617282,-1924.535449,-9770.718434,-612.876398
503.617606,-1110.308913,-6883.915261,-459.657299
503.617930,-1628.453072,-6957.935855,-995.924147
503.618254,-2442.679609,-9770.718434,-1378.971896
503.618578,-2294.638420,-10214.842000,-919.314598
503.618902,-296.082377,-8808.450710,-459.657299
503.619226,1554.432478,-8808.450710,-536.266849
503.619550,1776.494261,-10436.903782,-459.657299
503.619874,1924.535449,-11473.192101,459.657299
503.620199,3256.906145,-10732.986159,919.314598
503.620523,4367.215058,-9770.718434,76.609550
503.620847,2812.782580,-11325.150913,-383.047749
503.621171,666.185348,-13027.624579,-459.657299
503.621495,518.144159,-12139.377449,0.000000
503.621819,1628.453072,-9326.594869,153.219100
503.622143,1258.350101,-9178.553681,-536.266849
503.622467,-1258.350101,-10288.862594,-1838.629195
503.622791,-2442.679609,-10214.842000,-1072.533697
503.623115,-1258.350101,-7476.080014,-1149.143247
503.623439,-296.082377,-7031.956449,-995.924147
503.623763,-1110.308913,-8808.450710,-919.314598
503.624087,-2516.700203,-9770.718434,-536.266849
503.624411,-1480.411884,-7476.080014,0.000000
503.624735,370.102971,-7105.977043,0.000000
503.625059,666.185348,-8734.430116,-536.266849
503.625383,148.041188,-10658.965565,536.266849
503.625707,1184.329507,-10140.821405,1302.362347
503.626032,3404.947333,-9030.512492,1762.019645
503.626356,2960.823768,-9770.718434,536.266849
503.626680,444.123565,-11547.212695,0.000000
503.627004,-1036.288319,-11547.212695,383.047749
503.627328,-74.020594,-9992.780217,0.000000
503.627652,518.144159,-8290.306550,0.000000
503.627976,-1258.350101,-9030.512492,-1072.533697
503.628300,-2516.700203,-10436.903782,-842.705048
503.628624,-2072.576638,-8956.491898,-842.705048
503.628948,-888.247130,-7179.997637,-1302.362347
503.629272,-1258.350101,-8216.285956,-1455.581446
503.629596,-3478.967927,-10732.986159,-995.924147
503.629920,-2886.803174,-10881.027347,0.000000
503.630244,-814.226536,-8734.430116,153.219100
503.630568,148.041188,-8808.450710,0.000000
503.630892,-740.205942,-10362.883188,-766.095498
503.631216,-296.082377,-11621.233289,383.047749
503.631540,1480.411884,-10955.047942,1302.362347
503.631864,2368.659014,-10436.903782,536.266849
503.632189,1110.308913,-11103.089130,-536.266849
503.632513,-666.185348,-11917.315666,-153.219100
503.632837,74.020594,-11325.150913,76.609550
503.633161,2368.659014,-9918.759623,-153.219100
503.633485,2664.741391,-9844.739029,-612.876398
503.633809,1036.288319,-11177.109724,-766.095498
503.634133,444.123565,-10658.965565,-306.438199
503.634457,1480.411884,-8512.368333,-229.828649
503.634781,1406.391290,-8068.244768,-383.047749
503.635105,-592.164754,-9918.759623,-1149.143247
503.635429,-1924.535449,-10955.047942,153.219100
503.635753,-888.247130,-9326.594869,459.657299
503.636077,666.185348,-7698.141797,0.000000
503.636401,0.000000,-8438.347739,0.000000
503.636725,-740.205942,-9844.739029,153.219100
503.637049,296.082377,-9400.615463,1378.971896
503.637373,2220.617826,-8660.409521,1685.410096
503.637697,1480.411884,-8808.450710,1072.533697
503.638021,-518.144159,-9992.780217,919.314598
503.638346,-592.164754,-10732.986159,1225.752797
503.638670,518.144159,-9548.656652,842.705048
503.638994,1036.288319,-8290.306550,0.000000
503.639318,-518.144159,-9178.553681,-229.828649
503.639642,-1258.350101,-10214.842000,306.438199
503.639966,296.082377,-8882.471304,842.705048
503.640290,1036.288319,-7402.059420,536.266849
503.640614,-296.082377,-7698.141797,229.828649
503.640938,-2368.659014,-9770.718434,76.609550
503.641262,-2368.659014,-9622.677246,1225.752797
503.641586,-592.164754,-7920.203579,1608.800546
503.641910,-148.041188,-7624.121203,995.924147
503.642234,-1036.288319,-9030.512492,536.266849
503.642558,-1110.308913,-9844.739029,1608.800546
503.642882,1184.329507,-9104.533087,1915.238745
503.643206,1480.411884,-8364.327145,536.266849
503.643530,-296.082377,-9918.759623,0.000000
503.643854,-1924.535449,-11325.150913,-383.047749
503.644178,-888.247130,-10658.965565,-459.657299
503.644503,740.205942,-8586.388927,-689.485948
503.644827,740.205942,-9474.636058,-459.657299
503.645151,0.000000,-11991.336260,-1149.143247
503.645475,518.144159,-11547.212695,0.000000
503.645799,1480.411884,-9622.677246,612.876398
503.646123,518.144159,-9178.553681,-612.876398
503.646447,-1702.473667,-11029.068536,-1225.752797
503.646771,-2516.700203,-12065.356855,-383.047749
503.647095,-1258.350101,-10362.883188,459.657299
503.647419,592.164754,-8364.327145,0.000000
503.647743,0.000000,-9178.553681,-842.705048
503.648067,-1184.329507,-10214.842000,-306.438199
503.648391,222.061783,-10140.821405,-229.828649
503.648715,2072.576638,-8734.430116,-995.924147
503.649039,1850.514855,-9770.718434,-1149.143247
503.649363,0.000000,-11769.274478,-1149.143247
503.649687,0.000000,-11917.315666,-1072.533697
503.650011,1998.556043,-9474.636058,-689.485948
503.650335,2664.741391,-9844.739029,-995.924147
503.650660,1184.329507,-11325.150913,-842.705048
503.650984,74.020594,-12213.398043,-306.438199
503.651308,666.185348,-9918.759623,306.438199
503.651632,1258.350101,-8364.327145,76.609550
503.651956,-592.164754,-9548.656652,-842.705048
503.652280,-3256.906145,-11177.109724,-536.266849
503.652604,-2812.782580,-10658.965565,153.219100
503.652928,-1406.391290,-7105.977043,-536.266849
503.653252,-1184.329507,-7105.977043,-766.095498
503.653576,-1776.494261,-8882.471304,-383.047749
503.653900,-370.102971,-9104.533087,0.000000
503.654224,1258.350101,-6883.915261,0.000000
503.654548,1184.329507,-7031.956449,-306.438199
503.654872,-222.061783,-9918.759623,-459.657299
503.655196,-1258.350101,-10807.006753,-306.438199
503.655520,-592.164754,-8364.327145,0.000000
503.655844,444.123565,-6957.935855,0.000000
503.656168,592.164754,-9030.512492,-612.876398
503.656492,0.000000,-11177.109724,-383.047749
503.656817,370.102971,-9992.780217,842.705048
503.657141,2072.576638,-7846.182985,383.047749
503.657465,1480.411884,-7698.141797,0.000000
503.657789,-1406.391290,-9992.780217,-842.705048
503.658113,-2738.761985,-11621.233289,-612.876398
503.658437,-1184.329507,-9844.739029,-612.876398
503.658761,0.000000,-9178.553681,-689.485948
503.659085,-962.267725,-10288.862594,-766.095498
503.659409,-1258.350101,-11325.150913,-383.047749
503.659733,222.061783,-10955.047942,229.828649
503.660057,1776.494261,-9770.718434,383.047749
503.660381,444.123565,-10881.027347,-383.047749
503.660705,-1332.370696,-12583.501014,-383.047749
503.661029,-1036.288319,-12065.356855,0.000000
503.661353,1036.288319,-10066.800811,536.266849
503.661677,1332.370696,-9696.697840,76.609550
503.662001,592.164754,-11547.212695,0.000000
503.662325,592.164754,-11695.253884,383.047749
503.662650,2072.576638,-8956.491898,1149.143247
503.662974,3182.885551,-8068.244768,76.609550
503.663298,1258.350101,-9400.615463,-383.047749
503.663622,-962.267725,-10584.944971,229.828649
503.663946,-592.164754,-9474.636058,536.266849
503.664270,962.267725,-8068.244768,842.705048
503.664594,370.102971,-8216.285956,0.000000
503.664918,-444.123565,-10140.821405,1608.800546
503.665242,-148.041188,-10214.842000,1838.629195
503.665566,1332.370696,-8290.306550,2145.067394
503.665890,888.247130,-7920.203579,995.924147
503.666214,-1776.494261,-9474.636058,76.609550
503.666538,-3330.926739,-9844.739029,0.000000
503.666862,-1554.432478,-8216.285956,1072.533697
503.667186,0.000000,-7031.956449,1302.362347
503.667510,-518.144159,-8586.388927,0.000000
503.667834,-2146.597232,-9474.636058,306.438199
503.668158,-1036.288319,-8586.388927,995.924147
503.668482,1554.432478,-7624.121203,383.047749
503.668807,740.205942,-8586.388927,0.000000
503.669131,-1258.350101,-10288.862594,229.828649
503.669455,-1480.411884,-10658.965565,919.314598
503.669779,444.123565,-9474.636058,919.314598
503.670103,888.247130,-8660.409521,-229.828649
503.670427,-740.205942,-9696.697840,-383.047749
503.670751,-1258.350101,-10881.027347,0.000000
503.671075,296.082377,-9622.677246,229.828649
503.671399,814.226536,-8142.265362,0.000000
503.671723,-296.082377,-9548.656652,-995.924147
503.672047,-3404.947333,-11177.109724,-1149.143247
503.672371,-1924.535449,-11029.068536,-766.095498
503.672695,222.061783,-9104.533087,-689.485948
503.673019,1110.308913,-9252.574275,-842.705048
503.673343,-296.082377,-11547.212695,-1225.752797
503.673667,-814.226536,-12139.377449,-842.705048
503.673991,1110.308913,-10288.862594,-459.657299
503.674315,2294.638420,-9844.739029,-1225.752797
503.674639,1258.350101,-11843.295072,-1685.410096
503.674964,148.041188,-13619.789333,0.000000
503.675288,1184.329507,-12731.542202,229.828649
503.675612,2442.679609,-10436.903782,-689.485948
503.675936,1776.494261,-10436.903782,-1149.143247
503.676260,296.082377,-11621.233289,-995.924147
503.676584,222.061783,-10362.883188,153.219100
503.676908,2294.638420,-8290.306550,-153.219100
503.677232,1850.514855,-7846.182985,-306.438199
503.677556,-1258.350101,-9770.718434,-1378.971896
503.677880,-3701.029710,-10807.006753,-995.924147
503.678204,-2072.576638,-8142.265362,-919.314598
503.678528,-148.041188,-6291.750507,-1072.533697
503.678852,-592.164754,-7772.162391,-995.924147
503.679176,-1406.391290,-9326.594869,-1072.533697
503.679500,518.144159,-8660.409521,0.000000
503.679824,2516.700203,-6809.894666,612.876398
503.680148,1702.473667,-8216.285956,-229.828649
503.680472,-1110.308913,-10658.965565,0.000000
503.680796,-1776.494261,-10807.006753,612.876398
503.681121,740.205942,-9326.594869,1455.581446
503.681445,1924.535449,-8586.388927,766.095498
503.681769,296.082377,-9844.739029,766.095498
503.682093,-888.247130,-10658.965565,1072.533697
503.682417,740.205942,-8882.471304,229.828649
503.682741,1924.535449,-7994.224174,-76.609550
503.683065,-666.185348,-9252.574275,-1149.143247
503.683389,-3330.926739,-10584.944971,-1149.143247
503.683713,-3256.906145,-8882.471304,-995.924147
503.684038,-296.082377,-7402.059420,-1378.971896
503.684362,148.041188,-7105.977043,-1302.362347
503.684686,-1628.453072,-9992.780217,-459.657299
503.685010,-1036.288319,-11029.068536,-229.828649
503.685334,814.226536,-8956.491898,153.219100
503.685659,1628.453072,-8586.388927,76.609550
503.685983,74.020594,-11251.130318,-306.438199
503.686307,-1036.288319,-13101.645173,76.609550
503.686631,-296.082377,-11843.295072,612.876398
503.686955,592.164754,-9474.636058,-842.705048
503.687280,592.164754,-10288.862594,-1532.190996
503.687604,-666.185348,-11991.336260,-842.705048
503.687928,592.164754,-11695.253884,-995.924147
503.688252,1998.556043,-9696.697840,-919.314598
503.688576,740.205942,-9992.780217,-1532.190996
503.688900,-1628.453072,-11917.315666,-1685.410096
503.689225,-3034.844362,-11695.253884,-1072.533697
503.689549,-592.164754,-9622.677246,-536.266849
503.689873,888.247130,-8512.368333,-612.876398
503.690197,-222.061783,-10214.842000,-153.219100
503.690521,-740.205942,-11917.315666,153.219100
503.690846,1036.288319,-9992.780217,1225.752797
503.691170,2812.782580,-8068.244768,1762.019645
503.691494,1628.453072,-9030.512492,229.828649
503.691818,-370.102971,-11325.150913,1149.143247
503.692142,0.000000,-11547.212695,1455.581446
503.692467,1480.411884,-9474.636058,1455.581446
503.692791,1480.411884,-8364.327145,306.438199
503.693115,0.000000,-9474.636058,76.609550
503.693439,0.000000,-9770.718434,919.314598
503.693763,1554.432478,-7920.203579,842.705048
503.694087,1258.350101,-6513.812290,919.314598
503.694412,-592.164754,-8216.285956,0.000000
503.694736,-3034.844362,-9622.677246,612.876398
503.695060,-1628.453072,-8364.327145,1225.752797
503.695384,962.267725,-5773.606348,1685.410096
503.695708,740.205942,-5995.668130,1915.238745
503.696033,-1332.370696,-8660.409521,1838.629195
503.696357,-1332.370696,-8734.430116,2068.457845
503.696681,592.164754,-6587.832884,2374.896044
503.697005,740.205942,-6587.832884,995.924147
503.697329,-1332.370696,-9326.594869,536.266849
503.697653,-2664.741391,-10584.944971,1072.533697
503.697978,-1184.329507,-9844.739029,1302.362347
503.698302,0.000000,-8734.430116,766.095498
503.698626,-444.123565,-9622.677246,-229.828649
503.698950,-1628.453072,-10658.965565,-306.438199
503.699274,222.061783,-10807.006753,306.438199
503.699599,2590.720797,-9918.759623,612.876398
503.699923,2072.576638,-10584.944971,153.219100
503.700247,-888.247130,-11917.315666,-766.095498
503.700571,-2072.576638,-11473.192101,-306.438199
503.700895,296.082377,-10362.883188,0.000000
503.701220,1776.494261,-10362.883188,-612.876398
503.701544,518.144159,-11177.109724,-612.876398
503.701868,-962.267725,-11621.233289,-1149.143247
503.702192,148.041188,-10066.800811,-306.438199
503.702516,1776.494261,-9030.512492,-995.924147
503.702840,296.082377,-9992.780217,-1378.971896
503.703165,-1480.411884,-11843.295072,-1149.143247
503.703489,-1036.288319,-11991.336260,-1685.410096
503.703813,370.102971,-10510.924376,-1378.971896
503.704137,740.205942,-10140.821405,-1608.800546
503.704461,0.000000,-11473.192101,-1762.019645
503.704786,370.102971,-11177.109724,-1685.410096
503.705110,2072.576638,-9622.677246,-842.705048
503.705434,3034.844362,-9696.697840,-919.314598
503.705758,1184.329507,-11473.192101,-1455.581446
503.706082,-888.247130,-11399.171507,-1149.143247
503.706406,74.020594,-9622.677246,-229.828649
503.706731,1480.411884,-8734.430116,-1532.190996
503.707055,0.000000,-9474.636058,-1838.629195
503.707379,-2368.659014,-10140.821405,-1225.752797
503.707703,-1776.494261,-9770.718434,-383.047749
503.708027,0.000000,-8512.368333,-306.438199
503.708352,-888.247130,-7698.141797,-1378.971896
503.708676,-2516.700203,-8956.491898,-459.657299
503.709000,-2664.741391,-9474.636058,-689.485948
503.709324,-1184.329507,-9252.574275,-536.266849
503.709648,-148.041188,-8216.285956,-383.047749
503.709973,-740.205942,-8734.430116,-689.485948
503.710297,-740.205942,-9770.718434,-153.219100
503.710621,1036.288319,-8882.471304,383.047749
503.710945,2812.782580,-7772.162391,0.000000
503.711269,1776.494261,-8808.450710,0.000000
503.711593,-592.164754,-10288.862594,153.219100
503.711918,-592.164754,-9770.718434,536.266849
503.712242,1258.350101,-7402.059420,689.485948
503.712566,1332.370696,-6661.853478,0.000000
503.712890,-518.144159,-8660.409521,-153.219100
503.713214,-1998.556043,-9474.636058,-306.438199
503.713539,-962.267725,-7254.018232,229.828649
503.713863,74.020594,-7105.977043,76.609550
503.714187,-1406.391290,-8956.491898,-459.657299
503.714511,-2960.823768,-10584.944971,-306.438199
503.714835,-2368.659014,-10288.862594,-153.219100
503.715160,-518.144159,-9696.697840,0.000000
503.715484,444.123565,-11251.130318,-76.609550
503.715808,444.123565,-12805.562797,0.000000
503.716132,1332.370696,-12065.356855,919.314598
503.716456,3256.906145,-11177.109724,689.485948
503.716780,2812.782580,-11621.233289,229.828649
503.717105,666.185348,-13397.727550,0.000000
503.717429,-888.247130,-13323.706956,153.219100
503.717753,0.000000,-11029.068536,842.705048
503.718077,1184.329507,-9104.533087,76.609550
503.718401,-666.185348,-9178.553681,-306.438199
503.718726,-2220.617826,-10807.006753,-459.657299
503.719050,-1998.556043,-9770.718434,0.000000
503.719374,-148.041188,-8216.285956,0.000000
503.719698,-592.164754,-8290.306550,0.000000
503.720022,-1554.432478,-9918.759623,383.047749
503.720346,-1110.308913,-10436.903782,919.314598
503.720671,296.082377,-8956.491898,1072.533697
503.720995,1332.370696,-8512.368333,1072.533697
503.721319,962.267725,-9770.718434,766.095498
503.721643,1628.453072,-10881.027347,1302.362347
503.721967,3256.906145,-9326.594869,2068.457845
503.722292,4293.194464,-8586.388927,1608.800546
503.722616,2516.700203,-9844.739029,689.485948
503.722940,-148.041188,-11177.109724,0.000000
503.723264,-814.226536,-9770.718434,536.266849
503.723588,0.000000,-7031.956449,306.438199
503.723913,-518.144159,-7105.977043,0.000000
503.724237,-2294.638420,-8438.347739,-153.219100
503.724561,-2738.761985,-8512.368333,0.000000
503.724885,-814.226536,-6439.791695,229.828649
503.725209,148.041188,-5773.606348,-229.828649
503.725533,-1258.350101,-7994.224174,0.000000
503.725858,-2516.700203,-9474.636058,-306.438199
503.726182,-1332.370696,-9252.574275,536.266849
503.726506,0.000000,-8438.347739,612.876398
503.726830,740.205942,-9992.780217,-459.657299
503.727154,370.102971,-11399.171507,-306.438199
503.727479,1924.535449,-11251.130318,536.266849
503.727803,3627.009116,-10140.821405,1149.143247
503.728127,2812.782580,-10214.842000,0.000000
503.728451,-148.041188,-12509.480420,-1302.362347
503.728775,-2442.679609,-12213.398043,-1302.362347
503.729099,-1332.370696,-10140.821405,-1149.143247
503.729424,-296.082377,-8882.471304,-1225.752797
503.729748,-1480.411884,-9844.739029,-1762.019645
503.730072,-3034.844362,-11029.068536,-1302.362347
503.730396,-2590.720797,-10140.821405,-995.924147
503.730720,-666.185348,-7994.224174,-612.876398
503.731045,-666.185348,-8956.491898,-995.924147
503.731369,-2146.597232,-10807.006753,-1225.752797
503.731693,-1998.556043,-11251.130318,-153.219100
503.732017,0.000000,-10732.986159,383.047749
503.732341,1332.370696,-10658.965565,0.000000
503.732666,1036.288319,-10955.047942,-383.047749
503.732990,1554.432478,-11843.295072,459.657299
503.733314,3478.967927,-11325.150913,1225.752797
503.733638,4663.297435,-10658.965565,459.657299
503.733962,2442.679609,-11473.192101,-153.219100
503.734286,0.000000,-11399.171507,-689.485948
503.734611,-148.041188,-9770.718434,-459.657299
503.734935,666.185348,-7624.121203,-383.047749
503.735259,0.000000,-7105.977043,-689.485948
503.735583,-1924.535449,-8586.388927,-842.705048
503.735907,-2664.741391,-8586.388927,-689.485948
503.736232,-1110.308913,-6439.791695,-459.657299
503.736556,-740.205942,-5403.503377,-766.095498
503.736880,-2146.597232,-7624.121203,-689.485948
503.737204,-3108.864956,-9696.697840,229.828649
503.737528,-1628.453072,-9474.636058,1072.533697
503.737853,222.061783,-7994.224174,766.095498
503.738177,888.247130,-8882.471304,76.609550
503.738501,740.205942,-10881.027347,919.314598
503.738825,2442.679609,-11325.150913,612.876398
503.739149,3997.112087,-9918.759623,153.219100
503.739473,2960.823768,-9992.780217,-229.828649
503.739798,444.123565,-11769.274478,-1072.533697
503.740122,0.000000,-13027.624579,-383.047749
503.740446,444.123565,-9918.759623,-306.438199
503.740770,0.000000,-8068.244768,-766.095498
503.741094,-1998.556043,-9474.636058,-1455.581446
503.741419,-2590.720797,-11103.089130,-995.924147
503.741743,-1406.391290,-9548.656652,-229.828649
503.742067,0.000000,-7179.997637,-153.219100
503.742391,-666.185348,-8142.265362,-153.219100
503.742715,-2442.679609,-11029.068536,-612.876398
503.743039,-1850.514855,-11399.171507,459.657299
503.743364,0.000000,-8808.450710,153.219100
503.743688,888.247130,-8142.265362,-612.876398
503.744012,740.205942,-10658.965565,-459.657299
503.744336,1628.453072,-12139.377449,153.219100
503.744660,3478.967927,-10436.903782,229.828649
503.744985,3849.070898,-9548.656652,-306.438199
503.745309,1406.391290,-10881.027347,-689.485948
503.745633,0.000000,-13101.645173,-689.485948
503.745957,296.082377,-11917.315666,0.000000
503.746281,444.123565,-9622.677246,0.000000
503.746606,-592.164754,-9030.512492,-536.266849
503.746930,-2368.659014,-10658.965565,-536.266849
503.747254,-2590.720797,-10510.924376,536.266849
503.747578,-444.123565,-7920.203579,1302.362347
503.747902,0.000000,-7105.977043,306.438199
503.748226,-1702.473667,-9252.574275,383.047749
503.748551,-2738.761985,-10288.862594,995.924147
503.748875,-1184.329507,-9178.553681,1225.752797
503.749199,0.000000,-7846.182985,1378.971896
503.749523,-444.123565,-8364.327145,76.609550
503.749847,-740.205942,-9548.656652,842.705048
503.750172,1554.432478,-9770.718434,1225.752797
503.750496,3701.029710,-8956.491898,1378.971896
503.750820,2368.659014,-8882.471304,459.657299
503.751144,0.000000,-10436.903782,383.047749
503.751468,-518.144159,-10658.965565,612.876398
503.751792,592.164754,-8808.450710,1149.143247
503.752117,296.082377,-7105.977043,995.924147
503.752441,-1184.329507,-8216.285956,536.266849
503.752765,-1850.514855,-9104.533087,766.095498
503.753089,-592.164754,-8142.265362,1072.533697
503.753413,296.082377,-6513.812290,689.485948
503.753738,-1332.370696,-7179.997637,229.828649
503.754062,-3256.906145,-9622.677246,0.000000
503.754386,-3034.844362,-9474.636058,229.828649
503.754710,-1110.308913,-7994.224174,153.219100
503.755034,-518.144159,-8956.491898,0.000000
503.755359,-444.123565,-10584.944971,153.219100
503.755683,888.247130,-11325.150913,76.609550
503.756007,2812.782580,-10214.842000,536.266849
503.756331,2664.741391,-10362.883188,0.000000
503.756655,1110.308913,-12361.439231,-536.266849
503.756979,-296.082377,-12805.562797,-689.485948
503.757304,0.000000,-11399.171507,153.219100
503.757628,592.164754,-9474.636058,459.657299
503.757952,296.082377,-10584.944971,-229.828649
503.758276,-1036.288319,-11843.295072,-995.924147
503.758600,-148.041188,-10807.006753,-306.438199
503.758925,962.267725,-8438.347739,-766.095498
503.759249,296.082377,-8290.306550,-1838.629195
503.759573,-1924.535449,-9622.677246,-1915.238745
503.759897,-2368.659014,-10362.883188,-1762.019645
503.760221,-222.061783,-9400.615463,-919.314598
503.760546,444.123565,-8216.285956,-1072.533697
503.760870,444.123565,-9918.759623,-1378.971896
503.761194,444.123565,-10510.924376,-919.314598
503.761518,2368.659014,-10214.842000,0.000000
503.761842,3404.947333,-9992.780217,459.657299
503.762166,1924.535449,-10955.047942,-459.657299
