#time,accel_x,accel_y,accel_z
954.416568,296.082377,-9770.718434,0.000000
954.416892,148.041188,-9696.697840,0.000000
954.417216,0.000000,-9844.739029,0.000000
954.417540,0.000000,-9474.636058,-383.047749
954.417864,0.000000,-9474.636058,-153.219100
954.418188,74.020594,-9474.636058,0.000000
954.418512,0.000000,-9474.636058,0.000000
954.418836,0.000000,-9770.718434,-536.266849
954.419160,-296.082377,-9770.718434,-383.047749
954.419484,-296.082377,-9844.739029,-306.438199
954.419808,-148.041188,-9696.697840,-306.438199
954.420132,0.000000,-9178.553681,0.000000
954.420456,74.020594,-9548.656652,0.000000
954.420781,0.000000,-9474.636058,0.000000
954.421105,222.061783,-9474.636058,229.828649
954.421429,0.000000,-9770.718434,0.000000
954.421753,0.000000,-9992.780217,0.000000
954.422077,-296.082377,-9844.739029,-153.219100
954.422401,-666.185348,-9696.697840,-306.438199
954.422725,-296.082377,-9548.656652,-306.438199
954.423049,-74.020594,-9474.636058,-383.047749
954.423373,74.020594,-9770.718434,76.609550
954.423697,-296.082377,-9622.677246,-229.828649
954.424021,-148.041188,-9622.677246,-306.438199
954.424345,0.000000,-9918.759623,76.609550
954.424669,0.000000,-9844.739029,0.000000
954.424993,0.000000,-9770.718434,0.000000
954.425318,-370.102971,-9326.594869,-153.219100
954.425642,0.000000,-9474.636058,-612.876398
954.425966,74.020594,-9622.677246,229.828649
954.426290,0.000000,-10066.800811,0.000000
954.426614,-148.041188,-9844.739029,76.609550
954.426938,0.000000,-9548.656652,-229.828649
954.427262,0.000000,-9696.697840,0.000000
954.427586,0.000000,-9918.759623,-229.828649
954.427910,222.061783,-9622.677246,229.828649
954.428234,0.000000,-10214.842000,0.000000
954.428558,222.061783,-10066.800811,76.609550
954.428882,0.000000,-9918.759623,153.219100
954.429206,-740.205942,-9696.697840,0.000000
954.429530,-962.267725,-9696.697840,306.438199
954.429855,-1184.329507,-9918.759623,0.000000
954.430179,-1184.329507,-8956.491898,76.609550
954.430503,-666.185348,-8290.306550,536.266849
954.430827,-296.082377,-8882.471304,0.000000
954.431151,74.020594,-9770.718434,612.876398
954.431475,0.000000,-9918.759623,766.095498
954.431799,-666.185348,-10362.883188,153.219100
954.432123,-1702.473667,-10066.800811,306.438199
954.432447,-2368.659014,-10584.944971,459.657299
954.432771,-2368.659014,-10436.903782,153.219100
954.433095,-2368.659014,-10881.027347,842.705048
954.433419,-1850.514855,-10140.821405,995.924147
954.433743,-962.267725,-9030.512492,919.314598
954.434068,0.000000,-8808.450710,1149.143247
954.434392,74.020594,-8882.471304,1149.143247
954.434716,-222.061783,-9474.636058,919.314598
954.435040,-1036.288319,-9918.759623,995.924147
954.435364,-2220.617826,-9474.636058,1149.143247
954.435688,-2886.803174,-9992.780217,1378.971896
954.436012,-2812.782580,-10362.883188,1072.533697
954.436336,-2960.823768,-10510.924376,1225.752797
954.436660,-3330.926739,-10881.027347,1455.581446
954.436984,-2886.803174,-10732.986159,995.924147
954.437308,-2146.597232,-9770.718434,1455.581446
954.437632,-1554.432478,-8956.491898,1685.410096
954.437956,-888.247130,-8364.327145,1991.848295
954.438280,-740.205942,-8882.471304,1149.143247
954.438605,-370.102971,-9696.697840,1838.629195
954.438929,-1258.350101,-9622.677246,1915.238745
954.439253,-2146.597232,-9992.780217,1991.848295
954.439577,-3034.844362,-10436.903782,2145.067394
954.439901,-3923.091493,-11103.089130,2221.676944
954.440225,-4515.256246,-10955.047942,2604.724693
954.440549,-4885.359217,-10510.924376,2681.334243
954.440873,-4885.359217,-10436.903782,3370.820191
954.441197,-4885.359217,-9474.636058,2834.553343
954.441521,-5033.400406,-9400.615463,2834.553343
954.441845,-4145.153275,-9400.615463,2757.943793
954.442169,-2368.659014,-9696.697840,3294.210641
954.442493,-814.226536,-9252.574275,4213.525239
954.442817,148.041188,-8586.388927,4290.134789
954.443142,888.247130,-7846.182985,3907.087040
954.443466,518.144159,-8142.265362,3447.429741
954.443790,148.041188,-8734.430116,3524.039291
954.444114,-740.205942,-9104.533087,2987.772442
954.444438,-2368.659014,-8364.327145,1762.019645
954.444762,-4811.338623,-7920.203579,153.219100
954.445086,-6883.915261,-9770.718434,689.485948
954.445410,-6365.771101,-12065.356855,612.876398
954.445734,-5403.503377,-11029.068536,1149.143247
954.446058,-4367.215058,-9696.697840,3370.820191
954.446382,-2738.761985,-8290.306550,3907.087040
954.446706,222.061783,-7920.203579,3677.258390
954.447030,2590.720797,-8956.491898,4060.306139
954.447354,4071.132681,-9400.615463,4903.011187
954.447679,4811.338623,-10288.862594,5209.449386
954.448003,3552.988522,-10140.821405,4136.915689
954.448327,592.164754,-8882.471304,3447.429741
954.448651,-2516.700203,-7105.977043,689.485948
954.448975,-5329.482782,-7846.182985,-2451.505594
954.449299,-7698.141797,-11251.130318,-2757.943793
954.449623,-6513.812290,-12139.377449,-2451.505594
954.449947,-2960.823768,-10436.903782,-1302.362347
954.450271,-2294.638420,-8808.450710,1149.143247
954.450595,-1850.514855,-8512.368333,766.095498
954.450919,-2220.617826,-9548.656652,459.657299
954.451243,-2368.659014,-10658.965565,1149.143247
954.451567,-2516.700203,-10807.006753,1532.190996
954.451892,-592.164754,-11769.274478,3294.210641
954.452216,2664.741391,-11991.336260,4136.915689
954.452540,5773.606348,-11473.192101,4290.134789
954.452864,5403.503377,-11103.089130,4060.306139
954.453188,2220.617826,-10807.006753,2221.676944
954.453512,-2220.617826,-10140.821405,383.047749
954.453836,-5329.482782,-8068.244768,-2987.772442
954.454160,-7105.977043,-7550.100608,-3447.429741
954.454484,-6957.935855,-9918.759623,-2221.676944
954.454808,-4663.297435,-11177.109724,-2374.896044
954.455132,-3330.926739,-11251.130318,-1378.971896
954.455456,-5033.400406,-9400.615463,0.000000
954.455780,-5403.503377,-8364.327145,-612.876398
954.456104,-5551.544565,-9104.533087,0.000000
954.456429,-3923.091493,-9030.512492,306.438199
954.456753,-1110.308913,-9622.677246,2604.724693
954.457077,1776.494261,-12805.562797,3447.429741
954.457401,2146.597232,-13101.645173,3217.601092
954.457725,1332.370696,-11621.233289,4136.915689
954.458049,-740.205942,-8956.491898,2681.334243
954.458373,-1924.535449,-8512.368333,1455.581446
954.458697,-2220.617826,-9992.780217,995.924147
954.459021,-1776.494261,-9178.553681,1149.143247
954.459345,-1554.432478,-8068.244768,1149.143247
954.459669,-3775.050304,-7772.162391,919.314598
954.459993,-5181.441594,-7920.203579,612.876398
954.460317,-4367.215058,-7994.224174,1072.533697
954.460641,-3330.926739,-7698.141797,1149.143247
954.460966,-3923.091493,-7624.121203,1378.971896
954.461290,-5255.462188,-9178.553681,1302.362347
954.461614,-5699.585753,-9770.718434,1915.238745
954.461938,-4293.194464,-10214.842000,2298.286494
954.462262,-1998.556043,-9400.615463,1838.629195
954.462586,-1036.288319,-8586.388927,2145.067394
954.462910,-1110.308913,-11251.130318,2528.115143
954.463234,-740.205942,-11991.336260,3447.429741
954.463558,296.082377,-11621.233289,3983.696590
954.463882,888.247130,-10214.842000,4213.525239
954.464206,518.144159,-9326.594869,3064.381992
954.464530,-1258.350101,-9400.615463,2068.457845
954.464854,-3108.864956,-10362.883188,2681.334243
954.465179,-2516.700203,-10955.047942,3140.991542
954.465503,-1332.370696,-10436.903782,3140.991542
954.465827,-2516.700203,-7920.203579,2451.505594
954.466151,-4219.173869,-6365.771101,1685.410096
954.466475,-4663.297435,-8216.285956,2221.676944
954.466799,-3701.029710,-10658.965565,1762.019645
954.467123,-3552.988522,-10436.903782,612.876398
954.467447,-3701.029710,-9400.615463,1302.362347
954.467771,-2960.823768,-9474.636058,2451.505594
954.468095,-148.041188,-10955.047942,3217.601092
954.468419,1776.494261,-11103.089130,3524.039291
954.468743,888.247130,-11251.130318,4060.306139
954.469067,-296.082377,-11843.295072,3907.087040
954.469391,370.102971,-11695.253884,3753.867940
954.469716,1110.308913,-10436.903782,4136.915689
954.470040,-370.102971,-9548.656652,4136.915689
954.470364,-3627.009116,-10140.821405,2987.772442
954.470688,-5107.421000,-10214.842000,1532.190996
954.471012,-5107.421000,-8142.265362,1225.752797
954.471336,-3478.967927,-6809.894666,1838.629195
954.471660,-3849.070898,-7994.224174,1685.410096
954.471984,-5181.441594,-8808.450710,306.438199
954.472308,-4589.276840,-7105.977043,766.095498
954.472632,-2368.659014,-7402.059420,1685.410096
954.472956,-1332.370696,-9548.656652,1455.581446
954.473280,-888.247130,-9548.656652,2298.286494
954.473604,-222.061783,-7550.100608,3140.991542
954.473928,962.267725,-8512.368333,3907.087040
954.474253,1776.494261,-11473.192101,2834.553343
954.474577,1258.350101,-10732.986159,2604.724693
954.474901,0.000000,-8586.388927,2528.115143
954.475225,-1184.329507,-9474.636058,2068.457845
954.475549,-1776.494261,-10584.944971,1838.629195
954.475873,-2738.761985,-9252.574275,2604.724693
954.476197,-4145.153275,-8216.285956,2374.896044
954.476521,-5033.400406,-10140.821405,-153.219100
954.476845,-5329.482782,-10140.821405,-1838.629195
954.477169,-4811.338623,-8290.306550,-153.219100
954.477493,-4589.276840,-9104.533087,306.438199
954.477817,-3552.988522,-10436.903782,-459.657299
954.478141,-2146.597232,-9844.739029,1225.752797
954.478465,-1110.308913,-9326.594869,2145.067394
954.478789,-592.164754,-10881.027347,1149.143247
954.479113,-370.102971,-11103.089130,1149.143247
954.479437,-222.061783,-10288.862594,1225.752797
954.479761,-148.041188,-10362.883188,536.266849
954.480085,-1110.308913,-11029.068536,76.609550
954.480409,-1332.370696,-11103.089130,306.438199
954.480733,-1406.391290,-10584.944971,-306.438199
954.481056,-1850.514855,-10140.821405,-919.314598
954.481380,-2738.761985,-9770.718434,-689.485948
954.481704,-2738.761985,-9770.718434,-1532.190996
954.482028,-2220.617826,-9400.615463,-1302.362347
954.482352,-1702.473667,-8956.491898,0.000000
954.482676,-296.082377,-9178.553681,-766.095498
954.483000,592.164754,-8586.388927,-536.266849
954.483324,-962.267725,-9770.718434,1302.362347
954.483648,-1924.535449,-11251.130318,459.657299
954.483972,-2516.700203,-11325.150913,-229.828649
954.484295,-2146.597232,-10732.986159,842.705048
954.484619,-370.102971,-11029.068536,766.095498
954.484943,370.102971,-11103.089130,842.705048
954.485267,0.000000,-10807.006753,1838.629195
954.485591,222.061783,-10584.944971,383.047749
954.485915,1036.288319,-10214.842000,-459.657299
954.486239,518.144159,-8956.491898,536.266849
954.486563,0.000000,-9178.553681,0.000000
954.486887,-1110.308913,-9474.636058,-1072.533697
954.487211,-2516.700203,-8512.368333,153.219100
954.487535,-3627.009116,-9400.615463,612.876398
954.487858,-2812.782580,-10214.842000,-153.219100
954.488182,-740.205942,-7772.162391,1378.971896
954.488506,444.123565,-7179.997637,2068.457845
954.488830,592.164754,-8142.265362,612.876398
954.489154,-666.185348,-8364.327145,1608.800546
954.489478,-888.247130,-7920.203579,1608.800546
954.489802,962.267725,-7476.080014,1225.752797
954.490126,2220.617826,-6883.915261,1072.533697
954.490450,2220.617826,-7402.059420,1762.019645
954.490774,2960.823768,-9770.718434,2681.334243
954.491098,1406.391290,-11621.233289,1762.019645
954.491421,-666.185348,-10658.965565,1072.533697
954.491745,-2368.659014,-9770.718434,459.657299
954.492069,-2294.638420,-9992.780217,-919.314598
954.492393,-1258.350101,-10066.800811,-612.876398
954.492717,-518.144159,-10436.903782,0.000000
954.493041,-296.082377,-10955.047942,-766.095498
954.493365,-592.164754,-9622.677246,-1378.971896
954.493689,-370.102971,-9104.533087,-306.438199
954.494013,740.205942,-9696.697840,-842.705048
954.494337,962.267725,-10807.006753,153.219100
954.494660,592.164754,-12065.356855,1532.190996
954.494984,666.185348,-11177.109724,383.047749
954.495308,518.144159,-10362.883188,1072.533697
954.495632,1776.494261,-9918.759623,766.095498
954.495956,1184.329507,-10881.027347,306.438199
954.496280,518.144159,-11917.315666,1532.190996
954.496604,740.205942,-11251.130318,1378.971896
954.496928,444.123565,-9770.718434,919.314598
954.497252,-296.082377,-8586.388927,536.266849
954.497576,740.205942,-8956.491898,-459.657299
954.497900,592.164754,-9104.533087,-306.438199
954.498223,888.247130,-9474.636058,-536.266849
954.498547,592.164754,-8882.471304,-919.314598
954.498871,814.226536,-8660.409521,459.657299
954.499195,666.185348,-9326.594869,306.438199
954.499519,-148.041188,-8956.491898,-1302.362347
954.499843,-2368.659014,-8734.430116,-842.705048
954.500167,-3256.906145,-10955.047942,-536.266849
954.500491,-2220.617826,-11251.130318,-1225.752797
954.500815,-740.205942,-9474.636058,536.266849
954.501139,148.041188,-8438.347739,1302.362347
954.501463,0.000000,-8438.347739,-536.266849
954.501786,-370.102971,-9104.533087,0.000000
954.502110,-370.102971,-9770.718434,-153.219100
954.502434,-444.123565,-9252.574275,0.000000
954.502758,518.144159,-8364.327145,383.047749
954.503082,1332.370696,-8364.327145,-919.314598
954.503406,148.041188,-8660.409521,-766.095498
954.503730,-1850.514855,-9548.656652,-1685.410096
954.504054,-2886.803174,-10362.883188,-2221.676944
954.504378,-3182.885551,-9992.780217,-1378.971896
954.504702,-1924.535449,-9178.553681,-1225.752797
954.505025,-518.144159,-8660.409521,-2068.457845
954.505349,-814.226536,-9548.656652,-1072.533697
954.505673,-592.164754,-10584.944971,-995.924147
954.505997,148.041188,-9992.780217,-612.876398
954.506321,444.123565,-9992.780217,383.047749
954.506645,962.267725,-10066.800811,1072.533697
954.506969,1554.432478,-9326.594869,766.095498
954.507293,592.164754,-9918.759623,536.266849
954.507617,-222.061783,-10955.047942,-842.705048
954.507941,-370.102971,-11325.150913,-1915.238745
954.508265,-296.082377,-11843.295072,-842.705048
954.508588,1184.329507,-11399.171507,-1378.971896
954.508912,2516.700203,-11029.068536,-689.485948
954.509236,2368.659014,-11177.109724,-383.047749
954.509560,592.164754,-10510.924376,-1915.238745
954.509884,-222.061783,-10288.862594,-1455.581446
954.510208,0.000000,-10066.800811,-1838.629195
954.510532,1184.329507,-9474.636058,-995.924147
954.510856,1406.391290,-9844.739029,919.314598
954.511180,1036.288319,-10362.883188,995.924147
954.511504,518.144159,-8808.450710,612.876398
954.511828,740.205942,-8882.471304,1915.238745
954.512151,962.267725,-9178.553681,995.924147
954.512475,592.164754,-10288.862594,383.047749
954.512799,74.020594,-10362.883188,1225.752797
954.513123,1258.350101,-8586.388927,1072.533697
954.513447,1406.391290,-9030.512492,995.924147
954.513771,0.000000,-9474.636058,689.485948
954.514095,-370.102971,-8956.491898,-919.314598
954.514419,-518.144159,-8734.430116,-536.266849
954.514743,-444.123565,-9030.512492,-919.314598
954.515067,-666.185348,-8586.388927,-995.924147
954.515390,-962.267725,-8512.368333,306.438199
954.515714,0.000000,-8956.491898,229.828649
954.516038,-296.082377,-9178.553681,306.438199
954.516362,-1184.329507,-8956.491898,1762.019645
954.516686,-666.185348,-9104.533087,2374.896044
954.517010,-888.247130,-9178.553681,995.924147
954.517334,-1332.370696,-7772.162391,1532.190996
954.517658,-666.185348,-7328.038826,612.876398
954.517982,-592.164754,-9030.512492,919.314598
954.518306,-1554.432478,-9770.718434,1225.752797
954.518630,-1480.411884,-8216.285956,766.095498
954.518953,-518.144159,-6809.894666,76.609550
954.519277,444.123565,-8438.347739,-842.705048
954.519601,1480.411884,-10214.842000,-1532.190996
954.519925,1480.411884,-10214.842000,-306.438199
954.520249,518.144159,-9770.718434,-919.314598
954.520573,-888.247130,-9548.656652,-1455.581446
954.520897,-1110.308913,-9770.718434,-612.876398
954.521221,444.123565,-10362.883188,-536.266849
954.521545,814.226536,-10881.027347,-536.266849
954.521869,-74.020594,-11843.295072,459.657299
954.522193,-518.144159,-11473.192101,153.219100
954.522516,-444.123565,-10658.965565,689.485948
954.522840,0.000000,-10140.821405,689.485948
954.523164,814.226536,-10214.842000,536.266849
954.523488,740.205942,-11177.109724,536.266849
954.523812,-296.082377,-11843.295072,76.609550
954.524136,-666.185348,-11177.109724,-383.047749
954.524460,0.000000,-10658.965565,0.000000
954.524784,-296.082377,-11103.089130,-919.314598
954.525108,-1036.288319,-10881.027347,-2221.676944
954.525432,-2072.576638,-10732.986159,-689.485948
954.525755,-2072.576638,-10066.800811,-1838.629195
954.526079,-1036.288319,-9400.615463,-1532.190996
954.526403,-814.226536,-8734.430116,-153.219100
954.526727,0.000000,-8216.285956,-536.266849
954.527051,148.041188,-8586.388927,153.219100
954.527375,222.061783,-9622.677246,689.485948
954.527699,296.082377,-9030.512492,995.924147
954.528023,296.082377,-8660.409521,1991.848295
954.528347,0.000000,-8808.450710,1072.533697
954.528671,0.000000,-8734.430116,-229.828649
954.528995,-592.164754,-9030.512492,153.219100
954.529318,0.000000,-10140.821405,-306.438199
954.529642,740.205942,-10436.903782,-306.438199
954.529966,666.185348,-9252.574275,536.266849
954.530290,592.164754,-7994.224174,-689.485948
954.530614,814.226536,-9104.533087,689.485948
954.530938,148.041188,-10214.842000,-306.438199
954.531262,666.185348,-10288.862594,153.219100
954.531586,592.164754,-9474.636058,612.876398
954.531910,518.144159,-8586.388927,689.485948
954.532234,296.082377,-8364.327145,0.000000
954.532558,-666.185348,-8956.491898,536.266849
954.532881,-1036.288319,-9252.574275,612.876398
954.533205,-1332.370696,-9104.533087,306.438199
954.533529,-592.164754,-9400.615463,1532.190996
954.533853,1110.308913,-8216.285956,459.657299
954.534177,2146.597232,-8142.265362,536.266849
954.534501,1998.556043,-8734.430116,1072.533697
954.534825,1480.411884,-9548.656652,0.000000
954.535149,1110.308913,-9696.697840,0.000000
954.535473,1850.514855,-9696.697840,459.657299
954.535797,2442.679609,-10140.821405,0.000000
954.536120,1554.432478,-10214.842000,229.828649
954.536444,-222.061783,-10732.986159,229.828649
954.536768,-1332.370696,-10881.027347,-919.314598
954.537092,-1258.350101,-10881.027347,-612.876398
954.537416,-222.061783,-10955.047942,-689.485948
954.537740,0.000000,-10214.842000,-1225.752797
954.538064,-888.247130,-9696.697840,-229.828649
954.538388,-1480.411884,-10955.047942,-229.828649
954.538712,-1036.288319,-10732.986159,-689.485948
954.539036,-1036.288319,-9844.739029,-229.828649
954.539360,-1184.329507,-9548.656652,-842.705048
954.539683,-1702.473667,-9992.780217,-459.657299
954.540007,-1554.432478,-11177.109724,229.828649
954.540331,-962.267725,-10584.944971,-153.219100
954.540655,-1332.370696,-8734.430116,-153.219100
954.540979,-1924.535449,-8660.409521,-995.924147
954.541303,-1924.535449,-8808.450710,-1532.190996
954.541627,-1480.411884,-9696.697840,-229.828649
954.541951,-1036.288319,-10584.944971,-153.219100
954.542275,-740.205942,-8956.491898,-1225.752797
954.542599,-962.267725,-8438.347739,-383.047749
954.542923,-148.041188,-9326.594869,-306.438199
954.543246,74.020594,-9770.718434,-536.266849
954.543570,-962.267725,-10658.965565,229.828649
954.543894,-1776.494261,-10288.862594,-229.828649
954.544218,-1258.350101,-10288.862594,383.047749
954.544542,74.020594,-10436.903782,536.266849
954.544866,1110.308913,-9400.615463,459.657299
954.545190,1036.288319,-9474.636058,0.000000
954.545514,74.020594,-10066.800811,459.657299
954.545838,666.185348,-9918.759623,0.000000
954.546162,1628.453072,-8438.347739,383.047749
954.546485,1332.370696,-8290.306550,0.000000
954.546809,592.164754,-8586.388927,-1149.143247
954.547133,148.041188,-9178.553681,-842.705048
954.547457,296.082377,-9844.739029,-766.095498
954.547781,1628.453072,-9474.636058,-612.876398
954.548105,1998.556043,-7846.182985,766.095498
954.548429,2812.782580,-8882.471304,689.485948
954.548753,3330.926739,-9992.780217,1149.143247
954.549077,3330.926739,-10436.903782,1991.848295
954.549401,2516.700203,-8956.491898,689.485948
954.549725,1110.308913,-7698.141797,766.095498
954.550048,1110.308913,-8956.491898,689.485948
954.550372,1480.411884,-8956.491898,459.657299
954.550696,666.185348,-9696.697840,1455.581446
954.551020,-666.185348,-9992.780217,229.828649
954.551344,-1554.432478,-8808.450710,-536.266849
954.551668,-1998.556043,-8882.471304,-612.876398
954.551992,-1776.494261,-9178.553681,-689.485948
954.552316,-1110.308913,-9474.636058,153.219100
954.552640,-1110.308913,-10510.924376,0.000000
954.552964,-1554.432478,-9474.636058,-919.314598
954.553288,-1332.370696,-8956.491898,383.047749
954.553611,-222.061783,-9770.718434,1072.533697
954.553935,1036.288319,-10362.883188,153.219100
954.554259,222.061783,-10436.903782,229.828649
954.554583,-370.102971,-10510.924376,1532.190996
954.554907,444.123565,-9770.718434,536.266849
954.555231,0.000000,-9400.615463,1149.143247
954.555555,-1036.288319,-9104.533087,612.876398
954.555879,-518.144159,-9548.656652,-536.266849
954.556203,-1332.370696,-10362.883188,-536.266849
954.556527,-2072.576638,-10658.965565,-306.438199
954.556850,-1628.453072,-9548.656652,612.876398
954.557174,-666.185348,-9696.697840,459.657299
954.557498,-740.205942,-8956.491898,-612.876398
954.557822,-1110.308913,-9178.553681,-612.876398
954.558146,-962.267725,-10881.027347,0.000000
954.558470,-370.102971,-11103.089130,-383.047749
954.558794,0.000000,-9992.780217,612.876398
954.559118,148.041188,-9474.636058,76.609550
954.559442,-296.082377,-9918.759623,-459.657299
954.559766,-1702.473667,-10732.986159,0.000000
954.560090,-1998.556043,-11769.274478,-306.438199
954.560413,-2072.576638,-10807.006753,-383.047749
954.560737,-1480.411884,-9992.780217,229.828649
954.561061,-740.205942,-9918.759623,-229.828649
954.561385,0.000000,-9696.697840,-383.047749
954.561709,0.000000,-9548.656652,229.828649
954.562033,222.061783,-10288.862594,-383.047749
954.562357,666.185348,-9696.697840,1072.533697
954.562681,1480.411884,-9918.759623,1378.971896
954.563005,2664.741391,-9252.574275,76.609550
954.563329,2368.659014,-8586.388927,306.438199
954.563653,1110.308913,-9030.512492,-689.485948
954.563976,74.020594,-9104.533087,-1608.800546
954.564300,-148.041188,-9030.512492,-229.828649
954.564624,148.041188,-8956.491898,-919.314598
954.564948,148.041188,-8216.285956,-612.876398
954.565272,-814.226536,-10436.903782,459.657299
954.565596,-1258.350101,-10436.903782,-536.266849
954.565920,-1258.350101,-9474.636058,76.609550
954.566244,-962.267725,-8882.471304,842.705048
954.566568,370.102971,-8882.471304,-229.828649
954.566892,1480.411884,-9326.594869,536.266849
954.567215,1406.391290,-9844.739029,1302.362347
954.567539,1480.411884,-10510.924376,842.705048
954.567863,1258.350101,-10288.862594,612.876398
954.568187,1480.411884,-9474.636058,153.219100
954.568511,2072.576638,-9104.533087,76.609550
954.568835,1628.453072,-10584.944971,1072.533697
954.569159,1258.350101,-11177.109724,612.876398
954.569483,888.247130,-9844.739029,995.924147
954.569807,962.267725,-9104.533087,1455.581446
954.570131,1036.288319,-9548.656652,383.047749
954.570455,222.061783,-8808.450710,536.266849
954.570778,-1554.432478,-8734.430116,1915.238745
954.571102,-1332.370696,-9178.553681,1302.362347
954.571426,-370.102971,-8734.430116,1225.752797
954.571750,148.041188,-7994.224174,1072.533697
954.572074,148.041188,-7402.059420,229.828649
954.572398,0.000000,-8956.491898,612.876398
954.572722,-666.185348,-10658.965565,0.000000
954.573046,74.020594,-9622.677246,229.828649
954.573370,962.267725,-9326.594869,1225.752797
954.573694,1480.411884,-10288.862594,536.266849
954.574018,1332.370696,-10584.944971,-306.438199
954.574341,0.000000,-10436.903782,0.000000
954.574665,-962.267725,-10362.883188,-842.705048
954.574989,-1924.535449,-10436.903782,-612.876398
954.575313,-1036.288319,-10214.842000,0.000000
954.575637,-740.205942,-9548.656652,-612.876398
954.575961,-1702.473667,-9622.677246,-766.095498
954.576285,-2960.823768,-10436.903782,-1072.533697
954.576609,-2664.741391,-10362.883188,-995.924147
954.576933,-2146.597232,-9622.677246,0.000000
954.577257,-1924.535449,-9474.636058,-153.219100
954.577580,-1554.432478,-9178.553681,-1302.362347
954.577904,-1480.411884,-10140.821405,-995.924147
954.578228,-1480.411884,-11251.130318,-2145.067394
954.578552,-1850.514855,-10140.821405,-1838.629195
954.578877,-1702.473667,-9548.656652,-842.705048
954.579201,-592.164754,-10140.821405,-1149.143247
954.579525,74.020594,-10807.006753,-459.657299
954.579849,0.000000,-11547.212695,459.657299
954.580173,0.000000,-11029.068536,-612.876398
954.580497,0.000000,-9622.677246,0.000000
954.580821,666.185348,-9844.739029,612.876398
954.581145,1480.411884,-10436.903782,0.000000
954.581469,1480.411884,-10881.027347,612.876398
954.581794,296.082377,-9252.574275,-306.438199
954.582118,518.144159,-8216.285956,76.609550
954.582442,370.102971,-9030.512492,-383.047749
954.582766,148.041188,-9030.512492,-766.095498
954.583090,-296.082377,-8290.306550,-383.047749
954.583414,0.000000,-8956.491898,-536.266849
954.583738,-296.082377,-9104.533087,-1685.410096
954.584062,0.000000,-7994.224174,459.657299
954.584387,1184.329507,-8364.327145,2221.676944
954.584711,2738.761985,-9178.553681,459.657299
954.585035,1776.494261,-8216.285956,1378.971896
954.585359,962.267725,-8808.450710,2451.505594
954.585683,2368.659014,-10288.862594,1991.848295
954.586007,3478.967927,-9548.656652,1915.238745
954.586331,2368.659014,-8142.265362,2145.067394
954.586655,1332.370696,-8068.244768,1072.533697
954.586979,296.082377,-10214.842000,306.438199
954.587304,74.020594,-11473.192101,842.705048
954.587628,888.247130,-9252.574275,995.924147
954.587952,888.247130,-8290.306550,1915.238745
954.588276,666.185348,-8734.430116,536.266849
954.588600,666.185348,-8882.471304,919.314598
954.588924,-666.185348,-8586.388927,1378.971896
954.589248,-296.082377,-8216.285956,842.705048
954.589572,-740.205942,-8290.306550,1302.362347
954.589896,-666.185348,-9104.533087,1072.533697
954.590221,296.082377,-8660.409521,459.657299
954.590545,-222.061783,-9548.656652,1072.533697
954.590869,-1258.350101,-11029.068536,306.438199
954.591193,-1258.350101,-10214.842000,-383.047749
954.591517,-444.123565,-10140.821405,153.219100
954.591841,814.226536,-10436.903782,306.438199
954.592165,1110.308913,-10510.924376,0.000000
954.592489,0.000000,-11473.192101,306.438199
954.592814,-814.226536,-12065.356855,-689.485948
954.593138,-1480.411884,-11991.336260,-1225.752797
954.593462,-1554.432478,-10584.944971,-689.485948
954.593786,-962.267725,-9622.677246,-689.485948
954.594110,-1480.411884,-10214.842000,-153.219100
954.594434,-2146.597232,-11251.130318,-689.485948
954.594758,-2220.617826,-9918.759623,-842.705048
954.595082,-1850.514855,-9474.636058,0.000000
954.595406,-296.082377,-9326.594869,-306.438199
954.595731,148.041188,-8734.430116,-383.047749
954.596055,-518.144159,-8882.471304,0.000000
954.596379,-1258.350101,-9548.656652,0.000000
954.596703,-962.267725,-9844.739029,-842.705048
954.597027,-518.144159,-9178.553681,0.000000
954.597351,-666.185348,-8660.409521,-1532.190996
954.597675,-962.267725,-9474.636058,-1532.190996
954.597999,-592.164754,-10436.903782,-919.314598
954.598324,0.000000,-10807.006753,-1149.143247
954.598648,222.061783,-9474.636058,-536.266849
954.598972,222.061783,-9252.574275,-689.485948
954.599296,296.082377,-9474.636058,-689.485948
954.599620,296.082377,-10436.903782,-459.657299
954.599944,-222.061783,-11103.089130,0.000000
954.600268,0.000000,-10510.924376,0.000000
954.600592,0.000000,-10436.903782,0.000000
954.600916,0.000000,-9992.780217,-766.095498
954.601241,-814.226536,-9178.553681,-1378.971896
954.601565,-1480.411884,-9474.636058,-766.095498
954.601889,-888.247130,-10510.924376,-995.924147
954.602213,0.000000,-9474.636058,-229.828649
954.602537,444.123565,-7994.224174,-536.266849
954.602861,1628.453072,-8068.244768,-383.047749
954.603185,1776.494261,-8586.388927,0.000000
954.603509,2146.597232,-9992.780217,689.485948
954.603833,2442.679609,-9770.718434,842.705048
954.604158,2368.659014,-9178.553681,1532.190996
954.604482,1924.535449,-9104.533087,2145.067394
954.604806,1776.494261,-9622.677246,1225.752797
954.605130,888.247130,-10214.842000,1225.752797
954.605454,0.000000,-9992.780217,689.485948
954.605778,0.000000,-9326.594869,766.095498
954.606102,444.123565,-9474.636058,1455.581446
954.606426,1554.432478,-9474.636058,383.047749
954.606751,1036.288319,-8808.450710,1532.190996
954.607075,518.144159,-9844.739029,1991.848295
954.607399,592.164754,-10658.965565,459.657299
954.607723,74.020594,-10066.800811,995.924147
954.608047,222.061783,-9252.574275,1685.410096
954.608371,888.247130,-9252.574275,842.705048
954.608695,370.102971,-9992.780217,1838.629195
954.609019,0.000000,-10066.800811,1149.143247
954.609343,-296.082377,-8734.430116,0.000000
954.609668,0.000000,-8290.306550,842.705048
954.609992,888.247130,-9474.636058,0.000000
954.610316,1184.329507,-9326.594869,536.266849
954.610640,444.123565,-9178.553681,1072.533697
954.610964,-296.082377,-9548.656652,153.219100
954.611288,-962.267725,-8808.450710,383.047749
954.611612,-1258.350101,-8808.450710,229.828649
954.611936,-518.144159,-9326.594869,-1072.533697
954.612261,-666.185348,-10140.821405,-76.609550
954.612585,-962.267725,-11029.068536,766.095498
954.612909,-962.267725,-9992.780217,-229.828649
954.613233,-2368.659014,-9696.697840,-689.485948
954.613557,-2368.659014,-9030.512492,-1378.971896
954.613881,-1480.411884,-9696.697840,-842.705048
954.614205,-1184.329507,-10732.986159,-153.219100
954.614529,-2146.597232,-10584.944971,-1608.800546
954.614853,-2220.617826,-9400.615463,-536.266849
954.615178,-1406.391290,-9474.636058,-153.219100
954.615502,-814.226536,-10807.006753,-1991.848295
954.615826,-1776.494261,-11177.109724,-1302.362347
954.616150,-2738.761985,-11547.212695,0.000000
954.616474,-2368.659014,-10955.047942,-842.705048
954.616798,-1554.432478,-10955.047942,76.609550
954.617122,-296.082377,-9844.739029,-153.219100
954.617446,666.185348,-9548.656652,-842.705048
954.617770,518.144159,-10807.006753,612.876398
954.618095,1184.329507,-10807.006753,-459.657299
954.618419,1258.350101,-8808.450710,76.609550
954.618743,814.226536,-8142.265362,306.438199
954.619067,962.267725,-8068.244768,-995.924147
954.619391,296.082377,-9030.512492,-842.705048
954.619715,-370.102971,-9992.780217,-536.266849
954.620039,-1110.308913,-9918.759623,-536.266849
954.620363,-1406.391290,-9030.512492,0.000000
954.620688,0.000000,-8660.409521,0.000000
954.621012,1184.329507,-9030.512492,153.219100
954.621336,1554.432478,-9030.512492,995.924147
954.621660,1332.370696,-9622.677246,1838.629195
954.621984,2368.659014,-9400.615463,1455.581446
954.622308,3034.844362,-8956.491898,2298.286494
954.622632,3330.926739,-8734.430116,1532.190996
954.622956,2738.761985,-8586.388927,689.485948
954.623280,1258.350101,-9696.697840,1302.362347
954.623605,222.061783,-9622.677246,76.609550
954.623929,74.020594,-8586.388927,459.657299
954.624253,-148.041188,-8216.285956,842.705048
954.624577,222.061783,-8586.388927,-229.828649
954.624901,592.164754,-8734.430116,919.314598
954.625225,592.164754,-9992.780217,1225.752797
954.625549,666.185348,-9844.739029,306.438199
954.625873,814.226536,-7698.141797,766.095498
954.626198,666.185348,-7772.162391,612.876398
954.626522,1036.288319,-8438.347739,-229.828649
954.626846,962.267725,-9992.780217,0.000000
954.627170,444.123565,-10140.821405,0.000000
954.627494,296.082377,-9030.512492,-536.266849
954.627818,296.082377,-9992.780217,0.000000
954.628142,888.247130,-10658.965565,-536.266849
954.628466,740.205942,-10807.006753,-229.828649
954.628790,0.000000,-12065.356855,-229.828649
954.629115,-1332.370696,-11621.233289,-842.705048
954.629439,-1924.535449,-11103.089130,-459.657299
954.629763,-1924.535449,-11103.089130,-612.876398
954.630087,-1702.473667,-11843.295072,-1225.752797
954.630411,-2220.617826,-11843.295072,-766.095498
954.630735,-1850.514855,-11399.171507,-1072.533697
954.631059,-1554.432478,-10881.027347,-1762.019645
954.631383,-2072.576638,-10658.965565,-229.828649
954.631707,-740.205942,-9770.718434,-995.924147
954.632032,0.000000,-9770.718434,-1149.143247
954.632356,-1184.329507,-10584.944971,-306.438199
954.632680,-1332.370696,-10436.903782,-842.705048
954.633004,-1036.288319,-9104.533087,-536.266849
954.633328,0.000000,-8882.471304,689.485948
954.633652,962.267725,-10140.821405,-383.047749
954.633976,-814.226536,-9104.533087,-229.828649
954.634300,-1184.329507,-9178.553681,-229.828649
954.634625,-962.267725,-9400.615463,-536.266849
954.634949,-1184.329507,-9030.512492,-306.438199
954.635273,-518.144159,-8956.491898,-612.876398
954.635597,0.000000,-8068.244768,-153.219100
954.635921,0.000000,-9178.553681,766.095498
954.636245,74.020594,-9178.553681,0.000000
954.636569,444.123565,-8734.430116,459.657299
954.636893,592.164754,-9474.636058,1302.362347
954.637217,1184.329507,-10288.862594,-229.828649
954.637542,666.185348,-9918.759623,153.219100
954.637866,-962.267725,-9400.615463,612.876398
954.638190,-1258.350101,-9696.697840,-536.266849
954.638514,-1480.411884,-9474.636058,229.828649
954.638838,0.000000,-9622.677246,1225.752797
954.639162,1628.453072,-9474.636058,842.705048
954.639486,1850.514855,-8882.471304,1302.362347
954.639810,1036.288319,-8808.450710,1378.971896
954.640134,444.123565,-7994.224174,689.485948
954.640459,740.205942,-8290.306550,919.314598
954.640783,888.247130,-8808.450710,1302.362347
954.641107,1702.473667,-8142.265362,1072.533697
954.641431,1628.453072,-7920.203579,1149.143247
954.641755,888.247130,-8660.409521,995.924147
954.642079,1184.329507,-8586.388927,766.095498
954.642403,1998.556043,-9770.718434,919.314598
954.642727,1406.391290,-9770.718434,229.828649
954.643052,740.205942,-9400.615463,459.657299
954.643376,296.082377,-9548.656652,383.047749
954.643700,296.082377,-10066.800811,-229.828649
954.644024,0.000000,-10288.862594,1225.752797
954.644348,0.000000,-10732.986159,0.000000
954.644672,222.061783,-10066.800811,-383.047749
954.644996,-518.144159,-11251.130318,766.095498
954.645320,-296.082377,-11843.295072,76.609550
954.645644,148.041188,-10881.027347,-459.657299
954.645969,-296.082377,-10955.047942,-383.047749
954.646293,-444.123565,-10807.006753,-995.924147
954.646617,-370.102971,-10881.027347,-536.266849
954.646941,-1110.308913,-11103.089130,-689.485948
954.647265,-1184.329507,-10436.903782,-1532.190996
954.647589,-888.247130,-8956.491898,-1302.362347
954.647913,-444.123565,-8956.491898,-1455.581446
954.648237,-370.102971,-9400.615463,-1608.800546
954.648562,-444.123565,-10066.800811,-459.657299
954.648886,0.000000,-10436.903782,-919.314598
954.649210,0.000000,-9030.512492,-766.095498
954.649534,-518.144159,-8882.471304,-153.219100
954.649858,74.020594,-9178.553681,-612.876398
954.650182,-222.061783,-9326.594869,-536.266849
954.650506,-1554.432478,-10362.883188,536.266849
954.650830,-1258.350101,-10658.965565,-229.828649
954.651154,-962.267725,-9400.615463,-612.876398
954.651479,-370.102971,-9992.780217,0.000000
954.651803,-222.061783,-10288.862594,-1532.190996
954.652127,-1554.432478,-10881.027347,-1072.533697
954.652451,-2220.617826,-10955.047942,-919.314598
954.652775,-1924.535449,-10658.965565,-842.705048
954.653099,-888.247130,-10510.924376,0.000000
954.653423,148.041188,-9844.739029,-153.219100
954.653747,-148.041188,-8734.430116,-689.485948
954.654071,-1036.288319,-9178.553681,153.219100
954.654396,-1332.370696,-9622.677246,-612.876398
954.654720,-1036.288319,-8882.471304,-612.876398
954.655044,-740.205942,-7846.182985,689.485948
954.655368,0.000000,-7402.059420,-459.657299
954.655692,0.000000,-7772.162391,459.657299
954.656016,-148.041188,-8956.491898,612.876398
954.656340,0.000000,-8660.409521,-459.657299
954.656664,296.082377,-7031.956449,612.876398
954.656989,1036.288319,-7698.141797,536.266849
954.657313,1924.535449,-8734.430116,766.095498
954.657637,1998.556043,-10584.944971,2145.067394
954.657961,1924.535449,-10436.903782,2528.115143
954.658285,1850.514855,-9252.574275,1225.752797
954.658609,-296.082377,-8882.471304,612.876398
954.658933,-148.041188,-9400.615463,229.828649
954.659257,0.000000,-9770.718434,0.000000
954.659581,-444.123565,-10510.924376,1072.533697
954.659906,-888.247130,-9992.780217,0.000000
954.660230,-1258.350101,-8956.491898,0.000000
954.660554,-370.102971,-9400.615463,536.266849
954.660878,666.185348,-9622.677246,-229.828649
954.661202,888.247130,-10436.903782,229.828649
954.661526,518.144159,-10288.862594,612.876398
954.661850,1110.308913,-10066.800811,536.266849
954.662174,1628.453072,-9474.636058,842.705048
954.662499,2368.659014,-9474.636058,383.047749
954.662823,1924.535449,-9474.636058,-229.828649
954.663147,666.185348,-10288.862594,536.266849
954.663471,222.061783,-11621.233289,0.000000
954.663795,1184.329507,-10658.965565,459.657299
954.664119,2072.576638,-9622.677246,229.828649
954.664443,1776.494261,-9696.697840,-1302.362347
954.664767,444.123565,-10658.965565,-1838.629195
954.665091,-962.267725,-11843.295072,-766.095498
954.665416,-222.061783,-12361.439231,-995.924147
954.665740,-444.123565,-10807.006753,-383.047749
954.666064,148.041188,-9622.677246,-306.438199
954.666388,-888.247130,-10732.986159,-1455.581446
954.666712,-2146.597232,-11325.150913,-842.705048
954.667036,-2886.803174,-11029.068536,-919.314598
954.667360,-3034.844362,-9622.677246,-842.705048
954.667684,-1924.535449,-9326.594869,-153.219100
954.668008,-1480.411884,-8956.491898,-1072.533697
954.668333,-1702.473667,-8586.388927,-536.266849
954.668657,-3182.885551,-9326.594869,-536.266849
954.668981,-3182.885551,-9252.574275,-1991.848295
954.669305,-2886.803174,-8290.306550,-1149.143247
954.669629,-1850.514855,-8364.327145,-153.219100
954.669953,0.000000,-8142.265362,-689.485948
954.670277,148.041188,-8068.244768,842.705048
954.670601,-222.061783,-9474.636058,306.438199
954.670926,-962.267725,-9104.533087,-536.266849
954.671250,-592.164754,-8660.409521,459.657299
954.671574,444.123565,-7994.224174,306.438199
954.671898,444.123565,-8586.388927,76.609550
954.672222,-666.185348,-9474.636058,229.828649
954.672546,-1258.350101,-9474.636058,0.000000
954.672870,-962.267725,-9030.512492,229.828649
954.673194,-148.041188,-8586.388927,689.485948
954.673518,-814.226536,-7698.141797,-1072.533697
954.673843,-296.082377,-8956.491898,-995.924147
954.674167,0.000000,-10658.965565,459.657299
954.674491,1184.329507,-11177.109724,0.000000
954.674815,1332.370696,-9770.718434,459.657299
954.675139,1850.514855,-9770.718434,1378.971896
954.675463,2812.782580,-10658.965565,536.266849
954.675787,2960.823768,-11991.336260,612.876398
954.676111,2812.782580,-11399.171507,1302.362347
954.676436,2442.679609,-10214.842000,459.657299
954.676760,1628.453072,-9992.780217,229.828649
954.677084,1628.453072,-9696.697840,-1149.143247
954.677408,962.267725,-9400.615463,-689.485948
954.677732,0.000000,-10362.883188,0.000000
954.678056,370.102971,-10288.862594,-1072.533697
954.678380,666.185348,-9474.636058,-459.657299
954.678704,1036.288319,-9252.574275,153.219100
954.679031,2442.679609,-9474.636058,-383.047749
954.679355,2294.638420,-10140.821405,153.219100
954.679679,1332.370696,-10732.986159,383.047749
954.680003,740.205942,-9992.780217,612.876398
954.680327,814.226536,-9992.780217,1149.143247
954.680650,370.102971,-9844.739029,0.000000
954.680974,666.185348,-9696.697840,0.000000
954.681298,-296.082377,-9918.759623,153.219100
954.681622,-962.267725,-10658.965565,-766.095498
954.681946,-1110.308913,-9770.718434,-1532.190996
954.682270,-1184.329507,-8660.409521,-842.705048
954.682594,-370.102971,-8660.409521,-1532.190996
954.682918,-518.144159,-9326.594869,-2145.067394
954.683242,-1406.391290,-9474.636058,-1991.848295
954.683566,-1110.308913,-9326.594869,-1991.848295
954.683890,-1258.350101,-9400.615463,-1149.143247
954.684214,-370.102971,-9992.780217,-306.438199
954.684538,0.000000,-9400.615463,-1072.533697
954.684862,-1628.453072,-8882.471304,-1225.752797
954.685186,-1998.556043,-8808.450710,-1302.362347
954.685509,-1554.432478,-8512.368333,-919.314598
954.685833,-592.164754,-9104.533087,0.000000
954.686157,-518.144159,-9252.574275,0.000000
954.686481,-518.144159,-9400.615463,0.000000
954.686805,-666.185348,-10362.883188,0.000000
954.687129,-518.144159,-10066.800811,-1225.752797
954.687453,-1110.308913,-9104.533087,-689.485948
954.687777,-2220.617826,-9474.636058,-536.266849
954.688101,-1998.556043,-10066.800811,-1762.019645
954.688425,-2294.638420,-9844.739029,-2068.457845
954.688749,-2738.761985,-11177.109724,-766.095498
954.689073,-1998.556043,-12139.377449,-1838.629195
954.689397,-888.247130,-11251.130318,-536.266849
954.689721,370.102971,-10362.883188,459.657299
954.690045,1406.391290,-10510.924376,153.219100
954.690368,1554.432478,-11029.068536,536.266849
954.690692,1332.370696,-10214.842000,229.828649
954.691016,814.226536,-8882.471304,689.485948
954.691340,888.247130,-9252.574275,306.438199
954.691664,592.164754,-8882.471304,-383.047749
954.691988,-370.102971,-8068.244768,153.219100
954.692312,-888.247130,-8364.327145,-229.828649
954.692636,-740.205942,-8734.430116,-995.924147
954.692960,-592.164754,-8364.327145,153.219100
954.693284,666.185348,-8586.388927,919.314598
954.693608,1998.556043,-8512.368333,306.438199
954.693932,2072.576638,-9548.656652,1302.362347
954.694256,1036.288319,-9918.759623,1378.971896
954.694580,1480.411884,-9030.512492,1378.971896
954.694903,1110.308913,-9844.739029,2451.505594
954.695227,1480.411884,-10066.800811,842.705048
954.695551,1184.329507,-9474.636058,383.047749
954.695875,296.082377,-10584.944971,1072.533697
954.696199,148.041188,-11547.212695,689.485948
954.696523,296.082377,-10362.883188,1149.143247
954.696847,518.144159,-9400.615463,1838.629195
954.697171,444.123565,-9548.656652,1378.971896
954.697495,1110.308913,-9844.739029,995.924147
954.697819,1110.308913,-9178.553681,536.266849
954.698143,1036.288319,-9326.594869,76.609550
954.698467,222.061783,-8512.368333,306.438199
954.698791,444.123565,-8586.388927,153.219100
954.699115,1184.329507,-8364.327145,0.000000
954.699439,740.205942,-9178.553681,-229.828649
954.699762,0.000000,-8586.388927,-1302.362347
954.700086,148.041188,-8734.430116,-995.924147
954.700410,444.123565,-8808.450710,-919.314598
954.700734,1406.391290,-9326.594869,-459.657299
954.701058,1184.329507,-9696.697840,0.000000
954.701382,592.164754,-10732.986159,-459.657299
954.701706,0.000000,-10584.944971,-1608.800546
954.702030,-518.144159,-9918.759623,-995.924147
954.702354,0.000000,-10732.986159,-766.095498
954.702678,-222.061783,-11177.109724,-1838.629195
954.703002,-1554.432478,-11029.068536,-1302.362347
954.703326,-2368.659014,-10955.047942,-1455.581446
954.703650,-2146.597232,-10807.006753,-2221.676944
954.703974,-1554.432478,-10807.006753,-1915.238745
954.704297,-962.267725,-10510.924376,-1149.143247
954.704621,296.082377,-10955.047942,-1762.019645
954.704945,222.061783,-11325.150913,-383.047749
954.705269,-518.144159,-10658.965565,-842.705048
954.705593,-1628.453072,-9844.739029,-995.924147
954.705917,-2146.597232,-9622.677246,-766.095498
954.706241,-2368.659014,-9844.739029,-1915.238745
954.706565,-2442.679609,-9696.697840,-1532.190996
954.706889,-2812.782580,-9104.533087,-1302.362347
954.707213,-1924.535449,-9474.636058,-1149.143247
954.707537,-1924.535449,-9548.656652,-1455.581446
954.707861,-1850.514855,-8956.491898,-1378.971896
954.708185,-962.267725,-9178.553681,-1149.143247
954.708509,-148.041188,-10288.862594,0.000000
954.708833,740.205942,-10288.862594,153.219100
954.709156,1332.370696,-9548.656652,1149.143247
954.709480,1480.411884,-8808.450710,1608.800546
954.709804,2220.617826,-9770.718434,229.828649
954.710128,1036.288319,-9178.553681,459.657299
954.710452,-222.061783,-10362.883188,1225.752797
954.710776,-740.205942,-9844.739029,0.000000
954.711100,-592.164754,-8142.265362,383.047749
954.711424,-222.061783,-8068.244768,842.705048
954.711748,444.123565,-8734.430116,612.876398
954.712072,962.267725,-8882.471304,1225.752797
954.712396,444.123565,-8290.306550,1302.362347
954.712720,1332.370696,-7698.141797,1302.362347
954.713044,1776.494261,-8142.265362,1225.752797
954.713368,1850.514855,-7254.018232,153.219100
954.713691,1332.370696,-8068.244768,1072.533697
954.714015,1184.329507,-9918.759623,1225.752797
954.714339,2220.617826,-9770.718434,0.000000
954.714663,2442.679609,-8956.491898,1455.581446
954.714987,2072.576638,-9474.636058,612.876398
954.715311,2516.700203,-9622.677246,153.219100
954.715635,1776.494261,-10436.903782,1072.533697
954.715959,518.144159,-11029.068536,612.876398
954.716283,444.123565,-10066.800811,842.705048
954.716607,370.102971,-9548.656652,306.438199
954.716931,296.082377,-9622.677246,153.219100
954.717255,444.123565,-10214.842000,229.828649
954.717579,222.061783,-11103.089130,-383.047749
954.717903,-1480.411884,-10214.842000,-1608.800546
954.718227,-1850.514855,-9400.615463,-1991.848295
954.718550,-1258.350101,-9622.677246,-1991.848295
954.718874,0.000000,-10066.800811,-2451.505594
954.719198,0.000000,-10584.944971,-1762.019645
954.719522,-296.082377,-10658.965565,-536.266849
954.719846,0.000000,-11029.068536,-1762.019645
954.720170,-370.102971,-10658.965565,-1915.238745
954.720494,-296.082377,-10436.903782,-1225.752797
954.720818,0.000000,-10658.965565,-1455.581446
954.721142,-444.123565,-11843.295072,-919.314598
954.721466,-1184.329507,-11177.109724,-919.314598
954.721790,-1110.308913,-9770.718434,-919.314598
954.722114,-1110.308913,-9622.677246,-842.705048
954.722438,-518.144159,-10288.862594,-1608.800546
954.722762,-814.226536,-10436.903782,-1302.362347
954.723085,-1258.350101,-10584.944971,-536.266849
954.723409,-1998.556043,-10362.883188,-842.705048
954.723733,-2072.576638,-9992.780217,-612.876398
954.724057,-1924.535449,-9474.636058,-1225.752797
954.724381,-1406.391290,-9400.615463,-1838.629195
954.724705,-1406.391290,-9474.636058,0.000000
954.725029,-888.247130,-10436.903782,0.000000
954.725353,0.000000,-9474.636058,612.876398
954.725677,0.000000,-8808.450710,1149.143247
954.726001,-148.041188,-8290.306550,612.876398
954.726325,222.061783,-7846.182985,-153.219100
954.726649,0.000000,-8142.265362,-153.219100
954.726973,-666.185348,-7994.224174,229.828649
954.727297,-592.164754,-8438.347739,383.047749
954.727621,0.000000,-8216.285956,766.095498
954.727944,0.000000,-7254.018232,153.219100
954.728268,-222.061783,-7328.038826,0.000000
954.728592,-666.185348,-8512.368333,689.485948
954.728916,-296.082377,-8956.491898,0.000000
954.729240,222.061783,-8364.327145,766.095498
954.729564,814.226536,-8586.388927,1149.143247
954.729888,1628.453072,-9252.574275,383.047749
954.730212,1554.432478,-10288.862594,1072.533697
954.730536,814.226536,-10362.883188,766.095498
954.730860,962.267725,-10288.862594,612.876398
954.731184,1332.370696,-10288.862594,995.924147
954.731508,1258.350101,-9918.759623,229.828649
954.731832,222.061783,-9992.780217,842.705048
954.732156,-1110.308913,-10807.006753,459.657299
954.732479,-1332.370696,-11029.068536,-766.095498
954.732803,-1036.288319,-10362.883188,-153.219100
954.733127,-296.082377,-10140.821405,-459.657299
954.733451,592.164754,-9918.759623,-919.314598
954.733775,888.247130,-9770.718434,766.095498
954.734099,1554.432478,-10362.883188,383.047749
954.734423,2368.659014,-10732.986159,153.219100
954.734747,1776.494261,-10214.842000,766.095498
954.735071,2516.700203,-10140.821405,76.609550
954.735395,2812.782580,-10066.800811,-689.485948
954.735719,2220.617826,-10140.821405,-383.047749
954.736043,1184.329507,-9992.780217,-995.924147
954.736367,518.144159,-10066.800811,-612.876398
954.736691,518.144159,-10510.924376,-306.438199
954.737015,370.102971,-9696.697840,-1302.362347
954.737338,0.000000,-9400.615463,-1608.800546
954.737662,-1628.453072,-9400.615463,-1762.019645
954.737986,-1702.473667,-10140.821405,-1685.410096
954.738310,-1110.308913,-9844.739029,0.000000
954.738634,0.000000,-9844.739029,-306.438199
954.738958,0.000000,-9104.533087,-306.438199
954.739282,-1036.288319,-8956.491898,0.000000
954.739606,-296.082377,-9992.780217,-306.438199
954.739930,148.041188,-10362.883188,0.000000
954.740254,-296.082377,-9918.759623,536.266849
954.740578,-370.102971,-8734.430116,-612.876398
954.740902,-888.247130,-7920.203579,-383.047749
954.741226,-1480.411884,-9474.636058,-1532.190996
954.741550,-2368.659014,-9178.553681,-2068.457845
954.741873,-2294.638420,-8956.491898,-1149.143247
954.742197,-2368.659014,-9252.574275,-1149.143247
954.742521,-2294.638420,-9030.512492,-1915.238745
954.742845,-1924.535449,-9178.553681,-1072.533697
954.743169,-1850.514855,-10214.842000,-306.438199
954.743493,-1406.391290,-10658.965565,-1225.752797
954.743817,-370.102971,-10510.924376,306.438199
954.744141,296.082377,-10288.862594,612.876398
954.744465,1036.288319,-10881.027347,995.924147
954.744789,814.226536,-11103.089130,919.314598
954.745113,-296.082377,-11029.068536,766.095498
954.745437,-740.205942,-10658.965565,842.705048
954.745761,-740.205942,-10807.006753,766.095498
954.746085,-1184.329507,-10510.924376,-689.485948
954.746409,-1776.494261,-9770.718434,536.266849
954.746732,-2368.659014,-10214.842000,306.438199
954.747056,-2072.576638,-9696.697840,229.828649
954.747380,-1554.432478,-9400.615463,1072.533697
954.747704,-222.061783,-8734.430116,1072.533697
954.748028,592.164754,-7846.182985,1149.143247
954.748352,1184.329507,-8734.430116,2298.286494
954.748676,1110.308913,-8512.368333,1532.190996
954.749000,1998.556043,-7772.162391,2451.505594
954.749324,1628.453072,-7624.121203,2298.286494
954.749648,1554.432478,-8068.244768,1225.752797
954.749972,1332.370696,-8438.347739,1455.581446
954.750296,1110.308913,-9474.636058,1302.362347
954.750620,1628.453072,-8734.430116,919.314598
954.750944,1998.556043,-8364.327145,1072.533697
954.751267,1480.411884,-8068.244768,1302.362347
954.751591,1554.432478,-8586.388927,536.266849
954.751915,740.205942,-9696.697840,766.095498
954.752239,370.102971,-10214.842000,689.485948
954.752563,444.123565,-9844.739029,842.705048
954.752887,1110.308913,-9400.615463,995.924147
954.753211,1332.370696,-9030.512492,459.657299
954.753535,1258.350101,-9548.656652,995.924147
954.753859,444.123565,-10214.842000,-153.219100
954.754183,-370.102971,-10658.965565,-995.924147
954.754507,-518.144159,-9400.615463,-383.047749
954.754831,296.082377,-9474.636058,-766.095498
954.755155,1036.288319,-10066.800811,-1532.190996
954.755479,814.226536,-9770.718434,-1915.238745
954.755803,296.082377,-9918.759623,-1378.971896
954.756126,-370.102971,-9696.697840,-2221.676944
954.756450,592.164754,-10140.821405,-1608.800546
954.756774,1332.370696,-9770.718434,-1455.581446
954.757098,1110.308913,-9992.780217,-1915.238745
954.757422,-740.205942,-11029.068536,-2068.457845
954.757746,-814.226536,-11251.130318,-2374.896044
954.758070,-666.185348,-9844.739029,-2145.067394
954.758394,-296.082377,-10436.903782,-766.095498
954.758718,-1110.308913,-10214.842000,-1915.238745
954.759042,-2516.700203,-10510.924376,-2374.896044
954.759366,-3256.906145,-11473.192101,-2451.505594
954.759690,-3330.926739,-11399.171507,-2911.162892
954.760014,-3627.009116,-10881.027347,-2451.505594
954.760338,-3775.050304,-10436.903782,-2068.457845
954.760661,-3478.967927,-10436.903782,-3447.429741
954.760985,-2812.782580,-10807.006753,-2068.457845
954.761309,-1702.473667,-10807.006753,-1915.238745
954.761633,-296.082377,-10807.006753,-1302.362347
954.761957,592.164754,-9918.759623,-459.657299
954.762281,1480.411884,-9770.718434,-229.828649
954.762605,1406.391290,-9696.697840,76.609550
954.762929,740.205942,-9474.636058,-536.266849
954.763253,444.123565,-9400.615463,-383.047749
954.763577,666.185348,-8660.409521,-306.438199
954.763901,888.247130,-7994.224174,-306.438199
954.764225,592.164754,-7402.059420,-689.485948
954.764549,-444.123565,-7254.018232,-306.438199
954.764873,-1776.494261,-7772.162391,-536.266849
954.765197,-666.185348,-7994.224174,0.000000
954.765520,296.082377,-8438.347739,1455.581446
954.765844,2294.638420,-8734.430116,2145.067394
954.766168,2294.638420,-8142.265362,1608.800546
954.766492,1850.514855,-9030.512492,2221.676944
954.766816,1258.350101,-9696.697840,1915.238745
954.767140,1850.514855,-9918.759623,2451.505594
954.767464,1776.494261,-10140.821405,2451.505594
954.767788,1406.391290,-9326.594869,1455.581446
954.768112,0.000000,-9030.512492,1072.533697
954.768436,-592.164754,-10066.800811,306.438199
954.768760,-740.205942,-10362.883188,-229.828649
954.769084,-296.082377,-9770.718434,689.485948
954.769408,444.123565,-9400.615463,536.266849
954.769732,518.144159,-9252.574275,306.438199
954.770056,370.102971,-9992.780217,1225.752797
954.770379,888.247130,-10510.924376,1225.752797
954.770703,1332.370696,-9918.759623,1378.971896
954.771027,1924.535449,-9696.697840,1455.581446
954.771351,1628.453072,-9770.718434,1455.581446
954.771675,1332.370696,-10362.883188,1455.581446
954.771999,1110.308913,-11177.109724,1762.019645
954.772323,666.185348,-10955.047942,919.314598
954.772647,814.226536,-9770.718434,306.438199
954.772971,0.000000,-8734.430116,-842.705048
954.773295,0.000000,-8660.409521,-1915.238745
954.773619,-1110.308913,-8956.491898,-1455.581446
954.773943,-1628.453072,-10066.800811,-1455.581446
954.774267,-1702.473667,-10066.800811,-1991.848295
954.774591,-2590.720797,-9252.574275,-1532.190996
954.774914,-2368.659014,-8068.244768,-995.924147
954.775238,-1036.288319,-8956.491898,-842.705048
954.775562,-296.082377,-10807.006753,-459.657299
954.775886,-370.102971,-11325.150913,153.219100
954.776210,0.000000,-9918.759623,842.705048
954.776534,148.041188,-9918.759623,1455.581446
954.776858,1110.308913,-9474.636058,0.000000
954.777182,592.164754,-8734.430116,76.609550
954.777506,-592.164754,-9400.615463,-306.438199
954.777830,-1184.329507,-9844.739029,-919.314598
954.778154,-370.102971,-9844.739029,-842.705048
954.778478,666.185348,-10066.800811,-229.828649
954.778802,370.102971,-9696.697840,-306.438199
954.779126,-962.267725,-10955.047942,-229.828649
954.779450,-2220.617826,-11547.212695,-689.485948
954.779774,-2220.617826,-10955.047942,-689.485948
954.780098,-1702.473667,-11473.192101,689.485948
954.780422,0.000000,-10955.047942,842.705048
954.780746,-296.082377,-9474.636058,919.314598
954.781070,-888.247130,-9696.697840,919.314598
954.781394,-962.267725,-9918.759623,0.000000
954.781718,-962.267725,-10066.800811,-153.219100
954.782042,-1480.411884,-9992.780217,459.657299
954.782367,-1036.288319,-8882.471304,229.828649
954.782691,-740.205942,-8734.430116,-459.657299
954.783015,-888.247130,-9474.636058,153.219100
954.783339,-1110.308913,-8882.471304,0.000000
954.783663,-148.041188,-8438.347739,229.828649
954.783987,592.164754,-7846.182985,383.047749
954.784311,1332.370696,-7698.141797,995.924147
954.784635,1184.329507,-8142.265362,1685.410096
954.784959,888.247130,-8956.491898,612.876398
954.785283,222.061783,-9030.512492,766.095498
954.785608,-222.061783,-8512.368333,766.095498
954.785932,-592.164754,-8364.327145,-612.876398
954.786256,-1036.288319,-9252.574275,153.219100
954.786580,-1036.288319,-9918.759623,153.219100
954.786904,222.061783,-9104.533087,-842.705048
954.787228,1184.329507,-9178.553681,-229.828649
954.787552,1406.391290,-9548.656652,229.828649
954.787876,3034.844362,-9696.697840,0.000000
954.788200,2812.782580,-10510.924376,689.485948
954.788524,2590.720797,-11177.109724,-153.219100
954.788849,2368.659014,-10436.903782,-306.438199
954.789173,3034.844362,-10881.027347,0.000000
954.789497,3330.926739,-10955.047942,-919.314598
954.789821,2812.782580,-10436.903782,-1302.362347
954.790145,370.102971,-9918.759623,-1532.190996
954.790469,-962.267725,-9844.739029,-2221.676944
954.790793,-296.082377,-10510.924376,-2145.067394
954.791117,592.164754,-10510.924376,-1608.800546
954.791441,1332.370696,-9030.512492,-1532.190996
954.791765,962.267725,-9252.574275,-919.314598
954.792090,444.123565,-10436.903782,-536.266849
954.792414,740.205942,-10658.965565,-1149.143247
954.792738,74.020594,-10584.944971,459.657299
954.793062,148.041188,-10362.883188,-459.657299
954.793386,148.041188,-10140.821405,-1149.143247
954.793710,-814.226536,-10436.903782,-383.047749
954.794034,-1850.514855,-10732.986159,-1225.752797
954.794358,-1702.473667,-10288.862594,-1762.019645
954.794682,-888.247130,-9992.780217,-229.828649
954.795006,-370.102971,-9548.656652,-536.266849
954.795330,-888.247130,-8882.471304,-1149.143247
954.795655,-2368.659014,-9030.512492,-1149.143247
954.795979,-3108.864956,-9622.677246,-995.924147
954.796303,-2886.803174,-9844.739029,-842.705048
954.796627,-2442.679609,-9770.718434,-766.095498
954.796951,-2220.617826,-9400.615463,-383.047749
954.797275,-2368.659014,-8808.450710,689.485948
954.797599,-2294.638420,-9326.594869,536.266849
954.797923,-2294.638420,-9474.636058,689.485948
954.798247,-2294.638420,-9326.594869,1149.143247
954.798571,-740.205942,-8364.327145,612.876398
954.798896,148.041188,-8068.244768,766.095498
954.799220,-370.102971,-8808.450710,766.095498
954.799544,-518.144159,-8660.409521,229.828649
954.799868,-666.185348,-8660.409521,612.876398
954.800192,-370.102971,-9474.636058,1225.752797
954.800516,-740.205942,-9326.594869,76.609550
954.800840,-888.247130,-9030.512492,459.657299
954.801164,-740.205942,-9548.656652,153.219100
954.801488,0.000000,-10584.944971,0.000000
954.801812,148.041188,-10584.944971,1225.752797
954.802137,1776.494261,-9844.739029,1378.971896
954.802461,2590.720797,-9400.615463,1455.581446
954.802785,2368.659014,-10214.842000,1302.362347
954.803109,2368.659014,-10732.986159,1072.533697
954.803433,3182.885551,-10510.924376,2298.286494
954.803757,3034.844362,-10288.862594,2221.676944
954.804081,2664.741391,-9474.636058,1455.581446
954.804405,740.205942,-9030.512492,383.047749
954.804729,-370.102971,-10140.821405,-153.219100
954.805053,0.000000,-10658.965565,-306.438199
954.805378,370.102971,-10807.006753,229.828649
954.805702,1850.514855,-9696.697840,842.705048
954.806026,2220.617826,-9400.615463,995.924147
954.806350,1184.329507,-9622.677246,1149.143247
954.806674,1036.288319,-9178.553681,306.438199
954.806998,1184.329507,-9696.697840,1149.143247
954.807322,2294.638420,-9252.574275,612.876398
954.807646,2368.659014,-8438.347739,-229.828649
954.807970,1110.308913,-8882.471304,459.657299
954.808294,0.000000,-9918.759623,459.657299
954.808619,-148.041188,-9844.739029,-919.314598
954.808943,-814.226536,-9400.615463,-612.876398
954.809267,-1184.329507,-8660.409521,-536.266849
954.809591,-1480.411884,-8068.244768,-1149.143247
954.809915,-740.205942,-8142.265362,-229.828649
954.810239,-888.247130,-9104.533087,-459.657299
954.810563,-740.205942,-9326.594869,-995.924147
954.810887,-666.185348,-8956.491898,0.000000
954.811211,0.000000,-9178.553681,153.219100
954.811535,518.144159,-9326.594869,229.828649
954.811859,-444.123565,-9178.553681,0.000000
954.812184,-2146.597232,-9252.574275,-766.095498
954.812508,-1850.514855,-9030.512492,-995.924147
954.812832,-1110.308913,-9844.739029,-612.876398
954.813156,-444.123565,-9548.656652,-1149.143247
954.813480,-666.185348,-9104.533087,-229.828649
954.813804,-1406.391290,-10140.821405,-383.047749
954.814128,-1332.370696,-10362.883188,-1685.410096
954.814452,-2146.597232,-9474.636058,-766.095498
954.814776,-1628.453072,-9992.780217,-153.219100
954.815100,-666.185348,-10732.986159,-536.266849
954.815425,-1036.288319,-10732.986159,0.000000
954.815749,-1036.288319,-10066.800811,-536.266849
954.816073,-888.247130,-9992.780217,0.000000
954.816397,-518.144159,-10436.903782,-229.828649
954.816721,0.000000,-10658.965565,0.000000
954.817045,-444.123565,-10436.903782,0.000000
954.817369,-888.247130,-10807.006753,536.266849
954.817693,-740.205942,-11103.089130,-612.876398
954.818017,-666.185348,-10658.965565,-306.438199
954.818341,-814.226536,-10140.821405,-612.876398
954.818666,-814.226536,-10140.821405,-1455.581446
954.818990,-1110.308913,-10658.965565,-689.485948
954.819314,-888.247130,-10510.924376,-306.438199
954.819638,592.164754,-10066.800811,0.000000
954.819962,592.164754,-10288.862594,76.609550
954.820286,1258.350101,-9918.759623,0.000000
954.820610,1924.535449,-9400.615463,306.438199
954.820934,1776.494261,-10066.800811,1302.362347
954.821258,1480.411884,-9622.677246,229.828649
954.821582,1480.411884,-9326.594869,229.828649
954.821907,1776.494261,-8956.491898,842.705048
954.822231,2516.700203,-9770.718434,76.609550
954.822555,1776.494261,-9696.697840,306.438199
954.822879,370.102971,-9178.553681,612.876398
954.823203,0.000000,-8290.306550,-229.828649
954.823527,296.082377,-7846.182985,-153.219100
954.823851,740.205942,-8142.265362,-459.657299
954.824175,1332.370696,-8068.244768,0.000000
954.824499,1110.308913,-8438.347739,383.047749
954.824823,592.164754,-9178.553681,383.047749
954.825148,814.226536,-8734.430116,612.876398
954.825472,1110.308913,-8956.491898,1302.362347
954.825796,1406.391290,-9770.718434,536.266849
954.826120,1406.391290,-9548.656652,766.095498
954.826444,1036.288319,-9770.718434,919.314598
954.826768,592.164754,-9844.739029,-536.266849
954.827092,74.020594,-9770.718434,-459.657299
954.827416,-296.082377,-9696.697840,0.000000
954.827740,-592.164754,-9474.636058,-689.485948
954.828064,-1184.329507,-10140.821405,-459.657299
954.828389,-1406.391290,-10140.821405,-766.095498
954.828713,-1332.370696,-9252.574275,0.000000
954.829037,-592.164754,-9918.759623,153.219100
954.829361,592.164754,-9770.718434,229.828649
954.829685,666.185348,-9844.739029,612.876398
954.830009,-592.164754,-10214.842000,995.924147
954.830333,-1036.288319,-9696.697840,0.000000
954.830657,-592.164754,-9104.533087,766.095498
954.830981,-296.082377,-9770.718434,995.924147
954.831305,-740.205942,-9696.697840,-306.438199
954.831629,-2368.659014,-9030.512492,-383.047749
954.831954,-3256.906145,-9770.718434,-766.095498
954.832278,-2590.720797,-9548.656652,-1455.581446
954.832602,-2442.679609,-9178.553681,-536.266849
954.832926,-2368.659014,-8734.430116,-153.219100
954.833250,-1850.514855,-9400.615463,-536.266849
954.833574,-1628.453072,-10510.924376,306.438199
954.833898,-1036.288319,-10807.006753,919.314598
954.834222,-592.164754,-10881.027347,842.705048
954.834546,74.020594,-10732.986159,1608.800546
954.834870,518.144159,-9844.739029,995.924147
954.835195,0.000000,-10066.800811,1072.533697
954.835519,-814.226536,-10584.944971,766.095498
954.835843,-740.205942,-9918.759623,-229.828649
954.836167,-740.205942,-9252.574275,-689.485948
954.836491,-444.123565,-8956.491898,0.000000
954.836815,-814.226536,-8660.409521,-1915.238745
954.837139,-1332.370696,-8808.450710,-995.924147
954.837463,-888.247130,-9474.636058,-383.047749
954.837787,592.164754,-10362.883188,76.609550
954.838111,1332.370696,-9326.594869,1455.581446
954.838436,2738.761985,-8734.430116,689.485948
954.838760,2590.720797,-8808.450710,1225.752797
954.839084,2812.782580,-10066.800811,995.924147
954.839408,2072.576638,-10732.986159,689.485948
954.839732,1480.411884,-10436.903782,1072.533697
954.840056,1258.350101,-9474.636058,689.485948
954.840380,1480.411884,-8660.409521,-306.438199
954.840704,740.205942,-8882.471304,-153.219100
954.841028,-370.102971,-9696.697840,-842.705048
954.841352,-148.041188,-9992.780217,-1608.800546
954.841677,222.061783,-10066.800811,-536.266849
954.842001,1110.308913,-9400.615463,-842.705048
954.842325,1332.370696,-9622.677246,0.000000
954.842649,1110.308913,-10732.986159,306.438199
954.842973,1406.391290,-10881.027347,689.485948
954.843297,1628.453072,-9918.759623,689.485948
954.843621,1776.494261,-9326.594869,766.095498
954.843945,1924.535449,-9696.697840,459.657299
954.844269,1702.473667,-9918.759623,612.876398
954.844593,1184.329507,-9548.656652,689.485948
954.844918,962.267725,-9178.553681,-459.657299
954.845242,296.082377,-8660.409521,-612.876398
954.845566,-296.082377,-8512.368333,-919.314598
954.845890,-148.041188,-8364.327145,-689.485948
954.846214,-1036.288319,-8956.491898,-536.266849
954.846538,-2072.576638,-8586.388927,-2221.676944
954.846862,-1998.556043,-8216.285956,-1378.971896
954.847186,-1628.453072,-8734.430116,-536.266849
954.847510,-740.205942,-9474.636058,-459.657299
954.847834,-814.226536,-9104.533087,153.219100
954.848158,-1406.391290,-9030.512492,-383.047749
954.848483,-1110.308913,-9326.594869,0.000000
954.848807,-370.102971,-9474.636058,459.657299
954.849131,0.000000,-9770.718434,842.705048
954.849455,-740.205942,-9474.636058,459.657299
954.849779,-1998.556043,-10066.800811,612.876398
954.850103,-2960.823768,-10288.862594,-689.485948
954.850427,-3775.050304,-10214.842000,-1762.019645
954.850751,-4219.173869,-9252.574275,-1378.971896
954.851075,-3478.967927,-9326.594869,-919.314598
954.851399,-2442.679609,-10732.986159,-1685.410096
954.851724,-2442.679609,-10807.006753,-612.876398
954.852048,-2146.597232,-10214.842000,-306.438199
954.852372,-666.185348,-10140.821405,229.828649
954.852696,814.226536,-10436.903782,0.000000
954.853020,1702.473667,-10362.883188,0.000000
954.853344,1924.535449,-11177.109724,612.876398
954.853668,2368.659014,-11029.068536,536.266849
954.853992,1776.494261,-10584.944971,383.047749
954.854316,1554.432478,-10732.986159,1608.800546
954.854640,1332.370696,-11473.192101,459.657299
954.854965,592.164754,-11177.109724,-612.876398
954.855289,-888.247130,-10140.821405,0.000000
954.855613,-1628.453072,-10510.924376,0.000000
954.855937,-148.041188,-10881.027347,612.876398
954.856261,888.247130,-9844.739029,1149.143247
954.856585,1406.391290,-8586.388927,1455.581446
954.856909,1554.432478,-9104.533087,1455.581446
954.857233,1480.411884,-10584.944971,1838.629195
954.857557,1332.370696,-9992.780217,1685.410096
954.857881,1184.329507,-8290.306550,2834.553343
954.858206,1110.308913,-8068.244768,1991.848295
954.858530,592.164754,-8142.265362,536.266849
954.858854,296.082377,-8068.244768,1455.581446
954.859178,370.102971,-9252.574275,1685.410096
954.859502,444.123565,-9252.574275,612.876398
954.859826,518.144159,-7772.162391,2145.067394
954.860150,1184.329507,-7179.997637,1915.238745
954.860474,1998.556043,-8068.244768,995.924147
954.860798,1332.370696,-9178.553681,1455.581446
954.861122,518.144159,-8808.450710,1225.752797
954.861447,1776.494261,-8438.347739,1149.143247
954.861771,1776.494261,-9474.636058,1915.238745
954.862095,1702.473667,-9474.636058,1915.238745
954.862419,592.164754,-8364.327145,1608.800546
954.862743,-1036.288319,-9030.512492,536.266849
954.863067,-1628.453072,-9252.574275,-995.924147
954.863391,-1332.370696,-9178.553681,-76.609550
954.863715,0.000000,-9400.615463,-383.047749
954.864039,148.041188,-9770.718434,-459.657299
954.864363,-518.144159,-9992.780217,0.000000
954.864688,-1110.308913,-10362.883188,-612.876398
954.865012,-1628.453072,-10436.903782,-1608.800546
954.865336,-2368.659014,-10214.842000,-1072.533697
954.865660,-1036.288319,-9918.759623,-919.314598
954.865984,-592.164754,-10584.944971,-459.657299
954.866308,-666.185348,-10881.027347,-153.219100
954.866632,-888.247130,-10066.800811,-536.266849
954.866956,-518.144159,-10362.883188,-153.219100
954.867280,0.000000,-10214.842000,-383.047749
954.867604,-444.123565,-9918.759623,-229.828649
954.867928,-1480.411884,-9400.615463,-1302.362347
954.868253,-1480.411884,-9844.739029,-1225.752797
954.868577,-962.267725,-10658.965565,-1225.752797
954.868901,-222.061783,-10807.006753,-995.924147
954.869225,-148.041188,-9770.718434,-1455.581446
954.869549,-814.226536,-9474.636058,-1532.190996
954.869873,-1406.391290,-9992.780217,-1455.581446
954.870197,-1628.453072,-10807.006753,-1762.019645
954.870521,-1036.288319,-10658.965565,-919.314598
954.870845,-296.082377,-11029.068536,0.000000
954.871169,740.205942,-10807.006753,0.000000
954.871494,962.267725,-10288.862594,229.828649
954.871818,370.102971,-10732.986159,0.000000
954.872142,0.000000,-10214.842000,-383.047749
954.872466,-888.247130,-9548.656652,-919.314598
954.872790,-1258.350101,-9178.553681,-1149.143247
954.873114,-2072.576638,-8808.450710,-1838.629195
954.873438,-1998.556043,-9252.574275,-1455.581446
954.873762,-2294.638420,-9474.636058,-1991.848295
954.874086,-1702.473667,-9030.512492,-1532.190996
954.874410,222.061783,-9104.533087,0.000000
954.874735,1998.556043,-8586.388927,459.657299
954.875059,2812.782580,-9030.512492,1149.143247
954.875383,2960.823768,-9400.615463,1608.800546
954.875707,2738.761985,-9770.718434,1455.581446
954.876031,2368.659014,-9474.636058,1225.752797
954.876355,2368.659014,-9400.615463,1072.533697
954.876679,2072.576638,-9104.533087,766.095498
954.877003,1702.473667,-9474.636058,842.705048
954.877327,962.267725,-9770.718434,-383.047749
954.877651,74.020594,-8660.409521,-995.924147
954.877976,0.000000,-8808.450710,0.000000
954.878300,666.185348,-9030.512492,-536.266849
954.878624,1776.494261,-9474.636058,-306.438199
954.878948,1554.432478,-9474.636058,1149.143247
954.879272,1110.308913,-9622.677246,0.000000
954.879596,888.247130,-10066.800811,306.438199
954.879920,1036.288319,-9844.739029,1608.800546
954.880244,1554.432478,-9844.739029,689.485948
954.880568,1110.308913,-10066.800811,1149.143247
954.880892,-370.102971,-10214.842000,1072.533697
954.881216,0.000000,-10066.800811,766.095498
954.881540,888.247130,-9400.615463,689.485948
954.881864,1184.329507,-9474.636058,919.314598
954.882188,222.061783,-9104.533087,76.609550
954.882513,0.000000,-9548.656652,-842.705048
954.882837,-592.164754,-9474.636058,-383.047749
954.883161,-296.082377,-9844.739029,-306.438199
954.883485,-518.144159,-9474.636058,-229.828649
954.883809,-1036.288319,-8882.471304,-459.657299
954.884133,-962.267725,-9474.636058,-383.047749
954.884457,-1184.329507,-10436.903782,842.705048
954.884781,-1184.329507,-10436.903782,229.828649
954.885105,-1998.556043,-8586.388927,536.266849
954.885429,-1924.535449,-8808.450710,689.485948
954.885753,-1406.391290,-9252.574275,0.000000
954.886077,-1702.473667,-9918.759623,536.266849
954.886401,-2664.741391,-9696.697840,842.705048
954.886725,-2368.659014,-9400.615463,612.876398
954.887049,-1406.391290,-9178.553681,383.047749
954.887373,-1110.308913,-9252.574275,0.000000
954.887697,-1480.411884,-9104.533087,-612.876398
954.888021,-3034.844362,-9696.697840,-229.828649
954.888346,-2812.782580,-10436.903782,-995.924147
954.888670,-2590.720797,-10881.027347,-229.828649
954.888994,-1998.556043,-9844.739029,383.047749
954.889318,-814.226536,-9770.718434,612.876398
954.889642,222.061783,-10362.883188,842.705048
954.889966,518.144159,-11029.068536,689.485948
954.890290,296.082377,-11177.109724,766.095498
954.890614,888.247130,-10807.006753,1532.190996
954.890938,1406.391290,-10214.842000,612.876398
954.891262,518.144159,-9326.594869,153.219100
954.891586,-888.247130,-9770.718434,-229.828649
954.891910,-1480.411884,-11029.068536,-306.438199
954.892234,-444.123565,-10362.883188,-153.219100
954.892558,740.205942,-9474.636058,689.485948
954.892882,1332.370696,-9104.533087,0.000000
954.893206,1480.411884,-8956.491898,153.219100
954.893530,1702.473667,-9622.677246,995.924147
954.893854,2442.679609,-10362.883188,1149.143247
954.894179,2590.720797,-10214.842000,1532.190996
954.894503,1998.556043,-8956.491898,842.705048
954.894827,1258.350101,-7550.100608,1149.143247
954.895151,1258.350101,-8882.471304,1455.581446
954.895475,1184.329507,-9992.780217,842.705048
954.895799,962.267725,-9326.594869,689.485948
954.896123,740.205942,-7994.224174,842.705048
954.896447,740.205942,-8068.244768,229.828649
954.896771,1258.350101,-8882.471304,1302.362347
954.897095,1258.350101,-8882.471304,1072.533697
954.897419,1776.494261,-8364.327145,0.000000
954.897743,2220.617826,-8216.285956,76.609550
954.898067,2442.679609,-8808.450710,383.047749
954.898391,1998.556043,-8660.409521,-383.047749
954.898715,1036.288319,-7846.182985,-612.876398
954.899039,-296.082377,-8438.347739,-1455.581446
954.899363,-888.247130,-9474.636058,-1302.362347
954.899687,-814.226536,-9992.780217,-1455.581446
954.900012,-296.082377,-9622.677246,-1455.581446
954.900336,0.000000,-9622.677246,-995.924147
954.900660,0.000000,-10807.006753,-1302.362347
954.900984,-666.185348,-11177.109724,-1838.629195
954.901308,-1628.453072,-10732.986159,-1455.581446
954.901632,-1702.473667,-10955.047942,-1455.581446
954.901956,-962.267725,-11695.253884,-1991.848295
954.902280,-370.102971,-11621.233289,-1378.971896
954.902604,-814.226536,-11473.192101,-1685.410096
954.902928,-1702.473667,-10807.006753,-2145.067394
954.903252,-1998.556043,-10362.883188,-2221.676944
954.903576,-1332.370696,-10214.842000,-1915.238745
954.903900,-1110.308913,-10510.924376,-1991.848295
954.904224,-1628.453072,-9992.780217,-1532.190996
954.904548,-2442.679609,-10288.862594,-1608.800546
954.904872,-2516.700203,-10584.944971,-1608.800546
954.905196,-1628.453072,-11177.109724,-766.095498
954.905520,-1184.329507,-10807.006753,-766.095498
954.905845,-1628.453072,-10066.800811,-689.485948
954.906169,-1850.514855,-9474.636058,229.828649
954.906493,-1480.411884,-9252.574275,-612.876398
954.906817,-296.082377,-9770.718434,76.609550
954.907141,148.041188,-9474.636058,-229.828649
954.907465,444.123565,-9104.533087,-689.485948
954.907789,518.144159,-8660.409521,229.828649
954.908113,1184.329507,-9252.574275,229.828649
954.908437,2146.597232,-9770.718434,229.828649
954.908761,1850.514855,-9622.677246,995.924147
954.909085,962.267725,-8512.368333,76.609550
954.909409,444.123565,-9030.512492,76.609550
954.909733,-740.205942,-9400.615463,459.657299
954.910057,-1036.288319,-9622.677246,536.266849
954.910381,-1332.370696,-9104.533087,842.705048
954.910705,-1110.308913,-8438.347739,995.924147
954.911029,222.061783,-7624.121203,1302.362347
954.911353,1554.432478,-8290.306550,1991.848295
954.911678,1332.370696,-9474.636058,2298.286494
954.912002,740.205942,-8882.471304,2298.286494
954.912326,222.061783,-8216.285956,2221.676944
954.912650,666.185348,-8882.471304,1915.238745
954.912974,1110.308913,-8882.471304,995.924147
954.913298,444.123565,-8808.450710,689.485948
954.913622,0.000000,-8956.491898,306.438199
954.913946,-296.082377,-8734.430116,459.657299
954.914270,370.102971,-9400.615463,1532.190996
954.914594,0.000000,-8882.471304,1225.752797
954.914918,444.123565,-8734.430116,842.705048
954.915242,1184.329507,-9400.615463,995.924147
954.915566,2368.659014,-9844.739029,1225.752797
954.915890,3108.864956,-10510.924376,1991.848295
954.916214,2960.823768,-10807.006753,2987.772442
954.916538,2294.638420,-9992.780217,1608.800546
954.916862,962.267725,-9548.656652,76.609550
954.917186,-1332.370696,-10288.862594,-612.876398
954.917511,-2368.659014,-10214.842000,-1532.190996
954.917835,-1924.535449,-10436.903782,-689.485948
954.918159,-888.247130,-10436.903782,-1225.752797
954.918483,-518.144159,-10510.924376,-766.095498
954.918807,-1110.308913,-10658.965565,-612.876398
954.919131,-370.102971,-11325.150913,-536.266849
954.919455,222.061783,-11695.253884,229.828649
954.919779,296.082377,-11325.150913,0.000000
954.920103,0.000000,-10066.800811,-459.657299
954.920427,-1110.308913,-9696.697840,459.657299
954.920751,-666.185348,-10436.903782,-383.047749
954.921075,0.000000,-10807.006753,-766.095498
954.921399,-666.185348,-10066.800811,0.000000
954.921723,-740.205942,-9400.615463,-766.095498
954.922047,-1184.329507,-8660.409521,-1532.190996
954.922371,-1184.329507,-8734.430116,-995.924147
954.922695,-962.267725,-9400.615463,-995.924147
954.923019,-370.102971,-9992.780217,153.219100
954.923344,-296.082377,-9474.636058,-919.314598
954.923668,-518.144159,-8586.388927,-766.095498
954.923992,-888.247130,-8068.244768,0.000000
954.924316,-666.185348,-9474.636058,-153.219100
954.924640,-666.185348,-9770.718434,-383.047749
954.924964,-444.123565,-9696.697840,383.047749
954.925288,0.000000,-9326.594869,383.047749
954.925612,222.061783,-9326.594869,0.000000
954.925936,-592.164754,-9104.533087,-842.705048
954.926260,-1258.350101,-9696.697840,-689.485948
954.926584,-1406.391290,-10066.800811,-1072.533697
954.926908,-1406.391290,-9992.780217,-689.485948
954.927232,-1110.308913,-9844.739029,-229.828649
954.927556,-814.226536,-9992.780217,-689.485948
954.927880,-1332.370696,-9770.718434,-1532.190996
954.928204,-1628.453072,-9252.574275,-1302.362347
954.928528,-444.123565,-8882.471304,-612.876398
954.928852,1036.288319,-9474.636058,-153.219100
954.929177,2294.638420,-9844.739029,306.438199
954.929501,1998.556043,-9474.636058,766.095498
954.929825,1406.391290,-9548.656652,689.485948
954.930149,1776.494261,-9622.677246,153.219100
954.930473,2442.679609,-10066.800811,153.219100
954.930797,2220.617826,-9844.739029,306.438199
954.931121,1924.535449,-9252.574275,612.876398
954.931445,1406.391290,-9474.636058,612.876398
954.931769,666.185348,-9992.780217,0.000000
954.932093,666.185348,-9474.636058,0.000000
954.932417,222.061783,-9474.636058,0.000000
954.932741,0.000000,-9474.636058,-306.438199
954.933065,370.102971,-9474.636058,0.000000
954.933389,814.226536,-9770.718434,459.657299
954.933713,592.164754,-9474.636058,306.438199
954.934037,444.123565,-9844.739029,536.266849
954.934361,1036.288319,-10288.862594,229.828649
954.934685,1702.473667,-9844.739029,0.000000
954.935010,740.205942,-9622.677246,0.000000
954.935334,0.000000,-10214.842000,-306.438199
954.935658,370.102971,-9622.677246,-306.438199
954.935982,1480.411884,-9400.615463,-76.609550
954.936306,1332.370696,-9622.677246,-536.266849
954.936630,1036.288319,-9622.677246,-689.485948
954.936954,592.164754,-9696.697840,-1072.533697
954.937278,-814.226536,-10066.800811,-1225.752797
954.937602,-1258.350101,-9696.697840,-919.314598
954.937926,-962.267725,-9252.574275,-1149.143247
954.938250,-1628.453072,-9770.718434,-1838.629195
954.938574,-1776.494261,-9474.636058,-919.314598
954.938898,-1110.308913,-10140.821405,-383.047749
954.939222,-962.267725,-10881.027347,459.657299
954.939546,-592.164754,-10436.903782,229.828649
954.939870,-740.205942,-9474.636058,-383.047749
954.940194,-962.267725,-9178.553681,-612.876398
954.940518,-1332.370696,-10066.800811,-842.705048
954.940843,-2072.576638,-10288.862594,-1225.752797
954.941167,-2368.659014,-9992.780217,-612.876398
954.941491,-2294.638420,-9474.636058,-842.705048
954.941815,-2368.659014,-9030.512492,-1455.581446
954.942139,-2294.638420,-9400.615463,-689.485948
954.942463,-1628.453072,-10140.821405,76.609550
954.942787,-518.144159,-10140.821405,-383.047749
954.943111,-148.041188,-9474.636058,1149.143247
954.943435,148.041188,-9252.574275,919.314598
954.943759,1184.329507,-9104.533087,612.876398
954.944083,1036.288319,-9252.574275,919.314598
954.944407,0.000000,-9844.739029,995.924147
954.944731,444.123565,-9696.697840,459.657299
954.945055,0.000000,-9178.553681,383.047749
954.945379,-444.123565,-8512.368333,-229.828649
954.945703,-666.185348,-8068.244768,-536.266849
954.946027,-1036.288319,-9770.718434,153.219100
954.946351,-518.144159,-10881.027347,76.609550
954.946676,0.000000,-9400.615463,0.000000
954.947000,814.226536,-7994.224174,919.314598
954.947324,1628.453072,-8660.409521,919.314598
954.947648,2072.576638,-10288.862594,1532.190996
954.947972,1702.473667,-10955.047942,1915.238745
954.948296,888.247130,-9770.718434,2145.067394
954.948620,592.164754,-10288.862594,2374.896044
954.948944,1184.329507,-9770.718434,1072.533697
954.949268,518.144159,-9030.512492,0.000000
954.949592,-814.226536,-8808.450710,306.438199
954.949916,-888.247130,-10214.842000,-153.219100
954.950240,74.020594,-10362.883188,0.000000
954.950564,814.226536,-9400.615463,766.095498
954.950888,1184.329507,-8660.409521,689.485948
954.951212,1702.473667,-7994.224174,153.219100
954.951536,1850.514855,-9474.636058,153.219100
954.951860,1332.370696,-10140.821405,153.219100
954.952184,1480.411884,-9992.780217,919.314598
954.952509,1776.494261,-9992.780217,229.828649
954.952833,1628.453072,-9104.533087,766.095498
954.953157,444.123565,-9252.574275,0.000000
954.953481,-148.041188,-9992.780217,-1225.752797
954.953805,-518.144159,-10066.800811,-1838.629195
954.954129,0.000000,-10214.842000,-919.314598
954.954453,370.102971,-9992.780217,-1072.533697
954.954777,1036.288319,-9770.718434,-612.876398
954.955101,592.164754,-10658.965565,-1072.533697
954.955425,0.000000,-10732.986159,-1838.629195
954.955749,-518.144159,-10881.027347,-1225.752797
954.956073,-444.123565,-10584.944971,-995.924147
954.956397,-222.061783,-9770.718434,-1225.752797
954.956721,-1258.350101,-9474.636058,-995.924147
954.957045,-1998.556043,-10658.965565,-995.924147
954.957369,-2220.617826,-10510.924376,-1225.752797
954.957693,-1184.329507,-10510.924376,0.000000
954.958017,-370.102971,-9622.677246,-1225.752797
954.958342,296.082377,-8068.244768,-1225.752797
954.958666,222.061783,-7772.162391,-1455.581446
954.958990,-74.020594,-9474.636058,-1225.752797
954.959314,-444.123565,-10510.924376,-612.876398
954.959638,-370.102971,-10807.006753,-919.314598
954.959962,-1332.370696,-9178.553681,-1532.190996
954.960286,-2516.700203,-8438.347739,-1838.629195
954.960610,-2368.659014,-10140.821405,-1608.800546
954.960934,-1406.391290,-10510.924376,-1149.143247
954.961258,-1406.391290,-10510.924376,76.609550
954.961582,-1036.288319,-10436.903782,-153.219100
954.961906,0.000000,-9326.594869,0.000000
954.962230,296.082377,-9548.656652,0.000000
954.962554,-296.082377,-9548.656652,0.000000
954.962878,-1332.370696,-9178.553681,-612.876398
954.963202,-1924.535449,-9252.574275,-1149.143247
954.963526,-1480.411884,-9474.636058,-919.314598
954.963850,-1628.453072,-9178.553681,-766.095498
954.964175,-1258.350101,-8956.491898,-612.876398
954.964499,-1480.411884,-9474.636058,-536.266849
954.964823,-518.144159,-9844.739029,0.000000
954.965147,1184.329507,-9474.636058,1225.752797
954.965471,2886.803174,-8660.409521,1225.752797
954.965795,3404.947333,-8808.450710,1685.410096
954.966119,3182.885551,-9844.739029,1838.629195
954.966443,2960.823768,-10066.800811,1378.971896
954.966767,2294.638420,-9844.739029,1455.581446
954.967091,1702.473667,-9400.615463,383.047749
954.967415,740.205942,-8586.388927,-383.047749
954.967739,0.000000,-9326.594869,-536.266849
954.968063,-888.247130,-10288.862594,-459.657299
954.968387,-888.247130,-10214.842000,536.266849
954.968711,-740.205942,-9992.780217,919.314598
954.969035,296.082377,-9770.718434,1378.971896
954.969359,1036.288319,-10510.924376,1762.019645
954.969684,1036.288319,-10955.047942,1685.410096
954.970008,888.247130,-10288.862594,1991.848295
954.970332,740.205942,-9918.759623,1991.848295
954.970656,518.144159,-10066.800811,1378.971896
954.970980,1258.350101,-9474.636058,612.876398
954.971304,1036.288319,-9178.553681,536.266849
954.971628,1332.370696,-9548.656652,0.000000
954.971952,666.185348,-9252.574275,-689.485948
954.972276,0.000000,-8882.471304,-153.219100
954.972600,-444.123565,-8364.327145,-919.314598
954.972924,-148.041188,-8438.347739,-1225.752797
954.973248,74.020594,-8808.450710,-1302.362347
954.973572,-666.185348,-9104.533087,-919.314598
954.973896,-296.082377,-9474.636058,-153.219100
954.974220,444.123565,-9918.759623,612.876398
954.974544,296.082377,-9844.739029,306.438199
954.974868,-888.247130,-9326.594869,0.000000
954.975192,-2220.617826,-9178.553681,-383.047749
954.975517,-2146.597232,-9992.780217,-919.314598
954.975841,-1406.391290,-10955.047942,-229.828649
954.976165,-444.123565,-10436.903782,76.609550
954.976489,-888.247130,-9474.636058,-536.266849
954.976813,-2442.679609,-9770.718434,-689.485948
954.977137,-2590.720797,-10436.903782,-1991.848295
954.977461,-2368.659014,-10140.821405,-1378.971896
954.977785,-1924.535449,-10510.924376,-842.705048
954.978109,-1776.494261,-10288.862594,-1225.752797
954.978433,-1184.329507,-9696.697840,-995.924147
954.978757,-1332.370696,-9918.759623,-995.924147
954.979081,-814.226536,-9770.718434,-919.314598
954.979405,0.000000,-10510.924376,76.609550
954.979729,1036.288319,-10732.986159,-229.828649
954.980053,2146.597232,-9252.574275,153.219100
954.980377,1850.514855,-10066.800811,689.485948
954.980701,1554.432478,-11251.130318,-229.828649
954.981026,1554.432478,-9696.697840,-919.314598
954.981350,888.247130,-9252.574275,-306.438199
954.981674,370.102971,-9548.656652,-1455.581446
954.981998,592.164754,-9622.677246,-1455.581446
954.982322,666.185348,-9918.759623,-919.314598
954.982646,-444.123565,-9474.636058,-1915.238745
954.982970,-888.247130,-9252.574275,-1608.800546
954.983294,-518.144159,-10362.883188,-919.314598
954.983618,222.061783,-9844.739029,229.828649
954.983943,740.205942,-9844.739029,842.705048
954.984267,814.226536,-9992.780217,1225.752797
954.984591,1184.329507,-10140.821405,1225.752797
954.984915,1332.370696,-10214.842000,459.657299
954.985239,74.020594,-9030.512492,766.095498
954.985563,-888.247130,-8956.491898,383.047749
954.985887,-1480.411884,-9474.636058,0.000000
954.986211,-1184.329507,-8512.368333,-1225.752797
954.986535,-370.102971,-7476.080014,0.000000
954.986859,962.267725,-7772.162391,-383.047749
954.987184,1184.329507,-8586.388927,-536.266849
954.987508,592.164754,-8808.450710,306.438199
954.987832,1036.288319,-8660.409521,153.219100
954.988156,1628.453072,-8290.306550,-229.828649
954.988480,1776.494261,-8882.471304,1149.143247
954.988804,2442.679609,-9622.677246,1532.190996
954.989128,2368.659014,-9252.574275,612.876398
954.989452,592.164754,-9622.677246,536.266849
954.989776,-1184.329507,-9844.739029,-536.266849
954.990100,-1184.329507,-9844.739029,-1149.143247
954.990425,-666.185348,-9326.594869,-919.314598
954.990749,0.000000,-9844.739029,-459.657299
954.991073,-518.144159,-10288.862594,0.000000
954.991397,-888.247130,-11103.089130,-842.705048
954.991721,-1258.350101,-10584.944971,-1072.533697
954.992045,-592.164754,-11325.150913,-689.485948
954.992369,222.061783,-11695.253884,-1149.143247
954.992693,222.061783,-10658.965565,-1532.190996
954.993017,-814.226536,-10584.944971,-1072.533697
954.993342,-888.247130,-10288.862594,-1685.410096
954.993666,-592.164754,-10362.883188,-1072.533697
954.993990,0.000000,-11029.068536,-153.219100
954.994314,222.061783,-10881.027347,-919.314598
954.994638,444.123565,-9622.677246,-842.705048
954.994962,0.000000,-10214.842000,536.266849
954.995286,518.144159,-11695.253884,1072.533697
954.995610,518.144159,-11103.089130,536.266849
954.995934,0.000000,-9326.594869,0.000000
954.996258,-740.205942,-9178.553681,0.000000
954.996583,-1184.329507,-10140.821405,-229.828649
954.996907,-1924.535449,-10436.903782,-229.828649
954.997231,-2368.659014,-9548.656652,306.438199
954.997555,-2220.617826,-8660.409521,-306.438199
954.997879,-962.267725,-8734.430116,-459.657299
954.998203,-1554.432478,-8216.285956,0.000000
954.998527,-814.226536,-8882.471304,153.219100
954.998851,-962.267725,-8660.409521,0.000000
954.999175,-1036.288319,-8068.244768,76.609550
954.999499,-1036.288319,-7920.203579,612.876398
954.999824,-666.185348,-7994.224174,153.219100
955.000148,-296.082377,-7846.182985,0.000000
955.000472,148.041188,-9548.656652,612.876398
955.000796,444.123565,-9548.656652,229.828649
955.001120,1924.535449,-8882.471304,766.095498
955.001444,1628.453072,-9178.553681,1302.362347
955.001768,1110.308913,-8438.347739,612.876398
955.002092,518.144159,-8956.491898,153.219100
955.002416,370.102971,-9696.697840,0.000000
955.002740,814.226536,-10140.821405,76.609550
955.003065,2146.597232,-9548.656652,229.828649
955.003389,2738.761985,-8808.450710,612.876398
955.003713,1924.535449,-9104.533087,459.657299
955.004037,296.082377,-9844.739029,0.000000
955.004361,-444.123565,-9770.718434,-1378.971896
955.004685,-518.144159,-10584.944971,-612.876398
955.005009,-370.102971,-10807.006753,-306.438199
955.005333,74.020594,-9770.718434,-842.705048
955.005657,-370.102971,-10066.800811,-306.438199
955.005982,0.000000,-10732.986159,-306.438199
955.006306,444.123565,-10955.047942,-612.876398
955.006630,814.226536,-11251.130318,0.000000
955.006954,1480.411884,-11029.068536,-153.219100
955.007278,2146.597232,-10288.862594,-383.047749
955.007602,2072.576638,-10288.862594,459.657299
955.007926,962.267725,-10584.944971,-536.266849
955.008250,296.082377,-10881.027347,-1225.752797
955.008574,-370.102971,-11177.109724,-995.924147
955.008898,0.000000,-10584.944971,-919.314598
955.009223,888.247130,-10214.842000,-842.705048
955.009547,518.144159,-9844.739029,-766.095498
955.009871,-888.247130,-9474.636058,-1225.752797
955.010195,-1628.453072,-10140.821405,-536.266849
955.010519,-1924.535449,-9770.718434,-306.438199
955.010843,-1776.494261,-9252.574275,-689.485948
955.011167,-1554.432478,-8956.491898,459.657299
955.011491,-1184.329507,-8882.471304,0.000000
955.011815,-1110.308913,-8808.450710,229.828649
955.012139,-1184.329507,-9326.594869,306.438199
955.012464,-1480.411884,-9252.574275,536.266849
955.012788,-2516.700203,-8586.388927,-459.657299
955.013112,-3404.947333,-8142.265362,-842.705048
955.013436,-3182.885551,-8216.285956,-1149.143247
955.013760,-2590.720797,-8586.388927,-766.095498
955.014084,-1998.556043,-8956.491898,-612.876398
955.014408,-1776.494261,-8660.409521,-612.876398
955.014732,-1036.288319,-8882.471304,459.657299
955.015056,0.000000,-9696.697840,459.657299
955.015381,1850.514855,-9474.636058,459.657299
955.015705,2220.617826,-9622.677246,919.314598
955.016029,2442.679609,-10807.006753,995.924147
955.016353,2220.617826,-10658.965565,306.438199
955.016677,888.247130,-10288.862594,689.485948
955.017001,0.000000,-9992.780217,-306.438199
955.017325,-592.164754,-9252.574275,-1072.533697
955.017649,-1628.453072,-8956.491898,-1532.190996
955.017973,-1258.350101,-9178.553681,-1915.238745
955.018297,-1998.556043,-9474.636058,-1532.190996
955.018622,-1850.514855,-9474.636058,-1685.410096
955.018946,-1998.556043,-9918.759623,-1455.581446
955.019270,-1184.329507,-10807.006753,-229.828649
955.019594,1850.514855,-10955.047942,689.485948
955.019918,3478.967927,-10436.903782,383.047749
955.020242,3404.947333,-11177.109724,1378.971896
955.020566,3182.885551,-11399.171507,689.485948
955.020890,3256.906145,-11029.068536,919.314598
955.021214,3552.988522,-11325.150913,1685.410096
955.021538,2960.823768,-10658.965565,1149.143247
955.021863,2072.576638,-9770.718434,383.047749
955.022187,0.000000,-9622.677246,0.000000
955.022511,-1628.453072,-9252.574275,-1072.533697
955.022835,-1332.370696,-8216.285956,-1762.019645
955.023159,-740.205942,-8068.244768,-1149.143247
955.023483,-518.144159,-8364.327145,-612.876398
955.023807,0.000000,-9178.553681,153.219100
955.024131,592.164754,-8882.471304,612.876398
955.024455,1184.329507,-8068.244768,995.924147
955.024780,518.144159,-8364.327145,1532.190996
955.025104,1110.308913,-9104.533087,766.095498
955.025428,2146.597232,-9104.533087,766.095498
955.025752,1628.453072,-9104.533087,1378.971896
955.026076,518.144159,-9992.780217,383.047749
955.026400,-444.123565,-10066.800811,-536.266849
955.026724,-740.205942,-9622.677246,-306.438199
955.027048,-296.082377,-9770.718434,0.000000
955.027372,-1554.432478,-10510.924376,-1302.362347
955.027696,-2368.659014,-10288.862594,-1685.410096
955.028021,-2960.823768,-9474.636058,-1225.752797
955.028345,-1924.535449,-9548.656652,-612.876398
955.028669,-296.082377,-10584.944971,-766.095498
955.028993,-222.061783,-10140.821405,0.000000
955.029317,-1110.308913,-9622.677246,842.705048
955.029641,-1036.288319,-10955.047942,-306.438199
955.029965,-814.226536,-9474.636058,-536.266849
955.030289,-666.185348,-9548.656652,-459.657299
955.030613,-666.185348,-9992.780217,-459.657299
955.030937,-518.144159,-9918.759623,-995.924147
955.031262,-296.082377,-9326.594869,-306.438199
955.031586,-592.164754,-9252.574275,-306.438199
955.031910,-740.205942,-10140.821405,-459.657299
955.032234,-222.061783,-10140.821405,-1302.362347
955.032558,-518.144159,-9770.718434,-1455.581446
955.032882,-592.164754,-9918.759623,-229.828649
955.033206,0.000000,-10436.903782,-689.485948
955.033530,0.000000,-10214.842000,-229.828649
955.033854,444.123565,-9992.780217,-153.219100
955.034178,222.061783,-9770.718434,-612.876398
955.034503,0.000000,-10140.821405,-689.485948
955.034827,-1258.350101,-10510.924376,0.000000
955.035151,0.000000,-10362.883188,0.000000
955.035475,0.000000,-9622.677246,-689.485948
955.035799,-740.205942,-9400.615463,-306.438199
955.036123,-962.267725,-10140.821405,-842.705048
955.036447,-370.102971,-10066.800811,-689.485948
955.036771,-444.123565,-9252.574275,306.438199
955.037095,-148.041188,-8512.368333,1072.533697
955.037420,370.102971,-8586.388927,1149.143247
955.037744,1776.494261,-9474.636058,766.095498
955.038068,2368.659014,-8068.244768,229.828649
955.038392,1776.494261,-9104.533087,1455.581446
955.038716,1628.453072,-9696.697840,612.876398
955.039040,1184.329507,-8216.285956,0.000000
955.039364,740.205942,-7254.018232,689.485948
955.039688,0.000000,-7920.203579,-766.095498
955.040012,-518.144159,-9030.512492,-689.485948
955.040336,-888.247130,-9918.759623,229.828649
955.040661,74.020594,-9918.759623,229.828649
955.040985,1628.453072,-9474.636058,1532.190996
955.041309,2368.659014,-9104.533087,1455.581446
955.041633,1850.514855,-9622.677246,1149.143247
955.041957,888.247130,-10510.924376,612.876398
955.042281,962.267725,-10214.842000,0.000000
955.042605,0.000000,-9770.718434,0.000000
955.042929,-148.041188,-10955.047942,459.657299
955.043253,296.082377,-10807.006753,-536.266849
955.043577,-222.061783,-9918.759623,-689.485948
955.043902,-1924.535449,-10066.800811,-306.438199
955.044226,-2368.659014,-10658.965565,-1762.019645
955.044550,-740.205942,-10732.986159,-1149.143247
955.044874,666.185348,-10436.903782,0.000000
955.045198,2368.659014,-9844.739029,689.485948
955.045522,2294.638420,-9844.739029,0.000000
955.045846,592.164754,-9992.780217,-536.266849
955.046170,-666.185348,-9474.636058,-536.266849
955.046494,-222.061783,-10214.842000,-383.047749
955.046819,74.020594,-10362.883188,0.000000
955.047143,0.000000,-9400.615463,-306.438199
955.047467,-1110.308913,-9030.512492,-766.095498
955.047791,-1480.411884,-9474.636058,-1532.190996
955.048115,-962.267725,-10436.903782,-536.266849
955.048439,-444.123565,-10584.944971,306.438199
955.048763,-444.123565,-9696.697840,-1149.143247
955.049087,-1480.411884,-8808.450710,0.000000
955.049411,-1628.453072,-8586.388927,-536.266849
955.049735,-1406.391290,-10066.800811,-919.314598
955.050060,-1554.432478,-10807.006753,-995.924147
955.050384,-1702.473667,-9696.697840,-229.828649
955.050708,-1776.494261,-9030.512492,-459.657299
955.051032,-1554.432478,-9622.677246,-995.924147
955.051356,-1776.494261,-9696.697840,0.000000
955.051680,-1332.370696,-9178.553681,0.000000
955.052004,0.000000,-9844.739029,153.219100
955.052328,740.205942,-10066.800811,306.438199
955.052652,1184.329507,-9622.677246,995.924147
955.052976,1036.288319,-9696.697840,1225.752797
955.053301,444.123565,-9252.574275,0.000000
955.053625,0.000000,-8808.450710,0.000000
955.053949,-296.082377,-9474.636058,-383.047749
955.054273,222.061783,-9696.697840,-842.705048
955.054597,-296.082377,-9030.512492,0.000000
955.054921,-518.144159,-9474.636058,0.000000
955.055245,-222.061783,-9400.615463,-919.314598
955.055569,222.061783,-9474.636058,-536.266849
955.055893,888.247130,-9400.615463,0.000000
955.056218,1776.494261,-9474.636058,306.438199
955.056542,2368.659014,-9770.718434,842.705048
955.056866,1998.556043,-10214.842000,1072.533697
955.057190,1776.494261,-10066.800811,1378.971896
955.057514,1480.411884,-10658.965565,1302.362347
955.057838,592.164754,-9918.759623,383.047749
955.058162,0.000000,-10362.883188,919.314598
955.058486,-814.226536,-9992.780217,229.828649
955.058810,-888.247130,-9178.553681,-766.095498
955.059134,-1258.350101,-8882.471304,612.876398
955.059459,0.000000,-9992.780217,1225.752797
955.059783,1776.494261,-9844.739029,1149.143247
955.060107,1406.391290,-8808.450710,1302.362347
955.060431,1110.308913,-8142.265362,1532.190996
955.060755,1036.288319,-8660.409521,995.924147
955.061079,1110.308913,-9622.677246,995.924147
955.061403,592.164754,-9178.553681,766.095498
955.061727,74.020594,-8364.327145,536.266849
955.062051,-370.102971,-7994.224174,-229.828649
955.062375,-1258.350101,-8660.409521,-1302.362347
955.062700,-1258.350101,-8290.306550,-612.876398
955.063024,-740.205942,-8882.471304,-766.095498
955.063348,-296.082377,-9844.739029,-1225.752797
955.063672,-222.061783,-10140.821405,-306.438199
955.063996,518.144159,-9918.759623,-919.314598
955.064320,962.267725,-9474.636058,-766.095498
955.064644,518.144159,-9770.718434,153.219100
955.064968,666.185348,-10807.006753,0.000000
955.065292,740.205942,-10955.047942,0.000000
955.065616,370.102971,-11103.089130,459.657299
955.065941,-814.226536,-11177.109724,0.000000
955.066265,-2220.617826,-10807.006753,-1072.533697
955.066589,-3256.906145,-10214.842000,-1762.019645
955.066913,-3997.112087,-9474.636058,-2145.067394
955.067237,-2960.823768,-9918.759623,-1915.238745
955.067561,-1776.494261,-10584.944971,-1838.629195
955.067885,-1850.514855,-10510.924376,-1378.971896
955.068209,-1406.391290,-10214.842000,-995.924147
955.068533,-444.123565,-10362.883188,-1378.971896
955.068858,148.041188,-9252.574275,-1991.848295
955.069182,0.000000,-9252.574275,-306.438199
955.069506,740.205942,-9844.739029,-689.485948
955.069830,2072.576638,-9770.718434,-1302.362347
955.070154,3034.844362,-8882.471304,0.000000
955.070478,3256.906145,-9400.615463,-153.219100
955.070802,3182.885551,-9844.739029,-1149.143247
955.071126,2368.659014,-10140.821405,-766.095498
955.071450,1480.411884,-10362.883188,-919.314598
955.071774,1110.308913,-10066.800811,-1685.410096
955.072099,666.185348,-11029.068536,-1302.362347
955.072423,148.041188,-10732.986159,-1608.800546
955.072747,444.123565,-9918.759623,-2068.457845
955.073071,444.123565,-9770.718434,-1532.190996
955.073395,740.205942,-10066.800811,-2221.676944
955.073719,1554.432478,-9252.574275,-1685.410096
955.074043,2368.659014,-8956.491898,-1072.533697
955.074367,3478.967927,-8956.491898,-536.266849
955.074691,3849.070898,-9622.677246,153.219100
955.075015,2590.720797,-9622.677246,0.000000
955.075340,2072.576638,-9326.594869,-459.657299
955.075664,1702.473667,-9030.512492,-766.095498
955.075988,2294.638420,-8364.327145,-153.219100
955.076312,3256.906145,-8586.388927,-689.485948
955.076636,2960.823768,-8734.430116,-842.705048
955.076960,1036.288319,-7846.182985,-1685.410096
955.077284,1258.350101,-7476.080014,-1991.848295
955.077608,2072.576638,-7179.997637,-1762.019645
955.077932,2812.782580,-8068.244768,-1378.971896
955.078257,3775.050304,-8808.450710,-1378.971896
955.078581,3775.050304,-8586.388927,-919.314598
955.078905,3404.947333,-9474.636058,-306.438199
955.079229,2960.823768,-10658.965565,-766.095498
955.079553,3330.926739,-10807.006753,-536.266849
955.079877,3256.906145,-10140.821405,-689.485948
955.080201,2516.700203,-10066.800811,-1838.629195
955.080525,1480.411884,-10362.883188,-2757.943793
955.080849,370.102971,-9992.780217,-2604.724693
955.081173,296.082377,-11325.150913,-3217.601092
955.081498,444.123565,-10881.027347,-3217.601092
955.081822,888.247130,-8660.409521,-2757.943793
955.082146,1554.432478,-9918.759623,-2681.334243
955.082470,1702.473667,-10955.047942,-3217.601092
955.082794,1702.473667,-10436.903782,-2528.115143
955.083118,1332.370696,-11695.253884,-1838.629195
955.083442,1924.535449,-11621.233289,-1762.019645
955.083766,2886.803174,-9992.780217,-2068.457845
955.084090,2368.659014,-9474.636058,-2451.505594
955.084414,2072.576638,-9844.739029,-3370.820191
955.084738,2368.659014,-10066.800811,-3447.429741
955.085063,2072.576638,-9770.718434,-3677.258390
955.085387,1110.308913,-9326.594869,-3830.477490
955.085711,962.267725,-8216.285956,-4596.572988
955.086035,148.041188,-8438.347739,-4213.525239
955.086359,444.123565,-10214.842000,-3524.039291
955.086683,1702.473667,-10881.027347,-3217.601092
955.087007,2220.617826,-11103.089130,-1915.238745
955.087331,2368.659014,-11917.315666,-1225.752797
955.087655,2590.720797,-11103.089130,-919.314598
955.087979,2294.638420,-10288.862594,0.000000
955.088304,1702.473667,-11473.192101,-306.438199
955.088628,814.226536,-10510.924376,-1532.190996
955.088952,0.000000,-8808.450710,-2145.067394
955.089276,-222.061783,-8808.450710,-1608.800546
955.089600,518.144159,-8512.368333,-2987.772442
955.089924,222.061783,-8290.306550,-2987.772442
955.090248,-1332.370696,-7254.018232,-3600.648841
955.090572,-1036.288319,-8438.347739,-3983.696590
955.090896,0.000000,-8956.491898,-3600.648841
955.091220,962.267725,-7846.182985,-1915.238745
955.091544,2664.741391,-8068.244768,-995.924147
955.091869,4515.256246,-10140.821405,-153.219100
955.092193,6587.832884,-9992.780217,842.705048
955.092517,7402.059420,-8586.388927,766.095498
955.092841,6291.750507,-8512.368333,612.876398
955.093165,4441.235652,-9770.718434,536.266849
955.093489,4071.132681,-9326.594869,459.657299
955.093813,3256.906145,-8660.409521,-689.485948
955.094137,888.247130,-8586.388927,-2298.286494
955.094461,-740.205942,-8142.265362,-2911.162892
955.094785,0.000000,-9104.533087,-3064.381992
955.095109,1184.329507,-9326.594869,-2987.772442
955.095434,222.061783,-8808.450710,-3600.648841
955.095758,-666.185348,-8364.327145,-3217.601092
955.096082,74.020594,-9474.636058,-2374.896044
955.096406,2812.782580,-10140.821405,-1838.629195
955.096730,5625.565159,-10140.821405,-1072.533697
955.097054,5921.647536,-10807.006753,-153.219100
955.097378,6217.729913,-11843.295072,383.047749
955.097702,6439.791695,-11325.150913,153.219100
955.098026,7031.956449,-10066.800811,229.828649
955.098350,6513.812290,-10362.883188,-1149.143247
955.098675,3849.070898,-10955.047942,-2451.505594
955.098999,1258.350101,-10881.027347,-3677.258390
955.099323,370.102971,-9992.780217,-3907.087040
955.099647,740.205942,-10510.924376,-3600.648841
955.099971,740.205942,-9844.739029,-3753.867940
955.100295,592.164754,-9252.574275,-3064.381992
955.100619,1184.329507,-9326.594869,-3064.381992
955.100943,1258.350101,-9400.615463,-2528.115143
955.101267,1480.411884,-9696.697840,-1762.019645
955.101591,1776.494261,-9770.718434,-1455.581446
955.101915,3182.885551,-10658.965565,-153.219100
955.102240,3923.091493,-10288.862594,-842.705048
955.102564,2294.638420,-10362.883188,-1608.800546
955.102888,518.144159,-10807.006753,-2068.457845
955.103212,-1036.288319,-10807.006753,-2911.162892
955.103536,-1036.288319,-10140.821405,-2911.162892
955.103860,0.000000,-8438.347739,-2145.067394
955.104184,592.164754,-8660.409521,-3600.648841
955.104508,-222.061783,-10214.842000,-3524.039291
955.104832,-1480.411884,-9474.636058,-3830.477490
955.105156,-1924.535449,-8290.306550,-3524.039291
955.105481,-518.144159,-7698.141797,-2451.505594
955.105805,2220.617826,-7698.141797,-1532.190996
955.106129,4441.235652,-8068.244768,-1302.362347
955.106453,4219.173869,-8808.450710,-1915.238745
955.106777,3108.864956,-9252.574275,-2604.724693
955.107101,2368.659014,-9548.656652,-1915.238745
955.107425,1406.391290,-10214.842000,-1915.238745
955.107749,0.000000,-9548.656652,-1532.190996
955.108073,-296.082377,-9178.553681,-2298.286494
955.108397,444.123565,-9104.533087,-2757.943793
955.108721,2146.597232,-9918.759623,-2298.286494
955.109046,3478.967927,-10362.883188,-1225.752797
955.109370,3849.070898,-10214.842000,-1608.800546
955.109694,2886.803174,-9474.636058,-1991.848295
955.110018,1628.453072,-8808.450710,-1685.410096
955.110342,888.247130,-9030.512492,-2068.457845
955.110666,1036.288319,-10362.883188,-2221.676944
955.110990,2072.576638,-10510.924376,-2221.676944
955.111314,4219.173869,-10362.883188,-1685.410096
955.111638,5847.626942,-10288.862594,-842.705048
955.111962,6069.688724,-9696.697840,-842.705048
955.112287,5403.503377,-10140.821405,-1302.362347
955.112611,3404.947333,-9844.739029,-2528.115143
955.112935,1702.473667,-9992.780217,-2451.505594
955.113259,888.247130,-9622.677246,-2528.115143
955.113583,1480.411884,-9622.677246,-1532.190996
955.113907,2516.700203,-9548.656652,-1149.143247
955.114231,3108.864956,-9400.615463,-919.314598
955.114555,3478.967927,-8808.450710,-766.095498
955.114879,2960.823768,-8660.409521,-842.705048
955.115203,2886.803174,-8734.430116,-229.828649
955.115527,2368.659014,-9400.615463,-995.924147
955.115852,1924.535449,-9622.677246,-1225.752797
955.116176,1258.350101,-9622.677246,-1991.848295
955.116500,814.226536,-10066.800811,-2681.334243
955.116824,0.000000,-10140.821405,-3753.867940
955.117148,74.020594,-9474.636058,-3830.477490
955.117472,296.082377,-9326.594869,-3370.820191
955.117796,1110.308913,-9474.636058,-2374.896044
955.118120,1702.473667,-9474.636058,-2374.896044
955.118444,2220.617826,-9844.739029,-1532.190996
955.118768,2516.700203,-10362.883188,-919.314598
955.119092,2664.741391,-10066.800811,-306.438199
955.119417,2886.803174,-9548.656652,0.000000
955.119741,3256.906145,-9474.636058,383.047749
955.120065,2960.823768,-9696.697840,-536.266849
955.120389,2146.597232,-9548.656652,-995.924147
955.120713,518.144159,-9400.615463,-2221.676944
955.121037,-740.205942,-9474.636058,-3677.258390
955.121361,-1850.514855,-9474.636058,-4903.011187
955.121685,-2368.659014,-9326.594869,-6052.154434
955.122009,-2072.576638,-8882.471304,-5515.887586
955.122333,0.000000,-9104.533087,-4749.792088
955.122658,2442.679609,-9252.574275,-3524.039291
955.122982,4515.256246,-10066.800811,-2068.457845
955.123306,4959.379811,-9326.594869,-995.924147
955.123630,5477.523971,-10288.862594,-612.876398
955.123954,5625.565159,-11917.315666,0.000000
955.124278,5329.482782,-11547.212695,0.000000
955.124602,4885.359217,-10807.006753,0.000000
955.124926,2590.720797,-10955.047942,-919.314598
955.125250,1406.391290,-10732.986159,-2911.162892
955.125574,-592.164754,-10362.883188,-3983.696590
955.125898,-3108.864956,-10066.800811,-4519.963438
955.126223,-4293.194464,-9474.636058,-4749.792088
955.126547,-3849.070898,-8808.450710,-4136.915689
955.126871,-2442.679609,-7846.182985,-2681.334243
955.127195,-518.144159,-7846.182985,-1608.800546
955.127519,1776.494261,-8438.347739,-842.705048
955.127843,3404.947333,-9252.574275,76.609550
955.128167,4367.215058,-9992.780217,1302.362347
955.128491,4737.318029,-10658.965565,1225.752797
955.128815,3552.988522,-10658.965565,1608.800546
955.129139,3034.844362,-10510.924376,995.924147
955.129464,2072.576638,-10584.944971,-383.047749
955.129788,740.205942,-11325.150913,-1455.581446
955.130112,444.123565,-9844.739029,-2068.457845
955.130436,148.041188,-8956.491898,-2681.334243
955.130760,148.041188,-8068.244768,-2451.505594
955.131084,666.185348,-7328.038826,-1991.848295
955.131408,1850.514855,-6365.771101,-1532.190996
955.131732,2812.782580,-5699.585753,-1149.143247
955.132056,4367.215058,-6439.791695,0.000000
955.132380,5773.606348,-7105.977043,383.047749
955.132704,6439.791695,-7994.224174,1149.143247
955.133029,6661.853478,-9178.553681,1072.533697
955.133353,5625.565159,-9770.718434,0.000000
955.133677,3775.050304,-9844.739029,-1608.800546
955.134001,2516.700203,-10436.903782,-2528.115143
955.134325,1924.535449,-10732.986159,-3294.210641
955.134649,2368.659014,-10510.924376,-3524.039291
955.134973,2442.679609,-9918.759623,-3830.477490
955.135297,2294.638420,-9474.636058,-3907.087040
955.135621,1924.535449,-9400.615463,-3907.087040
955.135945,2294.638420,-9400.615463,-3524.039291
955.136270,2590.720797,-9474.636058,-2834.553343
955.136594,2960.823768,-9696.697840,-2068.457845
955.136918,3552.988522,-9918.759623,-2145.067394
955.137242,4071.132681,-10362.883188,-1838.629195
955.137566,4219.173869,-10881.027347,-1532.190996
955.137890,3849.070898,-11769.274478,-2374.896044
955.138214,2812.782580,-11843.295072,-3294.210641
955.138538,1924.535449,-10732.986159,-3830.477490
955.138862,518.144159,-10584.944971,-5286.058936
955.139186,0.000000,-10732.986159,-5592.497135
955.139510,-1628.453072,-10066.800811,-6894.859482
955.139835,-2664.741391,-10288.862594,-6971.469032
955.140159,-2442.679609,-9770.718434,-5822.325785
955.140483,-1554.432478,-9622.677246,-4979.620737
955.140807,592.164754,-9474.636058,-3447.429741
955.141131,3256.906145,-9992.780217,-2221.676944
955.141455,5329.482782,-10510.924376,-1225.752797
955.141779,6365.771101,-11251.130318,-383.047749
955.142103,6069.688724,-11547.212695,0.000000
955.142427,4737.318029,-11399.171507,-536.266849
955.142751,2072.576638,-11029.068536,-1915.238745
955.143076,-1110.308913,-10510.924376,-3294.210641
955.143400,-3849.070898,-9992.780217,-4673.182538
955.143724,-4737.318029,-9622.677246,-5515.887586
955.144048,-4145.153275,-8438.347739,-6052.154434
955.144372,-1998.556043,-7846.182985,-5209.449386
955.144696,814.226536,-7328.038826,-4060.306139
955.145020,2442.679609,-7846.182985,-2987.772442
955.145344,2960.823768,-8142.265362,-1915.238745
955.145668,3034.844362,-8512.368333,-689.485948
955.145992,3849.070898,-9030.512492,153.219100
955.146316,5329.482782,-9474.636058,995.924147
955.146641,7254.018232,-9918.759623,1838.629195
955.146965,7994.224174,-9918.759623,1915.238745
955.147289,7105.977043,-10807.006753,919.314598
955.147613,3923.091493,-10658.965565,-842.705048
955.147937,222.061783,-9696.697840,-2298.286494
955.148261,-2072.576638,-8364.327145,-2987.772442
955.148585,-2368.659014,-7624.121203,-3140.991542
955.148909,-1184.329507,-8068.244768,-3370.820191
955.149233,0.000000,-8142.265362,-2911.162892
955.149557,592.164754,-8586.388927,-2145.067394
955.149881,1332.370696,-8660.409521,-1302.362347
955.150206,2294.638420,-8660.409521,229.828649
955.150530,3997.112087,-8586.388927,1302.362347
955.150854,5551.544565,-9030.512492,1302.362347
955.151178,6661.853478,-10140.821405,1378.971896
955.151502,6883.915261,-11843.295072,1455.581446
955.151826,5847.626942,-11991.336260,1685.410096
955.152150,3997.112087,-11103.089130,383.047749
955.152474,2516.700203,-9474.636058,-383.047749
955.152798,1628.453072,-8364.327145,-1838.629195
955.153122,74.020594,-8956.491898,-3753.867940
955.153447,-2146.597232,-8808.450710,-4060.306139
955.153771,-2886.803174,-9474.636058,-4060.306139
955.154095,-2146.597232,-8808.450710,-3677.258390
955.154419,888.247130,-8660.409521,-1838.629195
955.154743,3627.009116,-8808.450710,-689.485948
955.155067,4885.359217,-8808.450710,-995.924147
955.155391,4367.215058,-9844.739029,-842.705048
955.155715,3923.091493,-11399.171507,-459.657299
955.156039,4885.359217,-11843.295072,612.876398
955.156363,5551.544565,-12287.418637,1685.410096
955.156687,3849.070898,-12435.459826,1072.533697
955.157012,740.205942,-11325.150913,-842.705048
955.157336,-1036.288319,-10955.047942,-2451.505594
955.157660,-1628.453072,-10436.903782,-3600.648841
955.157984,-1702.473667,-9622.677246,-3983.696590
955.158308,-1850.514855,-8364.327145,-3524.039291
955.158632,-1184.329507,-7698.141797,-3983.696590
955.158956,-444.123565,-7698.141797,-3447.429741
955.159280,666.185348,-8586.388927,-3830.477490
955.159604,888.247130,-8956.491898,-3677.258390
955.159928,2220.617826,-9474.636058,-2681.334243
955.160253,3849.070898,-9696.697840,-1149.143247
955.160577,5033.400406,-10214.842000,-612.876398
955.160901,5329.482782,-10658.965565,-689.485948
955.161225,4959.379811,-10955.047942,-995.924147
955.161549,4589.276840,-11473.192101,-1149.143247
955.161873,3478.967927,-10881.027347,-1455.581446
955.162197,1554.432478,-9400.615463,-1915.238745
955.162521,-444.123565,-9178.553681,-2451.505594
955.162845,-1702.473667,-8808.450710,-3140.991542
955.163169,-666.185348,-7994.224174,-3983.696590
955.163493,-222.061783,-7550.100608,-3447.429741
955.163818,-370.102971,-8068.244768,-3294.210641
955.164142,444.123565,-8586.388927,-3370.820191
955.164466,2072.576638,-8660.409521,-2834.553343
955.164790,3478.967927,-8068.244768,-3217.601092
955.165114,2812.782580,-8734.430116,-2757.943793
955.165438,2442.679609,-10807.006753,-2374.896044
955.165762,3552.988522,-11177.109724,-2528.115143
955.166086,5181.441594,-10214.842000,-1225.752797
955.166410,6069.688724,-10066.800811,-1225.752797
955.166734,5551.544565,-10732.986159,-1685.410096
955.167059,4145.153275,-11103.089130,-2451.505594
955.167383,2368.659014,-9992.780217,-2451.505594
955.167707,888.247130,-9474.636058,-2757.943793
955.168031,1258.350101,-9622.677246,-2145.067394
955.168355,2072.576638,-9474.636058,-1532.190996
955.168679,2960.823768,-8734.430116,-995.924147
955.169003,2812.782580,-8586.388927,-3140.991542
955.169327,2294.638420,-8956.491898,-3294.210641
955.169651,1480.411884,-9104.533087,-3600.648841
955.169975,740.205942,-9474.636058,-3524.039291
955.170299,1406.391290,-9622.677246,-2604.724693
955.170624,2072.576638,-10140.821405,-2374.896044
955.170948,2590.720797,-10807.006753,-3140.991542
955.171272,1998.556043,-10955.047942,-3753.867940
955.171596,518.144159,-11177.109724,-3447.429741
955.171920,962.267725,-11621.233289,-2528.115143
955.172244,1628.453072,-10807.006753,-2221.676944
955.172568,1036.288319,-9696.697840,-612.876398
955.172892,1554.432478,-11251.130318,229.828649
955.173216,2442.679609,-11473.192101,0.000000
955.173540,3330.926739,-10510.924376,-536.266849
955.173864,2294.638420,-9992.780217,229.828649
955.174189,1924.535449,-10214.842000,-919.314598
955.174513,1998.556043,-9400.615463,-1532.190996
955.174837,1184.329507,-8586.388927,-1455.581446
955.175161,592.164754,-9178.553681,-3217.601092
955.175485,-962.267725,-8660.409521,-4213.525239
955.175809,-2738.761985,-9104.533087,-4443.353888
955.176133,-4071.132681,-9696.697840,-4060.306139
955.176457,-2886.803174,-9104.533087,-4290.134789
955.176781,0.000000,-8734.430116,-2068.457845
955.177105,2220.617826,-10584.944971,-1072.533697
955.177430,3627.009116,-10584.944971,-612.876398
955.177754,4219.173869,-10066.800811,1532.190996
955.178078,4219.173869,-12287.418637,3524.039291
955.178402,4219.173869,-12583.501014,2681.334243
955.178726,3923.091493,-10881.027347,3524.039291
955.179050,1998.556043,-11103.089130,3140.991542
955.179374,814.226536,-10214.842000,536.266849
955.179698,-1258.350101,-7624.121203,-766.095498
955.180022,-4219.173869,-7105.977043,-1608.800546
955.180346,-4663.297435,-7846.182985,-3140.991542
955.180670,-4071.132681,-6957.935855,-3753.867940
955.180995,-3627.009116,-6291.750507,-2757.943793
955.181319,-3478.967927,-7031.956449,-2681.334243
955.181643,-2738.761985,-8734.430116,-1455.581446
955.181967,-666.185348,-9326.594869,0.000000
955.182291,2368.659014,-8364.327145,1685.410096
955.182615,4441.235652,-9252.574275,2911.162892
955.182939,4885.359217,-11029.068536,4290.134789
955.183263,4959.379811,-12361.439231,4749.792088
955.183587,4367.215058,-12953.603985,4903.011187
955.183912,2812.782580,-9992.780217,3753.867940
955.184236,2072.576638,-8734.430116,2451.505594
955.184560,888.247130,-8438.347739,1072.533697
955.184884,-1184.329507,-8660.409521,-995.924147
955.185208,-3108.864956,-9178.553681,-1991.848295
955.185532,-5033.400406,-8734.430116,-1991.848295
955.185856,-5551.544565,-9104.533087,-1608.800546
955.186180,-3701.029710,-9474.636058,-1455.581446
955.186504,-1628.453072,-9844.739029,76.609550
955.186829,-592.164754,-9622.677246,536.266849
955.187153,0.000000,-9696.697840,1149.143247
955.187477,1258.350101,-9844.739029,1532.190996
955.187801,3256.906145,-9844.739029,2911.162892
955.188125,5107.421000,-10288.862594,3753.867940
955.188449,4811.338623,-10066.800811,3907.087040
955.188773,3775.050304,-9474.636058,3600.648841
955.189097,2442.679609,-9622.677246,1991.848295
955.189421,0.000000,-8882.471304,0.000000
955.189746,-2516.700203,-9104.533087,-612.876398
955.190070,-3627.009116,-9548.656652,-1532.190996
955.190394,-3330.926739,-9696.697840,-2911.162892
955.190718,-4219.173869,-10066.800811,-2374.896044
955.191042,-4293.194464,-10066.800811,-2374.896044
955.191366,-3478.967927,-9474.636058,-2451.505594
955.191690,-2368.659014,-9622.677246,-1685.410096
955.192014,-740.205942,-10140.821405,-842.705048
955.192338,444.123565,-10362.883188,-306.438199
955.192663,1924.535449,-10140.821405,0.000000
955.192987,3552.988522,-9104.533087,459.657299
955.193311,4959.379811,-10584.944971,2374.896044
955.193635,4959.379811,-11621.233289,1838.629195
955.193959,2738.761985,-11251.130318,0.000000
955.194283,-1184.329507,-9474.636058,-842.705048
955.194607,-3404.947333,-9474.636058,-2451.505594
955.194931,-2886.803174,-9918.759623,-3677.258390
955.195255,-1850.514855,-9326.594869,-3217.601092
955.195580,-1702.473667,-7550.100608,-3447.429741
955.195904,-1702.473667,-6809.894666,-3677.258390
955.196228,-1332.370696,-7328.038826,-3294.210641
955.196552,-370.102971,-8512.368333,-2528.115143
955.196876,1998.556043,-8512.368333,-1762.019645
955.197200,3552.988522,-9030.512492,-995.924147
955.197524,3256.906145,-9474.636058,-919.314598
955.197848,3256.906145,-9918.759623,0.000000
955.198172,2516.700203,-11695.253884,306.438199
955.198497,1776.494261,-12509.480420,-383.047749
955.198821,740.205942,-11843.295072,-1072.533697
955.199145,0.000000,-11621.233289,-1378.971896
955.199469,-666.185348,-11029.068536,-1225.752797
955.199793,-962.267725,-11029.068536,-1378.971896
955.200117,-1924.535449,-11029.068536,-1762.019645
955.200441,-2072.576638,-9918.759623,-1838.629195
955.200765,-1184.329507,-9992.780217,-1455.581446
955.201089,-666.185348,-9252.574275,-1991.848295
955.201414,-1332.370696,-8438.347739,-1455.581446
955.201738,-1998.556043,-9104.533087,-1225.752797
955.202062,-1702.473667,-9474.636058,-1532.190996
955.202386,-740.205942,-9696.697840,-153.219100
955.202710,0.000000,-9326.594869,766.095498
955.203034,296.082377,-9622.677246,-459.657299
955.203358,370.102971,-9474.636058,76.609550
955.203682,296.082377,-9474.636058,153.219100
955.204006,1036.288319,-9474.636058,153.219100
955.204331,1702.473667,-10066.800811,1072.533697
955.204655,1850.514855,-9918.759623,1378.971896
955.204979,1406.391290,-9252.574275,919.314598
955.205303,444.123565,-8956.491898,1149.143247
955.205627,0.000000,-9622.677246,1149.143247
955.205951,74.020594,-9918.759623,536.266849
955.206275,296.082377,-9474.636058,842.705048
955.206599,592.164754,-9474.636058,842.705048
955.206923,0.000000,-9474.636058,1072.533697
955.207248,-1628.453072,-9770.718434,536.266849
955.207572,-2368.659014,-9622.677246,612.876398
955.207896,-1480.411884,-9844.739029,842.705048
955.208220,-444.123565,-9548.656652,459.657299
955.208544,-666.185348,-9252.574275,1149.143247
955.208868,-1332.370696,-9326.594869,1532.190996
955.209192,-592.164754,-9474.636058,995.924147
955.209516,-148.041188,-9178.553681,1455.581446
955.209840,-370.102971,-9178.553681,1762.019645
955.210165,-296.082377,-9622.677246,1302.362347
955.210489,-740.205942,-9474.636058,995.924147
955.210813,-518.144159,-8586.388927,229.828649
955.211137,0.000000,-8956.491898,612.876398
955.211461,1258.350101,-9770.718434,919.314598
955.211785,1776.494261,-10214.842000,995.924147
955.212109,888.247130,-9474.636058,306.438199
955.212433,-740.205942,-9178.553681,-612.876398
955.212757,-1924.535449,-9030.512492,-306.438199
955.213082,-1776.494261,-8882.471304,-536.266849
955.213406,0.000000,-9622.677246,-995.924147
955.213730,814.226536,-10066.800811,-306.438199
955.214054,1036.288319,-10214.842000,0.000000
955.214378,740.205942,-10584.944971,153.219100
955.214702,962.267725,-10066.800811,0.000000
955.215026,1554.432478,-9400.615463,-306.438199
955.215350,2072.576638,-10732.986159,995.924147
955.215674,1776.494261,-10881.027347,76.609550
955.215999,740.205942,-11029.068536,0.000000
955.216323,0.000000,-10732.986159,153.219100
955.216647,296.082377,-10584.944971,-1072.533697
955.216971,-222.061783,-9326.594869,-1532.190996
955.217295,-1258.350101,-8512.368333,-1991.848295
955.217619,-1184.329507,-9696.697840,-1762.019645
955.217943,-1850.514855,-9696.697840,-1072.533697
955.218267,-444.123565,-9844.739029,-229.828649
955.218591,-444.123565,-9030.512492,-306.438199
955.218916,-74.020594,-9030.512492,153.219100
955.219240,74.020594,-9400.615463,-612.876398
955.219564,-962.267725,-9622.677246,0.000000
955.219888,-1406.391290,-9770.718434,-842.705048
955.220212,-1184.329507,-9326.594869,0.000000
955.220536,1036.288319,-9252.574275,459.657299
955.220860,2368.659014,-9400.615463,229.828649
955.221184,1258.350101,-9326.594869,-229.828649
955.221508,-666.185348,-9770.718434,-459.657299
955.221833,-1702.473667,-9252.574275,-1685.410096
955.222157,-592.164754,-8660.409521,-1838.629195
955.222481,592.164754,-8956.491898,-383.047749
955.222805,962.267725,-9104.533087,-1685.410096
955.223129,296.082377,-8734.430116,-1608.800546
955.223453,-222.061783,-9400.615463,-919.314598
955.223777,-222.061783,-10658.965565,-1225.752797
955.224101,518.144159,-10658.965565,-306.438199
955.224425,1110.308913,-9622.677246,0.000000
955.224750,814.226536,-9622.677246,306.438199
955.225074,814.226536,-9770.718434,-766.095498
955.225398,74.020594,-10658.965565,-306.438199
955.225722,-296.082377,-10436.903782,-919.314598
955.226046,518.144159,-10214.842000,-995.924147
955.226370,518.144159,-10658.965565,-766.095498
955.226694,-222.061783,-10436.903782,-1608.800546
955.227018,-1258.350101,-9844.739029,-1302.362347
955.227342,-2368.659014,-10436.903782,-1225.752797
955.227667,-1406.391290,-10362.883188,-2145.067394
955.227991,-518.144159,-10140.821405,-1378.971896
