#time,accel_x,accel_y,accel_z
852.147023,-1702.473667,-8660.409521,-306.438199
852.147347,1184.329507,-8290.306550,2604.724693
852.147671,7105.977043,-9622.677246,5669.106685
852.147995,10288.862594,-12509.480420,4519.963438
852.148319,6957.935855,-10881.027347,4826.401637
852.148643,2812.782580,-7179.997637,3907.087040
852.148968,-962.267725,-7402.059420,1302.362347
852.149292,-4145.153275,-10881.027347,-1685.410096
852.149616,-5625.565159,-12435.459826,-1149.143247
852.149940,-4441.235652,-10140.821405,-919.314598
852.150264,-4219.173869,-8882.471304,-459.657299
852.150588,-7920.203579,-8660.409521,-3677.258390
852.150912,-10955.047942,-9474.636058,-2681.334243
852.151236,-9474.636058,-11103.089130,-1991.848295
852.151560,-6217.729913,-11029.068536,-3294.210641
852.151884,-5551.544565,-9400.615463,-612.876398
852.152209,-2368.659014,-7846.182985,1532.190996
852.152533,3256.906145,-8290.306550,1532.190996
852.152857,4737.318029,-10066.800811,2145.067394
852.153181,3404.947333,-10510.924376,2145.067394
852.153505,3034.844362,-10066.800811,3524.039291
852.153829,2664.741391,-11399.171507,2374.896044
852.154153,222.061783,-11843.295072,2451.505594
852.154477,-1554.432478,-10584.944971,2298.286494
852.154801,-2886.803174,-10807.006753,383.047749
852.155126,-5699.585753,-11621.233289,-612.876398
852.155450,-7920.203579,-10658.965565,0.000000
852.155774,-7105.977043,-7846.182985,306.438199
852.156098,-5995.668130,-7254.018232,1072.533697
852.156422,-6291.750507,-7920.203579,612.876398
852.156746,-5255.462188,-8660.409521,1915.238745
852.157070,-3108.864956,-9548.656652,2987.772442
852.157394,-1332.370696,-10436.903782,3753.867940
852.157718,-222.061783,-10510.924376,4596.572988
852.158043,740.205942,-9844.739029,3830.477490
852.158367,1554.432478,-9770.718434,2528.115143
852.158691,962.267725,-11843.295072,2451.505594
852.159015,518.144159,-13471.748144,2451.505594
852.159339,1184.329507,-12213.398043,2911.162892
852.159663,148.041188,-10658.965565,3217.601092
852.159987,-2146.597232,-9326.594869,3677.258390
852.160311,-3701.029710,-8364.327145,2374.896044
852.160635,-5033.400406,-8216.285956,3370.820191
852.160959,-6143.709319,-7920.203579,3524.039291
852.161284,-5995.668130,-7624.121203,2604.724693
852.161608,-4663.297435,-7402.059420,4060.306139
852.161932,-2886.803174,-8142.265362,6128.763984
852.162256,-962.267725,-9252.574275,6665.030833
852.162580,-148.041188,-9252.574275,6435.202183
852.162904,74.020594,-9474.636058,6281.983084
852.163228,74.020594,-8734.430116,4979.620737
852.163552,1702.473667,-8586.388927,4060.306139
852.163876,2442.679609,-7994.224174,4060.306139
852.164201,1480.411884,-8142.265362,4596.572988
852.164525,-1184.329507,-9326.594869,3447.429741
852.164849,-5033.400406,-9622.677246,2911.162892
852.165173,-7105.977043,-8808.450710,3064.381992
852.165497,-7105.977043,-8438.347739,2528.115143
852.165821,-5847.626942,-8734.430116,2068.457845
852.166145,-5033.400406,-9474.636058,1532.190996
852.166469,-4885.359217,-11473.192101,3447.429741
852.166793,-4145.153275,-11843.295072,3447.429741
852.167117,-4071.132681,-10066.800811,3064.381992
852.167442,-3849.070898,-8808.450710,3370.820191
852.167766,-1258.350101,-8068.244768,2068.457845
852.168090,1924.535449,-9474.636058,2221.676944
852.168414,3775.050304,-9622.677246,1762.019645
852.168738,3923.091493,-8956.491898,2374.896044
852.169062,2368.659014,-9622.677246,1685.410096
852.169386,-1554.432478,-10584.944971,229.828649
852.169710,-5329.482782,-9622.677246,0.000000
852.170034,-6513.812290,-9400.615463,-229.828649
852.170359,-5255.462188,-10436.903782,0.000000
852.170683,-3627.009116,-11473.192101,306.438199
852.171007,-1998.556043,-10066.800811,229.828649
852.171331,-962.267725,-8956.491898,229.828649
852.171655,-3034.844362,-9696.697840,229.828649
852.171979,-5329.482782,-10510.924376,76.609550
852.172303,-4885.359217,-10955.047942,306.438199
852.172627,-2590.720797,-11177.109724,153.219100
852.172951,-814.226536,-11177.109724,0.000000
852.173276,1406.391290,-10658.965565,-919.314598
852.173600,1776.494261,-11103.089130,-1072.533697
852.173924,1480.411884,-12583.501014,-459.657299
852.174248,1776.494261,-12287.418637,-689.485948
852.174572,1554.432478,-10288.862594,459.657299
852.174896,1332.370696,-8734.430116,459.657299
852.175220,370.102971,-9474.636058,-766.095498
852.175545,-2220.617826,-9770.718434,-1838.629195
852.175869,-4071.132681,-9252.574275,-1302.362347
852.176193,-4145.153275,-8216.285956,-766.095498
852.176517,-2368.659014,-7476.080014,-689.485948
852.176842,-1258.350101,-6735.874072,-612.876398
852.177166,-1480.411884,-7105.977043,-383.047749
852.177490,-3108.864956,-8364.327145,-76.609550
852.177814,-2664.741391,-9770.718434,-919.314598
852.178139,-888.247130,-9474.636058,-689.485948
852.178463,2516.700203,-9400.615463,153.219100
852.178787,4885.359217,-10436.903782,612.876398
852.179111,5107.421000,-11769.274478,1149.143247
852.179436,3108.864956,-12065.356855,1532.190996
852.179760,370.102971,-11991.336260,1149.143247
852.180084,-1332.370696,-11325.150913,0.000000
852.180408,-1998.556043,-9104.533087,0.000000
852.180733,-1702.473667,-8438.347739,-536.266849
852.181057,-2146.597232,-8882.471304,-995.924147
852.181381,-2886.803174,-8956.491898,-612.876398
852.181705,-2442.679609,-7476.080014,-766.095498
852.182030,-370.102971,-6365.771101,-612.876398
852.182354,1258.350101,-5847.626942,-995.924147
852.182678,666.185348,-7328.038826,-536.266849
852.183002,0.000000,-10288.862594,153.219100
852.183327,-666.185348,-11325.150913,1149.143247
852.183651,148.041188,-11029.068536,1608.800546
852.183975,1628.453072,-10140.821405,1455.581446
852.184299,2368.659014,-10510.924376,1072.533697
852.184624,2368.659014,-11843.295072,2145.067394
852.184948,2072.576638,-12065.356855,1991.848295
852.185272,1924.535449,-10658.965565,1685.410096
852.185596,1258.350101,-8290.306550,536.266849
852.185921,0.000000,-7994.224174,-919.314598
852.186245,-1776.494261,-9030.512492,-1685.410096
852.186569,-3182.885551,-10510.924376,-1532.190996
852.186893,-3108.864956,-11251.130318,-1685.410096
852.187218,-2442.679609,-10362.883188,-1149.143247
852.187542,-1554.432478,-9474.636058,-766.095498
852.187866,-1702.473667,-10140.821405,-306.438199
852.188190,-2368.659014,-11769.274478,689.485948
852.188515,-2368.659014,-12879.583391,1838.629195
852.188839,-666.185348,-11769.274478,2528.115143
852.189163,1628.453072,-9104.533087,2528.115143
852.189487,2442.679609,-8364.327145,2834.553343
852.189812,1924.535449,-9178.553681,2987.772442
852.190136,1406.391290,-10436.903782,2528.115143
852.190460,1110.308913,-10288.862594,2681.334243
852.190785,740.205942,-7846.182985,1455.581446
852.191109,-814.226536,-5995.668130,-689.485948
852.191433,-3330.926739,-7328.038826,-612.876398
852.191757,-4219.173869,-9918.759623,-995.924147
852.192082,-3182.885551,-10658.965565,-1532.190996
852.192406,-2886.803174,-9400.615463,-1302.362347
852.192730,-2072.576638,-8216.285956,-689.485948
852.193054,-1406.391290,-7772.162391,-459.657299
852.193379,-1258.350101,-9474.636058,536.266849
852.193703,-814.226536,-10362.883188,1378.971896
852.194027,814.226536,-9474.636058,1915.238745
852.194351,3034.844362,-8586.388927,1991.848295
852.194676,3997.112087,-8068.244768,3064.381992
852.195000,3701.029710,-8512.368333,3370.820191
852.195324,2738.761985,-10140.821405,2145.067394
852.195648,1332.370696,-10214.842000,689.485948
852.195973,370.102971,-9252.574275,-612.876398
852.196297,0.000000,-8290.306550,-1072.533697
852.196621,-962.267725,-9030.512492,-919.314598
852.196945,-1258.350101,-10732.986159,-995.924147
852.197270,-888.247130,-9992.780217,-1838.629195
852.197594,444.123565,-8882.471304,-2068.457845
852.197918,592.164754,-8216.285956,-1608.800546
852.198242,-222.061783,-9622.677246,-459.657299
852.198567,592.164754,-10066.800811,0.000000
852.198891,1850.514855,-10436.903782,612.876398
852.199215,2442.679609,-10140.821405,306.438199
852.199539,3997.112087,-10436.903782,0.000000
852.199864,2812.782580,-10584.944971,-153.219100
852.200188,1480.411884,-12065.356855,229.828649
852.200512,296.082377,-12361.439231,-459.657299
852.200836,148.041188,-11621.233289,-1608.800546
852.201161,222.061783,-9844.739029,-2298.286494
852.201485,-666.185348,-9844.739029,-1991.848295
852.201809,-1184.329507,-10732.986159,-2528.115143
852.202133,-888.247130,-10955.047942,-2221.676944
852.202458,-222.061783,-10436.903782,-1762.019645
852.202782,0.000000,-9104.533087,-2451.505594
852.203106,-370.102971,-8142.265362,-1991.848295
852.203430,-1406.391290,-9548.656652,-1149.143247
852.203755,-1924.535449,-10362.883188,-995.924147
852.204079,-1554.432478,-10140.821405,-612.876398
852.204403,-666.185348,-9474.636058,-842.705048
852.204727,-1184.329507,-8734.430116,-919.314598
852.205052,-1628.453072,-9622.677246,0.000000
852.205376,-1776.494261,-10955.047942,153.219100
852.205700,-1184.329507,-11029.068536,-766.095498
852.206024,-962.267725,-9474.636058,-1072.533697
852.206349,-296.082377,-8512.368333,-1455.581446
852.206673,-740.205942,-9030.512492,-1149.143247
852.206997,-888.247130,-10732.986159,-1072.533697
852.207321,-444.123565,-10436.903782,-612.876398
852.207646,0.000000,-9400.615463,-1302.362347
852.207970,222.061783,-8438.347739,-1149.143247
852.208294,-148.041188,-8586.388927,-306.438199
852.208618,-222.061783,-9326.594869,153.219100
852.208943,-370.102971,-9770.718434,612.876398
852.209267,148.041188,-8660.409521,766.095498
852.209591,74.020594,-7550.100608,76.609550
852.209916,-296.082377,-8586.388927,536.266849
852.210240,-1258.350101,-9844.739029,1455.581446
852.210564,-1184.329507,-10436.903782,1378.971896
852.210888,-888.247130,-9622.677246,689.485948
852.211213,666.185348,-8734.430116,766.095498
852.211537,740.205942,-9400.615463,842.705048
852.211861,666.185348,-10732.986159,1608.800546
852.212185,370.102971,-11103.089130,1915.238745
852.212510,1036.288319,-10066.800811,1378.971896
852.212834,2072.576638,-9252.574275,1149.143247
852.213158,2146.597232,-9030.512492,689.485948
852.213482,1332.370696,-10214.842000,1762.019645
852.213807,74.020594,-10658.965565,1455.581446
852.214131,0.000000,-10510.924376,689.485948
852.214455,-370.102971,-9178.553681,689.485948
852.214779,0.000000,-8216.285956,459.657299
852.215104,0.000000,-9030.512492,1302.362347
852.215428,0.000000,-9918.759623,1991.848295
852.215752,370.102971,-10214.842000,1915.238745
852.216076,518.144159,-8808.450710,1685.410096
852.216401,1110.308913,-7105.977043,995.924147
852.216725,370.102971,-7772.162391,1685.410096
852.217049,222.061783,-9844.739029,2145.067394
852.217373,518.144159,-10584.944971,1991.848295
852.217698,962.267725,-9474.636058,1302.362347
852.218022,1036.288319,-7994.224174,995.924147
852.218346,666.185348,-8512.368333,1149.143247
852.218670,-518.144159,-9548.656652,1072.533697
852.218995,-740.205942,-10436.903782,919.314598
852.219319,0.000000,-10288.862594,0.000000
852.219643,296.082377,-8956.491898,-919.314598
852.219967,-222.061783,-8364.327145,-919.314598
852.220292,-1702.473667,-9548.656652,-766.095498
852.220616,-1776.494261,-10807.006753,-383.047749
852.220940,-740.205942,-10584.944971,-842.705048
852.221264,74.020594,-9178.553681,-842.705048
852.221589,444.123565,-8438.347739,-1149.143247
852.221913,370.102971,-9770.718434,-306.438199
852.222237,0.000000,-11325.150913,229.828649
852.222561,370.102971,-11547.212695,0.000000
852.222886,1036.288319,-10288.862594,-766.095498
852.223210,666.185348,-8882.471304,-995.924147
852.223534,0.000000,-9770.718434,-766.095498
852.223858,0.000000,-11325.150913,-612.876398
852.224183,-370.102971,-11251.130318,-995.924147
852.224507,-888.247130,-9992.780217,-1838.629195
852.224831,-1406.391290,-9030.512492,-2374.896044
852.225155,-1776.494261,-9548.656652,-1838.629195
852.225480,-1332.370696,-11029.068536,-459.657299
852.225804,-222.061783,-11251.130318,-612.876398
852.226128,222.061783,-9992.780217,-1685.410096
852.226452,0.000000,-8808.450710,-1991.848295
852.226777,-1110.308913,-9178.553681,-1225.752797
852.227101,-962.267725,-11251.130318,-1072.533697
852.227425,-888.247130,-11695.253884,-995.924147
852.227749,-666.185348,-10288.862594,-1378.971896
852.228074,0.000000,-9030.512492,-919.314598
852.228398,666.185348,-9400.615463,-1225.752797
852.228722,518.144159,-10288.862594,76.609550
852.229047,370.102971,-9844.739029,229.828649
852.229371,740.205942,-9474.636058,-612.876398
852.229695,740.205942,-8512.368333,-689.485948
852.230019,666.185348,-8068.244768,-383.047749
852.230344,0.000000,-8512.368333,0.000000
852.230668,-592.164754,-9622.677246,383.047749
852.230992,-1036.288319,-9548.656652,76.609550
852.231316,-370.102971,-8512.368333,-1072.533697
852.231641,74.020594,-7624.121203,-229.828649
852.231965,-444.123565,-8438.347739,383.047749
852.232289,-740.205942,-9622.677246,612.876398
852.232613,0.000000,-9844.739029,383.047749
852.232938,740.205942,-9252.574275,0.000000
852.233262,1332.370696,-7846.182985,536.266849
852.233586,518.144159,-8438.347739,459.657299
852.233910,0.000000,-9992.780217,842.705048
852.234235,-222.061783,-11103.089130,459.657299
852.234559,814.226536,-10436.903782,76.609550
852.234883,1554.432478,-9400.615463,-229.828649
852.235207,1184.329507,-9400.615463,229.828649
852.235532,296.082377,-9918.759623,689.485948
852.235856,296.082377,-10732.986159,306.438199
852.236180,592.164754,-10807.006753,-229.828649
852.236504,1184.329507,-9474.636058,0.000000
852.236829,296.082377,-9252.574275,0.000000
852.237153,-666.185348,-10140.821405,306.438199
852.237477,-1110.308913,-10881.027347,689.485948
852.237801,-370.102971,-10658.965565,383.047749
852.238126,0.000000,-8956.491898,76.609550
852.238450,-296.082377,-8586.388927,153.219100
852.238774,-518.144159,-9474.636058,689.485948
852.239098,-592.164754,-10584.944971,1072.533697
852.239423,444.123565,-10658.965565,766.095498
852.239747,1406.391290,-9696.697840,76.609550
852.240071,814.226536,-9326.594869,-153.219100
852.240395,-518.144159,-9844.739029,612.876398
852.240720,-1628.453072,-10955.047942,76.609550
852.241044,-1480.411884,-11177.109724,229.828649
852.241368,-1110.308913,-9474.636058,-306.438199
852.241692,-592.164754,-8512.368333,-766.095498
852.242017,-1184.329507,-9178.553681,153.219100
852.242341,-1184.329507,-10140.821405,689.485948
852.242665,-740.205942,-10288.862594,995.924147
852.242989,0.000000,-8956.491898,766.095498
852.243314,0.000000,-7402.059420,612.876398
852.243638,-740.205942,-8216.285956,1149.143247
852.243962,-962.267725,-9622.677246,919.314598
852.244286,-1184.329507,-10214.842000,1072.533697
852.244611,-740.205942,-9474.636058,612.876398
852.244935,0.000000,-8290.306550,76.609550
852.245259,-148.041188,-8216.285956,612.876398
852.245583,-740.205942,-9252.574275,1072.533697
852.245908,-444.123565,-10288.862594,842.705048
852.246232,0.000000,-10066.800811,459.657299
852.246556,74.020594,-8734.430116,-306.438199
852.246881,148.041188,-8142.265362,-383.047749
852.247205,-222.061783,-9474.636058,459.657299
852.247529,-592.164754,-9992.780217,459.657299
852.247853,-1184.329507,-9918.759623,612.876398
852.248178,-222.061783,-9400.615463,0.000000
852.248502,0.000000,-8734.430116,-153.219100
852.248826,0.000000,-9474.636058,306.438199
852.249150,222.061783,-10362.883188,995.924147
852.249475,1110.308913,-10436.903782,766.095498
852.249799,2220.617826,-9474.636058,76.609550
852.250123,2664.741391,-8216.285956,-229.828649
852.250447,1480.411884,-8512.368333,-536.266849
852.250772,814.226536,-10584.944971,153.219100
852.251096,444.123565,-10807.006753,-459.657299
852.251420,888.247130,-9696.697840,-766.095498
852.251744,1406.391290,-9104.533087,-995.924147
852.252069,1184.329507,-9622.677246,-842.705048
852.252393,444.123565,-10140.821405,0.000000
852.252717,222.061783,-10732.986159,0.000000
852.253041,1258.350101,-10140.821405,0.000000
852.253366,1776.494261,-9770.718434,0.000000
852.253690,1184.329507,-9992.780217,0.000000
852.254014,0.000000,-10362.883188,-229.828649
852.254338,-592.164754,-10658.965565,-153.219100
852.254663,0.000000,-10584.944971,-1149.143247
852.254987,74.020594,-9474.636058,-1378.971896
852.255311,-222.061783,-8586.388927,-1302.362347
852.255635,-222.061783,-9252.574275,-766.095498
852.255960,148.041188,-11325.150913,-766.095498
852.256284,222.061783,-10881.027347,-1302.362347
852.256608,148.041188,-9474.636058,-1915.238745
852.256932,-592.164754,-8882.471304,-1455.581446
852.257257,-1258.350101,-9992.780217,-1532.190996
852.257581,-2072.576638,-11029.068536,-383.047749
852.257905,-2220.617826,-10584.944971,-306.438199
852.258229,-888.247130,-9696.697840,-536.266849
852.258554,-740.205942,-8882.471304,-766.095498
852.258878,-1628.453072,-9178.553681,-383.047749
852.259202,-1776.494261,-9992.780217,-153.219100
852.259526,-1554.432478,-10362.883188,-383.047749
852.259851,-444.123565,-9326.594869,-1302.362347
852.260175,-148.041188,-8290.306550,-1302.362347
852.260499,-888.247130,-9030.512492,-919.314598
852.260823,-2294.638420,-10732.986159,-842.705048
852.261148,-2368.659014,-11547.212695,-1072.533697
852.261472,-1480.411884,-10066.800811,-1455.581446
852.261796,0.000000,-8882.471304,-1225.752797
852.262120,592.164754,-9104.533087,-306.438199
852.262445,814.226536,-9770.718434,612.876398
852.262769,814.226536,-10510.924376,383.047749
852.263093,1554.432478,-9252.574275,383.047749
852.263417,1998.556043,-8586.388927,-153.219100
852.263742,1998.556043,-8660.409521,229.828649
852.264066,888.247130,-9696.697840,689.485948
852.264390,0.000000,-10362.883188,612.876398
852.264714,0.000000,-10436.903782,536.266849
852.265039,222.061783,-9326.594869,383.047749
852.265363,1036.288319,-8660.409521,153.219100
852.265687,444.123565,-9252.574275,689.485948
852.266012,0.000000,-9918.759623,919.314598
852.266336,370.102971,-9622.677246,995.924147
852.266660,1332.370696,-9104.533087,842.705048
852.266984,1628.453072,-7772.162391,766.095498
852.267309,370.102971,-8438.347739,1455.581446
852.267633,-222.061783,-9622.677246,1072.533697
852.267957,-296.082377,-10510.924376,612.876398
852.268281,370.102971,-9992.780217,306.438199
852.268606,222.061783,-9030.512492,612.876398
852.268930,-222.061783,-9548.656652,1378.971896
852.269254,-1110.308913,-10214.842000,919.314598
852.269578,-666.185348,-10140.821405,919.314598
852.269903,148.041188,-9548.656652,1378.971896
852.270227,666.185348,-8956.491898,383.047749
852.270551,592.164754,-8882.471304,1149.143247
852.270875,-518.144159,-9622.677246,1225.752797
852.271200,-1036.288319,-9770.718434,1149.143247
852.271524,-666.185348,-9992.780217,536.266849
852.271848,0.000000,-9326.594869,383.047749
852.272172,-444.123565,-8438.347739,383.047749
852.272497,-740.205942,-9548.656652,1225.752797
852.272821,-1332.370696,-10436.903782,306.438199
852.273145,-888.247130,-9918.759623,0.000000
852.273469,-222.061783,-8660.409521,-689.485948
852.273794,-296.082377,-8438.347739,-919.314598
852.274118,-1110.308913,-9622.677246,-689.485948
852.274442,-1702.473667,-10510.924376,-153.219100
852.274766,-1184.329507,-10288.862594,-383.047749
852.275091,-444.123565,-9474.636058,-1225.752797
852.275415,-148.041188,-9474.636058,-229.828649
852.275739,-148.041188,-10584.944971,229.828649
852.276063,-740.205942,-11843.295072,689.485948
852.276387,-592.164754,-11621.233289,459.657299
852.276711,148.041188,-9770.718434,-229.828649
852.277036,1184.329507,-9326.594869,-842.705048
852.277360,0.000000,-10436.903782,-153.219100
852.277684,-1258.350101,-11029.068536,-842.705048
852.278008,-1776.494261,-10955.047942,306.438199
852.278332,-814.226536,-10140.821405,-1225.752797
852.278656,0.000000,-8882.471304,-1149.143247
852.278980,-148.041188,-8882.471304,-1149.143247
852.279304,-888.247130,-10066.800811,-766.095498
852.279629,-592.164754,-10955.047942,0.000000
852.279953,518.144159,-10214.842000,-383.047749
852.280277,1480.411884,-8512.368333,-306.438199
852.280601,1702.473667,-8290.306550,0.000000
852.280925,888.247130,-9400.615463,689.485948
852.281249,740.205942,-10288.862594,842.705048
852.281573,962.267725,-10214.842000,229.828649
852.281897,1110.308913,-8882.471304,0.000000
852.282222,1554.432478,-7772.162391,-383.047749
852.282546,1184.329507,-8142.265362,-306.438199
852.282870,222.061783,-9400.615463,153.219100
852.283194,814.226536,-9844.739029,153.219100
852.283518,740.205942,-9326.594869,-306.438199
852.283842,518.144159,-8068.244768,-766.095498
852.284166,-444.123565,-8068.244768,-153.219100
852.284491,-888.247130,-9548.656652,229.828649
852.284815,-592.164754,-10214.842000,306.438199
852.285139,74.020594,-9548.656652,-153.219100
852.285463,74.020594,-7772.162391,0.000000
852.285787,-296.082377,-8216.285956,383.047749
852.286111,-222.061783,-9548.656652,842.705048
852.286435,74.020594,-10066.800811,306.438199
852.286759,1184.329507,-9844.739029,76.609550
852.287084,1850.514855,-9400.615463,-153.219100
852.287408,962.267725,-9474.636058,-306.438199
852.287732,-222.061783,-10436.903782,0.000000
852.288056,-814.226536,-11029.068536,-153.219100
852.288380,-666.185348,-10658.965565,-383.047749
852.288704,-444.123565,-9548.656652,-1072.533697
852.289028,-370.102971,-9770.718434,-383.047749
852.289352,-1036.288319,-11029.068536,153.219100
852.289677,-740.205942,-11769.274478,0.000000
852.290001,74.020594,-10584.944971,-459.657299
852.290325,296.082377,-8734.430116,-1225.752797
852.290649,0.000000,-9326.594869,-689.485948
852.290973,-1184.329507,-10732.986159,-229.828649
852.291297,-1406.391290,-10955.047942,-459.657299
852.291621,-1258.350101,-10658.965565,-995.924147
852.291946,-518.144159,-9474.636058,-1532.190996
852.292270,74.020594,-9400.615463,-1455.581446
852.292594,-148.041188,-10510.924376,-459.657299
852.292918,-296.082377,-11251.130318,-536.266849
852.293242,222.061783,-10881.027347,-842.705048
852.293566,1406.391290,-10510.924376,-766.095498
852.293890,1554.432478,-9400.615463,-842.705048
852.294214,370.102971,-9844.739029,-153.219100
852.294539,-888.247130,-10881.027347,0.000000
852.294863,-1776.494261,-11251.130318,-383.047749
852.295187,-1258.350101,-9770.718434,-459.657299
852.295511,222.061783,-8586.388927,-536.266849
852.295835,444.123565,-8734.430116,536.266849
852.296159,-444.123565,-9696.697840,689.485948
852.296483,-1110.308913,-9770.718434,612.876398
852.296807,-814.226536,-8956.491898,306.438199
852.297132,74.020594,-7994.224174,-76.609550
852.297456,222.061783,-7846.182985,0.000000
852.297780,-222.061783,-8216.285956,842.705048
852.298104,-222.061783,-9252.574275,766.095498
852.298428,0.000000,-9252.574275,459.657299
852.298752,740.205942,-7994.224174,0.000000
852.299076,740.205942,-7624.121203,536.266849
852.299401,0.000000,-8734.430116,766.095498
852.299725,-444.123565,-9622.677246,1302.362347
852.300049,666.185348,-9104.533087,1915.238745
852.300373,1332.370696,-8290.306550,1455.581446
852.300697,1406.391290,-7105.977043,612.876398
852.301021,74.020594,-8068.244768,536.266849
852.301345,-814.226536,-9770.718434,842.705048
852.301669,-1036.288319,-9696.697840,306.438199
852.301994,-518.144159,-9104.533087,76.609550
852.302318,-296.082377,-8586.388927,-306.438199
852.302642,-592.164754,-8882.471304,-383.047749
852.302966,-962.267725,-10436.903782,153.219100
852.303290,-148.041188,-10807.006753,229.828649
852.303614,1110.308913,-10584.944971,153.219100
852.303938,1258.350101,-9844.739029,0.000000
852.304263,74.020594,-9918.759623,-229.828649
852.304587,-1110.308913,-10955.047942,306.438199
852.304911,-1258.350101,-11917.315666,0.000000
852.305235,0.000000,-11399.171507,0.000000
852.305559,1110.308913,-10732.986159,0.000000
852.305883,592.164754,-10066.800811,0.000000
852.306207,370.102971,-11325.150913,76.609550
852.306531,148.041188,-12065.356855,0.000000
852.306856,592.164754,-11399.171507,-153.219100
852.307180,814.226536,-9992.780217,-689.485948
852.307504,814.226536,-9400.615463,-1149.143247
852.307828,-296.082377,-10510.924376,-766.095498
852.308152,-1036.288319,-11695.253884,0.000000
852.308476,-888.247130,-10732.986159,-766.095498
852.308800,-444.123565,-9474.636058,-1225.752797
852.309124,-370.102971,-8956.491898,-919.314598
852.309449,-888.247130,-9400.615463,-383.047749
852.309773,-1480.411884,-10807.006753,0.000000
852.310097,-592.164754,-10214.842000,306.438199
852.310421,444.123565,-9474.636058,-689.485948
852.310745,1110.308913,-8364.327145,-383.047749
852.311069,0.000000,-8734.430116,306.438199
852.311393,-1480.411884,-9548.656652,229.828649
852.311718,-1776.494261,-9770.718434,76.609550
852.312042,-1258.350101,-9030.512492,-153.219100
852.312366,-370.102971,-8142.265362,-612.876398
852.312690,-518.144159,-7920.203579,-229.828649
852.313014,-1036.288319,-8290.306550,536.266849
852.313338,-962.267725,-8956.491898,153.219100
852.313662,0.000000,-9030.512492,-306.438199
852.313986,1184.329507,-7402.059420,-153.219100
852.314311,1036.288319,-7105.977043,-306.438199
852.314635,0.000000,-8586.388927,612.876398
852.314959,-1036.288319,-9548.656652,0.000000
852.315283,-296.082377,-9474.636058,-229.828649
852.315607,814.226536,-8808.450710,0.000000
852.315931,740.205942,-8216.285956,-153.219100
852.316255,592.164754,-9474.636058,459.657299
852.316579,814.226536,-10436.903782,1455.581446
852.316904,1702.473667,-10658.965565,612.876398
852.317228,2664.741391,-9548.656652,459.657299
852.317552,1702.473667,-8586.388927,153.219100
852.317876,518.144159,-9918.759623,612.876398
852.318200,-592.164754,-11473.192101,612.876398
852.318524,-444.123565,-11177.109724,0.000000
852.318848,74.020594,-10288.862594,-612.876398
852.319173,222.061783,-9918.759623,-1302.362347
852.319497,-222.061783,-10510.924376,-919.314598
852.319821,-814.226536,-11029.068536,-306.438199
852.320145,296.082377,-11103.089130,-306.438199
852.320469,740.205942,-10510.924376,-1072.533697
852.320793,1332.370696,-9696.697840,-766.095498
852.321117,814.226536,-10140.821405,-536.266849
852.321441,0.000000,-11103.089130,-306.438199
852.321766,0.000000,-11695.253884,0.000000
852.322090,-148.041188,-10214.842000,0.000000
852.322414,962.267725,-9844.739029,-995.924147
852.322738,444.123565,-9770.718434,-153.219100
852.323062,0.000000,-10510.924376,919.314598
852.323386,74.020594,-11325.150913,229.828649
852.323710,222.061783,-10658.965565,-306.438199
852.324034,296.082377,-9400.615463,-459.657299
852.324359,-592.164754,-8734.430116,0.000000
852.324683,-1406.391290,-9696.697840,689.485948
852.325007,-1924.535449,-10510.924376,536.266849
852.325331,-2146.597232,-9992.780217,-306.438199
852.325655,-962.267725,-8290.306550,-536.266849
852.325979,-296.082377,-7994.224174,-306.438199
852.326303,-740.205942,-8734.430116,536.266849
852.326628,-1110.308913,-9400.615463,612.876398
852.326952,-666.185348,-8882.471304,0.000000
852.327276,0.000000,-7698.141797,-612.876398
852.327600,444.123565,-7402.059420,-689.485948
852.327924,-444.123565,-8142.265362,766.095498
852.328248,-1776.494261,-9548.656652,383.047749
852.328572,-1850.514855,-9030.512492,-306.438199
852.328896,-370.102971,-7994.224174,0.000000
852.329221,518.144159,-7402.059420,-153.219100
852.329545,444.123565,-8216.285956,842.705048
852.329869,-222.061783,-9992.780217,1072.533697
852.330193,0.000000,-9622.677246,995.924147
852.330517,666.185348,-9326.594869,383.047749
852.330841,1110.308913,-8142.265362,-383.047749
852.331165,148.041188,-8660.409521,842.705048
852.331489,-740.205942,-10658.965565,383.047749
852.331814,-1184.329507,-11473.192101,0.000000
852.332138,-370.102971,-10436.903782,0.000000
852.332462,444.123565,-9474.636058,-842.705048
852.332786,1110.308913,-9696.697840,-383.047749
852.333110,-518.144159,-10362.883188,0.000000
852.333434,-740.205942,-10807.006753,0.000000
852.333758,740.205942,-10732.986159,0.000000
852.334083,1850.514855,-9992.780217,-1072.533697
852.334407,1702.473667,-9178.553681,-689.485948
852.334731,814.226536,-10214.842000,-306.438199
852.335055,0.000000,-11251.130318,-612.876398
852.335379,148.041188,-10955.047942,-995.924147
852.335703,1110.308913,-9474.636058,-1225.752797
852.336027,1776.494261,-8956.491898,-612.876398
852.336351,814.226536,-9918.759623,-229.828649
852.336676,0.000000,-11103.089130,383.047749
852.337000,0.000000,-11325.150913,306.438199
852.337324,666.185348,-10066.800811,-536.266849
852.337648,814.226536,-8586.388927,-1072.533697
852.337972,518.144159,-9252.574275,-689.485948
852.338296,-592.164754,-10288.862594,0.000000
852.338620,-1036.288319,-11177.109724,0.000000
852.338944,-592.164754,-9844.739029,-766.095498
852.339269,-148.041188,-8586.388927,-1149.143247
852.339593,-444.123565,-8512.368333,-536.266849
852.339917,-740.205942,-9844.739029,76.609550
852.340241,-444.123565,-10362.883188,383.047749
852.340565,592.164754,-9844.739029,-153.219100
852.340889,666.185348,-8364.327145,-689.485948
852.341213,296.082377,-8364.327145,-612.876398
852.341538,-740.205942,-9696.697840,0.000000
852.341862,-1554.432478,-10807.006753,76.609550
852.342186,-1184.329507,-10362.883188,-153.219100
852.342510,-814.226536,-8586.388927,-459.657299
852.342834,-296.082377,-8438.347739,-383.047749
852.343158,-370.102971,-9474.636058,766.095498
852.343482,-592.164754,-11029.068536,1225.752797
852.343806,-592.164754,-10214.842000,459.657299
852.344131,148.041188,-8882.471304,0.000000
852.344455,444.123565,-8660.409521,153.219100
852.344779,-370.102971,-9844.739029,1072.533697
852.345103,-2072.576638,-10881.027347,842.705048
852.345427,-2072.576638,-10510.924376,229.828649
852.345751,-1332.370696,-9474.636058,0.000000
852.346075,-592.164754,-8660.409521,-536.266849
852.346399,-888.247130,-9030.512492,-153.219100
852.346724,-962.267725,-9918.759623,919.314598
852.347048,-148.041188,-10510.924376,536.266849
852.347372,888.247130,-9696.697840,0.000000
852.347696,1258.350101,-8586.388927,229.828649
852.348020,1628.453072,-8956.491898,766.095498
852.348344,1110.308913,-10807.006753,689.485948
852.348668,148.041188,-10955.047942,536.266849
852.348993,0.000000,-9622.677246,306.438199
852.349317,666.185348,-9326.594869,-229.828649
852.349641,666.185348,-9178.553681,0.000000
852.349965,0.000000,-9474.636058,919.314598
852.350289,-592.164754,-9918.759623,1072.533697
852.350613,0.000000,-9696.697840,383.047749
852.350937,888.247130,-9326.594869,383.047749
852.351261,1110.308913,-8586.388927,459.657299
852.351586,-74.020594,-9326.594869,919.314598
852.351910,-888.247130,-10436.903782,919.314598
852.352234,-296.082377,-10436.903782,459.657299
852.352558,740.205942,-9400.615463,-306.438199
852.352882,1184.329507,-8734.430116,383.047749
852.353206,148.041188,-9474.636058,612.876398
852.353530,370.102971,-10362.883188,459.657299
852.353854,1480.411884,-9696.697840,0.000000
852.354179,2368.659014,-9252.574275,0.000000
852.354503,1702.473667,-8882.471304,-229.828649
852.354827,1554.432478,-9178.553681,-229.828649
852.355151,-296.082377,-9770.718434,689.485948
852.355475,148.041188,-10510.924376,-229.828649
852.355799,-370.102971,-9178.553681,-536.266849
852.356123,74.020594,-8660.409521,-383.047749
852.356448,-222.061783,-9030.512492,0.000000
852.356772,-148.041188,-10140.821405,306.438199
852.357096,-222.061783,-10362.883188,459.657299
852.357420,74.020594,-9474.636058,-153.219100
852.357744,444.123565,-8808.450710,-766.095498
852.358068,-740.205942,-8660.409521,-995.924147
852.358392,-1998.556043,-10288.862594,-229.828649
852.358716,-2516.700203,-11695.253884,-612.876398
852.359041,-1924.535449,-10362.883188,-1225.752797
852.359365,-666.185348,-9104.533087,-1378.971896
852.359689,-296.082377,-9622.677246,-153.219100
852.360013,-1406.391290,-10362.883188,0.000000
852.360337,-1258.350101,-11547.212695,0.000000
852.360661,-1184.329507,-10881.027347,-689.485948
852.360985,0.000000,-9252.574275,-1455.581446
852.361309,814.226536,-9104.533087,-919.314598
852.361634,444.123565,-10066.800811,-459.657299
852.361958,-370.102971,-11029.068536,-919.314598
852.362282,-444.123565,-10362.883188,-1532.190996
852.362606,518.144159,-9030.512492,-1378.971896
852.362930,888.247130,-8290.306550,-1608.800546
852.363254,148.041188,-9252.574275,-536.266849
852.363578,-148.041188,-10362.883188,0.000000
852.363903,-74.020594,-10288.862594,0.000000
852.364227,666.185348,-9622.677246,-612.876398
852.364551,740.205942,-8290.306550,-919.314598
852.364875,592.164754,-8660.409521,0.000000
852.365199,-222.061783,-10066.800811,459.657299
852.365523,-296.082377,-10658.965565,383.047749
852.365847,0.000000,-9918.759623,0.000000
852.366171,74.020594,-8882.471304,-766.095498
852.366496,148.041188,-9326.594869,0.000000
852.366820,-592.164754,-10510.924376,153.219100
852.367144,-1036.288319,-10214.842000,0.000000
852.367468,0.000000,-9770.718434,-153.219100
852.367792,1184.329507,-8734.430116,-229.828649
852.368116,1924.535449,-9400.615463,-153.219100
852.368440,296.082377,-9696.697840,0.000000
852.368764,-888.247130,-10658.965565,-229.828649
852.369089,-740.205942,-10140.821405,-612.876398
852.369413,74.020594,-8734.430116,-536.266849
852.369737,1110.308913,-8364.327145,-459.657299
852.370061,888.247130,-9252.574275,0.000000
852.370385,370.102971,-9770.718434,919.314598
852.370709,740.205942,-9622.677246,229.828649
852.371033,2072.576638,-9178.553681,-153.219100
852.371358,1628.453072,-8142.265362,153.219100
852.371682,592.164754,-9104.533087,766.095498
852.372006,-888.247130,-10510.924376,766.095498
852.372330,-1776.494261,-10807.006753,153.219100
852.372654,-1406.391290,-9696.697840,0.000000
852.372978,-814.226536,-9252.574275,-612.876398
852.373302,-962.267725,-9770.718434,0.000000
852.373626,-2072.576638,-10955.047942,306.438199
852.373951,-1850.514855,-11325.150913,306.438199
852.374275,-592.164754,-10584.944971,0.000000
852.374599,592.164754,-9474.636058,-766.095498
852.374923,444.123565,-9474.636058,76.609550
852.375247,-814.226536,-10658.965565,612.876398
852.375571,-1332.370696,-11473.192101,0.000000
852.375895,-888.247130,-10362.883188,-229.828649
852.376220,74.020594,-9104.533087,-383.047749
852.376544,370.102971,-9770.718434,-153.219100
852.376868,-518.144159,-11029.068536,536.266849
852.377192,-1110.308913,-10881.027347,766.095498
852.377516,0.000000,-10066.800811,536.266849
852.377841,740.205942,-8882.471304,0.000000
852.378165,1184.329507,-8882.471304,229.828649
852.378489,0.000000,-9104.533087,1225.752797
852.378813,-1110.308913,-10066.800811,1378.971896
852.379138,-1036.288319,-10140.821405,1225.752797
852.379462,-370.102971,-8586.388927,153.219100
852.379786,0.000000,-7402.059420,76.609550
852.380110,-296.082377,-8068.244768,842.705048
852.380434,-518.144159,-9696.697840,1149.143247
852.380759,518.144159,-10288.862594,919.314598
852.381083,962.267725,-8734.430116,0.000000
852.381407,1036.288319,-7698.141797,-383.047749
852.381731,518.144159,-8438.347739,-306.438199
852.382055,-962.267725,-9770.718434,0.000000
852.382380,-1184.329507,-9548.656652,0.000000
852.382704,-740.205942,-8956.491898,-1072.533697
852.383028,666.185348,-8438.347739,0.000000
852.383352,1184.329507,-8586.388927,383.047749
852.383677,518.144159,-9474.636058,919.314598
852.384001,592.164754,-10362.883188,1302.362347
852.384325,1258.350101,-9918.759623,306.438199
852.384649,1776.494261,-8808.450710,459.657299
852.384973,1480.411884,-8216.285956,153.219100
852.385298,370.102971,-9622.677246,612.876398
852.385622,-296.082377,-10584.944971,0.000000
852.385946,-222.061783,-10436.903782,-536.266849
852.386270,370.102971,-9548.656652,-995.924147
852.386594,148.041188,-9178.553681,-1225.752797
852.386919,-666.185348,-9918.759623,-689.485948
852.387243,-444.123565,-10732.986159,0.000000
852.387567,-666.185348,-10510.924376,-1225.752797
852.387891,222.061783,-9770.718434,-1302.362347
852.388216,962.267725,-9326.594869,-1302.362347
852.388540,296.082377,-10436.903782,-383.047749
852.388864,-148.041188,-11547.212695,-536.266849
852.389188,-592.164754,-11473.192101,-766.095498
852.389512,0.000000,-9844.739029,-1225.752797
852.389837,1406.391290,-9400.615463,-1302.362347
852.390161,666.185348,-10436.903782,-1072.533697
852.390485,-296.082377,-11325.150913,-383.047749
852.390809,-370.102971,-11103.089130,-536.266849
852.391134,518.144159,-10140.821405,-1302.362347
852.391458,814.226536,-9326.594869,-1532.190996
852.391782,0.000000,-8956.491898,-919.314598
852.392106,-962.267725,-10140.821405,-306.438199
852.392430,-1850.514855,-10658.965565,-766.095498
852.392755,-888.247130,-9844.739029,-1149.143247
852.393079,-148.041188,-8364.327145,-1608.800546
852.393403,-222.061783,-8808.450710,-766.095498
852.393727,-1110.308913,-10214.842000,-306.438199
852.394051,-1110.308913,-10807.006753,153.219100
852.394376,0.000000,-9622.677246,0.000000
852.394700,592.164754,-8290.306550,-459.657299
852.395024,518.144159,-8734.430116,-459.657299
852.395348,-814.226536,-9696.697840,-383.047749
852.395673,-1776.494261,-11029.068536,-153.219100
852.395997,-1776.494261,-10362.883188,-995.924147
852.396321,-592.164754,-8956.491898,-1225.752797
852.396645,666.185348,-8660.409521,-306.438199
852.396969,666.185348,-8956.491898,306.438199
852.397294,74.020594,-10140.821405,766.095498
852.397618,148.041188,-10066.800811,459.657299
852.397942,1184.329507,-9030.512492,-153.219100
852.398266,1480.411884,-7846.182985,76.609550
852.398590,740.205942,-8364.327145,383.047749
852.398915,-592.164754,-9696.697840,689.485948
852.399239,-666.185348,-9770.718434,1072.533697
852.399563,0.000000,-9474.636058,842.705048
852.399887,222.061783,-8290.306550,0.000000
852.400212,0.000000,-8586.388927,306.438199
852.400536,-814.226536,-9696.697840,766.095498
852.400860,0.000000,-9918.759623,689.485948
852.401184,1184.329507,-9548.656652,612.876398
852.401508,2072.576638,-9252.574275,612.876398
852.401833,1998.556043,-9326.594869,612.876398
852.402157,148.041188,-10140.821405,76.609550
852.402481,-444.123565,-11177.109724,459.657299
852.402805,-370.102971,-10584.944971,-306.438199
852.403130,222.061783,-9474.636058,-919.314598
852.403454,222.061783,-9326.594869,-383.047749
852.403778,-592.164754,-10214.842000,153.219100
852.404102,-1258.350101,-10732.986159,689.485948
852.404426,-666.185348,-9918.759623,459.657299
852.404751,518.144159,-9252.574275,-383.047749
852.405075,888.247130,-7994.224174,0.000000
852.405399,74.020594,-9030.512492,383.047749
852.405723,-888.247130,-10881.027347,919.314598
852.406047,-1110.308913,-10955.047942,766.095498
852.406372,-148.041188,-9178.553681,-536.266849
852.406696,814.226536,-8512.368333,-383.047749
852.407020,518.144159,-9474.636058,306.438199
852.407344,0.000000,-11177.109724,1455.581446
852.407669,518.144159,-11103.089130,612.876398
852.407993,1110.308913,-9992.780217,-306.438199
852.408317,1036.288319,-8956.491898,-919.314598
852.408641,148.041188,-9622.677246,-306.438199
852.408965,-1184.329507,-11103.089130,0.000000
852.409290,-1628.453072,-11621.233289,536.266849
852.409614,-1110.308913,-10066.800811,0.000000
852.409938,0.000000,-9178.553681,-842.705048
852.410262,-370.102971,-8956.491898,0.000000
852.410586,-814.226536,-10584.944971,612.876398
852.410911,-1628.453072,-11399.171507,842.705048
852.411235,-1036.288319,-10436.903782,842.705048
852.411559,666.185348,-9104.533087,306.438199
852.411883,1036.288319,-7994.224174,995.924147
852.412208,-666.185348,-8660.409521,842.705048
852.412532,-1702.473667,-10436.903782,1072.533697
852.412856,-888.247130,-10584.944971,383.047749
852.413180,370.102971,-8364.327145,-536.266849
852.413504,444.123565,-7254.018232,-306.438199
852.413829,-222.061783,-7772.162391,0.000000
852.414153,-1480.411884,-9474.636058,0.000000
852.414477,-1184.329507,-9844.739029,0.000000
852.414801,-296.082377,-8364.327145,-766.095498
852.415126,962.267725,-8068.244768,-766.095498
852.415450,74.020594,-8882.471304,-229.828649
852.415774,-1184.329507,-10362.883188,459.657299
852.416098,-962.267725,-10436.903782,689.485948
852.416422,0.000000,-9326.594869,-306.438199
852.416747,814.226536,-9104.533087,0.000000
852.417071,962.267725,-8660.409521,76.609550
852.417395,1184.329507,-9918.759623,459.657299
852.417719,1406.391290,-10732.986159,383.047749
852.418043,1924.535449,-10066.800811,-459.657299
852.418368,2294.638420,-8808.450710,-1072.533697
852.418692,1702.473667,-8660.409521,-842.705048
852.419016,518.144159,-10362.883188,-306.438199
852.419340,-444.123565,-11473.192101,-612.876398
852.419665,0.000000,-10584.944971,-919.314598
852.419989,666.185348,-9474.636058,-1608.800546
852.420313,1036.288319,-9178.553681,-1072.533697
852.420637,0.000000,-9992.780217,-306.438199
852.420961,-296.082377,-11103.089130,229.828649
852.421286,74.020594,-10584.944971,-306.438199
852.421610,1776.494261,-9474.636058,-383.047749
852.421934,2146.597232,-8956.491898,-306.438199
852.422258,962.267725,-9918.759623,0.000000
852.422582,0.000000,-11177.109724,-383.047749
852.422907,0.000000,-11029.068536,-919.314598
852.423231,666.185348,-9622.677246,-1225.752797
852.423555,1110.308913,-9474.636058,-1302.362347
852.423879,666.185348,-10510.924376,-842.705048
852.424204,-740.205942,-10658.965565,-153.219100
852.424528,-666.185348,-10584.944971,-842.705048
852.424852,0.000000,-10066.800811,-1532.190996
852.425176,74.020594,-9474.636058,-1378.971896
852.425500,-222.061783,-9622.677246,0.000000
852.425825,-1036.288319,-10066.800811,153.219100
852.426149,-1184.329507,-10066.800811,0.000000
852.426473,-888.247130,-9548.656652,306.438199
852.426797,-444.123565,-9104.533087,-689.485948
852.427122,-888.247130,-9400.615463,-306.438199
852.427446,-1924.535449,-10214.842000,76.609550
852.427770,-2368.659014,-9918.759623,383.047749
852.428094,-1258.350101,-9474.636058,-153.219100
852.428418,0.000000,-9178.553681,0.000000
852.428743,592.164754,-9178.553681,153.219100
852.429067,-592.164754,-9474.636058,689.485948
852.429391,-1776.494261,-9844.739029,229.828649
852.429715,-1554.432478,-9770.718434,0.000000
852.430039,-296.082377,-8882.471304,-306.438199
852.430364,888.247130,-8660.409521,76.609550
852.430688,0.000000,-9326.594869,766.095498
852.431012,-666.185348,-9770.718434,1149.143247
852.431336,-222.061783,-9178.553681,0.000000
852.431661,962.267725,-8660.409521,459.657299
852.431985,1332.370696,-8438.347739,153.219100
852.432309,518.144159,-8586.388927,536.266849
852.432633,-740.205942,-9844.739029,1072.533697
852.432957,-888.247130,-9844.739029,766.095498
852.433282,740.205942,-9252.574275,0.000000
852.433606,1110.308913,-8364.327145,0.000000
852.433930,666.185348,-9326.594869,1302.362347
852.434254,518.144159,-10362.883188,919.314598
852.434578,0.000000,-10658.965565,689.485948
852.434903,296.082377,-9992.780217,842.705048
852.435227,814.226536,-9992.780217,229.828649
852.435551,518.144159,-9844.739029,536.266849
852.435875,-518.144159,-10584.944971,689.485948
852.436200,-1332.370696,-10436.903782,0.000000
852.436524,-962.267725,-9992.780217,-842.705048
852.436848,0.000000,-9622.677246,-689.485948
852.437172,592.164754,-9548.656652,-612.876398
852.437496,-148.041188,-10214.842000,-229.828649
852.437821,-444.123565,-10807.006753,0.000000
852.438145,74.020594,-10362.883188,-459.657299
852.438469,1184.329507,-9326.594869,0.000000
852.438793,1776.494261,-9622.677246,0.000000
852.439117,1332.370696,-10140.821405,1302.362347
852.439442,814.226536,-10732.986159,919.314598
852.439766,148.041188,-10510.924376,383.047749
852.440090,740.205942,-9474.636058,0.000000
852.440414,296.082377,-9104.533087,0.000000
852.440739,-148.041188,-9400.615463,766.095498
852.441063,-1036.288319,-10288.862594,76.609550
852.441387,-592.164754,-9770.718434,229.828649
852.441711,518.144159,-9326.594869,-459.657299
852.442035,740.205942,-8808.450710,-536.266849
852.442360,0.000000,-9326.594869,-383.047749
852.442684,-1554.432478,-10140.821405,-229.828649
852.443008,-2368.659014,-10510.924376,-153.219100
852.443332,-1628.453072,-9252.574275,-383.047749
852.443657,-666.185348,-9104.533087,-842.705048
852.443981,-296.082377,-9622.677246,0.000000
852.444305,-1184.329507,-9844.739029,306.438199
852.444629,-1258.350101,-10066.800811,0.000000
852.444953,-666.185348,-9252.574275,0.000000
852.445278,518.144159,-8586.388927,-153.219100
852.445602,740.205942,-9030.512492,229.828649
852.445926,0.000000,-9548.656652,306.438199
852.446250,-1776.494261,-9770.718434,153.219100
852.446574,-1332.370696,-9548.656652,-536.266849
852.446899,-296.082377,-8882.471304,-766.095498
852.447223,0.000000,-8882.471304,-306.438199
852.447547,-370.102971,-9474.636058,0.000000
852.447871,-740.205942,-10066.800811,0.000000
852.448196,-148.041188,-10066.800811,-153.219100
852.448520,592.164754,-9326.594869,-459.657299
852.448844,1554.432478,-9104.533087,0.000000
852.449168,814.226536,-9326.594869,383.047749
852.449492,-370.102971,-10214.842000,459.657299
852.449817,-740.205942,-10584.944971,0.000000
852.450141,0.000000,-9548.656652,-459.657299
852.450465,814.226536,-9030.512492,-153.219100
852.450789,666.185348,-9400.615463,76.609550
852.451113,666.185348,-10214.842000,536.266849
852.451438,296.082377,-10066.800811,76.609550
852.451762,1258.350101,-9474.636058,459.657299
852.452086,1776.494261,-8438.347739,0.000000
852.452410,1110.308913,-8882.471304,0.000000
852.452735,-148.041188,-9696.697840,-153.219100
852.453059,-1110.308913,-10214.842000,-153.219100
852.453383,-296.082377,-9548.656652,-229.828649
852.453707,740.205942,-9326.594869,-229.828649
852.454031,888.247130,-8956.491898,0.000000
852.454356,444.123565,-10436.903782,459.657299
852.454680,222.061783,-10436.903782,536.266849
852.455004,1184.329507,-9992.780217,229.828649
852.455328,1998.556043,-9326.594869,-229.828649
852.455653,1628.453072,-8956.491898,-229.828649
852.455977,74.020594,-9844.739029,0.000000
852.456301,-1332.370696,-10436.903782,-306.438199
852.456625,-1258.350101,-10658.965565,-306.438199
852.456949,-592.164754,-10436.903782,-689.485948
852.457274,-148.041188,-9696.697840,-689.485948
852.457598,-888.247130,-9844.739029,0.000000
852.457922,-1184.329507,-10436.903782,153.219100
852.458246,-814.226536,-10658.965565,0.000000
852.458570,222.061783,-9770.718434,383.047749
852.458895,740.205942,-8586.388927,-383.047749
852.459219,0.000000,-8808.450710,229.828649
852.459543,-1332.370696,-9992.780217,229.828649
852.459867,-1332.370696,-10362.883188,0.000000
852.460192,-296.082377,-9622.677246,-536.266849
852.460516,296.082377,-8586.388927,-842.705048
852.460840,-296.082377,-8808.450710,-919.314598
852.461164,-1332.370696,-10066.800811,-766.095498
852.461488,-1184.329507,-10288.862594,-766.095498
852.461813,74.020594,-10066.800811,-766.095498
852.462137,444.123565,-9252.574275,-919.314598
852.462461,148.041188,-9178.553681,-153.219100
852.462785,-592.164754,-10140.821405,0.000000
852.463109,-1258.350101,-10288.862594,153.219100
852.463434,-1480.411884,-9844.739029,-229.828649
852.463758,0.000000,-9326.594869,0.000000
852.464082,0.000000,-9178.553681,383.047749
852.464406,-296.082377,-9844.739029,612.876398
852.464731,-888.247130,-10140.821405,383.047749
852.465055,-740.205942,-9918.759623,0.000000
852.465379,0.000000,-9030.512492,-1225.752797
852.465703,592.164754,-9030.512492,153.219100
852.466027,0.000000,-9548.656652,0.000000
852.466352,-370.102971,-9844.739029,153.219100
852.466676,-296.082377,-10436.903782,-383.047749
852.467000,814.226536,-9326.594869,-383.047749
852.467324,1554.432478,-8734.430116,-229.828649
852.467649,1406.391290,-9178.553681,229.828649
852.467973,666.185348,-9770.718434,689.485948
852.468297,666.185348,-9844.739029,766.095498
852.468621,2294.638420,-9992.780217,766.095498
852.468945,2516.700203,-9104.533087,383.047749
852.469270,1406.391290,-9252.574275,919.314598
852.469594,-370.102971,-9992.780217,919.314598
852.469918,-1480.411884,-10214.842000,383.047749
852.470242,-1036.288319,-9696.697840,153.219100
852.470566,0.000000,-8734.430116,0.000000
852.470891,-370.102971,-8660.409521,0.000000
852.471215,-962.267725,-9178.553681,536.266849
852.471539,-1332.370696,-9992.780217,0.000000
852.471863,-296.082377,-9844.739029,-229.828649
852.472188,518.144159,-9252.574275,-229.828649
852.472512,888.247130,-9326.594869,229.828649
852.472836,0.000000,-9696.697840,383.047749
852.473160,-1110.308913,-10584.944971,383.047749
852.473484,-740.205942,-9918.759623,-306.438199
852.473809,-296.082377,-9992.780217,-536.266849
852.474133,74.020594,-9770.718434,-229.828649
852.474457,-370.102971,-10214.842000,229.828649
852.474781,-592.164754,-10436.903782,536.266849
852.475105,-148.041188,-9918.759623,306.438199
852.475430,370.102971,-9548.656652,-229.828649
852.475754,1406.391290,-9474.636058,-306.438199
852.476078,222.061783,-9474.636058,0.000000
852.476402,-888.247130,-10288.862594,-383.047749
852.476727,-1332.370696,-10584.944971,-612.876398
852.477051,-740.205942,-9770.718434,-995.924147
852.477375,0.000000,-9400.615463,-459.657299
852.477699,0.000000,-9548.656652,76.609550
852.478023,0.000000,-10955.047942,766.095498
852.478348,-370.102971,-10732.986159,919.314598
852.478672,814.226536,-10584.944971,306.438199
852.478996,592.164754,-9474.636058,229.828649
852.479320,74.020594,-9474.636058,459.657299
852.479645,-740.205942,-10362.883188,766.095498
852.479969,-1554.432478,-10881.027347,612.876398
852.480293,-1406.391290,-10140.821405,0.000000
852.480617,-592.164754,-9030.512492,-153.219100
852.480941,-222.061783,-8660.409521,-229.828649
852.481265,-740.205942,-9548.656652,229.828649
852.481589,-1332.370696,-10214.842000,459.657299
852.481914,-222.061783,-9548.656652,459.657299
852.482238,962.267725,-8216.285956,-153.219100
852.482562,1406.391290,-8068.244768,306.438199
852.482886,888.247130,-8734.430116,842.705048
852.483210,296.082377,-10140.821405,919.314598
852.483534,0.000000,-9104.533087,689.485948
852.483858,666.185348,-8734.430116,689.485948
852.484183,1184.329507,-8882.471304,0.000000
852.484507,370.102971,-8956.491898,229.828649
852.484831,-518.144159,-9696.697840,766.095498
852.485155,-444.123565,-9992.780217,536.266849
852.485479,74.020594,-9474.636058,0.000000
852.485803,592.164754,-8586.388927,76.609550
852.486127,518.144159,-9030.512492,0.000000
852.486452,-814.226536,-9696.697840,-229.828649
852.486776,-740.205942,-10214.842000,229.828649
852.487100,74.020594,-9548.656652,-306.438199
852.487424,1332.370696,-8882.471304,-919.314598
852.487748,888.247130,-8956.491898,-383.047749
852.488072,0.000000,-9474.636058,-536.266849
852.488396,74.020594,-9992.780217,0.000000
852.488721,888.247130,-10066.800811,76.609550
852.489045,1184.329507,-9030.512492,-306.438199
852.489369,1924.535449,-9030.512492,-459.657299
852.489693,666.185348,-9770.718434,-766.095498
852.490017,0.000000,-10510.924376,-766.095498
852.490341,222.061783,-10658.965565,-919.314598
852.490665,1110.308913,-9844.739029,-1225.752797
852.490990,1110.308913,-9252.574275,-995.924147
852.491314,0.000000,-9622.677246,-689.485948
852.491638,74.020594,-11029.068536,-612.876398
852.491962,148.041188,-10955.047942,-766.095498
852.492286,1036.288319,-10214.842000,-1455.581446
852.492610,1110.308913,-9992.780217,-1149.143247
852.492934,-370.102971,-10436.903782,-766.095498
852.493259,-1480.411884,-11029.068536,-689.485948
852.493583,-1776.494261,-10881.027347,-1378.971896
852.493907,-1110.308913,-10288.862594,-1608.800546
852.494231,-1036.288319,-9770.718434,-1225.752797
852.494555,-1406.391290,-10362.883188,-612.876398
852.494879,-1554.432478,-10658.965565,-153.219100
852.495203,-1258.350101,-10140.821405,0.000000
852.495528,0.000000,-9474.636058,0.000000
852.495852,1036.288319,-8882.471304,-1072.533697
852.496176,962.267725,-9104.533087,153.219100
852.496500,-370.102971,-9844.739029,153.219100
852.496824,-1332.370696,-9918.759623,0.000000
852.497148,-1036.288319,-9326.594869,-536.266849
852.497472,0.000000,-8438.347739,-612.876398
852.497797,296.082377,-8734.430116,383.047749
852.498121,-222.061783,-9326.594869,612.876398
852.498445,-444.123565,-9030.512492,153.219100
852.498769,0.000000,-8438.347739,76.609550
852.499093,74.020594,-8068.244768,0.000000
852.499417,0.000000,-7994.224174,153.219100
852.499741,-1184.329507,-9030.512492,842.705048
852.500066,-2294.638420,-9622.677246,766.095498
852.500390,-1850.514855,-9326.594869,383.047749
852.500714,-814.226536,-8438.347739,76.609550
852.501038,-222.061783,-8290.306550,689.485948
852.501362,0.000000,-9474.636058,766.095498
852.501686,0.000000,-10658.965565,995.924147
852.502010,370.102971,-10584.944971,766.095498
852.502335,1554.432478,-9696.697840,153.219100
852.502659,2220.617826,-9400.615463,0.000000
852.502983,1628.453072,-9918.759623,0.000000
852.503307,296.082377,-10732.986159,306.438199
852.503631,-222.061783,-11029.068536,0.000000
852.503955,444.123565,-9622.677246,-306.438199
852.504279,1332.370696,-9400.615463,-383.047749
852.504604,1480.411884,-9844.739029,76.609550
852.504928,296.082377,-10807.006753,383.047749
852.505252,-518.144159,-10584.944971,306.438199
852.505576,0.000000,-9992.780217,153.219100
852.505900,962.267725,-9548.656652,0.000000
852.506224,888.247130,-9474.636058,1149.143247
852.506548,222.061783,-10955.047942,1302.362347
852.506873,-740.205942,-11399.171507,919.314598
852.507197,-444.123565,-10510.924376,612.876398
852.507521,666.185348,-9622.677246,0.000000
852.507845,740.205942,-9474.636058,229.828649
852.508169,74.020594,-10140.821405,536.266849
852.508493,-148.041188,-10436.903782,229.828649
852.508818,296.082377,-9918.759623,0.000000
852.509142,592.164754,-8956.491898,-459.657299
852.509466,444.123565,-8956.491898,-153.219100
852.509790,-370.102971,-9696.697840,0.000000
852.510114,-1776.494261,-9770.718434,689.485948
852.510438,-2294.638420,-9770.718434,612.876398
852.510762,-1332.370696,-8956.491898,459.657299
852.511087,-962.267725,-8142.265362,229.828649
852.511411,-962.267725,-8586.388927,1072.533697
852.511735,-1480.411884,-9474.636058,1225.752797
852.512059,-1480.411884,-9548.656652,995.924147
852.512383,-814.226536,-8882.471304,689.485948
852.512707,222.061783,-7994.224174,612.876398
852.513031,-370.102971,-7994.224174,1225.752797
852.513356,-1628.453072,-9474.636058,689.485948
852.513680,-2072.576638,-9992.780217,459.657299
852.514004,-1332.370696,-9474.636058,-153.219100
852.514328,-296.082377,-8882.471304,-689.485948
852.514652,0.000000,-8808.450710,0.000000
852.514976,-296.082377,-9844.739029,383.047749
852.515300,-814.226536,-9918.759623,-153.219100
852.515625,-444.123565,-9474.636058,-536.266849
852.515949,1184.329507,-8734.430116,-306.438199
852.516273,1776.494261,-8586.388927,-153.219100
852.516597,1036.288319,-9474.636058,76.609550
852.516921,148.041188,-10140.821405,0.000000
852.517245,0.000000,-9992.780217,-459.657299
852.517569,1036.288319,-9252.574275,-842.705048
852.517894,1406.391290,-9326.594869,-1072.533697
852.518218,888.247130,-9622.677246,0.000000
852.518542,-296.082377,-10510.924376,0.000000
852.518866,370.102971,-11251.130318,-153.219100
852.519190,1332.370696,-10214.842000,-612.876398
852.519514,1850.514855,-9548.656652,-536.266849
852.519838,1258.350101,-9992.780217,-306.438199
852.520163,-222.061783,-10658.965565,-306.438199
852.520487,-592.164754,-10658.965565,-842.705048
852.520811,0.000000,-10584.944971,-1225.752797
852.521135,740.205942,-9770.718434,-1225.752797
852.521459,296.082377,-9622.677246,-1302.362347
852.521783,-592.164754,-10214.842000,-842.705048
852.522107,-444.123565,-10807.006753,-459.657299
852.522432,1554.432478,-11029.068536,-612.876398
852.522756,2146.597232,-9548.656652,-536.266849
852.523080,1406.391290,-8586.388927,-612.876398
852.523404,222.061783,-9696.697840,-383.047749
852.523728,-740.205942,-10436.903782,-919.314598
852.524052,-444.123565,-10066.800811,-919.314598
852.524376,888.247130,-9030.512492,-919.314598
852.524701,1036.288319,-8142.265362,-766.095498
852.525025,518.144159,-9326.594869,306.438199
852.525349,666.185348,-10214.842000,383.047749
852.525673,296.082377,-9178.553681,-306.438199
852.525997,592.164754,-9252.574275,-229.828649
852.526321,0.000000,-8956.491898,-383.047749
852.526645,-1406.391290,-9252.574275,0.000000
852.526970,-2294.638420,-10066.800811,0.000000
852.527294,-1776.494261,-10288.862594,459.657299
852.527618,-1110.308913,-9548.656652,-383.047749
852.527942,-1258.350101,-8882.471304,-383.047749
852.528266,-1702.473667,-9030.512492,0.000000
852.528590,-2516.700203,-9918.759623,0.000000
852.528914,-1628.453072,-10066.800811,0.000000
852.529239,-222.061783,-9696.697840,-306.438199
852.529563,814.226536,-9030.512492,-306.438199
852.529887,74.020594,-9104.533087,0.000000
852.530211,-888.247130,-9770.718434,76.609550
852.530535,-740.205942,-9770.718434,0.000000
852.530859,-148.041188,-9400.615463,153.219100
852.531183,592.164754,-9326.594869,-306.438199
852.531508,740.205942,-9030.512492,0.000000
852.531832,222.061783,-9622.677246,689.485948
852.532156,222.061783,-10362.883188,229.828649
852.532480,888.247130,-9918.759623,153.219100
852.532804,1184.329507,-8956.491898,-229.828649
852.533128,1554.432478,-9030.512492,536.266849
852.533452,962.267725,-9622.677246,536.266849
852.533777,74.020594,-10658.965565,689.485948
852.534101,74.020594,-11029.068536,459.657299
852.534425,222.061783,-9622.677246,0.000000
852.534749,0.000000,-8586.388927,0.000000
852.535073,-1184.329507,-9400.615463,153.219100
852.535397,-1184.329507,-10140.821405,612.876398
852.535721,-814.226536,-10362.883188,459.657299
852.536046,296.082377,-9474.636058,306.438199
852.536370,1036.288319,-9030.512492,306.438199
852.536694,370.102971,-9548.656652,153.219100
852.537018,-740.205942,-9844.739029,306.438199
852.537342,-888.247130,-9696.697840,76.609550
852.537666,444.123565,-9104.533087,0.000000
852.537990,1110.308913,-8512.368333,0.000000
852.538315,1628.453072,-9104.533087,689.485948
852.538639,1110.308913,-9696.697840,919.314598
852.538963,1332.370696,-9622.677246,306.438199
852.539287,1998.556043,-9326.594869,459.657299
852.539611,1850.514855,-8586.388927,919.314598
852.539935,1480.411884,-8438.347739,766.095498
852.540260,296.082377,-9178.553681,1072.533697
852.540584,-740.205942,-9696.697840,612.876398
852.540908,-1110.308913,-9474.636058,0.000000
852.541232,-962.267725,-8808.450710,-229.828649
852.541556,-1036.288319,-8882.471304,0.000000
852.541880,-1924.535449,-8660.409521,-383.047749
852.542204,-2368.659014,-9400.615463,0.000000
852.542529,-1628.453072,-9918.759623,-459.657299
852.542853,-296.082377,-10214.842000,-536.266849
852.543177,74.020594,-9918.759623,-459.657299
852.543501,-740.205942,-10140.821405,-153.219100
852.543825,-2072.576638,-10881.027347,-689.485948
852.544149,-1850.514855,-10732.986159,-995.924147
852.544473,0.000000,-10510.924376,-689.485948
852.544798,814.226536,-9918.759623,0.000000
852.545122,666.185348,-10510.924376,-612.876398
852.545446,-740.205942,-11325.150913,-153.219100
852.545770,-962.267725,-10807.006753,0.000000
852.546094,0.000000,-9992.780217,-612.876398
852.546418,296.082377,-9474.636058,-612.876398
852.546742,-296.082377,-9252.574275,306.438199
852.547067,-1332.370696,-9696.697840,76.609550
852.547391,-1776.494261,-10066.800811,153.219100
852.547715,-1480.411884,-9030.512492,-153.219100
852.548039,0.000000,-8512.368333,-383.047749
852.548363,74.020594,-9030.512492,76.609550
852.548687,-148.041188,-9992.780217,229.828649
852.549011,-296.082377,-10066.800811,842.705048
852.549336,740.205942,-9770.718434,459.657299
852.549660,2146.597232,-9474.636058,153.219100
852.549984,2516.700203,-9474.636058,536.266849
852.550308,1776.494261,-10066.800811,842.705048
852.550632,592.164754,-10732.986159,766.095498
852.550956,444.123565,-10362.883188,229.828649
852.551280,1406.391290,-9400.615463,153.219100
852.551605,2294.638420,-9400.615463,536.266849
852.551929,1332.370696,-9400.615463,459.657299
852.552253,74.020594,-9918.759623,0.000000
852.552577,0.000000,-9696.697840,842.705048
852.552901,370.102971,-9030.512492,153.219100
852.553225,0.000000,-8290.306550,0.000000
852.553549,-888.247130,-8586.388927,0.000000
852.553874,-1924.535449,-8882.471304,-153.219100
852.554198,-1184.329507,-9474.636058,76.609550
852.554522,-148.041188,-9252.574275,0.000000
852.554846,814.226536,-8512.368333,459.657299
852.555170,518.144159,-8956.491898,383.047749
852.555494,-148.041188,-9622.677246,306.438199
852.555818,-370.102971,-9918.759623,0.000000
852.556143,444.123565,-9474.636058,-306.438199
852.556467,1554.432478,-9474.636058,-153.219100
852.556791,888.247130,-9178.553681,-766.095498
852.557115,-296.082377,-9918.759623,-383.047749
852.557439,-888.247130,-10362.883188,-612.876398
852.557763,-888.247130,-10140.821405,-1532.190996
852.558087,0.000000,-9400.615463,-1532.190996
852.558412,74.020594,-9474.636058,-1378.971896
852.558736,74.020594,-10140.821405,-766.095498
852.559060,0.000000,-10214.842000,-536.266849
852.559384,370.102971,-10066.800811,-229.828649
852.559708,1258.350101,-9770.718434,-766.095498
852.560032,444.123565,-9548.656652,-689.485948
852.560356,-592.164754,-10288.862594,-153.219100
852.560681,-1110.308913,-10881.027347,-306.438199
852.561005,-592.164754,-10807.006753,-153.219100
852.561329,222.061783,-10066.800811,-689.485948
852.561653,592.164754,-9548.656652,-229.828649
852.561977,-592.164754,-10066.800811,-153.219100
852.562301,-962.267725,-10658.965565,-229.828649
852.562625,-888.247130,-10066.800811,-766.095498
852.562950,0.000000,-9548.656652,-919.314598
852.563274,666.185348,-9622.677246,-995.924147
852.563598,666.185348,-9992.780217,-919.314598
852.563922,-518.144159,-10510.924376,-229.828649
852.564246,-1554.432478,-10510.924376,-995.924147
852.564570,-444.123565,-9918.759623,-995.924147
852.564894,518.144159,-9326.594869,-766.095498
852.565219,888.247130,-9622.677246,0.000000
852.565543,370.102971,-10140.821405,689.485948
852.565867,0.000000,-10510.924376,919.314598
852.566191,74.020594,-9326.594869,612.876398
852.566515,592.164754,-8808.450710,-919.314598
852.566839,148.041188,-8290.306550,306.438199
852.567163,-962.267725,-9178.553681,153.219100
852.567488,-1702.473667,-9548.656652,-383.047749
852.567812,-1702.473667,-9178.553681,-383.047749
852.568136,-1036.288319,-9030.512492,-689.485948
852.568460,-666.185348,-8660.409521,0.000000
852.568784,-370.102971,-9252.574275,536.266849
852.569108,-592.164754,-9548.656652,689.485948
852.569432,-148.041188,-9252.574275,76.609550
852.569757,592.164754,-9104.533087,0.000000
852.570081,1406.391290,-8956.491898,536.266849
852.570405,888.247130,-9844.739029,383.047749
852.570729,-740.205942,-10436.903782,536.266849
852.571053,-1184.329507,-9918.759623,229.828649
852.571377,-444.123565,-9030.512492,153.219100
852.571702,888.247130,-8882.471304,-612.876398
852.572026,444.123565,-9770.718434,-383.047749
852.572350,0.000000,-10362.883188,229.828649
852.572674,444.123565,-10140.821405,612.876398
852.572998,1036.288319,-9474.636058,229.828649
852.573322,1406.391290,-8660.409521,459.657299
852.573646,888.247130,-9252.574275,306.438199
852.573971,0.000000,-10362.883188,459.657299
852.574295,-740.205942,-10732.986159,383.047749
852.574619,-518.144159,-10140.821405,306.438199
852.574943,444.123565,-9622.677246,0.000000
852.575267,518.144159,-9918.759623,306.438199
852.575591,-222.061783,-10955.047942,0.000000
852.575915,-814.226536,-11251.130318,536.266849
852.576240,0.000000,-11325.150913,306.438199
852.576564,518.144159,-9844.739029,153.219100
852.576888,666.185348,-9400.615463,536.266849
852.577216,296.082377,-10140.821405,919.314598
852.577540,-1036.288319,-11177.109724,306.438199
852.577864,-1258.350101,-10510.924376,0.000000
852.578188,-444.123565,-9326.594869,-153.219100
852.578512,0.000000,-8808.450710,-153.219100
852.578836,-370.102971,-9474.636058,459.657299
852.579161,-962.267725,-9992.780217,536.266849
852.579485,-518.144159,-10362.883188,383.047749
852.579809,-296.082377,-8734.430116,-612.876398
852.580133,0.000000,-8068.244768,76.609550
852.580457,-296.082377,-9030.512492,689.485948
852.580781,-740.205942,-9992.780217,536.266849
852.581106,-888.247130,-9918.759623,842.705048
852.581430,-666.185348,-9252.574275,306.438199
852.581754,296.082377,-8586.388927,229.828649
852.582078,370.102971,-8734.430116,76.609550
852.582402,-740.205942,-9104.533087,766.095498
852.582727,-962.267725,-9400.615463,0.000000
852.583051,-592.164754,-9400.615463,-383.047749
852.583375,444.123565,-8882.471304,-306.438199
852.583699,740.205942,-8734.430116,229.828649
852.584023,0.000000,-8956.491898,229.828649
852.584347,-1332.370696,-9548.656652,76.609550
852.584672,-1406.391290,-9474.636058,0.000000
852.584996,74.020594,-9030.512492,-995.924147
852.585320,666.185348,-9030.512492,-383.047749
852.585644,814.226536,-9696.697840,0.000000
852.585968,592.164754,-9918.759623,0.000000
852.586292,1036.288319,-9696.697840,0.000000
852.586617,1850.514855,-9252.574275,-766.095498
852.586941,1850.514855,-9400.615463,-1225.752797
852.587265,888.247130,-10140.821405,-842.705048
852.587589,-444.123565,-11251.130318,-689.485948
852.587913,-296.082377,-11029.068536,-1225.752797
852.588238,666.185348,-10066.800811,-1532.190996
852.588562,1184.329507,-9992.780217,-1072.533697
852.588886,740.205942,-10584.944971,-1149.143247
852.589210,0.000000,-11473.192101,-459.657299
852.589534,-740.205942,-10436.903782,-612.876398
852.589858,0.000000,-10066.800811,-689.485948
852.590183,592.164754,-10066.800811,-919.314598
852.590507,370.102971,-10362.883188,-612.876398
852.590831,-592.164754,-10807.006753,-306.438199
852.591155,-888.247130,-10955.047942,0.000000
852.591479,0.000000,-10362.883188,-536.266849
852.591803,1036.288319,-9918.759623,-766.095498
852.592128,1110.308913,-9400.615463,-153.219100
852.592452,296.082377,-9770.718434,-153.219100
852.592776,-222.061783,-10066.800811,0.000000
852.593100,296.082377,-9918.759623,-459.657299
852.593424,1184.329507,-9252.574275,-612.876398
852.593749,740.205942,-8586.388927,-689.485948
852.594073,-444.123565,-9104.533087,306.438199
852.594397,-1258.350101,-9622.677246,0.000000
852.594721,-962.267725,-9992.780217,0.000000
852.595045,-592.164754,-8808.450710,76.609550
852.595369,-740.205942,-8364.327145,76.609550
852.595694,-1406.391290,-9178.553681,383.047749
852.596018,-1998.556043,-9400.615463,306.438199
852.596342,-1480.411884,-8882.471304,689.485948
852.596666,0.000000,-8808.450710,383.047749
852.596990,0.000000,-8438.347739,459.657299
852.597315,-444.123565,-9400.615463,459.657299
852.597639,-1406.391290,-10214.842000,229.828649
852.597963,-1702.473667,-9696.697840,-383.047749
852.598287,-740.205942,-8882.471304,-612.876398
852.598611,74.020594,-9178.553681,-153.219100
852.598935,444.123565,-10066.800811,153.219100
852.599260,-444.123565,-10214.842000,536.266849
852.599584,0.000000,-9770.718434,229.828649
852.599908,666.185348,-9474.636058,0.000000
852.600232,1480.411884,-9252.574275,0.000000
852.600556,1406.391290,-9474.636058,229.828649
852.600880,370.102971,-9844.739029,536.266849
852.601205,-296.082377,-10066.800811,459.657299
852.601529,148.041188,-10362.883188,153.219100
852.601853,888.247130,-9474.636058,-459.657299
852.602177,1110.308913,-9104.533087,-306.438199
852.602501,222.061783,-9474.636058,0.000000
852.602826,-518.144159,-10214.842000,-383.047749
852.603150,-296.082377,-9918.759623,-995.924147
852.603474,444.123565,-9252.574275,-919.314598
852.603798,1110.308913,-9548.656652,-536.266849
852.604122,814.226536,-10214.842000,-995.924147
852.604446,-592.164754,-10807.006753,-1072.533697
852.604771,-296.082377,-11103.089130,-689.485948
852.605095,1332.370696,-10362.883188,-612.876398
852.605419,2368.659014,-10140.821405,-153.219100
852.605743,1776.494261,-10510.924376,459.657299
852.606067,888.247130,-10584.944971,229.828649
852.606391,444.123565,-10436.903782,0.000000
852.606716,1702.473667,-10066.800811,153.219100
852.607040,1850.514855,-9770.718434,-153.219100
852.607364,814.226536,-9622.677246,76.609550
852.607688,-962.267725,-9992.780217,0.000000
852.608012,-1998.556043,-10066.800811,-842.705048
852.608337,-1776.494261,-9252.574275,-689.485948
852.608661,-962.267725,-8660.409521,-1225.752797
852.608985,-1110.308913,-9030.512492,-459.657299
852.609309,-962.267725,-9622.677246,0.000000
852.609633,-1184.329507,-9844.739029,153.219100
852.609957,0.000000,-9844.739029,229.828649
852.610282,962.267725,-9400.615463,-459.657299
852.610606,296.082377,-8882.471304,383.047749
852.610930,-1184.329507,-9918.759623,689.485948
852.611254,-1850.514855,-10362.883188,689.485948
852.611578,-2220.617826,-10140.821405,0.000000
852.611902,-814.226536,-9474.636058,-153.219100
852.612227,-666.185348,-9400.615463,229.828649
852.612551,-1406.391290,-9992.780217,536.266849
852.612875,-1924.535449,-9992.780217,995.924147
852.613199,-1110.308913,-9622.677246,1072.533697
852.613523,-370.102971,-8734.430116,306.438199
852.613848,0.000000,-8216.285956,766.095498
852.614172,-444.123565,-8734.430116,919.314598
852.614496,-1480.411884,-9400.615463,1149.143247
852.614820,-1406.391290,-9622.677246,1608.800546
852.615144,-74.020594,-9474.636058,995.924147
852.615468,740.205942,-8808.450710,995.924147
852.615793,518.144159,-9400.615463,1608.800546
852.616117,296.082377,-10436.903782,1762.019645
852.616441,74.020594,-10362.883188,1685.410096
852.616765,1628.453072,-10214.842000,1838.629195
852.617089,2072.576638,-9770.718434,1685.410096
852.617413,1628.453072,-9844.739029,2451.505594
852.617738,444.123565,-10288.862594,1991.848295
852.618062,-888.247130,-10362.883188,1149.143247
852.618386,-1036.288319,-9770.718434,536.266849
852.618710,-518.144159,-9326.594869,76.609550
852.619034,0.000000,-8586.388927,689.485948
852.619359,-962.267725,-8438.347739,612.876398
852.619683,-1332.370696,-9178.553681,536.266849
852.620007,-518.144159,-9326.594869,153.219100
852.620331,0.000000,-8512.368333,0.000000
852.620655,518.144159,-7994.224174,0.000000
852.620979,222.061783,-8660.409521,306.438199
852.621304,0.000000,-9548.656652,689.485948
852.621628,370.102971,-10362.883188,0.000000
852.621952,814.226536,-9104.533087,383.047749
852.622276,1628.453072,-8808.450710,-383.047749
852.622600,592.164754,-9622.677246,153.219100
852.622924,0.000000,-10362.883188,0.000000
852.623249,148.041188,-10140.821405,-229.828649
852.623573,888.247130,-9474.636058,-689.485948
852.623897,1110.308913,-8660.409521,-1378.971896
852.624221,740.205942,-9178.553681,-995.924147
852.624545,-370.102971,-9918.759623,-995.924147
852.624870,-592.164754,-10510.924376,-1685.410096
852.625194,-666.185348,-9770.718434,-2221.676944
852.625518,0.000000,-9178.553681,-2374.896044
852.625842,0.000000,-9252.574275,-1838.629195
852.626166,-444.123565,-10288.862594,-1838.629195
852.626490,148.041188,-10732.986159,-1225.752797
852.626815,1110.308913,-10584.944971,-1532.190996
852.627139,2072.576638,-9992.780217,-1532.190996
852.627463,1110.308913,-10066.800811,-1378.971896
852.627787,-148.041188,-10288.862594,-1532.190996
852.628111,-518.144159,-11251.130318,-1915.238745
852.628436,-148.041188,-11547.212695,-2068.457845
852.628760,74.020594,-9770.718434,-2145.067394
852.629084,74.020594,-9474.636058,-2145.067394
852.629408,0.000000,-10658.965565,-1685.410096
852.629732,-444.123565,-11325.150913,-2221.676944
852.630056,-222.061783,-11103.089130,-2451.505594
852.630381,0.000000,-10362.883188,-2757.943793
852.630705,148.041188,-10214.842000,-2298.286494
852.631029,74.020594,-11325.150913,-1685.410096
852.631353,-1036.288319,-11695.253884,-1532.190996
852.631677,-1554.432478,-11177.109724,-1838.629195
852.632001,-1258.350101,-10510.924376,-2528.115143
852.632326,-518.144159,-9770.718434,-1378.971896
852.632650,0.000000,-9992.780217,-459.657299
852.632974,-148.041188,-10362.883188,0.000000
852.633298,0.000000,-10066.800811,-229.828649
852.633622,444.123565,-9326.594869,-842.705048
852.633947,1332.370696,-8512.368333,-153.219100
852.634271,1036.288319,-8586.388927,306.438199
852.634595,-222.061783,-9400.615463,383.047749
852.634919,-1110.308913,-9030.512492,0.000000
852.635243,-444.123565,-8068.244768,-306.438199
852.635567,740.205942,-7920.203579,76.609550
852.635892,1110.308913,-8216.285956,459.657299
852.636216,296.082377,-8956.491898,306.438199
852.636540,222.061783,-8512.368333,1149.143247
852.636864,1258.350101,-8512.368333,689.485948
852.637188,1924.535449,-8290.306550,1455.581446
852.637512,1998.556043,-8364.327145,2068.457845
852.637837,518.144159,-8956.491898,1608.800546
852.638161,-1110.308913,-9474.636058,1838.629195
852.638485,-1036.288319,-9474.636058,1378.971896
852.638809,74.020594,-9400.615463,1455.581446
852.639133,740.205942,-9030.512492,1685.410096
852.639458,592.164754,-9696.697840,1838.629195
852.639782,-222.061783,-10362.883188,1685.410096
852.640106,-518.144159,-9992.780217,1302.362347
852.640430,0.000000,-9918.759623,1532.190996
852.640754,592.164754,-9844.739029,1455.581446
852.641078,0.000000,-9918.759623,689.485948
852.641403,-1480.411884,-10066.800811,1302.362347
852.641727,-1406.391290,-10436.903782,919.314598
852.642051,-814.226536,-10288.862594,689.485948
852.642375,-296.082377,-9770.718434,766.095498
852.642699,-148.041188,-9992.780217,995.924147
852.643023,-666.185348,-10510.924376,919.314598
852.643348,-814.226536,-10436.903782,1685.410096
852.643672,-222.061783,-9474.636058,766.095498
852.643996,296.082377,-9696.697840,383.047749
852.644320,-666.185348,-9918.759623,459.657299
852.644644,-1258.350101,-10732.986159,612.876398
852.644969,-1850.514855,-10955.047942,689.485948
852.645293,-1554.432478,-10214.842000,76.609550
852.645617,-814.226536,-9400.615463,-153.219100
852.645941,-518.144159,-9474.636058,536.266849
852.646265,-962.267725,-10436.903782,536.266849
852.646589,-1480.411884,-10510.924376,1072.533697
852.646914,-592.164754,-10214.842000,612.876398
852.647238,74.020594,-8734.430116,229.828649
852.647562,222.061783,-8808.450710,536.266849
852.647886,-222.061783,-9918.759623,689.485948
852.648210,-1258.350101,-10214.842000,536.266849
852.648534,-1480.411884,-9178.553681,306.438199
852.648859,-666.185348,-8216.285956,306.438199
852.649183,74.020594,-7994.224174,-229.828649
852.649507,148.041188,-8734.430116,306.438199
852.649831,0.000000,-9252.574275,612.876398
852.650155,222.061783,-9474.636058,689.485948
852.650480,1332.370696,-8882.471304,0.000000
852.650804,1850.514855,-8216.285956,0.000000
852.651128,1258.350101,-7772.162391,0.000000
852.651452,74.020594,-8586.388927,-689.485948
852.651776,-296.082377,-9474.636058,-689.485948
852.652100,0.000000,-9178.553681,-1225.752797
852.652425,592.164754,-8364.327145,-1838.629195
852.652749,814.226536,-8586.388927,-1225.752797
852.653073,518.144159,-9030.512492,-1149.143247
852.653397,148.041188,-9918.759623,-1225.752797
852.653721,592.164754,-10584.944971,-1149.143247
852.654045,1036.288319,-9770.718434,-1302.362347
852.654370,740.205942,-9548.656652,-995.924147
852.654694,222.061783,-10288.862594,-1072.533697
852.655018,-296.082377,-11177.109724,-1225.752797
852.655342,148.041188,-11177.109724,-2068.457845
852.655666,888.247130,-10288.862594,-1685.410096
852.655991,1184.329507,-9696.697840,-1838.629195
852.656315,518.144159,-10288.862594,-1915.238745
852.656639,444.123565,-11251.130318,-1915.238745
852.656963,592.164754,-11251.130318,-2451.505594
852.657287,1258.350101,-10732.986159,-2528.115143
852.657611,1628.453072,-10807.006753,-1991.848295
852.657936,1406.391290,-11251.130318,-1532.190996
852.658260,370.102971,-11473.192101,-1378.971896
852.658584,222.061783,-11621.233289,-1532.190996
852.658908,592.164754,-10881.027347,-2068.457845
852.659232,1036.288319,-10436.903782,-1378.971896
852.659557,1036.288319,-11029.068536,-306.438199
852.659881,518.144159,-11029.068536,-383.047749
852.660205,296.082377,-10510.924376,0.000000
852.660529,592.164754,-9696.697840,-153.219100
852.660853,666.185348,-9400.615463,-919.314598
852.661177,-148.041188,-9622.677246,-229.828649
852.661502,-1184.329507,-10066.800811,76.609550
852.661826,-2072.576638,-10066.800811,-383.047749
852.662150,-1998.556043,-9474.636058,-842.705048
852.662474,-1702.473667,-8438.347739,-766.095498
852.662798,-740.205942,-8882.471304,0.000000
852.663122,-1776.494261,-9548.656652,612.876398
852.663447,-1184.329507,-9400.615463,459.657299
852.663771,-518.144159,-8512.368333,536.266849
852.664095,148.041188,-8438.347739,1302.362347
852.664419,1184.329507,-8512.368333,1378.971896
852.664743,296.082377,-9104.533087,1762.019645
852.665068,-1036.288319,-9844.739029,1532.190996
852.665392,-1702.473667,-9178.553681,459.657299
852.665716,-888.247130,-8364.327145,842.705048
852.666040,0.000000,-7772.162391,1762.019645
852.666364,0.000000,-8438.347739,1149.143247
852.666688,-1184.329507,-9030.512492,1302.362347
852.667013,-1554.432478,-8882.471304,1072.533697
852.667337,-444.123565,-8586.388927,842.705048
852.667661,888.247130,-8438.347739,842.705048
852.667985,666.185348,-8512.368333,2451.505594
852.668309,-814.226536,-9474.636058,1378.971896
852.668633,-1480.411884,-9770.718434,1225.752797
852.668958,-888.247130,-9622.677246,1149.143247
852.669282,74.020594,-9030.512492,995.924147
852.669606,444.123565,-8808.450710,1378.971896
852.669930,-296.082377,-9918.759623,1378.971896
852.670254,-444.123565,-9844.739029,995.924147
852.670579,370.102971,-9622.677246,0.000000
852.670903,1628.453072,-9622.677246,919.314598
852.671227,1998.556043,-10214.842000,459.657299
852.671551,1036.288319,-10732.986159,153.219100
852.671875,-148.041188,-10584.944971,-153.219100
852.672199,-370.102971,-10288.862594,-842.705048
852.672524,518.144159,-10066.800811,-1225.752797
852.672848,740.205942,-10436.903782,-612.876398
852.673172,1110.308913,-11917.315666,459.657299
852.673496,740.205942,-11399.171507,383.047749
852.673820,370.102971,-10955.047942,306.438199
852.674144,814.226536,-10732.986159,229.828649
852.674469,1110.308913,-10510.924376,153.219100
852.674793,148.041188,-10955.047942,306.438199
852.675117,-888.247130,-11251.130318,612.876398
852.675441,-1702.473667,-10584.944971,-153.219100
852.675765,-814.226536,-9252.574275,-459.657299
852.676090,296.082377,-8882.471304,-612.876398
852.676414,74.020594,-9844.739029,-536.266849
852.676738,-222.061783,-10436.903782,-459.657299
852.677062,222.061783,-10066.800811,-766.095498
852.677386,1184.329507,-9178.553681,-1302.362347
852.677710,1406.391290,-8882.471304,-612.876398
852.678034,1332.370696,-8808.450710,-383.047749
852.678359,518.144159,-9622.677246,0.000000
852.678683,-222.061783,-9770.718434,0.000000
852.679007,-148.041188,-9252.574275,0.000000
852.679331,370.102971,-8586.388927,229.828649
852.679655,-222.061783,-8142.265362,919.314598
852.679979,-592.164754,-8808.450710,919.314598
852.680303,-2072.576638,-9474.636058,-229.828649
852.680627,-2220.617826,-9474.636058,0.000000
852.680951,-1924.535449,-7994.224174,-229.828649
852.681275,-1258.350101,-7476.080014,-612.876398
852.681600,-1998.556043,-8438.347739,-459.657299
852.681924,-2960.823768,-9918.759623,-459.657299
852.682248,-2368.659014,-9770.718434,-995.924147
852.682572,-1480.411884,-9030.512492,-1072.533697
852.682896,-222.061783,-8142.265362,-612.876398
852.683220,222.061783,-9696.697840,-383.047749
852.683544,148.041188,-10436.903782,-153.219100
852.683868,370.102971,-10658.965565,0.000000
852.684192,1258.350101,-10510.924376,0.000000
852.684516,2072.576638,-9918.759623,0.000000
852.684841,1406.391290,-10214.842000,306.438199
852.685165,148.041188,-10362.883188,536.266849
852.685489,-222.061783,-10362.883188,-766.095498
852.685813,-370.102971,-10288.862594,-689.485948
852.686137,444.123565,-9918.759623,-842.705048
852.686461,814.226536,-9770.718434,-536.266849
852.686785,370.102971,-9770.718434,-306.438199
852.687109,-148.041188,-9844.739029,-229.828649
852.687433,444.123565,-10140.821405,-612.876398
852.687757,1184.329507,-9252.574275,-995.924147
852.688082,888.247130,-9326.594869,-766.095498
852.688406,0.000000,-10214.842000,-766.095498
852.688730,0.000000,-10732.986159,-766.095498
852.689054,370.102971,-10732.986159,-383.047749
852.689378,2146.597232,-10436.903782,0.000000
852.689702,1998.556043,-10436.903782,383.047749
852.690026,518.144159,-10510.924376,0.000000
852.690350,0.000000,-10732.986159,153.219100
852.690674,370.102971,-10362.883188,0.000000
852.690998,1332.370696,-9992.780217,76.609550
852.691323,1776.494261,-9622.677246,-153.219100
852.691647,740.205942,-9548.656652,0.000000
852.691971,-370.102971,-9622.677246,153.219100
852.692295,-592.164754,-9400.615463,-383.047749
852.692619,-592.164754,-8734.430116,-1225.752797
852.692943,0.000000,-8142.265362,-995.924147
852.693267,74.020594,-8660.409521,-383.047749
852.693591,-592.164754,-9030.512492,-153.219100
852.693915,-370.102971,-9104.533087,0.000000
852.694239,296.082377,-8808.450710,0.000000
852.694564,518.144159,-7772.162391,0.000000
852.694888,518.144159,-8808.450710,995.924147
852.695212,-962.267725,-9474.636058,1225.752797
852.695536,-2072.576638,-9696.697840,612.876398
852.695860,-1628.453072,-9474.636058,0.000000
852.696184,-814.226536,-8808.450710,0.000000
852.696508,-666.185348,-9104.533087,689.485948
852.696832,-1406.391290,-9474.636058,-153.219100
852.697156,-1924.535449,-10140.821405,0.000000
852.697480,-1628.453072,-9474.636058,0.000000
852.697805,0.000000,-9548.656652,-919.314598
852.698129,222.061783,-9918.759623,-459.657299
852.698453,-888.247130,-10214.842000,-536.266849
852.698777,-1702.473667,-10584.944971,-612.876398
852.699101,-1480.411884,-10362.883188,-1225.752797
852.699425,0.000000,-9918.759623,-1149.143247
852.699749,888.247130,-9770.718434,-153.219100
852.700073,1332.370696,-10658.965565,842.705048
852.700397,296.082377,-11103.089130,536.266849
852.700721,0.000000,-10955.047942,536.266849
852.701046,444.123565,-10362.883188,689.485948
852.701370,1332.370696,-9770.718434,919.314598
852.701694,1406.391290,-10362.883188,1072.533697
852.702018,592.164754,-10436.903782,612.876398
852.702342,-888.247130,-9622.677246,76.609550
852.702666,0.000000,-9992.780217,-153.219100
852.702990,518.144159,-9696.697840,-306.438199
852.703314,740.205942,-9696.697840,153.219100
852.703638,-148.041188,-9548.656652,76.609550
852.703962,-518.144159,-9400.615463,-306.438199
852.704287,592.164754,-9474.636058,0.000000
852.704611,1998.556043,-9400.615463,229.828649
852.704935,2294.638420,-9178.553681,1302.362347
852.705259,888.247130,-9844.739029,1072.533697
852.705583,-444.123565,-9622.677246,842.705048
852.705907,-444.123565,-8956.491898,459.657299
852.706231,444.123565,-8290.306550,612.876398
852.706555,1480.411884,-8808.450710,536.266849
852.706879,666.185348,-9252.574275,459.657299
852.707203,-296.082377,-9030.512492,919.314598
852.707528,0.000000,-8808.450710,612.876398
852.707852,740.205942,-8216.285956,-153.219100
852.708176,740.205942,-7920.203579,-306.438199
852.708500,-888.247130,-8512.368333,-306.438199
852.708824,-1628.453072,-9548.656652,229.828649
852.709148,-1480.411884,-10362.883188,-153.219100
852.709472,-666.185348,-9178.553681,-612.876398
852.709796,-148.041188,-8808.450710,-383.047749
852.710120,-1184.329507,-9474.636058,0.000000
852.710444,-1480.411884,-10732.986159,0.000000
852.710769,-1480.411884,-11029.068536,153.219100
852.711093,-370.102971,-10362.883188,229.828649
852.711417,814.226536,-9770.718434,383.047749
852.711741,518.144159,-9992.780217,0.000000
852.712065,-888.247130,-10732.986159,0.000000
852.712389,-1702.473667,-11399.171507,-383.047749
852.712713,-1776.494261,-10807.006753,-1225.752797
852.713037,-1406.391290,-9622.677246,-1608.800546
852.713361,-962.267725,-9770.718434,-1455.581446
852.713685,-1036.288319,-10362.883188,-995.924147
852.714010,-814.226536,-11029.068536,-536.266849
852.714334,0.000000,-10732.986159,-842.705048
852.714658,666.185348,-9400.615463,-842.705048
852.714982,518.144159,-9178.553681,-919.314598
852.715306,-296.082377,-10214.842000,0.000000
852.715630,-1110.308913,-10881.027347,229.828649
852.715954,-1110.308913,-10732.986159,0.000000
852.716278,-296.082377,-9844.739029,229.828649
852.716602,296.082377,-9696.697840,306.438199
852.716926,74.020594,-10066.800811,766.095498
852.717251,0.000000,-10362.883188,1302.362347
852.717575,148.041188,-10584.944971,766.095498
852.717899,888.247130,-9992.780217,0.000000
852.718223,1184.329507,-9104.533087,0.000000
852.718547,740.205942,-9474.636058,459.657299
852.718871,0.000000,-9918.759623,306.438199
852.719195,-592.164754,-9400.615463,0.000000
852.719519,-518.144159,-8660.409521,-306.438199
852.719843,518.144159,-8142.265362,0.000000
852.720167,962.267725,-8512.368333,-229.828649
852.720492,518.144159,-8438.347739,766.095498
852.720816,444.123565,-8438.347739,919.314598
852.721140,1406.391290,-8216.285956,689.485948
852.721464,2072.576638,-7846.182985,995.924147
852.721788,1480.411884,-7476.080014,919.314598
852.722112,888.247130,-8660.409521,2068.457845
852.722436,0.000000,-8956.491898,1225.752797
852.722760,0.000000,-8956.491898,459.657299
852.723084,740.205942,-8438.347739,306.438199
852.723409,888.247130,-8364.327145,306.438199
852.723733,0.000000,-8956.491898,-306.438199
852.724057,-592.164754,-9696.697840,-612.876398
852.724381,148.041188,-9548.656652,-612.876398
852.724705,1406.391290,-9992.780217,-919.314598
852.725029,1480.411884,-9844.739029,-842.705048
852.725353,370.102971,-9844.739029,-919.314598
852.725677,-592.164754,-10584.944971,-1149.143247
852.726001,-888.247130,-11177.109724,-1378.971896
852.726325,0.000000,-11029.068536,-1302.362347
852.726650,74.020594,-10584.944971,-1225.752797
852.726974,148.041188,-10881.027347,-536.266849
852.727298,-370.102971,-11695.253884,-383.047749
852.727622,-148.041188,-11695.253884,-306.438199
852.727946,296.082377,-10955.047942,-689.485948
852.728270,814.226536,-10066.800811,-842.705048
852.728594,-74.020594,-9918.759623,-383.047749
852.728918,-962.267725,-10955.047942,-459.657299
852.729242,-1702.473667,-10584.944971,-842.705048
852.729566,-1110.308913,-10140.821405,-1225.752797
852.729891,-222.061783,-9252.574275,-1685.410096
852.730215,-370.102971,-9474.636058,-1302.362347
852.730539,-592.164754,-10658.965565,-612.876398
852.730863,0.000000,-10732.986159,0.000000
852.731187,592.164754,-9696.697840,0.000000
852.731511,962.267725,-9326.594869,-306.438199
852.731835,444.123565,-9326.594869,-689.485948
852.732159,-1110.308913,-10140.821405,0.000000
852.732483,-1924.535449,-10066.800811,0.000000
852.732807,-1480.411884,-9474.636058,76.609550
852.733132,-592.164754,-8290.306550,76.609550
852.733456,370.102971,-8142.265362,383.047749
852.733780,518.144159,-8882.471304,229.828649
852.734104,0.000000,-9178.553681,306.438199
852.734428,0.000000,-8586.388927,306.438199
852.734752,296.082377,-8216.285956,0.000000
852.735076,962.267725,-8142.265362,0.000000
852.735400,74.020594,-8586.388927,229.828649
852.735724,-1332.370696,-9104.533087,383.047749
852.736048,-1776.494261,-8956.491898,-306.438199
852.736373,-814.226536,-9104.533087,-459.657299
852.736697,222.061783,-8216.285956,306.438199
852.737021,222.061783,-9030.512492,1072.533697
852.737345,-296.082377,-9696.697840,1149.143247
852.737669,-666.185348,-9844.739029,919.314598
852.737993,518.144159,-9400.615463,153.219100
852.738317,1998.556043,-9178.553681,842.705048
852.738641,1480.411884,-9252.574275,536.266849
852.738965,148.041188,-9918.759623,995.924147
852.739289,-888.247130,-9992.780217,383.047749
852.739614,-592.164754,-10066.800811,-536.266849
852.739938,148.041188,-9622.677246,-689.485948
852.740262,444.123565,-9770.718434,-689.485948
852.740586,0.000000,-10140.821405,-306.438199
852.740910,74.020594,-10288.862594,-229.828649
852.741234,814.226536,-10436.903782,-459.657299
852.741558,1628.453072,-9770.718434,-306.438199
852.741882,1924.535449,-9696.697840,612.876398
852.742206,1258.350101,-9844.739029,612.876398
852.742530,0.000000,-10732.986159,306.438199
852.742855,-444.123565,-10807.006753,995.924147
852.743179,740.205942,-10066.800811,536.266849
852.743503,1110.308913,-10066.800811,153.219100
852.743827,0.000000,-10288.862594,1302.362347
852.744151,-962.267725,-11177.109724,306.438199
852.744475,-1332.370696,-10658.965565,-229.828649
852.744799,-444.123565,-10140.821405,-1072.533697
852.745123,-148.041188,-9252.574275,-919.314598
852.745447,-740.205942,-9400.615463,-689.485948
852.745771,-2442.679609,-10066.800811,-1685.410096
852.746096,-2516.700203,-10658.965565,-612.876398
852.746420,-1332.370696,-9992.780217,-1302.362347
852.746744,518.144159,-9030.512492,-612.876398
852.747068,814.226536,-9400.615463,76.609550
852.747392,0.000000,-10066.800811,612.876398
852.747716,-296.082377,-10362.883188,766.095498
852.748040,0.000000,-10214.842000,1072.533697
852.748364,444.123565,-9400.615463,842.705048
852.748688,0.000000,-8882.471304,766.095498
852.749012,-888.247130,-9474.636058,536.266849
852.749337,-1702.473667,-9844.739029,229.828649
852.749661,-1332.370696,-9548.656652,-153.219100
852.749985,-370.102971,-8734.430116,-536.266849
852.750309,0.000000,-7846.182985,-536.266849
852.750633,-1110.308913,-8808.450710,0.000000
852.750957,-1554.432478,-9474.636058,0.000000
852.751281,-1184.329507,-9252.574275,-306.438199
852.751605,-148.041188,-9030.512492,-459.657299
852.751929,296.082377,-8660.409521,-306.438199
852.752253,0.000000,-9622.677246,76.609550
852.752578,-888.247130,-10066.800811,612.876398
852.752902,-1184.329507,-9770.718434,306.438199
852.753226,444.123565,-9622.677246,536.266849
852.753550,1554.432478,-9474.636058,766.095498
852.753874,1628.453072,-9844.739029,766.095498
852.754198,962.267725,-9622.677246,536.266849
852.754522,444.123565,-9252.574275,229.828649
852.754846,1406.391290,-9548.656652,229.828649
852.755170,2590.720797,-9918.759623,689.485948
852.755494,1702.473667,-9622.677246,306.438199
852.755819,74.020594,-9622.677246,-153.219100
852.756143,-1184.329507,-9548.656652,-306.438199
852.756467,-814.226536,-10066.800811,-1302.362347
852.756791,74.020594,-10066.800811,-842.705048
852.757115,666.185348,-9844.739029,76.609550
852.757439,370.102971,-9622.677246,0.000000
852.757763,222.061783,-9622.677246,536.266849
852.758087,1036.288319,-9696.697840,459.657299
852.758411,1924.535449,-9696.697840,689.485948
852.758735,2072.576638,-9918.759623,459.657299
852.759060,962.267725,-10214.842000,536.266849
852.759384,-592.164754,-10584.944971,383.047749
852.759708,-370.102971,-10214.842000,-536.266849
852.760032,888.247130,-9178.553681,-536.266849
852.760356,1258.350101,-9474.636058,-536.266849
852.760680,1406.391290,-10362.883188,0.000000
852.761004,666.185348,-9844.739029,-306.438199
852.761328,0.000000,-9918.759623,-306.438199
852.761652,962.267725,-9104.533087,-919.314598
852.761976,962.267725,-9326.594869,-459.657299
852.762301,-296.082377,-9696.697840,-459.657299
852.762625,-1184.329507,-9474.636058,-536.266849
852.762949,-2294.638420,-9696.697840,-536.266849
852.763273,-1332.370696,-9474.636058,-383.047749
852.763597,0.000000,-9474.636058,-306.438199
852.763921,0.000000,-9770.718434,459.657299
852.764245,-1332.370696,-9844.739029,536.266849
852.764569,-1776.494261,-9696.697840,306.438199
852.764893,-740.205942,-9770.718434,0.000000
852.765217,-148.041188,-9030.512492,-536.266849
852.765542,0.000000,-9474.636058,0.000000
852.765866,-962.267725,-9918.759623,-536.266849
852.766190,-1924.535449,-10214.842000,-842.705048
852.766514,-1850.514855,-9548.656652,-1302.362347
852.766838,-740.205942,-8956.491898,-1378.971896
852.767162,0.000000,-9326.594869,-766.095498
852.767486,0.000000,-9474.636058,0.000000
852.767810,-370.102971,-9992.780217,0.000000
852.768134,0.000000,-9400.615463,0.000000
852.768458,1258.350101,-9474.636058,0.000000
852.768783,1776.494261,-9622.677246,536.266849
852.769107,888.247130,-10362.883188,842.705048
852.769431,-666.185348,-10362.883188,306.438199
852.769755,-1332.370696,-10140.821405,0.000000
852.770079,-296.082377,-9622.677246,76.609550
852.770403,518.144159,-9770.718434,153.219100
852.770727,0.000000,-9474.636058,-229.828649
852.771051,-1332.370696,-9548.656652,-383.047749
852.771375,-1184.329507,-9326.594869,-689.485948
852.771699,592.164754,-9326.594869,-383.047749
852.772024,1628.453072,-8734.430116,383.047749
852.772348,814.226536,-9400.615463,536.266849
852.772672,-814.226536,-9622.677246,76.609550
852.772996,-1554.432478,-10140.821405,-612.876398
852.773320,-962.267725,-9844.739029,-153.219100
852.773644,962.267725,-9696.697840,229.828649
852.773968,1702.473667,-10066.800811,919.314598
852.774292,962.267725,-10732.986159,1302.362347
852.774616,444.123565,-10362.883188,995.924147
852.774940,666.185348,-9474.636058,536.266849
852.775265,1406.391290,-9178.553681,459.657299
852.775589,1480.411884,-9178.553681,536.266849
852.775913,814.226536,-9548.656652,383.047749
852.776237,-222.061783,-9400.615463,536.266849
852.776561,-888.247130,-9400.615463,229.828649
852.776885,0.000000,-9252.574275,-306.438199
852.777209,518.144159,-9622.677246,-76.609550
852.777533,-592.164754,-9474.636058,306.438199
852.777857,-1332.370696,-9400.615463,689.485948
852.778181,-1332.370696,-9474.636058,229.828649
852.778506,0.000000,-9474.636058,383.047749
852.778830,1036.288319,-9326.594869,842.705048
852.779154,296.082377,-9474.636058,1149.143247
852.779478,-1332.370696,-9474.636058,612.876398
852.779802,-1998.556043,-9844.739029,76.609550
852.780126,-1036.288319,-9474.636058,0.000000
852.780450,74.020594,-9622.677246,0.000000
852.780774,74.020594,-10288.862594,0.000000
852.781098,-740.205942,-10066.800811,0.000000
852.781422,-962.267725,-9992.780217,0.000000
852.781746,0.000000,-9622.677246,-689.485948
852.782070,888.247130,-9252.574275,-536.266849
852.782394,592.164754,-9474.636058,-536.266849
852.782718,-296.082377,-10140.821405,76.609550
852.783043,-740.205942,-10362.883188,76.609550
852.783367,-1036.288319,-9918.759623,0.000000
852.783691,-518.144159,-9474.636058,-229.828649
852.784015,-222.061783,-9770.718434,0.000000
852.784339,-666.185348,-10288.862594,153.219100
852.784663,-814.226536,-10436.903782,229.828649
852.784987,0.000000,-9844.739029,459.657299
852.785311,888.247130,-9696.697840,0.000000
852.785635,888.247130,-9474.636058,-153.219100
852.785959,0.000000,-9400.615463,-383.047749
852.786283,-1184.329507,-9918.759623,-459.657299
852.786607,-1184.329507,-9992.780217,-995.924147
852.786931,0.000000,-9474.636058,-842.705048
852.787255,1184.329507,-9030.512492,0.000000
852.787579,1184.329507,-9400.615463,0.000000
852.787903,222.061783,-9326.594869,0.000000
852.788227,148.041188,-9474.636058,-229.828649
852.788551,1184.329507,-9104.533087,-153.219100
852.788875,1998.556043,-8956.491898,0.000000
852.789199,1406.391290,-9178.553681,229.828649
852.789523,148.041188,-9474.636058,76.609550
852.789847,-740.205942,-9326.594869,153.219100
852.790171,-296.082377,-8734.430116,-995.924147
852.790495,518.144159,-8882.471304,-612.876398
852.790819,296.082377,-9400.615463,-306.438199
852.791143,-148.041188,-9622.677246,0.000000
852.791467,-444.123565,-9548.656652,-229.828649
852.791791,666.185348,-9474.636058,-842.705048
852.792115,1850.514855,-9400.615463,-612.876398
852.792439,1628.453072,-10140.821405,0.000000
852.792763,444.123565,-10436.903782,-689.485948
852.793087,-518.144159,-10584.944971,-766.095498
852.793411,-962.267725,-10732.986159,-689.485948
852.793735,-222.061783,-10214.842000,-1072.533697
852.794059,0.000000,-10362.883188,-536.266849
852.794383,0.000000,-10436.903782,76.609550
852.794707,0.000000,-10362.883188,0.000000
852.795031,666.185348,-10584.944971,0.000000
852.795355,1110.308913,-9622.677246,-153.219100
852.795679,888.247130,-9770.718434,153.219100
852.796003,-444.123565,-9474.636058,153.219100
852.796327,-1480.411884,-10362.883188,0.000000
852.796651,-1776.494261,-9992.780217,-383.047749
852.796975,-740.205942,-9548.656652,-766.095498
852.797300,296.082377,-9474.636058,-383.047749
852.797624,148.041188,-10066.800811,0.000000
852.797948,-518.144159,-10214.842000,0.000000
852.798272,-666.185348,-9992.780217,0.000000
852.798596,-74.020594,-9474.636058,0.000000
852.798920,814.226536,-9548.656652,306.438199
852.799244,592.164754,-10214.842000,689.485948
852.799568,-962.267725,-10214.842000,1072.533697
852.799892,-2294.638420,-9622.677246,153.219100
852.800216,-1924.535449,-9400.615463,153.219100
852.800540,-518.144159,-9326.594869,536.266849
852.800864,74.020594,-9844.739029,1378.971896
852.801188,0.000000,-9548.656652,1302.362347
852.801512,-1480.411884,-8956.491898,612.876398
852.801836,-518.144159,-8364.327145,229.828649
852.802160,518.144159,-7846.182985,229.828649
852.802484,1036.288319,-7920.203579,459.657299
852.802808,296.082377,-8586.388927,383.047749
852.803132,-444.123565,-8734.430116,306.438199
852.803456,-740.205942,-8808.450710,-76.609550
852.803780,148.041188,-8142.265362,153.219100
852.804104,1480.411884,-8956.491898,459.657299
852.804428,444.123565,-9474.636058,0.000000
852.804752,-592.164754,-9548.656652,306.438199
852.805076,-222.061783,-9474.636058,459.657299
852.805400,1110.308913,-9474.636058,153.219100
852.805724,2368.659014,-10066.800811,612.876398
852.806048,888.247130,-9844.739029,459.657299
852.806372,-518.144159,-10881.027347,76.609550
852.806696,-1554.432478,-11473.192101,-306.438199
852.807020,-1036.288319,-10288.862594,-536.266849
852.807344,222.061783,-10214.842000,-536.266849
852.807668,444.123565,-10510.924376,-459.657299
852.807992,0.000000,-10436.903782,-153.219100
852.808316,74.020594,-10584.944971,0.000000
852.808640,1184.329507,-10510.924376,-536.266849
852.808964,1480.411884,-9918.759623,-612.876398
852.809288,296.082377,-9696.697840,-689.485948
852.809612,-740.205942,-10288.862594,-383.047749
852.809936,-1184.329507,-10584.944971,-842.705048
852.810260,-1184.329507,-10066.800811,-1072.533697
852.810584,148.041188,-9326.594869,-1149.143247
852.810908,296.082377,-9178.553681,-766.095498
852.811233,148.041188,-9622.677246,76.609550
852.811557,0.000000,-10362.883188,153.219100
852.811881,74.020594,-10066.800811,-76.609550
852.812205,592.164754,-9474.636058,-383.047749
852.812529,518.144159,-9030.512492,-383.047749
852.812853,222.061783,-9474.636058,0.000000
852.813177,-740.205942,-10584.944971,229.828649
852.813501,-1184.329507,-10732.986159,0.000000
852.813825,-888.247130,-9400.615463,-766.095498
852.814149,-370.102971,-9030.512492,-919.314598
852.814473,-518.144159,-9400.615463,-306.438199
852.814797,-888.247130,-10510.924376,306.438199
852.815121,-666.185348,-10658.965565,229.828649
852.815445,148.041188,-9474.636058,76.609550
852.815769,592.164754,-8364.327145,306.438199
852.816093,0.000000,-9178.553681,766.095498
852.816417,-888.247130,-9918.759623,1302.362347
852.816741,-1332.370696,-9918.759623,842.705048
852.817065,-962.267725,-9030.512492,153.219100
852.817389,-222.061783,-8068.244768,0.000000
852.817713,-222.061783,-8660.409521,536.266849
852.818037,0.000000,-9622.677246,919.314598
852.818361,666.185348,-9474.636058,842.705048
852.818685,1110.308913,-8586.388927,229.828649
852.819009,1702.473667,-8290.306550,153.219100
852.819333,1776.494261,-8734.430116,306.438199
852.819657,1110.308913,-9918.759623,689.485948
852.819981,74.020594,-10140.821405,76.609550
852.820305,-444.123565,-9622.677246,459.657299
852.820629,-222.061783,-8586.388927,-459.657299
852.820953,0.000000,-9178.553681,-229.828649
852.821277,-296.082377,-9770.718434,612.876398
852.821601,-666.185348,-10955.047942,689.485948
852.821925,-666.185348,-11103.089130,842.705048
852.822249,0.000000,-9622.677246,383.047749
852.822573,888.247130,-9400.615463,536.266849
852.822897,-222.061783,-9400.615463,153.219100
852.823221,-1110.308913,-9992.780217,0.000000
852.823545,-592.164754,-10955.047942,383.047749
852.823869,148.041188,-10510.924376,0.000000
852.824193,814.226536,-9252.574275,-459.657299
852.824517,296.082377,-9400.615463,0.000000
852.824841,222.061783,-10584.944971,-153.219100
852.825165,296.082377,-10584.944971,-383.047749
852.825490,666.185348,-9696.697840,-306.438199
852.825814,1184.329507,-8734.430116,0.000000
852.826138,444.123565,-8660.409521,-153.219100
852.826462,0.000000,-9400.615463,306.438199
852.826786,-962.267725,-9992.780217,-536.266849
852.827110,-1258.350101,-9326.594869,-766.095498
852.827434,-296.082377,-8808.450710,-766.095498
852.827758,444.123565,-9030.512492,76.609550
852.828082,222.061783,-9770.718434,459.657299
852.828406,0.000000,-10658.965565,689.485948
852.828730,-740.205942,-10214.842000,-153.219100
852.829054,0.000000,-9326.594869,-153.219100
852.829378,222.061783,-9178.553681,-306.438199
852.829702,-592.164754,-9992.780217,0.000000
852.830026,-1554.432478,-10807.006753,-383.047749
852.830350,-1776.494261,-10066.800811,-842.705048
852.830674,-1184.329507,-9252.574275,-1378.971896
852.830998,0.000000,-9474.636058,-1149.143247
852.831322,0.000000,-10288.862594,0.000000
852.831646,-370.102971,-9918.759623,0.000000
852.831970,0.000000,-9770.718434,306.438199
852.832294,1554.432478,-9474.636058,153.219100
852.832618,2442.679609,-9548.656652,536.266849
852.832942,1776.494261,-9770.718434,153.219100
852.833266,814.226536,-9696.697840,612.876398
852.833590,0.000000,-9326.594869,76.609550
852.833914,370.102971,-9770.718434,229.828649
852.834238,222.061783,-9252.574275,-306.438199
852.834562,-148.041188,-8808.450710,-153.219100
852.834886,-1184.329507,-9474.636058,-153.219100
852.835210,-1332.370696,-9622.677246,-536.266849
852.835534,0.000000,-9400.615463,-459.657299
852.835858,592.164754,-8734.430116,-383.047749
852.836182,888.247130,-8882.471304,76.609550
852.836506,0.000000,-9178.553681,153.219100
852.836830,-1406.391290,-10066.800811,229.828649
852.837154,-1406.391290,-10066.800811,0.000000
852.837478,-592.164754,-9770.718434,-306.438199
852.837802,444.123565,-9622.677246,-229.828649
852.838126,0.000000,-9844.739029,0.000000
852.838450,-666.185348,-10214.842000,0.000000
852.838774,0.000000,-10140.821405,153.219100
852.839098,888.247130,-9548.656652,-612.876398
852.839423,1406.391290,-9474.636058,-766.095498
852.839747,444.123565,-9400.615463,-689.485948
852.840071,-1036.288319,-9770.718434,-612.876398
852.840395,-666.185348,-9622.677246,-995.924147
852.840719,444.123565,-9400.615463,-1225.752797
852.841043,1480.411884,-8364.327145,-1072.533697
852.841367,1184.329507,-9030.512492,-153.219100
852.841691,148.041188,-10436.903782,-229.828649
852.842015,-296.082377,-10584.944971,0.000000
852.842339,0.000000,-9770.718434,0.000000
852.842663,1258.350101,-9474.636058,0.000000
852.842987,666.185348,-9992.780217,842.705048
852.843311,-814.226536,-10584.944971,536.266849
852.843635,-1184.329507,-10732.986159,306.438199
852.843959,-444.123565,-10066.800811,306.438199
852.844283,296.082377,-9400.615463,-306.438199
852.844607,296.082377,-9400.615463,0.000000
852.844931,-370.102971,-9992.780217,-229.828649
852.845255,-592.164754,-10362.883188,306.438199
852.845579,592.164754,-9918.759623,-229.828649
852.845903,1110.308913,-9326.594869,-1302.362347
852.846227,370.102971,-9252.574275,-766.095498
852.846551,-814.226536,-9844.739029,-153.219100
852.846875,-1702.473667,-10362.883188,0.000000
852.847199,-1184.329507,-10584.944971,76.609550
852.847523,-592.164754,-9844.739029,0.000000
852.847847,296.082377,-9178.553681,536.266849
852.848171,296.082377,-9178.553681,1532.190996
852.848495,-222.061783,-9770.718434,1302.362347
852.848819,-666.185348,-9770.718434,1532.190996
852.849143,-296.082377,-9400.615463,1302.362347
852.849467,0.000000,-8660.409521,1072.533697
852.849791,-444.123565,-8512.368333,842.705048
852.850115,-1554.432478,-9548.656652,689.485948
852.850439,-2368.659014,-9844.739029,612.876398
852.850763,-1702.473667,-9474.636058,-306.438199
852.851087,-1184.329507,-8660.409521,76.609550
852.851411,-962.267725,-8734.430116,689.485948
852.851735,-962.267725,-9622.677246,229.828649
852.852059,-740.205942,-9918.759623,383.047749
852.852383,0.000000,-8956.491898,383.047749
852.852707,1406.391290,-8438.347739,76.609550
852.853031,1406.391290,-8882.471304,1072.533697
852.853355,666.185348,-9252.574275,383.047749
852.853680,-296.082377,-10066.800811,459.657299
852.854004,-370.102971,-9992.780217,76.609550
852.854328,740.205942,-9622.677246,0.000000
852.854652,1110.308913,-9622.677246,383.047749
852.854976,1258.350101,-9400.615463,76.609550
852.855300,592.164754,-9992.780217,536.266849
852.855624,888.247130,-10066.800811,459.657299
852.855948,1406.391290,-9400.615463,-383.047749
852.856272,2146.597232,-9178.553681,0.000000
852.856596,1258.350101,-9474.636058,-229.828649
852.856920,0.000000,-10288.862594,-229.828649
852.857244,-592.164754,-9992.780217,-995.924147
852.857568,148.041188,-9548.656652,-1225.752797
852.857892,444.123565,-9252.574275,-1225.752797
852.858216,740.205942,-10066.800811,-766.095498
852.858540,0.000000,-10955.047942,-689.485948
852.858864,0.000000,-10807.006753,-995.924147
852.859188,1036.288319,-10140.821405,-1225.752797
852.859512,1184.329507,-9548.656652,-1455.581446
852.859836,814.226536,-9918.759623,-1072.533697
852.860160,-666.185348,-10066.800811,-1072.533697
852.860484,-518.144159,-10732.986159,-229.828649
852.860808,0.000000,-10140.821405,-1072.533697
852.861132,740.205942,-9252.574275,-1532.190996
852.861456,1036.288319,-8956.491898,-995.924147
852.861780,592.164754,-9696.697840,-612.876398
852.862104,370.102971,-10288.862594,-459.657299
852.862428,296.082377,-9918.759623,-1302.362347
852.862752,666.185348,-9178.553681,-612.876398
852.863076,814.226536,-8734.430116,-995.924147
852.863400,-888.247130,-9400.615463,-153.219100
852.863724,-2220.617826,-10066.800811,-536.266849
852.864048,-2146.597232,-9770.718434,-536.266849
852.864372,-1406.391290,-9104.533087,-919.314598
852.864696,-740.205942,-9252.574275,-306.438199
852.865020,-1628.453072,-8882.471304,0.000000
852.865344,-1628.453072,-10140.821405,0.000000
852.865668,-1110.308913,-9992.780217,-229.828649
852.865992,148.041188,-9474.636058,0.000000
852.866316,814.226536,-9030.512492,-383.047749
852.866640,0.000000,-9696.697840,76.609550
852.866964,-1036.288319,-10658.965565,-153.219100
852.867288,-1924.535449,-9918.759623,-383.047749
852.867613,-666.185348,-9400.615463,-612.876398
852.867937,444.123565,-9030.512492,-459.657299
852.868261,444.123565,-10066.800811,0.000000
852.868585,-148.041188,-10436.903782,153.219100
852.868909,-518.144159,-10288.862594,306.438199
852.869233,222.061783,-9918.759623,0.000000
852.869557,1110.308913,-9030.512492,0.000000
852.869881,962.267725,-8660.409521,995.924147
852.870205,0.000000,-9918.759623,766.095498
852.870529,-1036.288319,-10362.883188,612.876398
852.870853,-1110.308913,-9770.718434,-306.438199
852.871177,0.000000,-9252.574275,-229.828649
852.871501,740.205942,-9252.574275,153.219100
852.871825,296.082377,-9104.533087,76.609550
852.872149,222.061783,-9548.656652,0.000000
852.872473,814.226536,-9696.697840,-153.219100
852.872797,1702.473667,-9400.615463,-153.219100
852.873121,1776.494261,-9918.759623,0.000000
852.873445,666.185348,-10066.800811,0.000000
852.873769,-592.164754,-10214.842000,-229.828649
852.874093,-740.205942,-10140.821405,76.609550
852.874417,296.082377,-9770.718434,0.000000
852.874741,1850.514855,-9696.697840,0.000000
852.875065,1850.514855,-9548.656652,689.485948
852.875389,296.082377,-9770.718434,919.314598
852.875713,0.000000,-9770.718434,383.047749
852.876037,740.205942,-9474.636058,306.438199
852.876361,1332.370696,-9252.574275,229.828649
852.876685,666.185348,-8660.409521,306.438199
852.877009,-888.247130,-9400.615463,76.609550
852.877333,-1924.535449,-10214.842000,-306.438199
852.877657,-1258.350101,-9474.636058,-459.657299
852.877981,-148.041188,-9030.512492,-536.266849
852.878305,-296.082377,-9104.533087,383.047749
852.878629,-1258.350101,-9844.739029,383.047749
852.878953,-1480.411884,-9992.780217,0.000000
852.879277,-148.041188,-9474.636058,0.000000
852.879601,1110.308913,-9104.533087,0.000000
852.879925,814.226536,-8586.388927,306.438199
852.880249,-592.164754,-9548.656652,689.485948
852.880573,-1924.535449,-10362.883188,383.047749
852.880897,-1702.473667,-10066.800811,0.000000
852.881221,0.000000,-9178.553681,-459.657299
852.881545,444.123565,-9178.553681,-383.047749
852.881870,0.000000,-10140.821405,229.828649
852.882194,-666.185348,-10584.944971,0.000000
852.882518,-518.144159,-10510.924376,-153.219100
852.882842,592.164754,-9696.697840,0.000000
852.883166,1332.370696,-9252.574275,0.000000
852.883490,518.144159,-10066.800811,612.876398
852.883814,-370.102971,-10881.027347,536.266849
852.884138,-888.247130,-10584.944971,536.266849
852.884462,-814.226536,-9548.656652,689.485948
852.884786,-370.102971,-9474.636058,-229.828649
852.885110,-370.102971,-9770.718434,229.828649
852.885435,-1554.432478,-10140.821405,229.828649
852.885759,-1554.432478,-10288.862594,229.828649
852.886083,-148.041188,-9770.718434,0.000000
852.886407,444.123565,-9030.512492,306.438199
852.886731,370.102971,-8660.409521,306.438199
852.887055,-962.267725,-9474.636058,76.609550
852.887379,-1480.411884,-9474.636058,-76.609550
852.887703,-592.164754,-9474.636058,-689.485948
852.888027,740.205942,-8808.450710,-995.924147
852.888351,1628.453072,-8290.306550,0.000000
852.888675,1628.453072,-8956.491898,536.266849
852.888999,962.267725,-9474.636058,459.657299
852.889324,1332.370696,-9844.739029,0.000000
852.889648,1850.514855,-8660.409521,76.609550
852.889972,1776.494261,-8660.409521,76.609550
852.890296,740.205942,-9252.574275,306.438199
852.890620,-296.082377,-9844.739029,306.438199
852.890944,-888.247130,-10140.821405,0.000000
852.891268,444.123565,-9696.697840,76.609550
852.891592,740.205942,-8808.450710,-459.657299
852.891916,370.102971,-9104.533087,76.609550
852.892240,-814.226536,-9622.677246,-459.657299
852.892564,-592.164754,-9992.780217,-536.266849
852.892889,962.267725,-9770.718434,-766.095498
852.893213,1480.411884,-9400.615463,-689.485948
852.893537,666.185348,-9400.615463,-536.266849
852.893861,-518.144159,-10214.842000,-842.705048
852.894185,-666.185348,-10732.986159,-1378.971896
852.894509,0.000000,-9918.759623,-1608.800546
852.894833,962.267725,-10140.821405,-1378.971896
852.895157,888.247130,-10214.842000,-919.314598
852.895481,222.061783,-10732.986159,-612.876398
852.895805,296.082377,-11251.130318,-612.876398
852.896129,1036.288319,-10955.047942,-229.828649
852.896453,1480.411884,-9548.656652,-842.705048
852.896778,1332.370696,-9548.656652,-766.095498
852.897102,-444.123565,-10214.842000,-383.047749
852.897426,-1332.370696,-11103.089130,-766.095498
852.897750,-1258.350101,-10807.006753,-1302.362347
852.898074,0.000000,-9844.739029,-1378.971896
852.898398,0.000000,-9548.656652,-1302.362347
852.898722,-1258.350101,-10510.924376,-536.266849
852.899046,-2516.700203,-10584.944971,-919.314598
852.899370,-1554.432478,-10066.800811,-689.485948
852.899694,-296.082377,-9844.739029,-919.314598
852.900018,0.000000,-9474.636058,-842.705048
852.900343,-1184.329507,-9474.636058,-306.438199
852.900667,-2220.617826,-10436.903782,0.000000
852.900991,-1924.535449,-10066.800811,-766.095498
852.901315,-666.185348,-9326.594869,0.000000
852.901639,666.185348,-8586.388927,153.219100
852.901963,962.267725,-9178.553681,536.266849
852.902287,148.041188,-9770.718434,842.705048
852.902611,0.000000,-9400.615463,383.047749
852.902935,296.082377,-8808.450710,536.266849
852.903259,1110.308913,-8142.265362,459.657299
852.903583,1036.288319,-8364.327145,1072.533697
852.903907,-222.061783,-8512.368333,536.266849
852.904232,-962.267725,-8438.347739,153.219100
852.904556,-962.267725,-8808.450710,-153.219100
852.904880,518.144159,-8586.388927,0.000000
852.905204,592.164754,-7920.203579,612.876398
852.905528,-370.102971,-8216.285956,995.924147
852.905852,-962.267725,-9400.615463,842.705048
852.906176,-148.041188,-9400.615463,612.876398
852.906500,1036.288319,-9104.533087,536.266849
852.906824,1628.453072,-9548.656652,612.876398
852.907148,370.102971,-10214.842000,766.095498
852.907472,-1036.288319,-10584.944971,536.266849
852.907797,-1110.308913,-10584.944971,0.000000
852.908121,-148.041188,-9992.780217,0.000000
852.908445,444.123565,-9548.656652,76.609550
852.908769,962.267725,-10955.047942,383.047749
852.909093,222.061783,-10510.924376,-76.609550
852.909417,0.000000,-9844.739029,0.000000
852.909741,518.144159,-9844.739029,-459.657299
852.910065,1036.288319,-9918.759623,0.000000
852.910389,962.267725,-9918.759623,766.095498
852.910713,-222.061783,-10066.800811,689.485948
852.911037,-1776.494261,-9844.739029,76.609550
852.911361,-962.267725,-9696.697840,229.828649
852.911686,370.102971,-10066.800811,229.828649
852.912010,740.205942,-9918.759623,766.095498
852.912334,-296.082377,-10066.800811,689.485948
852.912658,-962.267725,-9992.780217,306.438199
852.912982,-148.041188,-9474.636058,-383.047749
852.913306,1036.288319,-9474.636058,76.609550
852.913630,740.205942,-10066.800811,995.924147
852.913954,-592.164754,-10288.862594,76.609550
852.914278,-2072.576638,-9992.780217,-919.314598
852.914602,-1850.514855,-9844.739029,-919.314598
852.914926,0.000000,-9844.739029,-689.485948
852.915251,1332.370696,-10436.903782,229.828649
852.915575,444.123565,-10436.903782,612.876398
852.915899,-444.123565,-10066.800811,536.266849
852.916223,-518.144159,-9326.594869,306.438199
852.916547,888.247130,-9474.636058,919.314598
852.916871,814.226536,-9474.636058,229.828649
852.917195,148.041188,-9696.697840,842.705048
852.917519,-1110.308913,-9696.697840,536.266849
852.917843,-1480.411884,-9252.574275,76.609550
852.918167,-444.123565,-8586.388927,0.000000
852.918491,74.020594,-7772.162391,76.609550
852.918815,-518.144159,-8142.265362,-153.219100
852.919140,-1628.453072,-8808.450710,153.219100
852.919464,-1628.453072,-9104.533087,0.000000
852.919788,296.082377,-8438.347739,-229.828649
852.920112,1406.391290,-8068.244768,-153.219100
852.920436,1184.329507,-8882.471304,153.219100
852.920760,-592.164754,-9992.780217,76.609550
852.921084,-1480.411884,-9918.759623,-536.266849
852.921408,-1332.370696,-9474.636058,-383.047749
852.921732,148.041188,-9326.594869,-612.876398
852.922056,1406.391290,-9474.636058,-306.438199
852.922380,1110.308913,-10214.842000,612.876398
852.922705,148.041188,-10436.903782,0.000000
852.923029,1036.288319,-9992.780217,-766.095498
852.923353,1406.391290,-9178.553681,-689.485948
852.923677,1332.370696,-9770.718434,-536.266849
852.924001,148.041188,-10658.965565,-842.705048
852.924325,-740.205942,-10288.862594,-995.924147
852.924649,-370.102971,-10214.842000,-995.924147
852.924973,814.226536,-9696.697840,-1149.143247
852.925297,1406.391290,-9622.677246,-919.314598
852.925621,444.123565,-9474.636058,-612.876398
852.925945,-222.061783,-10140.821405,-612.876398
852.926269,-370.102971,-10362.883188,-689.485948
852.926594,814.226536,-9844.739029,-536.266849
852.926918,1776.494261,-9992.780217,0.000000
852.927242,1258.350101,-9400.615463,-229.828649
852.927566,-296.082377,-10658.965565,-536.266849
852.927890,-1036.288319,-11251.130318,-919.314598
852.928214,-148.041188,-10436.903782,-1608.800546
852.928538,444.123565,-9992.780217,-842.705048
852.928862,888.247130,-9770.718434,-229.828649
852.929186,592.164754,-10140.821405,-229.828649
852.929510,370.102971,-10955.047942,-153.219100
852.929834,370.102971,-9918.759623,-766.095498
852.930158,888.247130,-9400.615463,-459.657299
852.930483,740.205942,-9326.594869,-459.657299
852.930807,-666.185348,-9400.615463,-153.219100
852.931131,-1850.514855,-9770.718434,0.000000
852.931455,-1184.329507,-9104.533087,-76.609550
852.931779,-148.041188,-8956.491898,-306.438199
852.932103,-888.247130,-8660.409521,153.219100
852.932427,-2220.617826,-8734.430116,383.047749
852.932751,-2072.576638,-9326.594869,306.438199
852.933075,-814.226536,-8660.409521,0.000000
852.933399,444.123565,-8586.388927,153.219100
852.933723,592.164754,-9178.553681,229.828649
852.934048,-888.247130,-9474.636058,229.828649
852.934372,-1998.556043,-9548.656652,-76.609550
852.934696,-1776.494261,-9474.636058,-383.047749
852.935020,0.000000,-9548.656652,-153.219100
852.935344,370.102971,-9770.718434,0.000000
852.935668,-296.082377,-10288.862594,612.876398
852.935992,-1110.308913,-10214.842000,153.219100
852.936316,-518.144159,-9844.739029,153.219100
852.936640,666.185348,-9992.780217,76.609550
852.936964,1480.411884,-9326.594869,612.876398
852.937288,888.247130,-9400.615463,612.876398
852.937612,-1036.288319,-9770.718434,536.266849
852.937937,-1628.453072,-10214.842000,306.438199
852.938261,-814.226536,-9918.759623,76.609550
852.938585,740.205942,-9030.512492,766.095498
852.938909,370.102971,-9104.533087,612.876398
852.939233,-222.061783,-9252.574275,612.876398
852.939557,-814.226536,-9622.677246,306.438199
852.939881,-296.082377,-9844.739029,536.266849
852.940205,1332.370696,-9622.677246,459.657299
852.940529,1776.494261,-9326.594869,919.314598
852.940853,888.247130,-9326.594869,612.876398
852.941177,370.102971,-9770.718434,153.219100
852.941502,0.000000,-9548.656652,-306.438199
852.941826,888.247130,-9252.574275,-306.438199
852.942150,1184.329507,-9622.677246,76.609550
852.942474,444.123565,-9844.739029,0.000000
852.942798,-592.164754,-9548.656652,76.609550
852.943122,0.000000,-9844.739029,0.000000
852.943446,962.267725,-9474.636058,76.609550
852.943770,1628.453072,-9622.677246,536.266849
852.944094,1036.288319,-9326.594869,995.924147
852.944418,-296.082377,-9622.677246,0.000000
852.944742,-888.247130,-9622.677246,0.000000
852.945066,-518.144159,-9696.697840,-612.876398
852.945391,0.000000,-9622.677246,-306.438199
852.945715,-518.144159,-9770.718434,0.000000
852.946039,-1554.432478,-9696.697840,-306.438199
852.946363,-1406.391290,-9548.656652,0.000000
852.946687,-148.041188,-9474.636058,-612.876398
852.947011,1480.411884,-10066.800811,-919.314598
852.947335,592.164754,-10066.800811,76.609550
852.947659,-740.205942,-10214.842000,0.000000
852.947983,-1406.391290,-10732.986159,0.000000
852.948307,-814.226536,-10362.883188,0.000000
852.948631,222.061783,-9696.697840,0.000000
852.948956,0.000000,-9622.677246,0.000000
852.949280,-444.123565,-9770.718434,76.609550
852.949604,-740.205942,-10658.965565,76.609550
852.949928,0.000000,-10066.800811,766.095498
852.950252,1184.329507,-9474.636058,306.438199
852.950576,1036.288319,-9030.512492,153.219100
852.950900,-888.247130,-9474.636058,76.609550
852.951224,-1480.411884,-10436.903782,0.000000
852.951548,-740.205942,-10510.924376,0.000000
852.951872,0.000000,-9178.553681,0.000000
852.952196,592.164754,-8808.450710,0.000000
852.952520,-148.041188,-9548.656652,229.828649
852.952845,-1332.370696,-10288.862594,0.000000
852.953169,-1036.288319,-10066.800811,0.000000
852.953493,296.082377,-9622.677246,-459.657299
852.953817,1184.329507,-9104.533087,0.000000
852.954141,222.061783,-9252.574275,383.047749
852.954465,-1480.411884,-9770.718434,536.266849
852.954789,-1554.432478,-10362.883188,153.219100
852.955113,-592.164754,-9622.677246,-383.047749
852.955437,518.144159,-8808.450710,-459.657299
852.955761,666.185348,-8586.388927,153.219100
852.956085,-148.041188,-9178.553681,306.438199
852.956410,-444.123565,-8956.491898,0.000000
852.956734,444.123565,-9326.594869,-612.876398
852.957058,1554.432478,-8438.347739,-459.657299
852.957382,2220.617826,-8364.327145,0.000000
852.957706,666.185348,-9030.512492,153.219100
852.958030,-592.164754,-9548.656652,0.000000
852.958354,-666.185348,-9400.615463,0.000000
852.958678,1036.288319,-9474.636058,-536.266849
852.959002,1406.391290,-9178.553681,459.657299
852.959326,814.226536,-9474.636058,229.828649
852.959650,74.020594,-9474.636058,-229.828649
852.959974,296.082377,-9696.697840,0.000000
852.960299,1924.535449,-9918.759623,-459.657299
852.960623,2368.659014,-9918.759623,0.000000
852.960947,1702.473667,-10510.924376,76.609550
852.961271,-888.247130,-10510.924376,0.000000
852.961595,-1554.432478,-11325.150913,0.000000
852.961919,-666.185348,-10584.944971,-919.314598
852.962243,74.020594,-9992.780217,-612.876398
852.962567,222.061783,-10436.903782,-306.438199
852.962891,0.000000,-10732.986159,-459.657299
852.963215,-148.041188,-10807.006753,-459.657299
852.963539,518.144159,-10214.842000,-536.266849
852.963864,1110.308913,-9844.739029,-306.438199
852.964188,222.061783,-10066.800811,-229.828649
852.964512,-1480.411884,-9918.759623,0.000000
852.964836,-1406.391290,-9918.759623,-995.924147
852.965160,-962.267725,-9622.677246,-1225.752797
852.965484,-148.041188,-9474.636058,-1225.752797
852.965808,-518.144159,-9992.780217,-536.266849
852.966132,-1554.432478,-10214.842000,-306.438199
852.966456,-2294.638420,-10066.800811,-459.657299
852.966780,-1110.308913,-9252.574275,-612.876398
852.967104,74.020594,-8808.450710,-766.095498
852.967428,444.123565,-9178.553681,-1149.143247
852.967753,-148.041188,-9696.697840,-459.657299
852.968077,-1332.370696,-10362.883188,-383.047749
852.968401,-1406.391290,-9844.739029,-689.485948
852.968725,-592.164754,-9252.574275,-919.314598
852.969049,74.020594,-9030.512492,-459.657299
852.969373,-296.082377,-9770.718434,229.828649
852.969697,-962.267725,-10362.883188,383.047749
852.970021,-666.185348,-9770.718434,76.609550
852.970345,518.144159,-9104.533087,76.609550
852.970669,1406.391290,-8808.450710,459.657299
852.970993,888.247130,-9178.553681,612.876398
