#time,accel_x,accel_y,accel_z
562.223269,-296.082377,-9696.697840,-229.828649
562.223593,-222.061783,-9696.697840,0.000000
562.223917,-222.061783,-9622.677246,-153.219100
562.224241,74.020594,-9548.656652,153.219100
562.224565,-222.061783,-9622.677246,0.000000
562.224890,-222.061783,-9400.615463,-459.657299
562.225214,0.000000,-9770.718434,0.000000
562.225538,-444.123565,-9474.636058,0.000000
562.225862,-370.102971,-9770.718434,-306.438199
562.226186,0.000000,-9992.780217,-306.438199
562.226510,0.000000,-9474.636058,-383.047749
562.226834,222.061783,-9548.656652,153.219100
562.227158,444.123565,-9474.636058,229.828649
562.227483,148.041188,-9622.677246,306.438199
562.227807,74.020594,-9696.697840,153.219100
562.228131,0.000000,-9696.697840,-153.219100
562.228455,0.000000,-9622.677246,153.219100
562.228779,0.000000,-9696.697840,-229.828649
562.229103,0.000000,-9770.718434,-383.047749
562.229427,296.082377,-9474.636058,76.609550
562.229751,0.000000,-9622.677246,153.219100
562.230076,148.041188,-9696.697840,-459.657299
562.230400,148.041188,-9474.636058,-306.438199
562.230724,370.102971,-9696.697840,-229.828649
562.231048,444.123565,-9622.677246,0.000000
562.231372,296.082377,-9474.636058,0.000000
562.231696,370.102971,-9844.739029,0.000000
562.232020,-148.041188,-9326.594869,-383.047749
562.232344,74.020594,-9770.718434,-153.219100
562.232669,-148.041188,-9844.739029,0.000000
562.232993,0.000000,-9844.739029,-383.047749
562.233317,-296.082377,-9474.636058,-229.828649
562.233641,0.000000,-9400.615463,-536.266849
562.233965,-148.041188,-9548.656652,0.000000
562.234289,148.041188,-9770.718434,-153.219100
562.234613,222.061783,-9696.697840,76.609550
562.234937,0.000000,-9474.636058,0.000000
562.235262,-222.061783,-9548.656652,-383.047749
562.235586,0.000000,-9622.677246,-229.828649
562.235910,0.000000,-9696.697840,-229.828649
562.236234,-222.061783,-9844.739029,153.219100
562.236558,0.000000,-9548.656652,153.219100
562.236882,-444.123565,-9770.718434,-306.438199
562.237206,-296.082377,-9548.656652,459.657299
562.237530,-444.123565,-9548.656652,-306.438199
562.237854,-296.082377,-9622.677246,-153.219100
562.238179,0.000000,-9622.677246,-153.219100
562.238503,74.020594,-9622.677246,-153.219100
562.238827,0.000000,-9474.636058,76.609550
562.239151,0.000000,-9474.636058,153.219100
562.239475,0.000000,-9918.759623,0.000000
562.239799,0.000000,-9474.636058,-459.657299
562.240123,-148.041188,-9400.615463,-536.266849
562.240447,74.020594,-9696.697840,-536.266849
562.240772,444.123565,-9844.739029,-306.438199
562.241096,666.185348,-10436.903782,0.000000
562.241420,74.020594,-10288.862594,153.219100
562.241744,-592.164754,-10066.800811,229.828649
562.242068,-1036.288319,-9030.512492,-306.438199
562.242392,-888.247130,-9178.553681,-306.438199
562.242716,222.061783,-9548.656652,459.657299
562.243040,1406.391290,-9918.759623,459.657299
562.243365,1924.535449,-9474.636058,229.828649
562.243689,1628.453072,-9178.553681,306.438199
562.244013,962.267725,-9622.677246,536.266849
562.244337,518.144159,-9696.697840,-306.438199
562.244661,148.041188,-9918.759623,-766.095498
562.244985,-518.144159,-10214.842000,-689.485948
562.245309,-592.164754,-10140.821405,-306.438199
562.245633,-370.102971,-10140.821405,0.000000
562.245958,370.102971,-9770.718434,459.657299
562.246282,1258.350101,-9548.656652,766.095498
562.246606,1998.556043,-9548.656652,1149.143247
562.246930,2368.659014,-9400.615463,1455.581446
562.247254,2368.659014,-9474.636058,995.924147
562.247578,2812.782580,-9844.739029,766.095498
562.247902,2368.659014,-9474.636058,459.657299
562.248226,1702.473667,-9918.759623,-306.438199
562.248551,666.185348,-9918.759623,-459.657299
562.248875,-444.123565,-10066.800811,-383.047749
562.249199,-148.041188,-10140.821405,-153.219100
562.249523,296.082377,-9918.759623,0.000000
562.249847,2072.576638,-10214.842000,1225.752797
562.250171,3108.864956,-9918.759623,1608.800546
562.250495,4441.235652,-9844.739029,2528.115143
562.250819,4885.359217,-9918.759623,2911.162892
562.251144,4737.318029,-9918.759623,2681.334243
562.251468,3775.050304,-9844.739029,2145.067394
562.251792,3182.885551,-9844.739029,1532.190996
562.252116,2368.659014,-10288.862594,1455.581446
562.252440,1184.329507,-10584.944971,1455.581446
562.252764,888.247130,-10881.027347,919.314598
562.253088,666.185348,-10214.842000,919.314598
562.253412,1406.391290,-9770.718434,2221.676944
562.253736,2886.803174,-9622.677246,2987.772442
562.254061,3923.091493,-9252.574275,3830.477490
562.254385,4219.173869,-9326.594869,4903.011187
562.254709,4367.215058,-9770.718434,5132.839837
562.255033,3256.906145,-10584.944971,4903.011187
562.255357,1998.556043,-9844.739029,4290.134789
562.255681,222.061783,-9252.574275,3524.039291
562.256005,-1258.350101,-8512.368333,2528.115143
562.256329,-1998.556043,-8142.265362,2834.553343
562.256654,-1554.432478,-7994.224174,2681.334243
562.256978,-518.144159,-7254.018232,2604.724693
562.257302,518.144159,-6365.771101,2911.162892
562.257626,1776.494261,-6661.853478,3140.991542
562.257950,2664.741391,-6439.791695,3524.039291
562.258274,3849.070898,-7105.977043,3753.867940
562.258598,4663.297435,-8438.347739,4443.353888
562.258922,5181.441594,-9622.677246,4749.792088
562.259247,4811.338623,-10214.842000,4749.792088
562.259571,3552.988522,-11103.089130,4519.963438
562.259895,1554.432478,-12287.418637,3677.258390
562.260219,-222.061783,-12139.377449,2681.334243
562.260543,-1776.494261,-11843.295072,1608.800546
562.260867,-2072.576638,-10881.027347,1225.752797
562.261191,-962.267725,-9178.553681,1608.800546
562.261515,1480.411884,-7846.182985,1685.410096
562.261840,2960.823768,-7402.059420,1455.581446
562.262164,4441.235652,-7328.038826,1378.971896
562.262488,4737.318029,-7772.162391,1378.971896
562.262812,4367.215058,-8956.491898,1532.190996
562.263136,3256.906145,-10658.965565,1685.410096
562.263460,1924.535449,-12213.398043,2221.676944
562.263784,666.185348,-12657.521608,2145.067394
562.264108,-148.041188,-12287.418637,1838.629195
562.264433,-296.082377,-11991.336260,1685.410096
562.264757,1036.288319,-11843.295072,919.314598
562.265081,1998.556043,-10436.903782,766.095498
562.265405,2886.803174,-9400.615463,306.438199
562.265729,3182.885551,-9030.512492,383.047749
562.266053,2886.803174,-8808.450710,536.266849
562.266377,2368.659014,-8882.471304,-306.438199
562.266701,1480.411884,-7920.203579,0.000000
562.267025,2294.638420,-8438.347739,-306.438199
562.267350,3627.009116,-9548.656652,459.657299
562.267674,5625.565159,-11547.212695,1455.581446
562.267998,6217.729913,-12065.356855,2145.067394
562.268322,4737.318029,-11843.295072,1991.848295
562.268646,1924.535449,-11251.130318,1685.410096
562.268970,-1036.288319,-10658.965565,842.705048
562.269294,-2516.700203,-9622.677246,459.657299
562.269618,-1776.494261,-8660.409521,153.219100
562.269943,-370.102971,-7994.224174,306.438199
562.270267,1036.288319,-8142.265362,536.266849
562.270591,1628.453072,-7402.059420,459.657299
562.270915,1628.453072,-5995.668130,0.000000
562.271239,2220.617826,-5995.668130,306.438199
562.271563,2516.700203,-7105.977043,536.266849
562.271887,3775.050304,-9326.594869,1225.752797
562.272211,4367.215058,-11103.089130,2145.067394
562.272536,3627.009116,-11695.253884,2298.286494
562.272860,2072.576638,-11177.109724,1685.410096
562.273184,444.123565,-10288.862594,1608.800546
562.273508,0.000000,-10510.924376,1991.848295
562.273832,296.082377,-10881.027347,2145.067394
562.274156,740.205942,-10955.047942,1991.848295
562.274480,-296.082377,-10658.965565,1838.629195
562.274804,-296.082377,-8512.368333,766.095498
562.275129,1036.288319,-6883.915261,76.609550
562.275453,2738.761985,-6957.935855,383.047749
562.275777,3256.906145,-8290.306550,1149.143247
562.276101,2664.741391,-9474.636058,1149.143247
562.276425,1332.370696,-9178.553681,612.876398
562.276749,962.267725,-9474.636058,995.924147
562.277073,2664.741391,-11177.109724,2374.896044
562.277397,4885.359217,-12213.398043,3140.991542
562.277722,5921.647536,-12583.501014,4060.306139
562.278046,5181.441594,-11843.295072,4366.744339
562.278370,4589.276840,-11399.171507,4366.744339
562.278694,4293.194464,-11917.315666,3983.696590
562.279018,3478.967927,-11769.274478,3600.648841
562.279342,1184.329507,-10807.006753,2528.115143
562.279666,0.000000,-9844.739029,1685.410096
562.279990,0.000000,-9474.636058,1378.971896
562.280314,1332.370696,-9918.759623,1762.019645
562.280639,2368.659014,-9918.759623,2451.505594
562.280963,2516.700203,-9030.512492,2068.457845
562.281287,2294.638420,-7920.203579,2451.505594
562.281611,2442.679609,-8586.388927,2528.115143
562.281935,3552.988522,-10362.883188,3907.087040
562.282259,4293.194464,-11251.130318,5209.449386
562.282583,3478.967927,-10288.862594,5286.058936
562.282907,2738.761985,-9252.574275,5362.668486
562.283232,2368.659014,-9104.533087,5132.839837
562.283556,2368.659014,-9326.594869,4903.011187
562.283880,2664.741391,-9178.553681,4290.134789
562.284204,2368.659014,-7846.182985,3524.039291
562.284528,1258.350101,-6735.874072,2757.943793
562.284852,-518.144159,-6883.915261,1991.848295
562.285176,-1628.453072,-7031.956449,1685.410096
562.285500,-444.123565,-6661.853478,1455.581446
562.285825,1850.514855,-6439.791695,2298.286494
562.286149,3256.906145,-6735.874072,2681.334243
562.286473,3627.009116,-7846.182985,3370.820191
562.286797,3997.112087,-9030.512492,4290.134789
562.287121,4515.256246,-8882.471304,4519.963438
562.287445,3330.926739,-9844.739029,4290.134789
562.287769,2072.576638,-11769.274478,4443.353888
562.288093,1924.535449,-11473.192101,4290.134789
562.288418,2738.761985,-10066.800811,3447.429741
562.288742,1998.556043,-8734.430116,2374.896044
562.289066,222.061783,-9992.780217,995.924147
562.289390,-1628.453072,-11399.171507,689.485948
562.289714,-1480.411884,-11251.130318,-612.876398
562.290038,-2368.659014,-9030.512492,-1149.143247
562.290362,-2368.659014,-8068.244768,-1302.362347
562.290687,74.020594,-8882.471304,-919.314598
562.291011,3256.906145,-9770.718434,-229.828649
562.291335,5699.585753,-9178.553681,612.876398
562.291660,7550.100608,-9548.656652,1762.019645
562.291984,7476.080014,-11325.150913,2374.896044
562.292308,5181.441594,-11843.295072,2451.505594
562.292632,3256.906145,-10436.903782,2604.724693
562.292957,1554.432478,-10584.944971,1685.410096
562.293281,-814.226536,-13323.706956,229.828649
562.293605,-1924.535449,-12879.583391,-766.095498
562.293930,-2146.597232,-10658.965565,-536.266849
562.294254,-1628.453072,-9770.718434,-1762.019645
562.294578,-2146.597232,-10955.047942,-2681.334243
562.294903,-2442.679609,-9474.636058,-3140.991542
562.295227,-2368.659014,-8364.327145,-2834.553343
562.295551,-1776.494261,-9400.615463,-3217.601092
562.295875,-814.226536,-9474.636058,-2987.772442
562.296200,1628.453072,-8586.388927,-1072.533697
562.296524,3775.050304,-10362.883188,612.876398
562.296848,5847.626942,-11473.192101,2068.457845
562.297173,6439.791695,-9844.739029,2451.505594
562.297497,4515.256246,-10140.821405,2834.553343
562.297821,1332.370696,-12139.377449,2374.896044
562.298145,-518.144159,-11621.233289,766.095498
562.298470,-2368.659014,-9178.553681,153.219100
562.298794,-4737.318029,-8660.409521,-459.657299
562.299118,-4959.379811,-8586.388927,-2145.067394
562.299443,-3775.050304,-7105.977043,-3524.039291
562.299767,-2516.700203,-5181.441594,-2911.162892
562.300091,-2294.638420,-5329.482782,-2834.553343
562.300415,-2960.823768,-5921.647536,-3983.696590
562.300740,-2812.782580,-5921.647536,-3217.601092
562.301064,0.000000,-5847.626942,-1149.143247
562.301388,5477.523971,-7846.182985,1532.190996
562.301713,7550.100608,-10436.903782,2911.162892
562.302037,8512.368333,-11251.130318,4519.963438
562.302361,6957.935855,-12065.356855,4596.572988
562.302686,4145.153275,-13101.645173,3370.820191
562.303010,-592.164754,-12287.418637,306.438199
562.303334,-5699.585753,-12139.377449,-1149.143247
562.303658,-8808.450710,-13397.727550,-1685.410096
562.303983,-6661.853478,-12509.480420,-3907.087040
562.304307,-3627.009116,-9770.718434,-3830.477490
562.304631,-2442.679609,-8586.388927,-3370.820191
562.304956,-592.164754,-8956.491898,-3064.381992
562.305280,1702.473667,-9326.594869,-2221.676944
562.305604,2812.782580,-10066.800811,-306.438199
562.305928,3627.009116,-10214.842000,1455.581446
562.306253,4515.256246,-11325.150913,2451.505594
562.306577,3330.926739,-11399.171507,2451.505594
562.306901,3404.947333,-10955.047942,2911.162892
562.307226,2442.679609,-10955.047942,3217.601092
562.307550,1184.329507,-11917.315666,3677.258390
562.307874,-1480.411884,-12139.377449,3370.820191
562.308198,-3775.050304,-9548.656652,1685.410096
562.308523,-4959.379811,-7031.956449,-536.266849
562.308847,-5551.544565,-6365.771101,-1915.238745
562.309171,-5033.400406,-6661.853478,-1608.800546
562.309496,-3701.029710,-6735.874072,-459.657299
562.309820,-2368.659014,-7994.224174,153.219100
562.310144,-1776.494261,-7994.224174,919.314598
562.310469,-370.102971,-7772.162391,1455.581446
562.310793,2146.597232,-8290.306550,2298.286494
562.311117,3997.112087,-9178.553681,2681.334243
562.311441,3923.091493,-10436.903782,3294.210641
562.311766,2516.700203,-10362.883188,2911.162892
562.312090,1702.473667,-9622.677246,3524.039291
562.312414,1554.432478,-9770.718434,3140.991542
562.312739,1628.453072,-9696.697840,2068.457845
562.313063,1184.329507,-8438.347739,1608.800546
562.313387,1036.288319,-7846.182985,766.095498
562.313711,148.041188,-7846.182985,-306.438199
562.314036,-1332.370696,-8290.306550,153.219100
562.314360,-2664.741391,-8734.430116,153.219100
562.314684,-3330.926739,-8956.491898,-842.705048
562.315009,-2368.659014,-8586.388927,-1532.190996
562.315333,-1036.288319,-8364.327145,-1378.971896
562.315657,0.000000,-9992.780217,-153.219100
562.315981,1554.432478,-10510.924376,-306.438199
562.316306,1998.556043,-10214.842000,766.095498
562.316630,1776.494261,-9770.718434,995.924147
562.316954,1554.432478,-10436.903782,536.266849
562.317279,2146.597232,-12139.377449,995.924147
562.317603,2368.659014,-12435.459826,153.219100
562.317927,2590.720797,-11769.274478,0.000000
562.318252,1924.535449,-10881.027347,0.000000
562.318576,1036.288319,-12065.356855,-229.828649
562.318900,148.041188,-11621.233289,-229.828649
562.319224,-962.267725,-10362.883188,-995.924147
562.319549,-2368.659014,-11029.068536,-2298.286494
562.319873,-3330.926739,-10658.965565,-4213.525239
562.320197,-2812.782580,-9696.697840,-3294.210641
562.320522,-1406.391290,-9326.594869,-1225.752797
562.320846,0.000000,-9030.512492,-1915.238745
562.321170,814.226536,-8438.347739,-842.705048
562.321494,814.226536,-8734.430116,-612.876398
562.321819,-296.082377,-9548.656652,-995.924147
562.322143,-222.061783,-10214.842000,-612.876398
562.322467,222.061783,-8956.491898,0.000000
562.322792,1110.308913,-9252.574275,612.876398
562.323116,1332.370696,-9696.697840,459.657299
562.323440,888.247130,-10140.821405,459.657299
562.323764,-222.061783,-9622.677246,-536.266849
562.324089,-1702.473667,-9178.553681,-1455.581446
562.324413,-2072.576638,-8290.306550,-1838.629195
562.324737,-1480.411884,-8734.430116,-2068.457845
562.325062,-666.185348,-8586.388927,-459.657299
562.325386,-148.041188,-8882.471304,-766.095498
562.325710,-888.247130,-9030.512492,-612.876398
562.326035,-1850.514855,-8956.491898,0.000000
562.326359,-1406.391290,-8808.450710,0.000000
562.326683,-370.102971,-8882.471304,229.828649
562.327007,370.102971,-8586.388927,689.485948
562.327332,444.123565,-9696.697840,1072.533697
562.327656,-1480.411884,-10066.800811,536.266849
562.327980,-2368.659014,-9696.697840,-459.657299
562.328305,-1998.556043,-8956.491898,-306.438199
562.328629,-888.247130,-8956.491898,0.000000
562.328953,592.164754,-9770.718434,0.000000
562.329277,1036.288319,-9770.718434,-229.828649
562.329602,592.164754,-9474.636058,-306.438199
562.329926,518.144159,-10955.047942,76.609550
562.330250,444.123565,-10807.006753,0.000000
562.330575,444.123565,-10658.965565,229.828649
562.330899,-148.041188,-10436.903782,842.705048
562.331223,-222.061783,-10881.027347,0.000000
562.331547,-370.102971,-11769.274478,153.219100
562.331872,-666.185348,-10584.944971,842.705048
562.332196,0.000000,-9696.697840,612.876398
562.332520,74.020594,-9474.636058,612.876398
562.332845,592.164754,-9252.574275,612.876398
562.333169,962.267725,-9030.512492,383.047749
562.333493,888.247130,-9770.718434,0.000000
562.333818,0.000000,-10140.821405,229.828649
562.334142,-888.247130,-10288.862594,229.828649
562.334466,-666.185348,-10214.842000,536.266849
562.334790,-296.082377,-10066.800811,1455.581446
562.335115,740.205942,-9770.718434,612.876398
562.335439,296.082377,-9918.759623,229.828649
562.335763,-370.102971,-10288.862594,612.876398
562.336088,-444.123565,-9178.553681,306.438199
562.336412,-962.267725,-7624.121203,229.828649
562.336736,-518.144159,-7624.121203,612.876398
562.337060,222.061783,-8142.265362,306.438199
562.337385,148.041188,-8438.347739,229.828649
562.337709,296.082377,-9104.533087,919.314598
562.338033,148.041188,-8216.285956,919.314598
562.338358,1332.370696,-8586.388927,919.314598
562.338682,962.267725,-8882.471304,919.314598
562.339006,814.226536,-9400.615463,536.266849
562.339330,296.082377,-9548.656652,153.219100
562.339655,-222.061783,-9548.656652,536.266849
562.339979,-666.185348,-9474.636058,383.047749
562.340303,0.000000,-8956.491898,383.047749
562.340628,814.226536,-8438.347739,-536.266849
562.340952,1776.494261,-9474.636058,-383.047749
562.341276,1554.432478,-9696.697840,-689.485948
562.341601,888.247130,-9696.697840,-383.047749
562.341925,444.123565,-9992.780217,229.828649
562.342249,592.164754,-9844.739029,-229.828649
562.342573,888.247130,-9696.697840,-383.047749
562.342898,518.144159,-10214.842000,-766.095498
562.343222,0.000000,-11251.130318,-459.657299
562.343546,0.000000,-11325.150913,-536.266849
562.343871,-444.123565,-11029.068536,0.000000
562.344195,-444.123565,-9918.759623,-383.047749
562.344519,-444.123565,-9622.677246,-229.828649
562.344843,-222.061783,-10584.944971,-153.219100
562.345168,370.102971,-11251.130318,-842.705048
562.345492,888.247130,-10288.862594,-153.219100
562.345816,0.000000,-9770.718434,-766.095498
562.346141,-666.185348,-9992.780217,-306.438199
562.346465,0.000000,-10807.006753,229.828649
562.346789,222.061783,-11399.171507,383.047749
562.347113,-296.082377,-10288.862594,-153.219100
562.347438,-1332.370696,-9696.697840,-459.657299
562.347762,-2220.617826,-9400.615463,-689.485948
562.348086,-1332.370696,-9474.636058,-536.266849
562.348411,-888.247130,-9770.718434,919.314598
562.348735,-740.205942,-9548.656652,536.266849
562.349059,-1036.288319,-8882.471304,76.609550
562.349384,-1406.391290,-8438.347739,153.219100
562.349708,-740.205942,-7994.224174,-383.047749
562.350032,148.041188,-8142.265362,-229.828649
562.350356,0.000000,-8808.450710,612.876398
562.350681,0.000000,-8808.450710,76.609550
562.351005,-222.061783,-9770.718434,0.000000
562.351329,-370.102971,-9696.697840,0.000000
562.351654,-370.102971,-9770.718434,0.000000
562.351978,-518.144159,-9252.574275,-383.047749
562.352302,-666.185348,-9474.636058,-383.047749
562.352626,666.185348,-10140.821405,76.609550
562.352951,1628.453072,-10510.924376,-76.609550
562.353275,1924.535449,-10362.883188,536.266849
562.353599,1184.329507,-10362.883188,383.047749
562.353924,444.123565,-9844.739029,153.219100
562.354248,740.205942,-9918.759623,306.438199
562.354572,1406.391290,-10436.903782,536.266849
562.354896,2294.638420,-11103.089130,383.047749
562.355221,962.267725,-10436.903782,-536.266849
562.355545,-592.164754,-9918.759623,-306.438199
562.355869,-2664.741391,-9178.553681,-995.924147
562.356194,-3256.906145,-9030.512492,-842.705048
562.356518,-3330.926739,-9918.759623,-995.924147
562.356842,-2664.741391,-9548.656652,-1608.800546
562.357167,-1776.494261,-8586.388927,-1072.533697
562.357491,-592.164754,-8660.409521,0.000000
562.357815,444.123565,-8734.430116,-306.438199
562.358139,962.267725,-8586.388927,153.219100
562.358464,1110.308913,-8734.430116,0.000000
562.358788,1554.432478,-9844.739029,0.000000
562.359112,2220.617826,-10140.821405,76.609550
562.359437,2146.597232,-9770.718434,919.314598
562.359761,1702.473667,-10436.903782,842.705048
562.360085,888.247130,-9696.697840,229.828649
562.360409,296.082377,-9918.759623,0.000000
562.360734,0.000000,-10436.903782,-229.828649
562.361058,74.020594,-9918.759623,-536.266849
562.361382,518.144159,-9400.615463,0.000000
562.361707,888.247130,-9400.615463,153.219100
562.362031,1554.432478,-9178.553681,766.095498
562.362355,1776.494261,-9030.512492,919.314598
562.362679,1998.556043,-9770.718434,842.705048
562.363004,1036.288319,-9844.739029,689.485948
562.363328,74.020594,-9326.594869,229.828649
562.363652,-1258.350101,-9548.656652,-306.438199
562.363977,-1776.494261,-10214.842000,306.438199
562.364301,-962.267725,-10658.965565,459.657299
562.364625,-740.205942,-11177.109724,766.095498
562.364950,-1480.411884,-10584.944971,766.095498
562.365274,-1702.473667,-8808.450710,-383.047749
562.365598,-1628.453072,-8438.347739,-612.876398
562.365922,-1110.308913,-7994.224174,-536.266849
562.366247,148.041188,-8956.491898,919.314598
562.366571,1332.370696,-10140.821405,1532.190996
562.366895,1184.329507,-9770.718434,1608.800546
562.367220,444.123565,-8660.409521,1149.143247
562.367544,-444.123565,-7994.224174,842.705048
562.367868,-814.226536,-9104.533087,919.314598
562.368192,-518.144159,-9474.636058,995.924147
562.368517,-148.041188,-9844.739029,1149.143247
562.368841,-888.247130,-9770.718434,1378.971896
562.369165,-666.185348,-9770.718434,1072.533697
562.369490,-1554.432478,-8808.450710,383.047749
562.369814,-1554.432478,-8808.450710,306.438199
562.370138,-1332.370696,-9104.533087,0.000000
562.370462,-1110.308913,-9844.739029,-536.266849
562.370787,-1554.432478,-9844.739029,-536.266849
562.371111,-1702.473667,-9178.553681,0.000000
562.371435,-962.267725,-8956.491898,-842.705048
562.371760,-148.041188,-10140.821405,-689.485948
562.372084,444.123565,-10955.047942,0.000000
562.372408,1332.370696,-10881.027347,-153.219100
562.372733,1628.453072,-10288.862594,-536.266849
562.373057,1036.288319,-11251.130318,229.828649
562.373381,1184.329507,-11177.109724,612.876398
562.373705,1258.350101,-10584.944971,229.828649
562.374030,1628.453072,-10584.944971,-306.438199
562.374354,1480.411884,-9918.759623,-229.828649
562.374678,1110.308913,-9992.780217,-1302.362347
562.375003,148.041188,-9918.759623,-1608.800546
562.375327,-592.164754,-9474.636058,-1378.971896
562.375651,-222.061783,-9548.656652,-1762.019645
562.375975,-370.102971,-9252.574275,-1608.800546
562.376300,-370.102971,-9104.533087,-1072.533697
562.376624,-296.082377,-9622.677246,-1302.362347
562.376948,-1036.288319,-9252.574275,-1532.190996
562.377273,-1258.350101,-9178.553681,-1225.752797
562.377597,-962.267725,-9104.533087,-536.266849
562.377921,518.144159,-9030.512492,-383.047749
562.378245,1702.473667,-9474.636058,-306.438199
562.378570,1924.535449,-9326.594869,0.000000
562.378894,740.205942,-9474.636058,-536.266849
562.379218,518.144159,-8882.471304,-383.047749
562.379543,370.102971,-9622.677246,766.095498
562.379867,1110.308913,-10362.883188,1302.362347
562.380191,1628.453072,-10362.883188,383.047749
562.380516,296.082377,-9252.574275,-306.438199
562.380840,-1036.288319,-8586.388927,-689.485948
562.381164,-1554.432478,-9326.594869,-1378.971896
562.381488,-1628.453072,-9326.594869,-1302.362347
562.381813,-1184.329507,-8512.368333,0.000000
562.382137,74.020594,-8734.430116,459.657299
562.382461,1258.350101,-9252.574275,0.000000
562.382786,1332.370696,-8734.430116,-383.047749
562.383110,370.102971,-8290.306550,229.828649
562.383434,222.061783,-9326.594869,1072.533697
562.383758,222.061783,-10584.944971,919.314598
562.384083,444.123565,-11399.171507,1225.752797
562.384407,-222.061783,-11103.089130,689.485948
562.384731,-666.185348,-11177.109724,-229.828649
562.385056,-1776.494261,-11103.089130,0.000000
562.385380,-1702.473667,-10955.047942,-459.657299
562.385704,-1702.473667,-10732.986159,-536.266849
562.386028,-1702.473667,-10214.842000,459.657299
562.386353,-1110.308913,-10658.965565,0.000000
562.386677,-888.247130,-10807.006753,0.000000
562.387001,-814.226536,-10362.883188,0.000000
562.387326,-740.205942,-9622.677246,229.828649
562.387650,222.061783,-9844.739029,1455.581446
562.387974,666.185348,-10288.862594,1149.143247
562.388299,518.144159,-10807.006753,1608.800546
562.388623,0.000000,-11325.150913,2298.286494
562.388947,-962.267725,-11029.068536,1608.800546
562.389271,-1110.308913,-9770.718434,536.266849
562.389596,-666.185348,-8142.265362,766.095498
562.389920,592.164754,-8068.244768,919.314598
562.390244,1776.494261,-8956.491898,842.705048
562.390569,814.226536,-8586.388927,689.485948
562.390893,-518.144159,-7476.080014,0.000000
562.391217,-148.041188,-7179.997637,-383.047749
562.391541,666.185348,-7698.141797,-153.219100
562.391866,1036.288319,-8512.368333,153.219100
562.392190,814.226536,-8956.491898,306.438199
562.392514,148.041188,-9918.759623,612.876398
562.392839,-222.061783,-9992.780217,153.219100
562.393163,-518.144159,-9918.759623,383.047749
562.393487,0.000000,-9104.533087,0.000000
562.393811,74.020594,-9178.553681,0.000000
562.394133,74.020594,-9918.759623,0.000000
562.394457,-222.061783,-9918.759623,229.828649
562.394781,-148.041188,-9400.615463,-689.485948
562.395106,0.000000,-9104.533087,-1072.533697
562.395430,0.000000,-8882.471304,-995.924147
562.395754,1628.453072,-9474.636058,-306.438199
562.396078,1480.411884,-10066.800811,-459.657299
562.396403,370.102971,-10510.924376,-689.485948
562.396727,-1184.329507,-10214.842000,-689.485948
562.397051,-1924.535449,-10214.842000,-995.924147
562.397375,-1480.411884,-10066.800811,-766.095498
562.397700,-592.164754,-9252.574275,-383.047749
562.398024,0.000000,-8734.430116,-153.219100
562.398348,592.164754,-8660.409521,0.000000
562.398672,740.205942,-8882.471304,0.000000
562.398997,740.205942,-8808.450710,153.219100
562.399321,1110.308913,-8586.388927,-153.219100
562.399645,1776.494261,-8734.430116,-1149.143247
562.399969,1332.370696,-9696.697840,-1072.533697
562.400294,888.247130,-11177.109724,-919.314598
562.400618,222.061783,-12065.356855,-995.924147
562.400942,-1036.288319,-11843.295072,-1378.971896
562.401266,-1184.329507,-11177.109724,-1225.752797
562.401591,-740.205942,-11769.274478,-1302.362347
562.401915,148.041188,-11917.315666,-766.095498
562.402239,1332.370696,-11399.171507,-153.219100
562.402563,1554.432478,-10362.883188,-612.876398
562.402888,1406.391290,-9400.615463,0.000000
562.403212,1480.411884,-9622.677246,0.000000
562.403536,1332.370696,-9844.739029,612.876398
562.403860,1110.308913,-10140.821405,459.657299
562.404185,-370.102971,-9844.739029,-153.219100
562.404509,-2294.638420,-8808.450710,-459.657299
562.404833,-3256.906145,-8882.471304,76.609550
562.405157,-2664.741391,-9992.780217,0.000000
562.405482,-2812.782580,-8956.491898,0.000000
562.405806,-2960.823768,-9030.512492,0.000000
562.406130,-2516.700203,-9252.574275,0.000000
562.406454,-1702.473667,-8882.471304,0.000000
562.406779,-740.205942,-7698.141797,229.828649
562.407103,-222.061783,-7328.038826,1378.971896
562.407427,296.082377,-8586.388927,1685.410096
562.407751,888.247130,-9474.636058,1225.752797
562.408076,1184.329507,-9104.533087,1685.410096
562.408400,148.041188,-8956.491898,1455.581446
562.408724,0.000000,-9474.636058,995.924147
562.409048,0.000000,-9400.615463,689.485948
562.409373,-592.164754,-9474.636058,1378.971896
562.409697,-888.247130,-9918.759623,1072.533697
562.410021,-2220.617826,-9474.636058,-153.219100
562.410345,-2072.576638,-9252.574275,459.657299
562.410670,-1406.391290,-8512.368333,76.609550
562.410994,-296.082377,-8734.430116,153.219100
562.411318,0.000000,-8882.471304,153.219100
562.411642,666.185348,-9178.553681,76.609550
562.411967,1258.350101,-10066.800811,459.657299
562.412291,1332.370696,-11103.089130,229.828649
562.412615,1332.370696,-11103.089130,689.485948
562.412939,740.205942,-10066.800811,229.828649
562.413264,888.247130,-10732.986159,0.000000
562.413588,1110.308913,-11695.253884,-536.266849
562.413912,1406.391290,-11843.295072,-612.876398
562.414236,1332.370696,-11621.233289,-229.828649
562.414561,1776.494261,-11103.089130,0.000000
562.414885,2368.659014,-9918.759623,-229.828649
562.415209,2368.659014,-9548.656652,229.828649
562.415533,1554.432478,-9918.759623,0.000000
562.415858,1184.329507,-10807.006753,-306.438199
562.416182,222.061783,-10510.924376,-383.047749
562.416506,-888.247130,-9770.718434,-383.047749
562.416830,-1628.453072,-9326.594869,-229.828649
562.417155,-1110.308913,-9474.636058,0.000000
562.417479,0.000000,-10658.965565,76.609550
562.417803,148.041188,-10140.821405,229.828649
562.418127,-444.123565,-9400.615463,-306.438199
562.418452,-370.102971,-8216.285956,-76.609550
562.418776,74.020594,-7402.059420,-536.266849
562.419100,1554.432478,-7920.203579,0.000000
562.419424,2590.720797,-8512.368333,536.266849
562.419749,2146.597232,-9030.512492,536.266849
562.420073,740.205942,-9178.553681,842.705048
562.420397,444.123565,-9474.636058,1378.971896
562.420721,74.020594,-9696.697840,842.705048
562.421045,-296.082377,-9474.636058,612.876398
562.421370,-1110.308913,-9030.512492,0.000000
562.421694,-1850.514855,-8586.388927,-612.876398
562.422018,-1850.514855,-8512.368333,-919.314598
562.422342,-1924.535449,-8142.265362,-383.047749
562.422667,-962.267725,-8068.244768,0.000000
562.422991,-1036.288319,-7994.224174,0.000000
562.423315,-518.144159,-8660.409521,0.000000
562.423639,222.061783,-9104.533087,-612.876398
562.423964,0.000000,-9548.656652,-229.828649
562.424288,-740.205942,-10140.821405,383.047749
562.424612,-740.205942,-10288.862594,-153.219100
562.424936,-518.144159,-10807.006753,76.609550
562.425261,-740.205942,-11621.233289,919.314598
562.425585,-1036.288319,-11473.192101,-306.438199
562.425909,-1702.473667,-11251.130318,-536.266849
562.426233,-2442.679609,-10510.924376,-842.705048
562.426558,-1850.514855,-10066.800811,-1685.410096
562.426882,-1332.370696,-9474.636058,-842.705048
562.427206,-740.205942,-9400.615463,-919.314598
562.427530,0.000000,-10658.965565,-76.609550
562.427855,0.000000,-11177.109724,-536.266849
562.428179,-666.185348,-10436.903782,-1072.533697
562.428503,-1332.370696,-9844.739029,-1225.752797
562.428827,-1110.308913,-10362.883188,-995.924147
562.429152,0.000000,-10807.006753,-766.095498
562.429476,518.144159,-10955.047942,76.609550
562.429800,814.226536,-10362.883188,766.095498
562.430124,518.144159,-10066.800811,-153.219100
562.430449,666.185348,-9400.615463,-1149.143247
562.430773,1036.288319,-8364.327145,-536.266849
562.431097,1628.453072,-8882.471304,-459.657299
562.431421,2886.803174,-9844.739029,-229.828649
562.431746,2368.659014,-9474.636058,0.000000
562.432070,1110.308913,-9474.636058,0.000000
562.432394,0.000000,-9474.636058,-306.438199
562.432718,-592.164754,-9844.739029,-995.924147
562.433043,-444.123565,-10362.883188,-383.047749
562.433367,-592.164754,-10955.047942,-459.657299
562.433691,-666.185348,-10140.821405,-995.924147
562.434015,-518.144159,-9400.615463,-536.266849
562.434340,-296.082377,-9548.656652,153.219100
562.434664,1036.288319,-9844.739029,229.828649
562.434988,2072.576638,-9474.636058,536.266849
562.435312,2146.597232,-9104.533087,1072.533697
562.435637,1554.432478,-9178.553681,766.095498
562.435961,296.082377,-9548.656652,383.047749
562.436285,-962.267725,-8808.450710,842.705048
562.436609,-888.247130,-7698.141797,76.609550
562.436934,-296.082377,-8364.327145,0.000000
562.437258,-296.082377,-9400.615463,306.438199
562.437582,-592.164754,-9104.533087,-153.219100
562.437906,-1554.432478,-8142.265362,0.000000
562.438231,-2294.638420,-6883.915261,-612.876398
562.438555,-1480.411884,-7105.977043,-1302.362347
562.438879,-444.123565,-8068.244768,-766.095498
562.439203,1184.329507,-8882.471304,0.000000
562.439528,2368.659014,-9030.512492,842.705048
562.439852,2220.617826,-9104.533087,612.876398
562.440176,1850.514855,-9104.533087,-153.219100
562.440500,740.205942,-10066.800811,-306.438199
562.440825,148.041188,-10807.006753,229.828649
562.441149,444.123565,-11621.233289,76.609550
562.441473,74.020594,-12287.418637,0.000000
562.441797,-1258.350101,-11695.253884,0.000000
562.442122,-1850.514855,-10732.986159,-459.657299
562.442446,-1924.535449,-10658.965565,-1302.362347
562.442770,-1258.350101,-10881.027347,-766.095498
562.443094,-740.205942,-11621.233289,-536.266849
562.443419,-814.226536,-11029.068536,-1149.143247
562.443743,-1110.308913,-10140.821405,-612.876398
562.444067,-296.082377,-9696.697840,0.000000
562.444391,1036.288319,-10584.944971,76.609550
562.444716,1258.350101,-11251.130318,612.876398
562.445040,370.102971,-10732.986159,766.095498
562.445364,0.000000,-10214.842000,306.438199
562.445688,222.061783,-10362.883188,1149.143247
562.446013,222.061783,-10214.842000,842.705048
562.446337,-296.082377,-9400.615463,842.705048
562.446661,-1184.329507,-8808.450710,1302.362347
562.446985,-2220.617826,-8438.347739,-536.266849
562.447309,-2812.782580,-8586.388927,-229.828649
562.447634,-2812.782580,-8586.388927,229.828649
562.447958,-1184.329507,-8956.491898,919.314598
562.448282,740.205942,-8808.450710,612.876398
562.448606,1628.453072,-7624.121203,1072.533697
562.448931,2220.617826,-7846.182985,919.314598
562.449255,1332.370696,-9548.656652,919.314598
562.449579,666.185348,-10140.821405,919.314598
562.449903,0.000000,-9400.615463,536.266849
562.450228,-370.102971,-8364.327145,459.657299
562.450552,0.000000,-8956.491898,766.095498
562.450876,518.144159,-9622.677246,995.924147
562.451200,888.247130,-9918.759623,1149.143247
562.451525,0.000000,-8808.450710,536.266849
562.451849,0.000000,-7698.141797,689.485948
562.452173,-148.041188,-8438.347739,0.000000
562.452497,814.226536,-9030.512492,0.000000
562.452822,888.247130,-8734.430116,-766.095498
562.453146,-296.082377,-9474.636058,-689.485948
562.453470,-1036.288319,-9992.780217,-459.657299
562.453794,-592.164754,-10140.821405,-995.924147
562.454119,-740.205942,-9252.574275,-1838.629195
562.454443,0.000000,-9252.574275,-1991.848295
562.454767,1036.288319,-10658.965565,-2145.067394
562.455091,1924.535449,-11769.274478,-1532.190996
562.455416,2072.576638,-11769.274478,-459.657299
562.455740,1702.473667,-10807.006753,-612.876398
562.456064,1628.453072,-9770.718434,-1378.971896
562.456388,814.226536,-9918.759623,-1532.190996
562.456713,370.102971,-10955.047942,-1302.362347
562.457037,666.185348,-11991.336260,-1302.362347
562.457361,74.020594,-11917.315666,-536.266849
562.457685,-740.205942,-10955.047942,-459.657299
562.458010,-1184.329507,-9844.739029,-1378.971896
562.458334,-1110.308913,-10288.862594,-2068.457845
562.458658,-888.247130,-11177.109724,-1838.629195
562.458982,-1110.308913,-11177.109724,-2298.286494
562.459307,-1258.350101,-10214.842000,-1915.238745
562.459631,-1924.535449,-9918.759623,-1149.143247
562.459955,-962.267725,-9474.636058,0.000000
562.460279,740.205942,-9622.677246,-612.876398
562.460604,1036.288319,-9548.656652,0.000000
562.460928,1036.288319,-10214.842000,536.266849
562.461252,888.247130,-10955.047942,1072.533697
562.461576,518.144159,-9696.697840,766.095498
562.461901,222.061783,-7328.038826,-153.219100
562.462225,0.000000,-6587.832884,-842.705048
562.462549,148.041188,-7846.182985,-229.828649
562.462873,296.082377,-9474.636058,229.828649
562.463198,-148.041188,-8882.471304,459.657299
562.463522,-1110.308913,-7698.141797,612.876398
562.463846,-1258.350101,-6735.874072,0.000000
562.464170,-1406.391290,-7105.977043,-536.266849
562.464495,-1332.370696,-7994.224174,459.657299
562.464819,-518.144159,-8956.491898,536.266849
562.465143,-444.123565,-9326.594869,766.095498
562.465467,-1258.350101,-9252.574275,1302.362347
562.465792,-2368.659014,-8882.471304,0.000000
562.466116,-2812.782580,-8956.491898,-766.095498
562.466440,-2368.659014,-9770.718434,229.828649
562.466764,-1036.288319,-11103.089130,0.000000
562.467089,-1184.329507,-11177.109724,0.000000
562.467413,-2072.576638,-10732.986159,153.219100
562.467737,-1702.473667,-9474.636058,-153.219100
562.468061,0.000000,-9696.697840,-536.266849
562.468386,518.144159,-11251.130318,-766.095498
562.468710,962.267725,-11991.336260,76.609550
562.469034,1332.370696,-11029.068536,689.485948
562.469358,2516.700203,-11029.068536,612.876398
562.469683,2442.679609,-10732.986159,1072.533697
562.470007,2294.638420,-10658.965565,0.000000
562.470331,1480.411884,-10658.965565,-995.924147
562.470655,1554.432478,-10584.944971,-612.876398
562.470980,1850.514855,-11029.068536,-459.657299
562.471304,2072.576638,-10658.965565,612.876398
562.471628,1554.432478,-9622.677246,229.828649
562.471952,1184.329507,-9252.574275,-229.828649
562.472277,666.185348,-9696.697840,-612.876398
562.472601,1036.288319,-11103.089130,-612.876398
562.472925,1406.391290,-11251.130318,76.609550
562.473249,1258.350101,-10881.027347,689.485948
562.473573,814.226536,-9474.636058,383.047749
562.473898,0.000000,-9400.615463,306.438199
562.474222,-740.205942,-10436.903782,1072.533697
562.474546,-592.164754,-11621.233289,229.828649
562.474870,-1036.288319,-10881.027347,383.047749
562.475195,-962.267725,-9548.656652,919.314598
562.475519,-740.205942,-8586.388927,689.485948
562.475843,0.000000,-7476.080014,459.657299
562.476167,518.144159,-7402.059420,383.047749
562.476492,148.041188,-7920.203579,153.219100
562.476816,-148.041188,-7105.977043,-76.609550
562.477140,-296.082377,-5921.647536,76.609550
562.477464,-518.144159,-5329.482782,0.000000
562.477789,-296.082377,-5699.585753,229.828649
562.478113,0.000000,-7402.059420,76.609550
562.478437,-222.061783,-7920.203579,153.219100
562.478761,-444.123565,-7179.997637,76.609550
562.479086,-2146.597232,-6735.874072,-383.047749
562.479410,-2590.720797,-7550.100608,-459.657299
562.479734,-1850.514855,-8068.244768,-1072.533697
562.480058,-962.267725,-8660.409521,-842.705048
562.480383,-296.082377,-9548.656652,-842.705048
562.480707,74.020594,-9844.739029,-1455.581446
562.481031,444.123565,-10140.821405,-1455.581446
562.481355,0.000000,-10362.883188,-1149.143247
562.481680,0.000000,-11251.130318,-2068.457845
562.482004,-370.102971,-12731.542202,-1302.362347
562.482328,-1036.288319,-13619.789333,-1225.752797
562.482652,-740.205942,-13915.871710,-1762.019645
562.482977,-1036.288319,-13249.686362,-1608.800546
562.483301,-1332.370696,-11917.315666,-1302.362347
562.483625,-1332.370696,-11769.274478,-1608.800546
562.483949,-518.144159,-12361.439231,-1991.848295
562.484274,296.082377,-11251.130318,-1072.533697
562.484598,1332.370696,-10881.027347,-1378.971896
562.484922,962.267725,-10436.903782,-1378.971896
562.485246,518.144159,-10066.800811,-1302.362347
562.485571,1184.329507,-9844.739029,-1225.752797
562.485895,1702.473667,-11103.089130,-1608.800546
562.486219,888.247130,-12287.418637,-1608.800546
562.486543,592.164754,-11399.171507,-612.876398
562.486868,814.226536,-11769.274478,383.047749
562.487192,444.123565,-11251.130318,-229.828649
562.487516,-592.164754,-9622.677246,-153.219100
562.487840,-962.267725,-9474.636058,153.219100
562.488165,74.020594,-10584.944971,536.266849
562.488489,1776.494261,-10510.924376,1608.800546
562.488813,962.267725,-8364.327145,2145.067394
562.489137,0.000000,-7328.038826,1378.971896
562.489462,-1628.453072,-6883.915261,536.266849
562.489786,-1998.556043,-7402.059420,153.219100
562.490110,-1036.288319,-8438.347739,536.266849
562.490434,0.000000,-8068.244768,459.657299
562.490759,0.000000,-6957.935855,689.485948
562.491083,-592.164754,-6883.915261,1455.581446
562.491407,0.000000,-7846.182985,1685.410096
562.491731,370.102971,-7920.203579,1608.800546
562.492056,444.123565,-7772.162391,766.095498
562.492380,518.144159,-7031.956449,306.438199
562.492704,1184.329507,-6883.915261,842.705048
562.493028,1998.556043,-7550.100608,1149.143247
562.493353,1406.391290,-8142.265362,1149.143247
562.493677,518.144159,-7772.162391,612.876398
562.494001,0.000000,-8512.368333,229.828649
562.494325,-1184.329507,-10066.800811,0.000000
562.494649,-888.247130,-10881.027347,-153.219100
562.494974,-1924.535449,-10881.027347,459.657299
562.495298,-2812.782580,-11103.089130,0.000000
562.495622,-2960.823768,-11103.089130,-1378.971896
562.495946,-2738.761985,-11769.274478,-612.876398
562.496270,-1332.370696,-11843.295072,-2145.067394
562.496594,0.000000,-11325.150913,-383.047749
562.496918,370.102971,-11621.233289,-536.266849
562.497242,814.226536,-11547.212695,-842.705048
562.497566,1702.473667,-11325.150913,-306.438199
562.497890,2294.638420,-11991.336260,0.000000
562.498215,2886.803174,-12139.377449,-76.609550
562.498539,2442.679609,-12213.398043,0.000000
562.498863,2146.597232,-12139.377449,153.219100
562.499187,2072.576638,-11843.295072,383.047749
562.499511,1924.535449,-11103.089130,0.000000
562.499835,1258.350101,-10807.006753,459.657299
562.500159,1480.411884,-10658.965565,-306.438199
562.500483,1480.411884,-9622.677246,-383.047749
562.500807,962.267725,-8216.285956,-153.219100
562.501131,888.247130,-7550.100608,0.000000
562.501456,666.185348,-7920.203579,0.000000
562.501780,518.144159,-8808.450710,383.047749
562.502104,296.082377,-8808.450710,459.657299
562.502428,-814.226536,-9474.636058,1302.362347
562.502752,-2516.700203,-9474.636058,612.876398
562.503076,-3256.906145,-8512.368333,0.000000
562.503400,-3552.988522,-7846.182985,229.828649
562.503724,-3330.926739,-8068.244768,76.609550
562.504048,-2738.761985,-8660.409521,-383.047749
562.504372,-2368.659014,-8512.368333,536.266849
562.504697,-2294.638420,-7105.977043,842.705048
562.505021,-1406.391290,-6069.688724,0.000000
562.505345,-814.226536,-6365.771101,-306.438199
562.505669,-370.102971,-7476.080014,0.000000
562.505993,296.082377,-8364.327145,229.828649
562.506317,740.205942,-9178.553681,383.047749
562.506641,-370.102971,-9178.553681,153.219100
562.506965,-666.185348,-9474.636058,0.000000
562.507289,-814.226536,-9548.656652,-612.876398
562.507613,-518.144159,-9474.636058,-842.705048
562.507938,-666.185348,-10214.842000,-919.314598
562.508262,-1036.288319,-10881.027347,-1149.143247
562.508586,-1702.473667,-10955.047942,-1608.800546
562.508910,-370.102971,-10658.965565,-1991.848295
562.509234,666.185348,-9770.718434,-1762.019645
562.509558,1184.329507,-10214.842000,-1455.581446
562.509882,1480.411884,-11621.233289,-2221.676944
562.510206,1258.350101,-12065.356855,-2374.896044
562.510530,814.226536,-12731.542202,-1685.410096
562.510854,740.205942,-12953.603985,-1455.581446
562.511179,1184.329507,-12509.480420,-1762.019645
562.511503,1184.329507,-12805.562797,-1149.143247
562.511827,2294.638420,-12287.418637,-1378.971896
562.512151,1850.514855,-12139.377449,-1608.800546
562.512475,518.144159,-12805.562797,-1532.190996
562.512799,666.185348,-12139.377449,-1302.362347
562.513123,1406.391290,-10288.862594,-536.266849
562.513447,2072.576638,-9770.718434,-459.657299
562.513771,1924.535449,-10214.842000,-689.485948
562.514095,1924.535449,-10881.027347,0.000000
562.514420,1554.432478,-10584.944971,229.828649
562.514744,444.123565,-10288.862594,383.047749
562.515068,-148.041188,-9548.656652,766.095498
562.515392,-666.185348,-8734.430116,0.000000
562.515716,-1110.308913,-8808.450710,76.609550
562.516040,-1184.329507,-9030.512492,229.828649
562.516364,-1258.350101,-8216.285956,383.047749
562.516688,-1776.494261,-7698.141797,153.219100
562.517012,-1628.453072,-6365.771101,383.047749
562.517337,-592.164754,-5773.606348,536.266849
562.517661,592.164754,-6587.832884,1072.533697
562.517985,222.061783,-7179.997637,612.876398
562.518309,-1332.370696,-7772.162391,612.876398
562.518633,-2516.700203,-7328.038826,1072.533697
562.518957,-2886.803174,-7105.977043,689.485948
562.519281,-2368.659014,-8290.306550,995.924147
562.519605,-1480.411884,-9104.533087,1149.143247
562.519929,-444.123565,-8586.388927,383.047749
562.520253,-444.123565,-8216.285956,612.876398
562.520578,-148.041188,-8512.368333,306.438199
562.520902,740.205942,-7698.141797,153.219100
562.521226,1110.308913,-8290.306550,459.657299
562.521550,1184.329507,-9326.594869,76.609550
562.521874,1702.473667,-9918.759623,-229.828649
562.522198,1480.411884,-10510.924376,0.000000
562.522522,962.267725,-11029.068536,689.485948
562.522846,518.144159,-11325.150913,995.924147
562.523170,222.061783,-11029.068536,612.876398
562.523494,74.020594,-11991.336260,919.314598
562.523819,-740.205942,-12509.480420,0.000000
562.524143,-1036.288319,-12583.501014,-229.828649
562.524467,-814.226536,-11621.233289,-383.047749
562.524791,-444.123565,-10362.883188,0.000000
562.525115,-222.061783,-10362.883188,-306.438199
562.525439,444.123565,-10510.924376,-153.219100
562.525763,148.041188,-10807.006753,-919.314598
562.526087,222.061783,-11843.295072,-612.876398
562.526411,222.061783,-11103.089130,-229.828649
562.526735,1184.329507,-11029.068536,306.438199
562.527060,1480.411884,-11621.233289,306.438199
562.527384,962.267725,-11843.295072,76.609550
562.527708,518.144159,-11695.253884,1532.190996
562.528032,-296.082377,-11843.295072,1685.410096
562.528356,-740.205942,-10436.903782,306.438199
562.528680,-1258.350101,-8364.327145,-229.828649
562.529004,-1258.350101,-7550.100608,0.000000
562.529328,-444.123565,-8586.388927,229.828649
562.529652,1036.288319,-9030.512492,1072.533697
562.529976,888.247130,-8586.388927,842.705048
562.530301,-666.185348,-7031.956449,459.657299
562.530625,-1036.288319,-6069.688724,76.609550
562.530949,-444.123565,-7624.121203,0.000000
562.531273,-222.061783,-8660.409521,612.876398
562.531597,0.000000,-8956.491898,612.876398
562.531921,-592.164754,-8586.388927,842.705048
562.532245,-1110.308913,-7698.141797,459.657299
562.532569,-740.205942,-7402.059420,0.000000
562.532893,-740.205942,-6883.915261,-612.876398
562.533217,-888.247130,-7994.224174,-229.828649
562.533542,444.123565,-8956.491898,0.000000
562.533866,814.226536,-9400.615463,612.876398
562.534190,592.164754,-8734.430116,459.657299
562.534514,592.164754,-7920.203579,0.000000
562.534838,444.123565,-8364.327145,-1302.362347
562.535162,0.000000,-10288.862594,-612.876398
562.535486,444.123565,-10955.047942,-1225.752797
562.535810,370.102971,-10362.883188,-1455.581446
562.536134,-444.123565,-10140.821405,-1225.752797
562.536459,-148.041188,-9992.780217,-1915.238745
562.536783,74.020594,-10510.924376,-2451.505594
562.537107,148.041188,-11177.109724,-1608.800546
562.537431,888.247130,-11325.150913,-1991.848295
562.537755,666.185348,-11473.192101,-1838.629195
562.538079,1110.308913,-11843.295072,-995.924147
562.538403,1480.411884,-11695.253884,-1455.581446
562.538727,888.247130,-11621.233289,-766.095498
562.539051,666.185348,-11991.336260,-1685.410096
562.539375,814.226536,-12657.521608,-1455.581446
562.539700,740.205942,-12361.439231,-1991.848295
562.540024,666.185348,-11843.295072,-1455.581446
562.540348,962.267725,-11399.171507,-842.705048
562.540672,666.185348,-11103.089130,-536.266849
562.540996,444.123565,-10881.027347,-1378.971896
562.541320,0.000000,-10288.862594,-842.705048
562.541644,-296.082377,-10436.903782,-766.095498
562.541968,-814.226536,-10658.965565,-153.219100
562.542292,-962.267725,-9770.718434,-306.438199
562.542616,-1406.391290,-8808.450710,306.438199
562.542941,-740.205942,-8956.491898,536.266849
562.543265,-814.226536,-9474.636058,383.047749
562.543589,-814.226536,-8660.409521,1608.800546
562.543913,-1554.432478,-8882.471304,1378.971896
562.544237,-2072.576638,-8438.347739,766.095498
562.544561,-2368.659014,-7772.162391,536.266849
562.544885,-2072.576638,-7328.038826,689.485948
562.545209,-666.185348,-7550.100608,1225.752797
562.545533,74.020594,-7920.203579,1608.800546
562.545857,-1184.329507,-7402.059420,1838.629195
562.546182,-1628.453072,-6439.791695,1685.410096
562.546506,-1332.370696,-6365.771101,995.924147
562.546830,-1332.370696,-6957.935855,1149.143247
562.547154,-814.226536,-8142.265362,1378.971896
562.547478,-518.144159,-9104.533087,1915.238745
562.547802,-1554.432478,-8956.491898,766.095498
562.548126,-2146.597232,-7846.182985,842.705048
562.548450,-1184.329507,-7476.080014,1149.143247
562.548774,0.000000,-9178.553681,612.876398
562.549098,592.164754,-10436.903782,459.657299
562.549423,444.123565,-10288.862594,229.828649
562.549747,296.082377,-10436.903782,459.657299
562.550071,1110.308913,-10436.903782,0.000000
562.550395,1850.514855,-10732.986159,153.219100
562.550719,1924.535449,-11251.130318,306.438199
562.551043,2960.823768,-12435.459826,0.000000
562.551367,2812.782580,-12361.439231,-612.876398
562.551691,2072.576638,-12657.521608,-306.438199
562.552015,962.267725,-12509.480420,-383.047749
562.552339,888.247130,-11473.192101,-612.876398
562.552664,-444.123565,-10288.862594,-919.314598
562.552988,444.123565,-11029.068536,-383.047749
562.553312,1258.350101,-10807.006753,-612.876398
562.553636,814.226536,-10732.986159,-689.485948
562.553960,222.061783,-9770.718434,-689.485948
562.554284,296.082377,-9030.512492,-766.095498
562.554608,444.123565,-9178.553681,-459.657299
562.554932,518.144159,-9992.780217,-1072.533697
562.555256,222.061783,-9474.636058,-383.047749
562.555580,74.020594,-9992.780217,-383.047749
562.555905,-666.185348,-9622.677246,-842.705048
562.556229,-296.082377,-9326.594869,-766.095498
562.556553,148.041188,-9400.615463,-229.828649
562.556877,444.123565,-10214.842000,0.000000
562.557201,962.267725,-10510.924376,306.438199
562.557525,-74.020594,-9178.553681,306.438199
562.557849,-370.102971,-9030.512492,0.000000
562.558173,-370.102971,-8142.265362,-306.438199
562.558497,518.144159,-8956.491898,459.657299
562.558822,1110.308913,-9326.594869,919.314598
562.559146,1184.329507,-9252.574275,842.705048
562.559470,518.144159,-7920.203579,306.438199
562.559794,-962.267725,-7179.997637,0.000000
562.560118,-1332.370696,-7179.997637,-842.705048
562.560442,-1406.391290,-7402.059420,-689.485948
562.560766,-740.205942,-8364.327145,-153.219100
562.561090,-222.061783,-9104.533087,612.876398
562.561414,0.000000,-9178.553681,766.095498
562.561738,0.000000,-8216.285956,383.047749
562.562063,-222.061783,-7254.018232,-612.876398
562.562387,0.000000,-8586.388927,-153.219100
562.562711,-148.041188,-9770.718434,76.609550
562.563035,814.226536,-10140.821405,383.047749
562.563359,222.061783,-10214.842000,612.876398
562.563683,-148.041188,-10436.903782,536.266849
562.564007,-740.205942,-9992.780217,-536.266849
562.564331,-1628.453072,-10140.821405,-1072.533697
562.564655,-1850.514855,-11177.109724,-842.705048
562.564979,-1924.535449,-11769.274478,-76.609550
562.565304,-1110.308913,-11991.336260,-306.438199
562.565628,-2368.659014,-10881.027347,229.828649
562.565952,-2516.700203,-10288.862594,-995.924147
562.566276,-1998.556043,-10362.883188,-919.314598
562.566600,-740.205942,-11547.212695,-689.485948
562.566924,296.082377,-11399.171507,459.657299
562.567248,444.123565,-11029.068536,153.219100
562.567572,-222.061783,-10066.800811,-153.219100
562.567896,-222.061783,-9918.759623,0.000000
562.568220,-222.061783,-10510.924376,0.000000
562.568545,296.082377,-11103.089130,-229.828649
562.568869,592.164754,-10807.006753,-459.657299
562.569193,296.082377,-10436.903782,0.000000
562.569517,814.226536,-10436.903782,76.609550
562.569841,814.226536,-9696.697840,76.609550
562.570165,370.102971,-8586.388927,0.000000
562.570489,518.144159,-8808.450710,-229.828649
562.570813,740.205942,-9400.615463,0.000000
562.571137,1258.350101,-9548.656652,842.705048
562.571461,1184.329507,-9326.594869,459.657299
562.571786,370.102971,-8586.388927,536.266849
562.572110,296.082377,-8068.244768,306.438199
562.572434,222.061783,-9030.512492,76.609550
562.572758,222.061783,-8882.471304,229.828649
562.573082,370.102971,-8956.491898,383.047749
562.573406,-592.164754,-8956.491898,1149.143247
562.573730,-814.226536,-8216.285956,919.314598
562.574054,-296.082377,-7031.956449,0.000000
562.574378,444.123565,-7254.018232,0.000000
562.574702,1110.308913,-8142.265362,306.438199
562.575027,1924.535449,-8290.306550,689.485948
562.575351,2294.638420,-8068.244768,919.314598
562.575675,1406.391290,-7105.977043,0.000000
562.575999,1258.350101,-7920.203579,459.657299
562.576323,1776.494261,-9992.780217,-229.828649
562.576647,1554.432478,-10732.986159,-919.314598
562.576971,444.123565,-10881.027347,0.000000
562.577295,-518.144159,-11029.068536,0.000000
562.577619,-666.185348,-10807.006753,0.000000
562.577943,-370.102971,-10362.883188,-153.219100
562.578268,0.000000,-10288.862594,153.219100
562.578592,148.041188,-10658.965565,-306.438199
562.578916,814.226536,-10807.006753,-306.438199
562.579240,444.123565,-10140.821405,0.000000
562.579564,0.000000,-9844.739029,-383.047749
562.579888,0.000000,-10288.862594,76.609550
562.580212,-370.102971,-11325.150913,383.047749
562.580536,-666.185348,-11029.068536,-612.876398
562.580860,-1554.432478,-10584.944971,-842.705048
562.581185,-2368.659014,-10807.006753,-919.314598
562.581509,-1998.556043,-11251.130318,-612.876398
562.581833,-222.061783,-10436.903782,-383.047749
562.582157,0.000000,-9696.697840,0.000000
562.582481,0.000000,-9992.780217,0.000000
562.582805,296.082377,-9918.759623,536.266849
562.583129,-370.102971,-9992.780217,0.000000
562.583453,-592.164754,-9992.780217,919.314598
562.583777,-592.164754,-9918.759623,842.705048
562.584101,-518.144159,-10362.883188,1225.752797
562.584426,-296.082377,-10658.965565,1149.143247
562.584750,-962.267725,-10066.800811,1072.533697
562.585074,-2368.659014,-9622.677246,459.657299
562.585398,-3552.988522,-9474.636058,459.657299
562.585722,-3182.885551,-9400.615463,0.000000
562.586046,-2960.823768,-8364.327145,0.000000
562.586370,-2294.638420,-6957.935855,-383.047749
562.586694,-962.267725,-7328.038826,-229.828649
562.587018,-666.185348,-8364.327145,0.000000
562.587342,-296.082377,-7772.162391,-306.438199
562.587667,0.000000,-7402.059420,153.219100
562.587991,592.164754,-8142.265362,1608.800546
562.588315,2368.659014,-9622.677246,766.095498
562.588639,2368.659014,-10066.800811,766.095498
562.588963,666.185348,-9770.718434,536.266849
562.589287,-222.061783,-9918.759623,153.219100
562.589611,962.267725,-9992.780217,153.219100
562.589935,1998.556043,-10214.842000,1378.971896
562.590259,1850.514855,-9844.739029,383.047749
562.590583,1998.556043,-9252.574275,0.000000
562.590908,1110.308913,-9326.594869,-612.876398
562.591232,888.247130,-9918.759623,-689.485948
562.591556,444.123565,-9622.677246,-1149.143247
562.591880,0.000000,-9252.574275,-766.095498
562.592204,296.082377,-8808.450710,-689.485948
562.592528,962.267725,-9696.697840,-459.657299
562.592853,74.020594,-11029.068536,0.000000
562.593177,-1702.473667,-10288.862594,-689.485948
562.593501,-2294.638420,-9252.574275,-766.095498
562.593825,-1480.411884,-9400.615463,-459.657299
562.594149,0.000000,-9770.718434,-766.095498
562.594474,1480.411884,-9326.594869,383.047749
562.594798,1850.514855,-9030.512492,0.000000
562.595122,1924.535449,-8808.450710,-612.876398
562.595446,2294.638420,-9252.574275,-383.047749
562.595771,2664.741391,-9918.759623,0.000000
562.596095,3034.844362,-10362.883188,0.000000
562.596419,2812.782580,-11177.109724,0.000000
562.596743,1776.494261,-12139.377449,-153.219100
562.597067,0.000000,-12805.562797,-459.657299
562.597392,-1480.411884,-11917.315666,-766.095498
562.597716,-3034.844362,-10436.903782,-1225.752797
562.598040,-3034.844362,-10510.924376,-995.924147
562.598364,-1850.514855,-10807.006753,-919.314598
562.598689,-888.247130,-10658.965565,-383.047749
562.599013,-1036.288319,-9992.780217,612.876398
562.599337,-148.041188,-8956.491898,76.609550
562.599661,74.020594,-8882.471304,306.438199
562.599985,814.226536,-9548.656652,919.314598
562.600310,740.205942,-9548.656652,383.047749
562.600634,666.185348,-8882.471304,306.438199
562.600958,-1036.288319,-8808.450710,-153.219100
562.601282,-2220.617826,-8882.471304,-306.438199
562.601606,-2294.638420,-8956.491898,306.438199
562.601931,-1036.288319,-8660.409521,689.485948
562.602255,0.000000,-8290.306550,842.705048
562.602579,0.000000,-7476.080014,536.266849
562.602903,-666.185348,-7920.203579,766.095498
562.603228,-1184.329507,-7920.203579,766.095498
562.603552,-370.102971,-8068.244768,1378.971896
562.603876,296.082377,-7994.224174,1532.190996
562.604200,592.164754,-8142.265362,995.924147
562.604524,0.000000,-9178.553681,842.705048
562.604849,-1332.370696,-10214.842000,766.095498
562.605173,-1924.535449,-10066.800811,0.000000
562.605497,-1998.556043,-10214.842000,0.000000
562.605821,-2664.741391,-10881.027347,229.828649
562.606145,-2442.679609,-10807.006753,76.609550
562.606470,-1480.411884,-10658.965565,0.000000
562.606794,-1628.453072,-10732.986159,229.828649
562.607118,-1036.288319,-10066.800811,-536.266849
562.607442,-296.082377,-9474.636058,0.000000
562.607767,962.267725,-10140.821405,306.438199
562.608091,1850.514855,-10732.986159,689.485948
562.608415,2146.597232,-10658.965565,842.705048
562.608739,962.267725,-11621.233289,995.924147
562.609063,444.123565,-11621.233289,689.485948
562.609388,370.102971,-10140.821405,919.314598
562.609712,296.082377,-9326.594869,76.609550
562.610036,74.020594,-9474.636058,0.000000
562.610360,444.123565,-9844.739029,0.000000
562.610685,1110.308913,-10140.821405,76.609550
562.611009,1184.329507,-8660.409521,76.609550
562.611333,1480.411884,-7402.059420,-153.219100
562.611657,1628.453072,-8290.306550,76.609550
562.611981,1776.494261,-9696.697840,689.485948
562.612306,2368.659014,-10510.924376,766.095498
562.612630,1850.514855,-10288.862594,536.266849
562.612954,1036.288319,-9474.636058,0.000000
562.613278,592.164754,-8808.450710,229.828649
562.613602,518.144159,-10066.800811,766.095498
562.613927,962.267725,-10584.944971,229.828649
562.614251,740.205942,-9548.656652,459.657299
562.614575,0.000000,-9030.512492,459.657299
562.614899,370.102971,-8216.285956,0.000000
562.615224,740.205942,-7031.956449,-612.876398
562.615548,1184.329507,-7254.018232,0.000000
562.615872,2072.576638,-8734.430116,-153.219100
562.616196,2368.659014,-9474.636058,0.000000
562.616520,1110.308913,-9622.677246,153.219100
562.616845,-518.144159,-9030.512492,-306.438199
562.617169,-1184.329507,-8882.471304,-1149.143247
562.617493,-888.247130,-9992.780217,-229.828649
562.617817,-370.102971,-10658.965565,-1149.143247
562.618141,-518.144159,-10732.986159,-383.047749
562.618466,0.000000,-10955.047942,-153.219100
562.618790,592.164754,-10140.821405,-612.876398
562.619114,740.205942,-9326.594869,-919.314598
562.619438,518.144159,-8438.347739,-766.095498
562.619763,370.102971,-9548.656652,-919.314598
562.620087,444.123565,-11251.130318,-995.924147
562.620411,444.123565,-11177.109724,-459.657299
562.620735,-666.185348,-10807.006753,76.609550
562.621059,-1184.329507,-10955.047942,-383.047749
562.621384,-2368.659014,-10658.965565,-842.705048
562.621708,-3627.009116,-10881.027347,-995.924147
562.622032,-3923.091493,-11103.089130,-1072.533697
562.622356,-4293.194464,-11029.068536,-1302.362347
562.622681,-3627.009116,-9844.739029,-1302.362347
562.623005,-1998.556043,-7772.162391,-995.924147
562.623329,-666.185348,-7772.162391,-842.705048
562.623653,-370.102971,-8660.409521,-919.314598
562.623977,-222.061783,-9178.553681,-229.828649
562.624302,-148.041188,-9844.739029,383.047749
562.624626,-370.102971,-9474.636058,536.266849
562.624950,-740.205942,-8660.409521,0.000000
562.625274,-888.247130,-9326.594869,383.047749
562.625598,-222.061783,-11103.089130,536.266849
562.625923,-666.185348,-11399.171507,0.000000
562.626247,-1480.411884,-10807.006753,612.876398
562.626571,-1702.473667,-9992.780217,459.657299
562.626895,-592.164754,-8956.491898,383.047749
562.627220,0.000000,-8512.368333,842.705048
562.627544,74.020594,-8808.450710,76.609550
562.627868,740.205942,-9474.636058,0.000000
562.628192,1480.411884,-9770.718434,536.266849
562.628516,1628.453072,-9770.718434,306.438199
562.628841,1184.329507,-9252.574275,536.266849
562.629165,962.267725,-9696.697840,459.657299
562.629489,888.247130,-10510.924376,0.000000
562.629813,296.082377,-10510.924376,0.000000
562.630137,0.000000,-10510.924376,0.000000
562.630462,0.000000,-10066.800811,459.657299
562.630786,888.247130,-9104.533087,536.266849
562.631110,1702.473667,-8586.388927,1072.533697
562.631434,2072.576638,-9030.512492,536.266849
562.631759,2294.638420,-8586.388927,766.095498
562.632083,2072.576638,-9400.615463,1149.143247
562.632407,1998.556043,-9252.574275,1455.581446
562.632731,1110.308913,-8586.388927,919.314598
562.633055,148.041188,-8734.430116,842.705048
562.633380,0.000000,-9474.636058,229.828649
562.633704,296.082377,-9548.656652,-153.219100
562.634028,666.185348,-9992.780217,76.609550
562.634352,222.061783,-9622.677246,0.000000
562.634677,-592.164754,-8586.388927,-459.657299
562.635001,222.061783,-8882.471304,-229.828649
562.635325,888.247130,-9104.533087,-306.438199
562.635649,1184.329507,-9992.780217,-153.219100
562.635973,888.247130,-9918.759623,459.657299
562.636298,0.000000,-10510.924376,689.485948
562.636622,370.102971,-10510.924376,766.095498
562.636946,1110.308913,-9696.697840,1072.533697
562.637270,1110.308913,-10214.842000,766.095498
562.637594,518.144159,-10584.944971,0.000000
562.637919,444.123565,-11251.130318,0.000000
562.638243,-222.061783,-11029.068536,-383.047749
562.638567,-814.226536,-9918.759623,-153.219100
562.638891,-814.226536,-9474.636058,229.828649
562.639216,-592.164754,-9326.594869,-383.047749
562.639540,-444.123565,-9326.594869,-1149.143247
562.639864,-1406.391290,-8660.409521,-383.047749
562.640188,-1628.453072,-10066.800811,306.438199
562.640512,-1332.370696,-10732.986159,229.828649
562.640837,-592.164754,-9474.636058,459.657299
562.641161,-1110.308913,-8512.368333,1225.752797
562.641485,-888.247130,-9474.636058,459.657299
562.641809,-1036.288319,-10288.862594,153.219100
562.642133,-1924.535449,-9474.636058,383.047749
562.642458,-2220.617826,-8956.491898,383.047749
562.642782,-2368.659014,-8290.306550,383.047749
562.643106,-1702.473667,-9178.553681,0.000000
562.643430,-666.185348,-9104.533087,229.828649
562.643755,74.020594,-9400.615463,0.000000
562.644079,-444.123565,-9474.636058,-459.657299
562.644403,-1554.432478,-8660.409521,-306.438199
562.644727,-740.205942,-8364.327145,383.047749
562.645051,222.061783,-9622.677246,1072.533697
562.645376,444.123565,-10214.842000,766.095498
562.645700,-296.082377,-9844.739029,153.219100
562.646024,-1702.473667,-9770.718434,0.000000
562.646348,-1702.473667,-9696.697840,76.609550
562.646673,-1480.411884,-9178.553681,76.609550
562.646997,-666.185348,-9622.677246,-229.828649
562.647321,-370.102971,-9326.594869,-229.828649
562.647645,74.020594,-9474.636058,-612.876398
562.647969,518.144159,-10436.903782,-153.219100
562.648294,962.267725,-10288.862594,-306.438199
562.648618,1554.432478,-9844.739029,-383.047749
562.648942,1776.494261,-9770.718434,-383.047749
562.649266,1998.556043,-10584.944971,-536.266849
562.649590,2590.720797,-11695.253884,-612.876398
562.649915,1702.473667,-11843.295072,0.000000
562.650239,370.102971,-10807.006753,-459.657299
562.650563,-518.144159,-9400.615463,-536.266849
562.650887,-962.267725,-9252.574275,-919.314598
562.651212,0.000000,-9992.780217,-459.657299
562.651536,814.226536,-10214.842000,0.000000
562.651860,1332.370696,-10140.821405,-383.047749
562.652184,1036.288319,-9252.574275,76.609550
562.652508,962.267725,-8660.409521,-689.485948
562.652833,1184.329507,-8512.368333,-612.876398
562.653157,1184.329507,-9474.636058,-1072.533697
562.653481,1258.350101,-10066.800811,-689.485948
562.653805,740.205942,-10658.965565,-153.219100
562.654129,222.061783,-10658.965565,-919.314598
562.654454,-222.061783,-8956.491898,-459.657299
562.654778,0.000000,-9400.615463,-612.876398
562.655102,296.082377,-9770.718434,-689.485948
562.655426,1036.288319,-9696.697840,-229.828649
562.655751,222.061783,-9622.677246,0.000000
562.656075,0.000000,-9474.636058,-229.828649
562.656399,-148.041188,-8586.388927,-306.438199
562.656723,222.061783,-8512.368333,0.000000
562.657047,296.082377,-9104.533087,-612.876398
562.657372,296.082377,-10066.800811,-842.705048
562.657696,592.164754,-10288.862594,-229.828649
562.658020,0.000000,-10584.944971,306.438199
562.658344,-222.061783,-10362.883188,0.000000
562.658669,-444.123565,-9696.697840,0.000000
562.658993,-1628.453072,-9918.759623,-536.266849
562.659317,-1702.473667,-10214.842000,-612.876398
562.659641,-2146.597232,-10214.842000,-153.219100
562.659965,-2516.700203,-10214.842000,-153.219100
562.660290,-1998.556043,-9548.656652,76.609550
562.660614,-444.123565,-8956.491898,689.485948
562.660938,814.226536,-9252.574275,1072.533697
562.661262,1258.350101,-10436.903782,1225.752797
562.661586,74.020594,-10732.986159,995.924147
562.661911,-1184.329507,-9548.656652,766.095498
562.662235,-1924.535449,-9326.594869,995.924147
562.662559,-2072.576638,-9474.636058,459.657299
562.662883,-2220.617826,-9104.533087,306.438199
562.663208,-2294.638420,-9178.553681,459.657299
562.663532,-1924.535449,-9622.677246,919.314598
562.663856,-666.185348,-9844.739029,842.705048
562.664180,-592.164754,-8660.409521,919.314598
562.664504,-814.226536,-7402.059420,1225.752797
562.664829,-296.082377,-8142.265362,612.876398
562.665153,296.082377,-9548.656652,306.438199
562.665477,222.061783,-9992.780217,612.876398
562.665801,74.020594,-9252.574275,1302.362347
562.666125,888.247130,-9326.594869,1072.533697
562.666450,1332.370696,-10288.862594,689.485948
562.666774,1110.308913,-10881.027347,459.657299
562.667098,1036.288319,-11399.171507,1149.143247
562.667422,814.226536,-11473.192101,229.828649
562.667747,148.041188,-11547.212695,0.000000
562.668071,-222.061783,-10214.842000,919.314598
562.668395,666.185348,-9696.697840,1225.752797
562.668719,2072.576638,-9992.780217,842.705048
562.669043,2220.617826,-9992.780217,229.828649
562.669368,2220.617826,-8882.471304,306.438199
562.669692,1406.391290,-8586.388927,0.000000
562.670016,1628.453072,-8956.491898,0.000000
562.670340,1406.391290,-8512.368333,0.000000
562.670665,740.205942,-8364.327145,-306.438199
562.670989,148.041188,-9104.533087,-612.876398
562.671313,222.061783,-9474.636058,-995.924147
562.671637,444.123565,-9770.718434,-536.266849
562.671961,518.144159,-8882.471304,-306.438199
562.672286,814.226536,-8290.306550,-612.876398
562.672610,1036.288319,-9178.553681,-536.266849
562.672934,1702.473667,-9770.718434,-536.266849
562.673258,2072.576638,-10214.842000,-153.219100
562.673582,1850.514855,-10288.862594,-383.047749
562.673907,666.185348,-9548.656652,-842.705048
562.674231,74.020594,-9252.574275,-919.314598
562.674555,0.000000,-9992.780217,-1149.143247
562.674879,-222.061783,-11399.171507,-1149.143247
562.675204,-888.247130,-11769.274478,-383.047749
562.675528,-1924.535449,-11621.233289,-459.657299
562.675852,-2738.761985,-11251.130318,-995.924147
562.676176,-2368.659014,-9326.594869,-1225.752797
562.676500,-1628.453072,-9252.574275,-1378.971896
562.676825,-740.205942,-9770.718434,-1532.190996
562.677149,444.123565,-10362.883188,-995.924147
562.677473,1110.308913,-10140.821405,-306.438199
562.677797,1036.288319,-8956.491898,0.000000
562.678121,444.123565,-8290.306550,-459.657299
562.678446,0.000000,-9844.739029,-689.485948
562.678770,0.000000,-9918.759623,-689.485948
562.679094,-148.041188,-10214.842000,-306.438199
562.679418,-740.205942,-10214.842000,0.000000
562.679743,-1184.329507,-9770.718434,-153.219100
562.680067,-1406.391290,-9178.553681,0.000000
562.680391,-1110.308913,-9030.512492,306.438199
562.680715,-814.226536,-9252.574275,-153.219100
562.681039,-1628.453072,-9104.533087,-995.924147
562.681364,-2294.638420,-9178.553681,-536.266849
562.681688,-2294.638420,-8956.491898,-383.047749
562.682012,-1406.391290,-9474.636058,0.000000
562.682336,-1184.329507,-9696.697840,229.828649
562.682661,-1332.370696,-10140.821405,536.266849
562.682985,-1702.473667,-10584.944971,459.657299
562.683309,-1850.514855,-10807.006753,153.219100
562.683633,-2146.597232,-9918.759623,-306.438199
562.683957,-2516.700203,-9104.533087,0.000000
562.684282,-1480.411884,-9326.594869,0.000000
562.684606,296.082377,-9918.759623,0.000000
562.684930,2072.576638,-9474.636058,306.438199
562.685254,2442.679609,-9474.636058,612.876398
562.685578,1628.453072,-8956.491898,0.000000
562.685903,1480.411884,-9030.512492,229.828649
562.686227,1036.288319,-9252.574275,229.828649
562.686551,888.247130,-10214.842000,153.219100
562.686875,1332.370696,-10510.924376,306.438199
562.687200,1184.329507,-10214.842000,306.438199
562.687524,666.185348,-10881.027347,0.000000
562.687848,148.041188,-9770.718434,-766.095498
562.688172,296.082377,-9918.759623,153.219100
562.688496,148.041188,-9844.739029,76.609550
562.688821,444.123565,-9548.656652,-459.657299
562.689145,1036.288319,-9474.636058,-306.438199
562.689469,1184.329507,-9400.615463,-459.657299
562.689793,1924.535449,-8734.430116,-153.219100
562.690117,2368.659014,-9104.533087,-306.438199
562.690442,1850.514855,-10214.842000,459.657299
562.690766,1332.370696,-10214.842000,459.657299
562.691090,1480.411884,-10658.965565,153.219100
562.691414,-296.082377,-10658.965565,0.000000
562.691739,-1776.494261,-9770.718434,-153.219100
562.692063,-1332.370696,-9474.636058,459.657299
562.692387,518.144159,-9622.677246,689.485948
562.692711,1702.473667,-9474.636058,766.095498
562.693035,1776.494261,-7994.224174,995.924147
562.693360,1110.308913,-7105.977043,0.000000
562.693684,814.226536,-7105.977043,-612.876398
562.694008,592.164754,-7920.203579,-919.314598
562.694332,370.102971,-8808.450710,0.000000
562.694657,740.205942,-9474.636058,919.314598
562.694981,592.164754,-10584.944971,612.876398
562.695305,-222.061783,-10584.944971,-306.438199
562.695629,-1702.473667,-9474.636058,-459.657299
562.695953,-2294.638420,-10288.862594,-153.219100
562.696278,-1554.432478,-11769.274478,-766.095498
562.696602,-888.247130,-11251.130318,-459.657299
562.696926,-740.205942,-10140.821405,-459.657299
562.697250,-1406.391290,-9696.697840,-536.266849
562.697574,-296.082377,-10140.821405,-1149.143247
562.697898,740.205942,-10436.903782,-153.219100
562.698223,1110.308913,-10510.924376,-306.438199
562.698547,666.185348,-10807.006753,-229.828649
562.698871,296.082377,-11917.315666,536.266849
562.699195,-148.041188,-12213.398043,0.000000
562.699519,-888.247130,-11991.336260,0.000000
562.699844,-2664.741391,-11621.233289,-153.219100
562.700168,-3627.009116,-10955.047942,-689.485948
562.700492,-2812.782580,-9992.780217,-919.314598
562.700816,-1702.473667,-9326.594869,229.828649
562.701140,-1554.432478,-8882.471304,459.657299
562.701465,-1998.556043,-7550.100608,0.000000
562.701789,-2368.659014,-5995.668130,0.000000
562.702113,-2368.659014,-6365.771101,0.000000
562.702437,-1332.370696,-7920.203579,-306.438199
562.702761,-666.185348,-8808.450710,0.000000
562.703086,-222.061783,-8660.409521,306.438199
562.703410,962.267725,-8216.285956,383.047749
562.703734,1924.535449,-8734.430116,1149.143247
562.704058,2294.638420,-9548.656652,995.924147
562.704382,1850.514855,-9844.739029,1302.362347
562.704707,1480.411884,-9474.636058,153.219100
562.705031,222.061783,-9770.718434,0.000000
562.705355,296.082377,-8882.471304,0.000000
562.705679,1110.308913,-8364.327145,383.047749
562.706003,1406.391290,-9252.574275,995.924147
562.706328,592.164754,-9696.697840,-229.828649
562.706652,-518.144159,-9844.739029,0.000000
562.706976,-1702.473667,-10732.986159,-383.047749
562.707300,-1924.535449,-11251.130318,-1072.533697
562.707624,-1258.350101,-10584.944971,-459.657299
562.707948,-592.164754,-11103.089130,-612.876398
562.708273,-148.041188,-10362.883188,-919.314598
562.708597,222.061783,-9844.739029,-842.705048
562.708921,1776.494261,-10066.800811,-766.095498
562.709245,1776.494261,-9770.718434,-1225.752797
562.709569,2368.659014,-9474.636058,-306.438199
562.709894,2960.823768,-9918.759623,76.609550
562.710218,3330.926739,-10436.903782,-459.657299
562.710542,2886.803174,-10584.944971,306.438199
562.710866,1924.535449,-10658.965565,842.705048
562.711190,962.267725,-10436.903782,-766.095498
562.711515,222.061783,-9548.656652,-689.485948
562.711839,0.000000,-9770.718434,-153.219100
562.712163,-222.061783,-9770.718434,-1149.143247
562.712487,-740.205942,-9104.533087,-1302.362347
562.712811,-1036.288319,-8512.368333,-612.876398
562.713136,-740.205942,-8956.491898,-919.314598
562.713460,74.020594,-8586.388927,-1302.362347
562.713784,1258.350101,-8364.327145,-766.095498
562.714108,2368.659014,-9178.553681,-459.657299
562.714432,2664.741391,-10881.027347,76.609550
562.714757,1628.453072,-11769.274478,153.219100
562.715081,-296.082377,-11843.295072,-383.047749
562.715405,-1628.453072,-10807.006753,306.438199
562.715729,-1924.535449,-10510.924376,0.000000
562.716053,-1850.514855,-10955.047942,-306.438199
562.716378,-1406.391290,-10881.027347,0.000000
562.716702,-962.267725,-10510.924376,229.828649
562.717026,-592.164754,-9178.553681,229.828649
562.717350,-666.185348,-7698.141797,153.219100
562.717674,-962.267725,-7179.997637,459.657299
562.717998,-814.226536,-7920.203579,0.000000
562.718323,-444.123565,-7772.162391,-153.219100
562.718647,-814.226536,-8438.347739,76.609550
562.718971,-888.247130,-9104.533087,0.000000
562.719295,-296.082377,-9030.512492,459.657299
562.719619,0.000000,-9548.656652,1608.800546
562.719944,592.164754,-9844.739029,1608.800546
562.720268,-148.041188,-9918.759623,1608.800546
562.720592,-1702.473667,-9252.574275,995.924147
562.720916,-2664.741391,-8882.471304,0.000000
562.721240,-1998.556043,-8660.409521,0.000000
562.721565,-1184.329507,-8142.265362,229.828649
562.721889,-962.267725,-7846.182985,0.000000
562.722213,-592.164754,-8438.347739,536.266849
562.722537,-296.082377,-9252.574275,536.266849
562.722861,-592.164754,-9252.574275,-459.657299
562.723186,-1258.350101,-9474.636058,0.000000
562.723510,-1850.514855,-10140.821405,0.000000
562.723834,-1110.308913,-11547.212695,153.219100
562.724158,-592.164754,-11843.295072,0.000000
562.724482,-814.226536,-10955.047942,0.000000
562.724807,-1258.350101,-10214.842000,-229.828649
562.725131,-888.247130,-10214.842000,-689.485948
562.725455,592.164754,-10066.800811,-689.485948
562.725779,1998.556043,-10510.924376,-153.219100
562.726103,3404.947333,-10584.944971,-229.828649
562.726427,2886.803174,-10955.047942,0.000000
562.726752,2072.576638,-11621.233289,-306.438199
562.727076,1332.370696,-11843.295072,76.609550
562.727400,1554.432478,-11325.150913,-383.047749
562.727724,1258.350101,-10732.986159,-689.485948
562.728048,222.061783,-10362.883188,-229.828649
562.728373,518.144159,-11029.068536,-153.219100
562.728697,666.185348,-11473.192101,-536.266849
562.729021,518.144159,-9918.759623,-153.219100
562.729345,74.020594,-8068.244768,0.000000
562.729669,0.000000,-7920.203579,-306.438199
562.729994,740.205942,-9030.512492,-306.438199
562.730318,1554.432478,-9104.533087,306.438199
562.730642,1480.411884,-8956.491898,766.095498
562.730966,222.061783,-8438.347739,0.000000
562.731290,-370.102971,-7698.141797,-919.314598
562.731615,-148.041188,-8068.244768,-383.047749
562.731939,296.082377,-8956.491898,0.000000
562.732263,1036.288319,-8882.471304,76.609550
562.732587,666.185348,-9178.553681,229.828649
562.732911,74.020594,-7624.121203,0.000000
562.733236,222.061783,-7624.121203,76.609550
562.733560,740.205942,-9104.533087,-153.219100
562.733884,740.205942,-9548.656652,-153.219100
562.734208,296.082377,-9178.553681,-306.438199
562.734532,-444.123565,-9326.594869,-612.876398
562.734857,-888.247130,-9030.512492,-995.924147
562.735181,-888.247130,-9326.594869,-1378.971896
562.735505,-2146.597232,-9696.697840,-1225.752797
562.735829,-1924.535449,-10362.883188,-1915.238745
562.736153,-666.185348,-10288.862594,-1532.190996
562.736477,-666.185348,-10288.862594,-842.705048
562.736802,-592.164754,-10436.903782,-459.657299
562.737126,-1036.288319,-10362.883188,-842.705048
562.737450,-1184.329507,-10658.965565,-919.314598
562.737774,-148.041188,-10807.006753,-1532.190996
562.738098,0.000000,-11843.295072,-995.924147
562.738423,592.164754,-11843.295072,-383.047749
562.738747,666.185348,-11177.109724,-383.047749
562.739071,74.020594,-10436.903782,-229.828649
562.739395,-296.082377,-10584.944971,-306.438199
562.739719,-444.123565,-11473.192101,-842.705048
562.740044,-444.123565,-11769.274478,0.000000
562.740368,-888.247130,-9770.718434,-612.876398
562.740692,-814.226536,-9400.615463,-995.924147
562.741016,-1628.453072,-9326.594869,-995.924147
562.741340,-1628.453072,-10214.842000,-383.047749
562.741665,-666.185348,-10362.883188,-689.485948
562.741989,-888.247130,-9548.656652,306.438199
562.742313,-518.144159,-9474.636058,842.705048
562.742637,-518.144159,-9030.512492,536.266849
562.742961,296.082377,-8882.471304,1608.800546
562.743286,962.267725,-9326.594869,1838.629195
562.743610,740.205942,-9400.615463,1072.533697
562.743934,-444.123565,-9252.574275,995.924147
562.744258,-2220.617826,-8808.450710,229.828649
562.744582,-2368.659014,-8142.265362,-153.219100
562.744906,-1480.411884,-8068.244768,766.095498
562.745231,-296.082377,-9252.574275,689.485948
562.745555,592.164754,-9474.636058,76.609550
562.745879,1406.391290,-8586.388927,536.266849
562.746203,1480.411884,-8808.450710,1149.143247
562.746527,2072.576638,-9178.553681,842.705048
562.746852,2368.659014,-9252.574275,1225.752797
562.747176,1776.494261,-9030.512492,1685.410096
562.747500,1332.370696,-9252.574275,1378.971896
562.747824,962.267725,-9474.636058,1532.190996
562.748148,370.102971,-9252.574275,1072.533697
562.748473,-222.061783,-8808.450710,0.000000
562.748797,-666.185348,-8290.306550,0.000000
562.749121,-592.164754,-8364.327145,0.000000
562.749445,-740.205942,-9400.615463,0.000000
562.749769,-296.082377,-9252.574275,-229.828649
562.750094,296.082377,-8956.491898,0.000000
562.750418,814.226536,-9400.615463,-689.485948
562.750742,666.185348,-9548.656652,-612.876398
562.751066,1036.288319,-9326.594869,0.000000
562.751390,1998.556043,-10214.842000,-229.828649
562.751715,2220.617826,-11547.212695,0.000000
562.752039,1036.288319,-11029.068536,0.000000
562.752363,1702.473667,-10436.903782,-459.657299
562.752687,1924.535449,-9992.780217,-153.219100
562.753011,1480.411884,-10881.027347,76.609550
562.753336,370.102971,-10510.924376,-689.485948
562.753660,-592.164754,-10288.862594,-306.438199
562.753984,-1110.308913,-10214.842000,-383.047749
562.754308,-1036.288319,-10066.800811,-1225.752797
562.754632,-1332.370696,-8956.491898,-536.266849
562.754956,-592.164754,-9548.656652,-919.314598
562.755281,-370.102971,-10807.006753,-1225.752797
562.755605,0.000000,-10584.944971,-1455.581446
562.755929,-444.123565,-10066.800811,-995.924147
562.756253,-962.267725,-10140.821405,-1991.848295
562.756577,-592.164754,-10140.821405,-2145.067394
562.756902,592.164754,-10584.944971,-1072.533697
562.757226,962.267725,-11473.192101,-536.266849
562.757550,888.247130,-11695.253884,229.828649
562.757874,222.061783,-10955.047942,0.000000
562.758198,-814.226536,-10066.800811,-306.438199
562.758523,-1702.473667,-9178.553681,-1225.752797
562.758847,-1110.308913,-9030.512492,-766.095498
562.759171,-592.164754,-10288.862594,0.000000
562.759495,0.000000,-10214.842000,153.219100
562.759819,74.020594,-8956.491898,0.000000
562.760144,-1702.473667,-7476.080014,-689.485948
562.760468,-2960.823768,-7772.162391,-995.924147
562.760792,-3108.864956,-8068.244768,-612.876398
562.761116,-2812.782580,-8586.388927,-919.314598
562.761440,-2146.597232,-8512.368333,-689.485948
562.761765,-1554.432478,-8216.285956,153.219100
562.762089,-1406.391290,-7846.182985,-306.438199
562.762413,-1406.391290,-7624.121203,-689.485948
562.762737,-1480.411884,-7550.100608,-306.438199
562.763061,-592.164754,-8808.450710,0.000000
562.763385,592.164754,-9992.780217,229.828649
562.763710,1628.453072,-9992.780217,1225.752797
562.764034,1776.494261,-9622.677246,612.876398
562.764358,1184.329507,-9474.636058,76.609550
562.764682,888.247130,-10362.883188,0.000000
562.765006,1406.391290,-11917.315666,76.609550
562.765331,1480.411884,-11917.315666,0.000000
562.765655,962.267725,-11325.150913,153.219100
562.765979,0.000000,-10955.047942,-536.266849
562.766303,-370.102971,-11251.130318,-1072.533697
562.766627,-296.082377,-10881.027347,-536.266849
562.766952,592.164754,-10807.006753,-612.876398
562.767276,814.226536,-10732.986159,-689.485948
562.767600,1332.370696,-9696.697840,0.000000
562.767924,592.164754,-9178.553681,-229.828649
562.768248,444.123565,-9548.656652,-612.876398
562.768573,0.000000,-9474.636058,229.828649
562.768897,0.000000,-10066.800811,-229.828649
562.769221,148.041188,-10140.821405,612.876398
562.769545,666.185348,-9992.780217,536.266849
562.769869,962.267725,-9696.697840,766.095498
562.770194,296.082377,-9326.594869,766.095498
562.770518,666.185348,-9178.553681,306.438199
562.770842,1184.329507,-8956.491898,0.000000
562.771166,1924.535449,-8586.388927,-229.828649
562.771490,1924.535449,-8586.388927,383.047749
562.771815,1184.329507,-8808.450710,612.876398
562.772139,370.102971,-8512.368333,229.828649
562.772463,74.020594,-8216.285956,229.828649
562.772787,592.164754,-9252.574275,766.095498
562.773111,444.123565,-9622.677246,229.828649
562.773435,-962.267725,-8956.491898,229.828649
562.773760,-2368.659014,-9030.512492,229.828649
562.774084,-2368.659014,-9030.512492,-459.657299
562.774408,-1924.535449,-8438.347739,-383.047749
562.774732,-1554.432478,-8438.347739,-153.219100
562.775056,0.000000,-8956.491898,0.000000
562.775381,1850.514855,-9622.677246,689.485948
562.775705,2590.720797,-9474.636058,842.705048
562.776029,1776.494261,-9178.553681,229.828649
562.776353,962.267725,-9770.718434,383.047749
562.776677,814.226536,-11177.109724,0.000000
562.777002,296.082377,-11547.212695,-536.266849
562.777326,-814.226536,-11325.150913,76.609550
562.777650,-1480.411884,-11251.130318,-612.876398
562.777974,-1924.535449,-11103.089130,-995.924147
562.778298,-1998.556043,-10362.883188,-1149.143247
562.778623,-1702.473667,-9178.553681,-766.095498
562.778947,-1480.411884,-9622.677246,-995.924147
562.779271,-1184.329507,-9918.759623,-612.876398
562.779595,-740.205942,-9918.759623,-536.266849
562.779919,-814.226536,-9474.636058,0.000000
562.780244,-888.247130,-9400.615463,842.705048
562.780568,-518.144159,-10510.924376,459.657299
562.780892,-74.020594,-11399.171507,-153.219100
562.781216,-518.144159,-10510.924376,153.219100
562.781540,-1036.288319,-10658.965565,459.657299
562.781865,-666.185348,-11103.089130,-612.876398
562.782189,-1332.370696,-10140.821405,-612.876398
562.782513,-1184.329507,-8586.388927,-536.266849
562.782837,-592.164754,-8734.430116,-1149.143247
562.783161,0.000000,-9474.636058,-153.219100
562.783485,222.061783,-9400.615463,-306.438199
562.783810,222.061783,-8364.327145,-459.657299
562.784134,148.041188,-7624.121203,0.000000
562.784458,148.041188,-7846.182985,-229.828649
562.784782,666.185348,-8216.285956,-536.266849
562.785106,740.205942,-9326.594869,612.876398
562.785431,296.082377,-9918.759623,306.438199
562.785755,-740.205942,-10214.842000,-306.438199
562.786079,-1110.308913,-9178.553681,153.219100
562.786403,0.000000,-8586.388927,459.657299
562.786727,1850.514855,-9622.677246,-383.047749
562.787052,1628.453072,-11029.068536,229.828649
562.787376,962.267725,-9992.780217,229.828649
562.787700,1258.350101,-10066.800811,-153.219100
562.788024,1776.494261,-9474.636058,-1149.143247
562.788348,2072.576638,-9400.615463,-459.657299
562.788673,1258.350101,-10658.965565,-1225.752797
562.788997,518.144159,-10955.047942,-766.095498
562.789321,74.020594,-9992.780217,76.609550
562.789645,-814.226536,-10807.006753,-306.438199
562.789969,-1924.535449,-10362.883188,-1302.362347
562.790294,-2368.659014,-9326.594869,-842.705048
562.790618,-1258.350101,-9548.656652,-995.924147
562.790942,74.020594,-9918.759623,-459.657299
562.791266,148.041188,-9918.759623,0.000000
562.791590,0.000000,-8734.430116,-229.828649
562.791914,592.164754,-7846.182985,-689.485948
562.792239,2368.659014,-7698.141797,-383.047749
562.792563,3256.906145,-9252.574275,229.828649
562.792887,2960.823768,-10658.965565,0.000000
562.793211,2146.597232,-10955.047942,0.000000
562.793535,444.123565,-10955.047942,-383.047749
562.793860,-518.144159,-10732.986159,-919.314598
562.794184,-1776.494261,-10584.944971,-306.438199
562.794508,-2220.617826,-10732.986159,-1225.752797
562.794832,-1480.411884,-10362.883188,-383.047749
562.795156,-1184.329507,-9696.697840,-306.438199
562.795481,-444.123565,-9030.512492,-153.219100
562.795805,0.000000,-9252.574275,0.000000
562.796129,814.226536,-9474.636058,536.266849
562.796453,1554.432478,-9474.636058,536.266849
562.796777,1924.535449,-9326.594869,536.266849
562.797101,740.205942,-9844.739029,1455.581446
562.797426,444.123565,-11103.089130,995.924147
562.797750,-814.226536,-11251.130318,689.485948
562.798074,-1480.411884,-9770.718434,766.095498
562.798398,-1924.535449,-9326.594869,536.266849
562.798722,-2516.700203,-9548.656652,0.000000
562.799046,-2368.659014,-9252.574275,0.000000
562.799370,-3108.864956,-7846.182985,229.828649
562.799695,-2516.700203,-7328.038826,0.000000
562.800019,-1924.535449,-7402.059420,229.828649
562.800343,-1184.329507,-6957.935855,0.000000
562.800667,-962.267725,-7698.141797,153.219100
562.800991,-740.205942,-8734.430116,536.266849
562.801315,-444.123565,-9696.697840,-306.438199
562.801639,-1258.350101,-9696.697840,1302.362347
562.801964,-962.267725,-10584.944971,1225.752797
562.802288,-222.061783,-10214.842000,459.657299
562.802612,148.041188,-10362.883188,0.000000
562.802936,148.041188,-10288.862594,383.047749
562.803260,592.164754,-10732.986159,0.000000
562.803584,888.247130,-10658.965565,-689.485948
562.803908,1036.288319,-9474.636058,536.266849
562.804233,1776.494261,-9030.512492,0.000000
562.804557,2072.576638,-10510.924376,0.000000
562.804881,888.247130,-11473.192101,-229.828649
562.805205,0.000000,-10955.047942,-612.876398
562.805529,-592.164754,-10807.006753,-995.924147
562.805853,-148.041188,-10658.965565,-842.705048
562.806178,1184.329507,-10066.800811,-459.657299
562.806502,1554.432478,-10436.903782,-995.924147
562.806826,1110.308913,-9992.780217,-995.924147
562.807150,888.247130,-9622.677246,-1302.362347
562.807474,962.267725,-9622.677246,-1225.752797
562.807798,1406.391290,-9178.553681,-612.876398
562.808122,1628.453072,-9252.574275,-383.047749
562.808447,2072.576638,-10066.800811,0.000000
562.808771,2146.597232,-10288.862594,0.000000
562.809095,1702.473667,-10510.924376,76.609550
562.809419,740.205942,-10584.944971,0.000000
562.809743,-592.164754,-10140.821405,-153.219100
562.810067,-814.226536,-9844.739029,-229.828649
562.810391,-444.123565,-9992.780217,-995.924147
562.810716,-518.144159,-9326.594869,-612.876398
562.811040,-296.082377,-8660.409521,-842.705048
562.811364,-370.102971,-8586.388927,-1225.752797
562.811688,444.123565,-8142.265362,-229.828649
562.812012,592.164754,-7328.038826,-229.828649
562.812336,592.164754,-8512.368333,-459.657299
562.812660,518.144159,-9548.656652,-306.438199
562.812985,0.000000,-9474.636058,-383.047749
562.813309,-1480.411884,-8660.409521,306.438199
562.813633,-1036.288319,-8882.471304,766.095498
562.813957,-1184.329507,-9918.759623,306.438199
562.814281,-518.144159,-10214.842000,0.000000
562.814605,0.000000,-9918.759623,153.219100
562.814929,148.041188,-9326.594869,229.828649
562.815254,74.020594,-9104.533087,-842.705048
562.815578,-518.144159,-9252.574275,-612.876398
562.815902,-370.102971,-9030.512492,-229.828649
562.816226,444.123565,-9770.718434,-536.266849
562.816550,814.226536,-10807.006753,383.047749
562.816874,296.082377,-11695.253884,76.609550
562.817199,-740.205942,-11695.253884,306.438199
562.817523,-1554.432478,-11103.089130,306.438199
562.817847,-2442.679609,-10584.944971,76.609550
562.818171,-2960.823768,-10881.027347,-536.266849
562.818495,-2960.823768,-10955.047942,0.000000
562.818819,-2516.700203,-10510.924376,383.047749
562.819143,-2368.659014,-9696.697840,459.657299
562.819468,-1554.432478,-8734.430116,76.609550
562.819792,-1406.391290,-8438.347739,459.657299
562.820116,-592.164754,-9400.615463,459.657299
562.820440,518.144159,-9548.656652,459.657299
562.820764,370.102971,-9844.739029,1302.362347
562.821088,0.000000,-10362.883188,306.438199
562.821412,296.082377,-10658.965565,689.485948
562.821737,740.205942,-9918.759623,459.657299
562.822061,666.185348,-9992.780217,612.876398
562.822385,0.000000,-10584.944971,612.876398
562.822709,-666.185348,-10584.944971,0.000000
562.823033,-814.226536,-9474.636058,76.609550
562.823357,-740.205942,-7994.224174,0.000000
562.823681,518.144159,-7550.100608,383.047749
562.824006,1628.453072,-8438.347739,1302.362347
562.824330,2220.617826,-9918.759623,2145.067394
562.824654,2072.576638,-9104.533087,995.924147
562.824978,148.041188,-7772.162391,153.219100
562.825302,-1036.288319,-7994.224174,0.000000
562.825626,-222.061783,-9844.739029,76.609550
562.825950,592.164754,-9918.759623,383.047749
562.826275,518.144159,-9104.533087,306.438199
562.826599,1258.350101,-9326.594869,1302.362347
562.826923,1258.350101,-9400.615463,0.000000
562.827247,1406.391290,-8586.388927,-689.485948
562.827571,1110.308913,-7550.100608,-153.219100
562.827895,1184.329507,-7698.141797,383.047749
562.828219,2072.576638,-9178.553681,0.000000
562.828544,1850.514855,-9178.553681,612.876398
562.828868,1110.308913,-9178.553681,842.705048
562.829192,74.020594,-9548.656652,-536.266849
562.829516,-370.102971,-10066.800811,-536.266849
562.829840,-444.123565,-10658.965565,-383.047749
562.830164,0.000000,-11325.150913,-229.828649
562.830489,370.102971,-11103.089130,-229.828649
562.830813,-222.061783,-9770.718434,-842.705048
562.831137,-666.185348,-9474.636058,-1608.800546
562.831461,-74.020594,-9770.718434,-1149.143247
562.831785,518.144159,-10807.006753,-1455.581446
562.832109,592.164754,-10658.965565,-842.705048
562.832433,666.185348,-10362.883188,-459.657299
562.832758,518.144159,-9992.780217,-919.314598
562.833082,518.144159,-10436.903782,-1072.533697
562.833406,814.226536,-10658.965565,-842.705048
562.833730,666.185348,-10436.903782,-459.657299
562.834054,444.123565,-10881.027347,-919.314598
562.834378,0.000000,-10140.821405,-919.314598
562.834702,-370.102971,-10214.842000,-766.095498
562.835027,-592.164754,-10140.821405,-1149.143247
562.835351,-296.082377,-8808.450710,-1378.971896
562.835675,-444.123565,-8734.430116,-229.828649
562.835999,-592.164754,-9696.697840,-536.266849
562.836323,74.020594,-9992.780217,-306.438199
562.836647,-444.123565,-9844.739029,0.000000
562.836971,-1110.308913,-9474.636058,0.000000
562.837296,-740.205942,-9548.656652,76.609550
562.837620,-370.102971,-9918.759623,0.000000
562.837944,-740.205942,-10436.903782,229.828649
562.838268,-1776.494261,-9770.718434,0.000000
562.838592,-1850.514855,-9474.636058,-612.876398
562.838916,-2664.741391,-9474.636058,0.000000
562.839240,-2886.803174,-9030.512492,-459.657299
562.839565,-2368.659014,-8364.327145,153.219100
562.839889,-1628.453072,-8882.471304,612.876398
562.840213,-1110.308913,-9474.636058,766.095498
562.840537,-962.267725,-8956.491898,842.705048
562.840861,-740.205942,-8438.347739,995.924147
562.841185,-888.247130,-7846.182985,995.924147
562.841510,-444.123565,-8512.368333,306.438199
562.841834,-592.164754,-8882.471304,459.657299
562.842158,74.020594,-9474.636058,1149.143247
562.842482,0.000000,-9474.636058,995.924147
562.842806,-740.205942,-8364.327145,306.438199
562.843130,-1110.308913,-7846.182985,995.924147
562.843454,-296.082377,-8882.471304,-229.828649
562.843779,740.205942,-10510.924376,0.000000
562.844103,1554.432478,-10066.800811,689.485948
562.844427,1628.453072,-9474.636058,383.047749
562.844751,1258.350101,-10066.800811,76.609550
562.845075,1332.370696,-10955.047942,306.438199
562.845399,2590.720797,-11177.109724,536.266849
562.845723,2368.659014,-11029.068536,689.485948
562.846048,1702.473667,-12065.356855,383.047749
562.846372,740.205942,-11473.192101,76.609550
562.846696,444.123565,-10807.006753,-153.219100
562.847020,444.123565,-10510.924376,-612.876398
562.847344,592.164754,-10140.821405,0.000000
562.847668,1628.453072,-9992.780217,0.000000
562.847992,2146.597232,-9770.718434,-536.266849
562.848317,814.226536,-9178.553681,-766.095498
562.848641,370.102971,-9030.512492,-919.314598
562.848965,74.020594,-9474.636058,-153.219100
562.849289,814.226536,-9622.677246,-153.219100
562.849613,1850.514855,-9474.636058,0.000000
562.849937,2220.617826,-9918.759623,1072.533697
562.850261,1776.494261,-9918.759623,536.266849
562.850586,370.102971,-9992.780217,153.219100
562.850910,-666.185348,-8956.491898,-306.438199
562.851234,-814.226536,-8586.388927,0.000000
562.851558,148.041188,-9400.615463,-229.828649
562.851882,370.102971,-9696.697840,76.609550
562.852206,222.061783,-8956.491898,0.000000
562.852531,-666.185348,-8438.347739,-229.828649
562.852855,-888.247130,-8364.327145,-383.047749
562.853179,-1110.308913,-8808.450710,-383.047749
562.853503,-814.226536,-9030.512492,-306.438199
562.853827,-148.041188,-8882.471304,76.609550
562.854151,0.000000,-9992.780217,689.485948
562.854475,-592.164754,-10362.883188,459.657299
562.854800,-740.205942,-9548.656652,76.609550
562.855124,-888.247130,-8512.368333,76.609550
562.855448,-666.185348,-9178.553681,-536.266849
562.855772,-962.267725,-10140.821405,919.314598
562.856096,0.000000,-11103.089130,842.705048
562.856420,74.020594,-10510.924376,383.047749
562.856744,-370.102971,-9178.553681,0.000000
562.857069,-518.144159,-8290.306550,-306.438199
562.857393,0.000000,-9548.656652,-459.657299
562.857717,518.144159,-10955.047942,536.266849
562.858041,296.082377,-10955.047942,306.438199
562.858365,-1036.288319,-10066.800811,766.095498
562.858689,-2738.761985,-10140.821405,536.266849
562.859013,-3404.947333,-10140.821405,-229.828649
562.859338,-2886.803174,-9770.718434,-383.047749
562.859662,-2368.659014,-9696.697840,-306.438199
562.859986,-2590.720797,-10066.800811,76.609550
562.860310,-2368.659014,-10288.862594,0.000000
562.860634,-444.123565,-9474.636058,612.876398
562.860958,1480.411884,-8956.491898,842.705048
562.861282,2072.576638,-9252.574275,459.657299
562.861607,2072.576638,-9548.656652,229.828649
562.861931,1924.535449,-10436.903782,766.095498
562.862255,1850.514855,-10807.006753,612.876398
562.862579,1110.308913,-9992.780217,766.095498
562.862903,444.123565,-10066.800811,383.047749
562.863227,-296.082377,-10214.842000,0.000000
562.863552,-444.123565,-10436.903782,-689.485948
562.863876,-814.226536,-9844.739029,-919.314598
562.864200,-1702.473667,-9400.615463,-383.047749
562.864524,-1998.556043,-9474.636058,76.609550
562.864848,-740.205942,-9252.574275,-229.828649
562.865172,148.041188,-7994.224174,-383.047749
562.865496,1406.391290,-8512.368333,76.609550
562.865821,2220.617826,-9770.718434,-229.828649
562.866145,2146.597232,-9474.636058,-306.438199
562.866469,1036.288319,-8882.471304,-689.485948
562.866793,592.164754,-8512.368333,-536.266849
562.867117,518.144159,-10140.821405,-612.876398
562.867441,370.102971,-11769.274478,0.000000
562.867765,370.102971,-10510.924376,536.266849
562.868090,0.000000,-9474.636058,0.000000
562.868414,-518.144159,-8882.471304,-842.705048
562.868738,-444.123565,-8586.388927,-536.266849
562.869062,74.020594,-8068.244768,-995.924147
562.869386,74.020594,-8290.306550,-536.266849
562.869710,0.000000,-8290.306550,-153.219100
562.870034,0.000000,-8364.327145,0.000000
562.870359,0.000000,-8216.285956,-383.047749
562.870683,148.041188,-8142.265362,-306.438199
562.871007,740.205942,-9474.636058,-459.657299
562.871331,592.164754,-11251.130318,-306.438199
562.871655,518.144159,-11621.233289,-459.657299
562.871979,-148.041188,-11843.295072,-689.485948
562.872303,-1036.288319,-10214.842000,-689.485948
562.872628,-370.102971,-10066.800811,-306.438199
562.872952,-222.061783,-10510.924376,-689.485948
562.873276,444.123565,-11621.233289,-612.876398
562.873600,1554.432478,-10881.027347,153.219100
562.873924,1480.411884,-10436.903782,0.000000
562.874248,518.144159,-9548.656652,0.000000
562.874573,-296.082377,-9696.697840,-306.438199
562.874897,-740.205942,-9918.759623,-536.266849
562.875221,-1702.473667,-10066.800811,-766.095498
562.875545,-2294.638420,-10362.883188,-919.314598
562.875869,-1554.432478,-10510.924376,0.000000
562.876193,-1406.391290,-10362.883188,-306.438199
562.876517,-1110.308913,-9622.677246,383.047749
562.876842,-666.185348,-8660.409521,153.219100
562.877166,-444.123565,-8586.388927,76.609550
562.877490,0.000000,-9474.636058,919.314598
562.877814,0.000000,-9770.718434,1378.971896
562.878138,-222.061783,-9178.553681,842.705048
562.878462,0.000000,-8956.491898,1838.629195
562.878786,148.041188,-9992.780217,1455.581446
562.879111,0.000000,-10510.924376,842.705048
562.879435,-1036.288319,-9770.718434,689.485948
562.879759,-1998.556043,-9992.780217,306.438199
562.880083,-2664.741391,-10066.800811,0.000000
562.880407,-2590.720797,-9104.533087,229.828649
562.880731,-1628.453072,-8586.388927,229.828649
562.881055,-370.102971,-8068.244768,383.047749
562.881380,1258.350101,-8586.388927,383.047749
562.881704,1258.350101,-8956.491898,1302.362347
562.882028,740.205942,-8512.368333,842.705048
562.882352,370.102971,-7698.141797,76.609550
562.882676,0.000000,-7772.162391,-153.219100
562.883000,444.123565,-8956.491898,306.438199
562.883324,1036.288319,-10584.944971,536.266849
562.883649,1036.288319,-10881.027347,229.828649
562.883973,370.102971,-9844.739029,229.828649
562.884297,296.082377,-9030.512492,-153.219100
562.884621,666.185348,-9326.594869,-306.438199
562.884945,1480.411884,-9844.739029,-383.047749
562.885269,2294.638420,-10732.986159,383.047749
562.885594,2368.659014,-10881.027347,459.657299
562.885918,1776.494261,-10510.924376,-153.219100
562.886242,1332.370696,-9770.718434,-153.219100
562.886566,1110.308913,-9918.759623,0.000000
562.886890,1036.288319,-11251.130318,-459.657299
562.887214,592.164754,-11843.295072,0.000000
562.887538,-370.102971,-11917.315666,1302.362347
562.887863,-1036.288319,-10955.047942,0.000000
562.888187,-1776.494261,-9622.677246,0.000000
562.888511,-1998.556043,-9104.533087,-306.438199
562.888835,-1258.350101,-8956.491898,-1072.533697
562.889159,-814.226536,-8734.430116,-1225.752797
562.889483,-370.102971,-7772.162391,0.000000
562.889807,1036.288319,-7624.121203,229.828649
562.890132,2664.741391,-7624.121203,689.485948
562.890456,2960.823768,-7105.977043,229.828649
562.890780,2516.700203,-8068.244768,306.438199
562.891104,2442.679609,-9474.636058,229.828649
562.891428,2072.576638,-11029.068536,536.266849
562.891752,444.123565,-10732.986159,306.438199
562.892076,-962.267725,-9622.677246,0.000000
562.892401,-1850.514855,-9252.574275,-766.095498
562.892725,-1924.535449,-10362.883188,-919.314598
562.893049,-1628.453072,-10881.027347,-766.095498
562.893373,-1184.329507,-10658.965565,-612.876398
562.893697,-1332.370696,-9474.636058,-612.876398
562.894021,-1628.453072,-8734.430116,-842.705048
562.894345,-1258.350101,-9030.512492,-1072.533697
562.894670,-1036.288319,-9400.615463,-919.314598
562.894994,-444.123565,-10658.965565,0.000000
562.895318,-1480.411884,-11251.130318,-153.219100
562.895642,-2220.617826,-11399.171507,-612.876398
562.895966,-2886.803174,-11177.109724,-766.095498
562.896290,-2664.741391,-10584.944971,-383.047749
562.896614,-2146.597232,-10658.965565,-383.047749
562.896938,-962.267725,-10807.006753,-153.219100
562.897263,-222.061783,-9030.512492,612.876398
562.897587,518.144159,-8956.491898,689.485948
562.897911,740.205942,-8512.368333,536.266849
562.898235,888.247130,-8438.347739,153.219100
562.898559,814.226536,-8956.491898,459.657299
562.898883,444.123565,-9252.574275,153.219100
562.899207,296.082377,-9326.594869,76.609550
562.899531,-740.205942,-9030.512492,459.657299
562.899855,-1258.350101,-9252.574275,-536.266849
562.900179,-1110.308913,-9030.512492,153.219100
562.900503,-962.267725,-9992.780217,229.828649
562.900827,-666.185348,-9992.780217,0.000000
562.901151,0.000000,-8956.491898,536.266849
562.901475,296.082377,-8808.450710,842.705048
562.901799,0.000000,-8882.471304,459.657299
562.902123,518.144159,-8882.471304,995.924147
562.902447,888.247130,-9104.533087,1149.143247
562.902772,1480.411884,-10066.800811,1225.752797
562.903096,1850.514855,-10288.862594,689.485948
562.903420,1406.391290,-10362.883188,842.705048
562.903744,666.185348,-10658.965565,995.924147
562.904068,1036.288319,-10807.006753,459.657299
562.904392,962.267725,-10214.842000,76.609550
562.904716,740.205942,-9400.615463,229.828649
562.905040,888.247130,-8808.450710,459.657299
562.905364,1036.288319,-9770.718434,229.828649
562.905688,962.267725,-9474.636058,-306.438199
562.906012,962.267725,-8216.285956,-153.219100
562.906336,1036.288319,-8364.327145,-229.828649
562.906660,1036.288319,-9696.697840,-153.219100
562.906984,1184.329507,-9992.780217,229.828649
562.907308,740.205942,-9696.697840,229.828649
562.907632,0.000000,-10214.842000,0.000000
562.907956,-1258.350101,-9400.615463,-229.828649
562.908280,-1480.411884,-9474.636058,-689.485948
562.908605,-962.267725,-9992.780217,-536.266849
562.908929,-148.041188,-9696.697840,-689.485948
562.909253,-370.102971,-9252.574275,-229.828649
562.909577,-296.082377,-9104.533087,-153.219100
562.909901,-222.061783,-8364.327145,-1225.752797
562.910225,1036.288319,-8660.409521,-1149.143247
562.910549,1776.494261,-10066.800811,-766.095498
562.910873,1776.494261,-11251.130318,-383.047749
562.911197,814.226536,-11029.068536,0.000000
562.911521,74.020594,-10436.903782,153.219100
562.911845,-222.061783,-10066.800811,229.828649
562.912169,-592.164754,-10732.986159,-612.876398
562.912493,-2146.597232,-10436.903782,-536.266849
562.912817,-2146.597232,-9992.780217,-229.828649
562.913141,-370.102971,-10066.800811,-229.828649
562.913465,444.123565,-9844.739029,536.266849
562.913789,1036.288319,-8142.265362,-153.219100
562.914114,1036.288319,-8142.265362,306.438199
562.914438,1406.391290,-9548.656652,383.047749
562.914762,1628.453072,-10658.965565,229.828649
562.915086,1184.329507,-10436.903782,612.876398
562.915410,-222.061783,-9844.739029,536.266849
562.915734,-1258.350101,-9992.780217,459.657299
562.916058,-1554.432478,-10288.862594,536.266849
562.916382,-2294.638420,-10066.800811,383.047749
562.916706,-2590.720797,-9400.615463,383.047749
562.917030,-2738.761985,-9770.718434,383.047749
562.917354,-2368.659014,-8586.388927,229.828649
562.917678,-1998.556043,-8068.244768,689.485948
562.918002,-1036.288319,-7328.038826,919.314598
562.918326,-148.041188,-7920.203579,766.095498
562.918650,0.000000,-9326.594869,536.266849
562.918974,-962.267725,-8956.491898,1608.800546
562.919298,-962.267725,-8734.430116,1455.581446
562.919623,-370.102971,-9548.656652,1532.190996
562.919947,-962.267725,-10362.883188,229.828649
562.920271,-1554.432478,-10955.047942,153.219100
562.920595,-1924.535449,-11177.109724,153.219100
562.920919,-1554.432478,-10955.047942,-153.219100
562.921243,-1332.370696,-10288.862594,-229.828649
562.921567,-518.144159,-9030.512492,383.047749
562.921891,222.061783,-9030.512492,153.219100
562.922215,1110.308913,-9474.636058,-153.219100
562.922539,2368.659014,-9696.697840,0.000000
562.922863,2516.700203,-9918.759623,76.609550
562.923187,2072.576638,-10140.821405,76.609550
562.923511,1554.432478,-10807.006753,0.000000
562.923835,592.164754,-10140.821405,-612.876398
562.924159,0.000000,-10140.821405,-842.705048
562.924483,222.061783,-11029.068536,-919.314598
562.924807,444.123565,-11695.253884,-1378.971896
562.925131,1110.308913,-10658.965565,-1225.752797
562.925456,592.164754,-9326.594869,-1149.143247
562.925780,296.082377,-8734.430116,-1225.752797
562.926104,444.123565,-9400.615463,-2221.676944
562.926428,740.205942,-9918.759623,-766.095498
562.926752,1480.411884,-9770.718434,-689.485948
562.927076,1702.473667,-9252.574275,-306.438199
562.927400,1628.453072,-9474.636058,0.000000
562.927724,2072.576638,-9696.697840,229.828649
562.928048,1628.453072,-10584.944971,0.000000
562.928372,740.205942,-11251.130318,842.705048
562.928696,444.123565,-10955.047942,536.266849
562.929020,148.041188,-9548.656652,0.000000
562.929344,74.020594,-7772.162391,-383.047749
562.929668,-296.082377,-7105.977043,-689.485948
562.929992,74.020594,-7550.100608,-766.095498
562.930316,592.164754,-8290.306550,-1225.752797
562.930640,0.000000,-8660.409521,-229.828649
562.930965,-444.123565,-8438.347739,0.000000
562.931289,-370.102971,-7772.162391,-536.266849
562.931613,-1184.329507,-7772.162391,-306.438199
562.931937,-148.041188,-9474.636058,459.657299
562.932261,592.164754,-10584.944971,536.266849
562.932585,814.226536,-10362.883188,1072.533697
562.932909,814.226536,-9622.677246,1302.362347
562.933233,740.205942,-9178.553681,842.705048
562.933557,518.144159,-9178.553681,0.000000
562.933881,0.000000,-10288.862594,1455.581446
562.934205,-1332.370696,-10658.965565,306.438199
562.934529,-1332.370696,-10658.965565,229.828649
562.934853,-1850.514855,-10436.903782,612.876398
562.935177,-2368.659014,-10658.965565,689.485948
562.935501,-2590.720797,-10584.944971,0.000000
562.935825,-3182.885551,-9992.780217,-383.047749
562.936149,-3330.926739,-10288.862594,536.266849
562.936474,-3404.947333,-10658.965565,0.000000
562.936798,-2886.803174,-9696.697840,-536.266849
562.937122,-3256.906145,-8734.430116,-306.438199
562.937446,-2960.823768,-8512.368333,-306.438199
562.937770,-1924.535449,-9326.594869,-536.266849
562.938094,-1406.391290,-9474.636058,-383.047749
562.938418,-518.144159,-9178.553681,1149.143247
562.938742,370.102971,-8882.471304,612.876398
562.939066,0.000000,-8808.450710,229.828649
562.939390,-592.164754,-9326.594869,153.219100
562.939714,-518.144159,-9178.553681,383.047749
562.940038,222.061783,-9770.718434,-306.438199
562.940362,148.041188,-10658.965565,-612.876398
562.940686,-592.164754,-10510.924376,-689.485948
562.941010,-1406.391290,-10214.842000,-995.924147
562.941334,-2368.659014,-9548.656652,-1302.362347
562.941658,-2664.741391,-9474.636058,-1608.800546
562.941982,-2442.679609,-9474.636058,-2298.286494
562.942307,-1480.411884,-9992.780217,-2145.067394
562.942631,0.000000,-10066.800811,-1762.019645
562.942955,888.247130,-9474.636058,-1225.752797
562.943279,962.267725,-9400.615463,-612.876398
562.943603,1184.329507,-9400.615463,-995.924147
562.943927,1184.329507,-9326.594869,-1149.143247
562.944251,296.082377,-9844.739029,-1455.581446
562.944575,-1036.288319,-10955.047942,-1608.800546
562.944899,-2072.576638,-10732.986159,-2451.505594
562.945223,-2664.741391,-9326.594869,-2451.505594
562.945547,-2590.720797,-8660.409521,-2451.505594
562.945871,-3034.844362,-7772.162391,-3447.429741
562.946195,-2220.617826,-7105.977043,-3983.696590
562.946519,-1480.411884,-7550.100608,-2604.724693
562.946843,0.000000,-8956.491898,-2451.505594
562.947167,296.082377,-9178.553681,-2221.676944
562.947491,0.000000,-8808.450710,-1455.581446
562.947816,148.041188,-9770.718434,-1685.410096
562.948140,-296.082377,-10955.047942,-2221.676944
562.948464,-740.205942,-11991.336260,-2451.505594
562.948788,-2072.576638,-11843.295072,-2987.772442
562.949112,-3256.906145,-11843.295072,-3217.601092
562.949436,-4737.318029,-11843.295072,-4060.306139
562.949760,-6217.729913,-11769.274478,-4366.744339
562.950084,-6587.832884,-11547.212695,-4366.744339
562.950408,-5181.441594,-10510.924376,-3907.087040
562.950732,-2960.823768,-9030.512492,-2911.162892
562.951056,-1924.535449,-8956.491898,-2451.505594
562.951380,-1036.288319,-9622.677246,-1991.848295
562.951704,-592.164754,-10362.883188,-2374.896044
562.952028,-962.267725,-10436.903782,-1991.848295
562.952352,-1702.473667,-10214.842000,-1762.019645
562.952676,-2368.659014,-9696.697840,-1532.190996
562.953000,-2368.659014,-9326.594869,-2145.067394
562.953325,-2664.741391,-8882.471304,-2221.676944
562.953649,-1850.514855,-9400.615463,-2221.676944
562.953973,-2072.576638,-9474.636058,-2987.772442
562.954297,-3478.967927,-9918.759623,-3677.258390
562.954621,-4885.359217,-10362.883188,-3064.381992
562.954945,-3478.967927,-10658.965565,-2451.505594
562.955269,-1406.391290,-10510.924376,-1915.238745
562.955593,-1258.350101,-9770.718434,-1532.190996
562.955917,0.000000,-9252.574275,-842.705048
562.956241,1184.329507,-9474.636058,-1149.143247
562.956565,1924.535449,-9992.780217,-612.876398
562.956889,666.185348,-9474.636058,-536.266849
562.957213,-2590.720797,-8586.388927,-1532.190996
562.957537,-5625.565159,-9696.697840,-1225.752797
562.957861,-6143.709319,-9548.656652,-1762.019645
562.958185,-5625.565159,-8438.347739,-2221.676944
562.958509,-5921.647536,-7624.121203,-2068.457845
562.958834,-6365.771101,-9178.553681,-1838.629195
562.959158,-3849.070898,-8512.368333,-1762.019645
562.959482,-1110.308913,-6883.915261,-1378.971896
562.959806,-1110.308913,-7328.038826,-689.485948
562.960130,-2886.803174,-9252.574275,-842.705048
562.960454,-3034.844362,-10807.006753,-306.438199
562.960778,-1258.350101,-9844.739029,0.000000
562.961102,0.000000,-8660.409521,-383.047749
562.961426,-370.102971,-9548.656652,-306.438199
562.961750,-518.144159,-11251.130318,-612.876398
562.962074,-148.041188,-10214.842000,-995.924147
562.962398,0.000000,-8512.368333,-1455.581446
562.962722,-1702.473667,-9104.533087,-1991.848295
562.963046,-4293.194464,-11103.089130,-3064.381992
562.963370,-6291.750507,-12509.480420,-2451.505594
562.963694,-6217.729913,-11103.089130,-3753.867940
562.964018,-5773.606348,-9918.759623,-3677.258390
562.964342,-4737.318029,-10436.903782,-2451.505594
562.964667,-2220.617826,-10658.965565,-1991.848295
562.964991,-296.082377,-9178.553681,-1991.848295
562.965315,0.000000,-8956.491898,-2451.505594
562.965639,-370.102971,-9474.636058,-1915.238745
562.965963,-296.082377,-10436.903782,-1532.190996
562.966287,1406.391290,-9918.759623,-1378.971896
562.966611,2368.659014,-9252.574275,-1302.362347
562.966935,1036.288319,-10510.924376,-1991.848295
562.967259,-1998.556043,-12435.459826,-2145.067394
562.967583,-3108.864956,-12953.603985,-2987.772442
562.967907,-2442.679609,-11399.171507,-3064.381992
562.968231,-1850.514855,-10066.800811,-4060.306139
562.968555,-1480.411884,-10362.883188,-2528.115143
562.968879,-962.267725,-10658.965565,-1991.848295
562.969203,-592.164754,-9992.780217,-2221.676944
562.969527,-1702.473667,-8364.327145,-2528.115143
562.969851,-2738.761985,-6883.915261,-2604.724693
562.970176,-1776.494261,-7105.977043,-2834.553343
562.970500,-148.041188,-7550.100608,-1762.019645
562.970824,814.226536,-8512.368333,-1762.019645
562.971148,-962.267725,-9696.697840,-1762.019645
562.971472,-2590.720797,-11399.171507,-1762.019645
562.971796,-3997.112087,-11843.295072,-1915.238745
562.972120,-4959.379811,-10214.842000,-2451.505594
562.972444,-4885.359217,-8956.491898,-2757.943793
562.972768,-4441.235652,-9104.533087,-2757.943793
562.973092,-2146.597232,-9252.574275,-2221.676944
562.973416,-444.123565,-8956.491898,-1532.190996
562.973740,74.020594,-7994.224174,-1915.238745
562.974064,-518.144159,-7698.141797,-2298.286494
562.974388,-1998.556043,-8586.388927,-2374.896044
562.974712,-3034.844362,-9548.656652,-1991.848295
562.975036,-3997.112087,-10214.842000,-2604.724693
562.975360,-4737.318029,-10436.903782,-2834.553343
562.975685,-3849.070898,-10436.903782,-2834.553343
562.976009,-2072.576638,-10362.883188,-2221.676944
562.976333,-1184.329507,-10584.944971,-1762.019645
562.976657,-1036.288319,-10584.944971,-2145.067394
562.976981,-1406.391290,-10436.903782,-2451.505594
562.977305,-2442.679609,-10362.883188,-2757.943793
562.977629,-3478.967927,-10214.842000,-2987.772442
562.977953,-4219.173869,-10066.800811,-3370.820191
562.978277,-4515.256246,-10140.821405,-2757.943793
562.978601,-3997.112087,-10214.842000,-2604.724693
562.978925,-2960.823768,-10584.944971,-2604.724693
562.979249,-2072.576638,-10066.800811,-2451.505594
562.979573,-1480.411884,-9326.594869,-2298.286494
562.979897,-962.267725,-9252.574275,-2068.457845
562.980221,-1480.411884,-9844.739029,-2221.676944
562.980545,-1776.494261,-10584.944971,-2298.286494
562.980869,-1776.494261,-10584.944971,-2221.676944
562.981193,-1924.535449,-9844.739029,-2221.676944
562.981518,-2368.659014,-9696.697840,-2604.724693
562.981842,-2960.823768,-10881.027347,-2374.896044
562.982166,-3478.967927,-11325.150913,-2528.115143
562.982490,-3256.906145,-11843.295072,-2604.724693
562.982814,-3404.947333,-11177.109724,-1455.581446
562.983138,-2442.679609,-10658.965565,-1532.190996
562.983462,-1480.411884,-9400.615463,-1302.362347
562.983786,-370.102971,-7920.203579,-1685.410096
562.984110,0.000000,-6957.935855,-2068.457845
562.984434,222.061783,-7179.997637,-1838.629195
562.984758,666.185348,-8142.265362,-995.924147
562.985082,518.144159,-8290.306550,-1225.752797
562.985406,-592.164754,-8216.285956,-1455.581446
562.985730,-2960.823768,-8290.306550,-1378.971896
562.986054,-4885.359217,-8956.491898,-2451.505594
562.986378,-5773.606348,-9326.594869,-3600.648841
562.986702,-5699.585753,-10362.883188,-3294.210641
562.987027,-3627.009116,-11547.212695,-1762.019645
562.987351,-1406.391290,-11473.192101,-1455.581446
562.987675,-592.164754,-11177.109724,-766.095498
562.987999,-296.082377,-9400.615463,-383.047749
562.988323,296.082377,-8882.471304,-995.924147
562.988647,1184.329507,-9548.656652,-1378.971896
562.988971,2516.700203,-9178.553681,-1378.971896
562.989295,3330.926739,-8438.347739,-536.266849
562.989619,4071.132681,-9548.656652,0.000000
562.989943,1406.391290,-9326.594869,-1072.533697
562.990267,-1850.514855,-9252.574275,-1302.362347
562.990591,-4737.318029,-10140.821405,-2145.067394
562.990915,-7179.997637,-11399.171507,-3217.601092
562.991239,-8142.265362,-11251.130318,-3447.429741
562.991563,-7254.018232,-10362.883188,-2834.553343
562.991887,-5477.523971,-9696.697840,-2145.067394
562.992211,-3627.009116,-8882.471304,-2221.676944
562.992536,-2590.720797,-8438.347739,-1149.143247
562.992860,-1332.370696,-8660.409521,-1072.533697
562.993184,592.164754,-9252.574275,-383.047749
562.993508,1776.494261,-9918.759623,76.609550
562.993832,2294.638420,-9844.739029,0.000000
562.994156,2220.617826,-9326.594869,0.000000
562.994480,1258.350101,-10436.903782,-919.314598
562.994804,-1110.308913,-10436.903782,-1455.581446
562.995128,-3182.885551,-10362.883188,-2451.505594
562.995452,-5107.421000,-10436.903782,-2757.943793
562.995776,-6661.853478,-9918.759623,-3447.429741
562.996100,-7476.080014,-9474.636058,-3447.429741
562.996424,-7476.080014,-8808.450710,-3447.429741
562.996748,-6587.832884,-8142.265362,-3140.991542
562.997072,-4811.338623,-8364.327145,-2374.896044
562.997397,-2590.720797,-8512.368333,-2298.286494
562.997721,-888.247130,-8808.450710,-1302.362347
562.998045,1110.308913,-9474.636058,-1225.752797
562.998369,1998.556043,-10066.800811,-1149.143247
562.998693,1776.494261,-10214.842000,-1072.533697
562.999017,1258.350101,-10584.944971,-1378.971896
562.999342,814.226536,-11473.192101,-1608.800546
562.999666,-740.205942,-10955.047942,-2757.943793
562.999990,-2442.679609,-10807.006753,-3677.258390
563.000314,-4663.297435,-10214.842000,-4519.963438
563.000638,-6513.812290,-9992.780217,-4979.620737
563.000962,-7550.100608,-9104.533087,-5439.278036
563.001287,-7476.080014,-8142.265362,-5132.839837
563.001611,-5773.606348,-7994.224174,-4673.182538
563.001935,-2960.823768,-7994.224174,-4213.525239
563.002259,-666.185348,-8438.347739,-2911.162892
563.002583,-148.041188,-9030.512492,-2451.505594
563.002907,0.000000,-10288.862594,-2221.676944
563.003232,0.000000,-11029.068536,-2068.457845
563.003556,0.000000,-11991.336260,-2068.457845
563.003880,-814.226536,-12953.603985,-1762.019645
563.004204,-1110.308913,-13841.851115,-2221.676944
563.004528,-1554.432478,-13323.706956,-2911.162892
563.004852,-2072.576638,-11473.192101,-3677.258390
563.005177,-1702.473667,-10510.924376,-4290.134789
563.005501,-1480.411884,-9696.697840,-4213.525239
563.005825,-1332.370696,-8438.347739,-4596.572988
563.006149,-1998.556043,-7254.018232,-4136.915689
563.006473,-3478.967927,-7402.059420,-4443.353888
563.006797,-4663.297435,-7698.141797,-4749.792088
563.007122,-5551.544565,-8512.368333,-3677.258390
563.007446,-4959.379811,-8068.244768,-3294.210641
563.007770,-3552.988522,-8734.430116,-2451.505594
563.008094,-2146.597232,-9548.656652,-1378.971896
563.008418,-962.267725,-10732.986159,-689.485948
563.008742,-148.041188,-11843.295072,-76.609550
563.009067,0.000000,-12657.521608,-612.876398
563.009391,-1036.288319,-13175.665768,-689.485948
563.009715,-666.185348,-12435.459826,-1302.362347
563.010039,-666.185348,-10436.903782,-1991.848295
563.010363,518.144159,-8808.450710,-1608.800546
563.010687,1628.453072,-8142.265362,-1378.971896
563.011012,2072.576638,-8364.327145,-1302.362347
563.011336,1110.308913,-8438.347739,-1762.019645
563.011660,-1554.432478,-7994.224174,-2298.286494
563.011984,-5107.421000,-7031.956449,-3140.991542
563.012308,-7105.977043,-6513.812290,-3294.210641
563.012632,-7254.018232,-7402.059420,-2451.505594
563.012957,-5995.668130,-9178.553681,-1532.190996
563.013281,-4737.318029,-11103.089130,-689.485948
563.013605,-4441.235652,-11325.150913,0.000000
563.013929,-4145.153275,-11177.109724,306.438199
563.014253,-3775.050304,-10214.842000,76.609550
563.014577,-2812.782580,-10288.862594,0.000000
563.014902,-592.164754,-10140.821405,-306.438199
563.015226,2368.659014,-9918.759623,229.828649
563.015550,4145.153275,-9622.677246,76.609550
563.015874,3701.029710,-9326.594869,-459.657299
563.016198,2442.679609,-8660.409521,-689.485948
563.016522,1332.370696,-7920.203579,-1225.752797
563.016847,-1036.288319,-8290.306550,-1762.019645
563.017171,-4515.256246,-9252.574275,-2681.334243
563.017495,-8660.409521,-10140.821405,-3830.477490
563.017819,-10881.027347,-10436.903782,-3907.087040
563.018143,-9178.553681,-10066.800811,-3370.820191
563.018467,-6957.935855,-9326.594869,-2911.162892
563.018792,-5551.544565,-9326.594869,-2145.067394
563.019116,-4737.318029,-9918.759623,-1532.190996
563.019440,-3701.029710,-10510.924376,-1608.800546
563.019764,-1554.432478,-10807.006753,-383.047749
563.020088,1776.494261,-11177.109724,0.000000
563.020412,5551.544565,-10658.965565,-153.219100
563.020737,7846.182985,-9474.636058,-766.095498
563.021061,7105.977043,-9326.594869,-383.047749
563.021385,4885.359217,-10658.965565,-1378.971896
563.021709,1480.411884,-12139.377449,-2451.505594
563.022033,-2220.617826,-12287.418637,-3447.429741
563.022357,-6439.791695,-11029.068536,-4213.525239
563.022682,-8808.450710,-9548.656652,-5439.278036
563.023006,-9622.677246,-9326.594869,-5362.668486
563.023330,-9400.615463,-8956.491898,-4060.306139
563.023654,-7846.182985,-7772.162391,-4749.792088
563.023978,-6365.771101,-6217.729913,-3447.429741
563.024302,-4219.173869,-7105.977043,-2451.505594
563.024627,-518.144159,-8438.347739,-1991.848295
563.024951,1184.329507,-8660.409521,-1072.533697
563.025275,1406.391290,-9252.574275,0.000000
563.025599,2590.720797,-10881.027347,76.609550
563.025923,6069.688724,-11325.150913,153.219100
563.026247,7328.038826,-10436.903782,76.609550
563.026572,5551.544565,-9770.718434,0.000000
563.026896,2368.659014,-11547.212695,-1455.581446
563.027220,-1480.411884,-12583.501014,-3064.381992
563.027544,-5477.523971,-10807.006753,-5209.449386
563.027868,-9474.636058,-9696.697840,-4749.792088
563.028192,-11621.233289,-11029.068536,-4979.620737
563.028517,-10362.883188,-10288.862594,-6511.811733
563.028841,-8364.327145,-6365.771101,-5056.230287
563.029165,-6809.894666,-3997.112087,-4290.134789
563.029489,-5403.503377,-6587.832884,-4673.182538
563.029813,-3552.988522,-9178.553681,-3140.991542
563.030137,-296.082377,-8068.244768,-1991.848295
563.030462,2146.597232,-8512.368333,229.828649
563.030786,3256.906145,-11843.295072,0.000000
563.031110,3256.906145,-12953.603985,-612.876398
563.031434,2812.782580,-11251.130318,0.000000
563.031758,2146.597232,-11177.109724,-689.485948
563.032082,296.082377,-13397.727550,-1532.190996
563.032407,-1184.329507,-14063.912898,-1455.581446
563.032731,-1998.556043,-11177.109724,-2145.067394
563.033055,-2960.823768,-9252.574275,-2451.505594
563.033379,-3997.112087,-8734.430116,-4673.182538
563.033703,-5995.668130,-7994.224174,-4903.011187
563.034027,-7179.997637,-7994.224174,-3294.210641
563.034352,-6291.750507,-8438.347739,-3830.477490
563.034676,-3775.050304,-8142.265362,-3907.087040
563.035000,-1776.494261,-7994.224174,-2911.162892
563.035324,-666.185348,-8438.347739,-2987.772442
563.035648,-222.061783,-11991.336260,-1991.848295
563.035972,-148.041188,-15026.180623,-2068.457845
563.036297,1036.288319,-14359.995275,-2451.505594
563.036621,-518.144159,-12953.603985,-306.438199
563.036945,-592.164754,-11843.295072,0.000000
563.037269,2146.597232,-11991.336260,-383.047749
563.037593,3627.009116,-11325.150913,-153.219100
563.037917,4145.153275,-9252.574275,0.000000
563.038242,3552.988522,-7698.141797,153.219100
563.038566,2294.638420,-7105.977043,-919.314598
