#time,accel_x,accel_y,accel_z
729.804222,-5329.482782,-7476.080014,-5669.106685
729.804546,-9622.677246,-11251.130318,-1915.238745
729.804870,-8956.491898,-14582.057057,-306.438199
729.805194,-5477.523971,-12731.542202,-1762.019645
729.805518,-6365.771101,-9030.512492,2757.943793
729.805841,-4589.276840,-6069.688724,2298.286494
729.806165,296.082377,-5477.523971,-1455.581446
729.806489,1332.370696,-6217.729913,1149.143247
729.806813,2960.823768,-6883.915261,2681.334243
729.807137,5181.441594,-9992.780217,4673.182538
729.807461,3849.070898,-12361.439231,3370.820191
729.807785,444.123565,-7994.224174,2145.067394
729.808109,-1554.432478,-5699.585753,-766.095498
729.808433,-3478.967927,-11621.233289,-919.314598
729.808756,-2738.761985,-18579.169144,-919.314598
729.809080,-1184.329507,-16580.613101,-2068.457845
729.809404,-370.102971,-9326.594869,-306.438199
729.809728,148.041188,-6661.853478,1685.410096
729.810052,296.082377,-9178.553681,-229.828649
729.810376,-1776.494261,-9770.718434,383.047749
729.810700,-2812.782580,-7624.121203,-153.219100
729.811024,-2072.576638,-6883.915261,0.000000
729.811348,-1554.432478,-9474.636058,1762.019645
729.811672,222.061783,-8586.388927,1762.019645
729.811995,888.247130,-6365.771101,612.876398
729.812319,-2220.617826,-8882.471304,76.609550
729.812643,-4071.132681,-12953.603985,-1991.848295
729.812967,-3330.926739,-12583.501014,-2298.286494
729.813291,-1110.308913,-11177.109724,-383.047749
729.813615,1998.556043,-10658.965565,1149.143247
729.813939,3627.009116,-11177.109724,766.095498
729.814263,3256.906145,-11621.233289,612.876398
729.814587,1332.370696,-11177.109724,1302.362347
729.814910,74.020594,-10955.047942,459.657299
729.815234,-518.144159,-9548.656652,229.828649
729.815558,-296.082377,-9844.739029,1762.019645
729.815882,-740.205942,-9844.739029,689.485948
729.816206,-1850.514855,-9770.718434,-153.219100
729.816530,-3330.926739,-9622.677246,-306.438199
729.816854,-3627.009116,-9252.574275,-306.438199
729.817178,-2516.700203,-8512.368333,-842.705048
729.817502,-1850.514855,-8882.471304,-689.485948
729.817825,-1184.329507,-8216.285956,995.924147
729.818149,0.000000,-9474.636058,1072.533697
729.818473,-296.082377,-10214.842000,1072.533697
729.818797,-444.123565,-9622.677246,1149.143247
729.819121,74.020594,-8882.471304,1685.410096
729.819445,1924.535449,-8586.388927,2298.286494
729.819769,3256.906145,-9104.533087,2451.505594
729.820093,2590.720797,-8956.491898,2681.334243
729.820417,1258.350101,-9844.739029,2374.896044
729.820741,0.000000,-9548.656652,842.705048
729.821064,-1924.535449,-8660.409521,612.876398
729.821388,-3034.844362,-8142.265362,612.876398
729.821712,-3627.009116,-8956.491898,919.314598
729.822036,-3330.926739,-9844.739029,1072.533697
729.822360,-2664.741391,-9844.739029,1072.533697
729.822684,-1924.535449,-9326.594869,1378.971896
729.823008,-888.247130,-9474.636058,1991.848295
729.823332,74.020594,-9622.677246,2451.505594
729.823656,666.185348,-9252.574275,2451.505594
729.823979,888.247130,-9178.553681,2451.505594
729.824303,740.205942,-9326.594869,2374.896044
729.824627,1258.350101,-9622.677246,919.314598
729.824951,2072.576638,-9474.636058,536.266849
729.825275,2886.803174,-9548.656652,766.095498
729.825599,2368.659014,-9844.739029,306.438199
729.825923,592.164754,-10214.842000,-229.828649
729.826247,0.000000,-10214.842000,-536.266849
729.826571,-1036.288319,-9622.677246,-995.924147
729.826894,-1406.391290,-9474.636058,-766.095498
729.827218,0.000000,-9400.615463,-536.266849
729.827542,1480.411884,-9104.533087,0.000000
729.827866,2368.659014,-9400.615463,689.485948
729.828190,2294.638420,-9696.697840,459.657299
729.828514,1258.350101,-9696.697840,0.000000
729.828838,296.082377,-9252.574275,0.000000
729.829162,0.000000,-8882.471304,-459.657299
729.829486,518.144159,-9474.636058,0.000000
729.829809,148.041188,-10214.842000,-612.876398
729.830133,0.000000,-10584.944971,-612.876398
729.830457,-518.144159,-10584.944971,-1532.190996
729.830781,-1776.494261,-10140.821405,-1991.848295
729.831105,-2516.700203,-9918.759623,-2221.676944
729.831429,-2812.782580,-10658.965565,-2145.067394
729.831753,-2072.576638,-10807.006753,-2221.676944
729.832077,-888.247130,-9992.780217,-1302.362347
729.832401,74.020594,-10288.862594,-1685.410096
729.832725,296.082377,-9696.697840,-1225.752797
729.833048,592.164754,-9770.718434,-1302.362347
729.833372,444.123565,-9918.759623,-1608.800546
729.833696,296.082377,-9992.780217,-1532.190996
729.834020,518.144159,-9770.718434,-1608.800546
729.834344,592.164754,-9622.677246,-1225.752797
729.834668,888.247130,-9474.636058,-2221.676944
729.834992,814.226536,-9474.636058,-1991.848295
729.835316,370.102971,-10288.862594,-2221.676944
729.835640,370.102971,-10214.842000,-2145.067394
729.835963,740.205942,-9844.739029,-2451.505594
729.836287,592.164754,-9474.636058,-1915.238745
729.836611,370.102971,-9474.636058,-1149.143247
729.836935,518.144159,-9918.759623,-995.924147
729.837259,444.123565,-9548.656652,-842.705048
729.837583,444.123565,-10288.862594,-1072.533697
729.837907,592.164754,-10732.986159,-612.876398
729.838231,518.144159,-10140.821405,-383.047749
729.838555,0.000000,-9844.739029,0.000000
729.838878,-1184.329507,-9696.697840,0.000000
729.839202,-2368.659014,-9844.739029,-383.047749
729.839526,-2590.720797,-9992.780217,306.438199
729.839850,-2516.700203,-9548.656652,-536.266849
729.840174,-2220.617826,-9770.718434,0.000000
729.840498,-1998.556043,-9474.636058,306.438199
729.840822,-1258.350101,-9696.697840,842.705048
729.841146,-592.164754,-9474.636058,1149.143247
729.841470,-296.082377,-9400.615463,1378.971896
729.841794,518.144159,-9474.636058,1378.971896
729.842117,518.144159,-9326.594869,1685.410096
729.842441,1480.411884,-9326.594869,1915.238745
729.842765,1776.494261,-9474.636058,1762.019645
729.843089,1406.391290,-9770.718434,1302.362347
729.843413,1110.308913,-9548.656652,1302.362347
729.843737,518.144159,-9030.512492,1762.019645
729.844061,222.061783,-8660.409521,1149.143247
729.844385,0.000000,-8808.450710,1225.752797
729.844709,74.020594,-8734.430116,1685.410096
729.845032,888.247130,-8808.450710,1685.410096
729.845356,1184.329507,-8808.450710,1762.019645
729.845680,888.247130,-8438.347739,1915.238745
729.846004,666.185348,-8512.368333,2068.457845
729.846328,592.164754,-8660.409521,1915.238745
729.846652,666.185348,-9104.533087,2604.724693
729.846976,148.041188,-9622.677246,1378.971896
729.847300,-222.061783,-9992.780217,1225.752797
729.847624,-592.164754,-10214.842000,1225.752797
729.847948,-962.267725,-10214.842000,842.705048
729.848271,-1184.329507,-10362.883188,766.095498
729.848595,-1184.329507,-10140.821405,459.657299
729.848919,-1258.350101,-9992.780217,842.705048
729.849243,-1036.288319,-9474.636058,1225.752797
729.849567,-740.205942,-10140.821405,919.314598
729.849891,-888.247130,-9918.759623,612.876398
729.850215,-518.144159,-9844.739029,536.266849
729.850539,-518.144159,-9622.677246,459.657299
729.850863,74.020594,-9696.697840,153.219100
729.851186,444.123565,-9548.656652,0.000000
729.851510,444.123565,-9474.636058,-306.438199
729.851834,148.041188,-9918.759623,-919.314598
729.852158,518.144159,-9844.739029,-1149.143247
729.852482,222.061783,-9844.739029,-1685.410096
729.852806,444.123565,-9992.780217,-1455.581446
729.853130,962.267725,-9844.739029,-1532.190996
729.853454,1332.370696,-9548.656652,-1378.971896
729.853778,962.267725,-9548.656652,-1608.800546
729.854101,1406.391290,-10362.883188,-1378.971896
729.854425,1702.473667,-9844.739029,-1149.143247
729.854749,1480.411884,-10066.800811,-1072.533697
729.855073,740.205942,-9918.759623,-1302.362347
729.855397,370.102971,-10066.800811,-1149.143247
729.855721,0.000000,-9992.780217,-1149.143247
729.856045,-296.082377,-9770.718434,-1302.362347
729.856369,-444.123565,-10214.842000,-1149.143247
729.856693,-888.247130,-10214.842000,-1532.190996
729.857017,-962.267725,-10214.842000,-1608.800546
729.857340,-1332.370696,-9918.759623,-1762.019645
729.857664,-1554.432478,-9918.759623,-1455.581446
729.857988,-1776.494261,-10140.821405,-1608.800546
729.858312,-1480.411884,-9770.718434,-1149.143247
729.858636,-740.205942,-9992.780217,-919.314598
729.858960,0.000000,-9622.677246,-766.095498
729.859284,370.102971,-9696.697840,-383.047749
729.859608,444.123565,-9992.780217,-459.657299
729.859932,370.102971,-10066.800811,-76.609550
729.860255,296.082377,-9622.677246,-689.485948
729.860579,518.144159,-9918.759623,-919.314598
729.860903,592.164754,-9622.677246,-536.266849
729.861227,222.061783,-9326.594869,-1072.533697
729.861551,0.000000,-9474.636058,-1378.971896
729.861875,148.041188,-9400.615463,-919.314598
729.862199,518.144159,-9400.615463,-1072.533697
729.862523,888.247130,-9104.533087,-612.876398
729.862847,1258.350101,-9104.533087,0.000000
729.863170,1258.350101,-9252.574275,306.438199
729.863494,1406.391290,-8956.491898,612.876398
729.863818,1628.453072,-9622.677246,689.485948
729.864142,740.205942,-9400.615463,766.095498
729.864466,-296.082377,-9696.697840,459.657299
729.864790,-518.144159,-9918.759623,229.828649
729.865114,-814.226536,-10066.800811,306.438199
729.865438,-1258.350101,-9992.780217,76.609550
729.865762,-1258.350101,-9918.759623,229.828649
729.866086,-1480.411884,-10214.842000,0.000000
729.866409,-888.247130,-10140.821405,536.266849
729.866733,-962.267725,-9918.759623,536.266849
729.867057,-666.185348,-9992.780217,766.095498
729.867381,-592.164754,-9770.718434,459.657299
729.867705,-444.123565,-9992.780217,1072.533697
729.868029,0.000000,-9696.697840,919.314598
729.868353,444.123565,-9770.718434,1149.143247
729.868677,370.102971,-9622.677246,995.924147
729.869001,370.102971,-9696.697840,1072.533697
729.869324,814.226536,-9844.739029,919.314598
729.869648,592.164754,-9400.615463,612.876398
729.869972,592.164754,-9400.615463,766.095498
729.870296,518.144159,-9400.615463,383.047749
729.870620,444.123565,-9178.553681,306.438199
729.870944,370.102971,-9030.512492,612.876398
729.871268,1036.288319,-8956.491898,459.657299
729.871592,888.247130,-8734.430116,612.876398
729.871916,1184.329507,-9252.574275,842.705048
729.872239,888.247130,-8364.327145,689.485948
729.872563,518.144159,-9104.533087,689.485948
729.872887,148.041188,-9252.574275,612.876398
729.873211,-370.102971,-9474.636058,689.485948
729.873535,-740.205942,-9474.636058,383.047749
729.873859,-1036.288319,-9622.677246,0.000000
729.874183,-1332.370696,-9474.636058,383.047749
729.874507,-1554.432478,-9474.636058,459.657299
729.874831,-2220.617826,-9844.739029,229.828649
729.875155,-2220.617826,-9918.759623,383.047749
729.875478,-1702.473667,-9622.677246,383.047749
729.875802,-1702.473667,-9622.677246,689.485948
729.876126,-1480.411884,-9770.718434,842.705048
729.876450,-1480.411884,-9992.780217,842.705048
729.876774,-888.247130,-10288.862594,229.828649
729.877098,-444.123565,-9474.636058,153.219100
729.877422,-148.041188,-10066.800811,76.609550
729.877746,-222.061783,-9992.780217,0.000000
729.878070,74.020594,-9770.718434,-306.438199
729.878393,296.082377,-9992.780217,-306.438199
729.878717,666.185348,-9696.697840,-842.705048
729.879041,444.123565,-10436.903782,-995.924147
729.879365,370.102971,-9548.656652,-766.095498
729.879689,962.267725,-9326.594869,-689.485948
729.880013,1110.308913,-9548.656652,-1072.533697
729.880337,1184.329507,-9474.636058,-766.095498
729.880661,1258.350101,-9622.677246,-612.876398
729.880985,1184.329507,-9474.636058,-306.438199
729.881309,1258.350101,-9696.697840,-153.219100
729.881632,962.267725,-10140.821405,0.000000
729.881956,592.164754,-9770.718434,0.000000
729.882280,222.061783,-10288.862594,0.000000
729.882604,148.041188,-10214.842000,-459.657299
729.882928,-148.041188,-9992.780217,-229.828649
729.883252,-148.041188,-10288.862594,-995.924147
729.883576,-444.123565,-10214.842000,-995.924147
729.883900,-444.123565,-10066.800811,-1455.581446
729.884224,0.000000,-9918.759623,-689.485948
729.884547,-518.144159,-9548.656652,-995.924147
729.884871,-444.123565,-9474.636058,-842.705048
729.885195,-148.041188,-9622.677246,-689.485948
729.885519,74.020594,-9992.780217,-229.828649
729.885843,814.226536,-9844.739029,-612.876398
729.886167,592.164754,-9696.697840,-383.047749
729.886491,814.226536,-9400.615463,0.000000
729.886815,666.185348,-9400.615463,-536.266849
729.887139,592.164754,-9474.636058,-995.924147
729.887462,888.247130,-9474.636058,-766.095498
729.887786,592.164754,-9104.533087,-459.657299
729.888110,740.205942,-9104.533087,-995.924147
729.888434,814.226536,-9104.533087,-459.657299
729.888758,444.123565,-8660.409521,-1455.581446
729.889082,666.185348,-9326.594869,-1149.143247
729.889406,518.144159,-9400.615463,-919.314598
729.889730,444.123565,-9474.636058,-842.705048
729.890054,74.020594,-9474.636058,-536.266849
729.890378,0.000000,-9622.677246,-612.876398
729.890701,-296.082377,-9844.739029,-689.485948
729.891025,-740.205942,-9770.718434,-306.438199
729.891349,-888.247130,-10140.821405,-306.438199
729.891673,-1702.473667,-9622.677246,-612.876398
729.891997,-1628.453072,-10436.903782,0.000000
729.892321,-1628.453072,-10436.903782,0.000000
729.892645,-1702.473667,-10214.842000,0.000000
729.892969,-1998.556043,-10732.986159,-306.438199
729.893293,-1850.514855,-10584.944971,0.000000
729.893616,-1702.473667,-10362.883188,229.828649
729.893940,-1332.370696,-10732.986159,459.657299
729.894264,-1480.411884,-10066.800811,153.219100
729.894588,-592.164754,-10436.903782,383.047749
729.894912,-444.123565,-10362.883188,536.266849
729.895236,-296.082377,-9918.759623,689.485948
729.895560,222.061783,-10066.800811,612.876398
729.895884,592.164754,-9844.739029,689.485948
729.896208,888.247130,-9770.718434,995.924147
729.896531,740.205942,-9252.574275,383.047749
729.896855,740.205942,-9104.533087,612.876398
729.897179,666.185348,-9178.553681,536.266849
729.897503,1036.288319,-9252.574275,612.876398
729.897827,1110.308913,-9030.512492,689.485948
729.898151,1036.288319,-9178.553681,689.485948
729.898475,1184.329507,-9178.553681,1302.362347
729.898799,814.226536,-8734.430116,1532.190996
729.899123,962.267725,-8586.388927,1608.800546
729.899447,592.164754,-9178.553681,1225.752797
729.899770,296.082377,-9178.553681,1302.362347
729.900094,148.041188,-9178.553681,1149.143247
729.900418,-370.102971,-9252.574275,1225.752797
729.900742,-148.041188,-9030.512492,1149.143247
729.901066,0.000000,-9474.636058,1302.362347
729.901390,-518.144159,-9622.677246,1149.143247
729.901714,-962.267725,-9548.656652,995.924147
729.902038,-1110.308913,-9548.656652,689.485948
729.902362,-1110.308913,-9474.636058,689.485948
729.902685,-814.226536,-9474.636058,1072.533697
729.903009,-444.123565,-9696.697840,612.876398
729.903333,0.000000,-9622.677246,536.266849
729.903657,74.020594,-9844.739029,459.657299
729.903981,74.020594,-9474.636058,536.266849
729.904305,370.102971,-9770.718434,229.828649
729.904629,592.164754,-9770.718434,0.000000
729.904953,592.164754,-9844.739029,0.000000
729.905277,222.061783,-9548.656652,-842.705048
729.905600,740.205942,-9474.636058,-842.705048
729.905924,666.185348,-9474.636058,-1455.581446
729.906248,1036.288319,-10214.842000,-383.047749
729.906572,740.205942,-9918.759623,-1072.533697
729.906896,740.205942,-9770.718434,-995.924147
729.907220,592.164754,-9918.759623,-842.705048
729.907544,666.185348,-10140.821405,-995.924147
729.907868,666.185348,-10288.862594,-689.485948
729.908192,666.185348,-10436.903782,-612.876398
729.908516,148.041188,-10436.903782,-612.876398
729.908839,-518.144159,-10066.800811,-919.314598
729.909163,-740.205942,-9992.780217,-1455.581446
729.909487,-518.144159,-9992.780217,-1378.971896
729.909811,-1036.288319,-10436.903782,-1302.362347
729.910135,-1258.350101,-10436.903782,-1302.362347
729.910459,-1406.391290,-10510.924376,-1378.971896
729.910783,-1480.411884,-10288.862594,-1072.533697
729.911107,-1332.370696,-9770.718434,-995.924147
729.911431,-1332.370696,-10214.842000,-919.314598
729.911754,-1776.494261,-9992.780217,-612.876398
729.912078,-1110.308913,-10214.842000,-1149.143247
729.912402,-814.226536,-9918.759623,-383.047749
729.912726,0.000000,-10066.800811,-383.047749
729.913050,0.000000,-9696.697840,-612.876398
729.913374,0.000000,-9622.677246,-306.438199
729.913698,222.061783,-9104.533087,-306.438199
729.914022,74.020594,-9178.553681,-459.657299
729.914346,518.144159,-9400.615463,-842.705048
729.914670,518.144159,-9178.553681,-766.095498
729.914993,888.247130,-9030.512492,-842.705048
729.915317,1036.288319,-8882.471304,-612.876398
729.915641,814.226536,-9030.512492,-459.657299
729.915965,666.185348,-8956.491898,-306.438199
729.916289,592.164754,-9030.512492,0.000000
729.916613,592.164754,-8734.430116,0.000000
729.916937,592.164754,-9252.574275,459.657299
729.917261,0.000000,-9178.553681,229.828649
729.917585,0.000000,-9696.697840,766.095498
729.917908,0.000000,-9548.656652,842.705048
729.918232,0.000000,-9844.739029,842.705048
729.918556,0.000000,-9918.759623,612.876398
729.918880,-444.123565,-9844.739029,612.876398
729.919204,-592.164754,-10066.800811,536.266849
729.919528,0.000000,-10658.965565,689.485948
729.919852,-740.205942,-9770.718434,153.219100
729.920176,-666.185348,-9918.759623,0.000000
729.920500,-518.144159,-9992.780217,306.438199
729.920823,0.000000,-9992.780217,459.657299
729.921147,148.041188,-10066.800811,383.047749
729.921471,592.164754,-9844.739029,689.485948
729.921795,444.123565,-9844.739029,689.485948
729.922119,1036.288319,-9400.615463,919.314598
729.922443,1258.350101,-9918.759623,919.314598
729.922767,1036.288319,-9770.718434,689.485948
729.923091,740.205942,-9622.677246,612.876398
729.923415,962.267725,-9696.697840,459.657299
729.923739,1110.308913,-9474.636058,76.609550
729.924062,1036.288319,-9178.553681,536.266849
729.924386,888.247130,-9252.574275,153.219100
729.924710,888.247130,-9474.636058,0.000000
729.925034,888.247130,-9400.615463,-306.438199
729.925358,814.226536,-9474.636058,153.219100
729.925682,444.123565,-9696.697840,306.438199
729.926006,148.041188,-9474.636058,459.657299
729.926330,-370.102971,-9696.697840,536.266849
729.926654,-666.185348,-9770.718434,383.047749
729.926977,-1110.308913,-9474.636058,229.828649
729.927301,-1036.288319,-9696.697840,0.000000
729.927625,-1332.370696,-9770.718434,459.657299
729.927949,-1776.494261,-9622.677246,306.438199
729.928273,-2220.617826,-9474.636058,76.609550
729.928597,-2294.638420,-9696.697840,306.438199
729.928921,-2146.597232,-9622.677246,0.000000
729.929245,-1480.411884,-9474.636058,459.657299
729.929569,-1554.432478,-9474.636058,153.219100
729.929892,-1110.308913,-9474.636058,76.609550
729.930216,-666.185348,-9474.636058,0.000000
729.930540,-296.082377,-9770.718434,0.000000
729.930864,-222.061783,-9622.677246,0.000000
729.931188,0.000000,-9622.677246,-153.219100
729.931512,222.061783,-9474.636058,-383.047749
729.931836,592.164754,-9400.615463,76.609550
729.932160,74.020594,-9400.615463,-459.657299
729.932484,148.041188,-9622.677246,-612.876398
729.932808,148.041188,-9622.677246,-766.095498
729.933131,518.144159,-9400.615463,-612.876398
729.933455,814.226536,-9326.594869,-536.266849
729.933779,888.247130,-9474.636058,-612.876398
729.934103,962.267725,-9770.718434,-153.219100
729.934427,518.144159,-9696.697840,-459.657299
729.934751,518.144159,-9548.656652,-536.266849
729.935075,0.000000,-9992.780217,-306.438199
729.935399,0.000000,-10066.800811,-383.047749
729.935723,296.082377,-9918.759623,-229.828649
729.936047,148.041188,-10214.842000,-229.828649
729.936371,222.061783,-9992.780217,-76.609550
729.936695,0.000000,-10436.903782,-383.047749
729.937019,-296.082377,-10214.842000,-459.657299
729.937343,-740.205942,-9992.780217,-153.219100
729.937667,-518.144159,-10066.800811,-306.438199
729.937991,-740.205942,-10066.800811,-306.438199
729.938315,-148.041188,-9622.677246,0.000000
729.938639,0.000000,-9252.574275,0.000000
729.938963,888.247130,-9474.636058,-306.438199
729.939287,962.267725,-9548.656652,0.000000
729.939611,1332.370696,-9474.636058,-383.047749
729.939935,1184.329507,-9474.636058,0.000000
729.940259,1258.350101,-9548.656652,-459.657299
729.940583,888.247130,-9622.677246,-766.095498
729.940907,592.164754,-9474.636058,-306.438199
729.941231,592.164754,-9548.656652,-766.095498
729.941555,740.205942,-9696.697840,-995.924147
729.941879,1110.308913,-9474.636058,-612.876398
729.942203,814.226536,-9326.594869,-383.047749
729.942527,444.123565,-9104.533087,-612.876398
729.942851,518.144159,-9030.512492,-153.219100
729.943175,296.082377,-9400.615463,-153.219100
729.943499,222.061783,-9548.656652,0.000000
729.943823,-148.041188,-10288.862594,-383.047749
729.944147,-444.123565,-9844.739029,-153.219100
729.944471,-666.185348,-9474.636058,0.000000
729.944795,-962.267725,-9696.697840,0.000000
729.945119,-1332.370696,-9844.739029,-153.219100
729.945443,-1554.432478,-10140.821405,0.000000
729.945767,-1554.432478,-10214.842000,0.000000
729.946091,-1776.494261,-9992.780217,-229.828649
729.946415,-1998.556043,-9918.759623,-229.828649
729.946739,-1850.514855,-9474.636058,0.000000
729.947063,-1850.514855,-9992.780217,0.000000
729.947387,-1554.432478,-9770.718434,76.609550
729.947711,-1110.308913,-9844.739029,536.266849
729.948035,-666.185348,-9918.759623,612.876398
729.948359,-444.123565,-9844.739029,-229.828649
729.948683,0.000000,-9992.780217,153.219100
729.949007,222.061783,-9622.677246,229.828649
729.949331,148.041188,-9918.759623,-536.266849
729.949655,0.000000,-9844.739029,-383.047749
729.949979,370.102971,-9622.677246,-459.657299
729.950303,592.164754,-9474.636058,-383.047749
729.950627,962.267725,-9252.574275,-229.828649
729.950951,814.226536,-8956.491898,0.000000
729.951275,1036.288319,-9252.574275,0.000000
729.951599,1258.350101,-9474.636058,229.828649
729.951923,1406.391290,-9474.636058,383.047749
729.952247,1110.308913,-9474.636058,689.485948
729.952571,888.247130,-9474.636058,766.095498
729.952895,296.082377,-9918.759623,612.876398
729.953219,0.000000,-9918.759623,689.485948
729.953543,0.000000,-9770.718434,536.266849
729.953867,370.102971,-10066.800811,612.876398
729.954191,-222.061783,-9622.677246,536.266849
729.954515,-592.164754,-9252.574275,459.657299
729.954839,-666.185348,-9252.574275,306.438199
729.955163,-518.144159,-9474.636058,0.000000
729.955487,0.000000,-9400.615463,229.828649
729.955811,148.041188,-9326.594869,306.438199
729.956135,222.061783,-9548.656652,229.828649
729.956459,296.082377,-9622.677246,153.219100
729.956783,222.061783,-9178.553681,536.266849
729.957107,592.164754,-9622.677246,229.828649
729.957431,518.144159,-9400.615463,383.047749
729.957755,518.144159,-9474.636058,76.609550
729.958079,592.164754,-9400.615463,-76.609550
729.958403,814.226536,-9622.677246,76.609550
729.958727,370.102971,-9400.615463,0.000000
729.959051,148.041188,-9252.574275,-383.047749
729.959375,444.123565,-8586.388927,-612.876398
729.959699,592.164754,-8808.450710,-459.657299
729.960023,518.144159,-9474.636058,-612.876398
729.960347,888.247130,-9474.636058,-689.485948
729.960671,592.164754,-9918.759623,-766.095498
729.960995,444.123565,-9548.656652,-383.047749
729.961319,74.020594,-9992.780217,-766.095498
729.961643,0.000000,-10288.862594,-383.047749
729.961967,-814.226536,-10436.903782,-459.657299
729.962291,-1036.288319,-10510.924376,-689.485948
729.962615,-1184.329507,-10140.821405,-459.657299
729.962939,-1258.350101,-10584.944971,-766.095498
729.963263,-1480.411884,-10214.842000,-766.095498
729.963587,-1480.411884,-10066.800811,-459.657299
729.963911,-1554.432478,-10214.842000,-689.485948
729.964235,-1924.535449,-10066.800811,-459.657299
729.964559,-2072.576638,-9770.718434,-536.266849
729.964883,-1776.494261,-9918.759623,-459.657299
729.965207,-1184.329507,-10066.800811,-383.047749
729.965531,-740.205942,-10066.800811,-536.266849
729.965855,-296.082377,-9918.759623,-306.438199
729.966179,74.020594,-9992.780217,-383.047749
729.966503,518.144159,-9326.594869,0.000000
729.966827,962.267725,-10066.800811,-536.266849
729.967151,444.123565,-9474.636058,-842.705048
729.967475,0.000000,-9474.636058,-1149.143247
729.967799,0.000000,-9622.677246,-995.924147
729.968123,296.082377,-9474.636058,-1072.533697
729.968447,444.123565,-9326.594869,-919.314598
729.968771,592.164754,-9178.553681,-306.438199
729.969095,1110.308913,-9178.553681,76.609550
729.969419,1628.453072,-9548.656652,536.266849
729.969743,1036.288319,-9474.636058,153.219100
729.970067,814.226536,-9622.677246,153.219100
729.970391,444.123565,-9548.656652,0.000000
729.970715,444.123565,-9474.636058,383.047749
729.971039,222.061783,-9844.739029,-153.219100
729.971363,518.144159,-10066.800811,-306.438199
729.971687,0.000000,-10362.883188,153.219100
729.972011,-148.041188,-9622.677246,0.000000
729.972335,-592.164754,-9696.697840,229.828649
729.972659,-666.185348,-9918.759623,306.438199
729.972983,-814.226536,-9992.780217,383.047749
729.973307,-444.123565,-9622.677246,689.485948
729.973631,0.000000,-9548.656652,842.705048
729.973955,296.082377,-9548.656652,995.924147
729.974279,518.144159,-9474.636058,919.314598
729.974603,296.082377,-9548.656652,689.485948
729.974927,666.185348,-9844.739029,459.657299
729.975251,444.123565,-9696.697840,229.828649
729.975575,296.082377,-9844.739029,306.438199
729.975899,296.082377,-9400.615463,-383.047749
729.976223,592.164754,-9326.594869,-766.095498
729.976547,814.226536,-9770.718434,-306.438199
729.976871,740.205942,-9696.697840,-306.438199
729.977195,518.144159,-9548.656652,-229.828649
729.977519,962.267725,-9548.656652,-153.219100
729.977843,666.185348,-9400.615463,76.609550
729.978167,962.267725,-9844.739029,153.219100
729.978491,222.061783,-9548.656652,536.266849
729.978815,148.041188,-9918.759623,536.266849
729.979139,222.061783,-9548.656652,229.828649
729.979463,-296.082377,-9548.656652,0.000000
729.979787,-666.185348,-9844.739029,0.000000
729.980111,-1110.308913,-10066.800811,-306.438199
729.980435,-1406.391290,-9918.759623,-229.828649
729.980759,-1258.350101,-10214.842000,-766.095498
729.981083,-1480.411884,-9918.759623,0.000000
729.981407,-1628.453072,-10140.821405,0.000000
729.981731,-1776.494261,-9622.677246,0.000000
729.982055,-1702.473667,-9918.759623,76.609550
729.982379,-1628.453072,-9844.739029,76.609550
729.982703,-1258.350101,-10140.821405,229.828649
729.983027,-592.164754,-9918.759623,306.438199
729.983351,-518.144159,-9696.697840,689.485948
729.983675,0.000000,-9548.656652,536.266849
729.983999,74.020594,-9844.739029,229.828649
729.984323,0.000000,-9844.739029,-306.438199
729.984647,74.020594,-9622.677246,-459.657299
729.984971,444.123565,-9326.594869,-689.485948
729.985295,296.082377,-9252.574275,-995.924147
729.985619,592.164754,-9326.594869,-995.924147
729.985943,518.144159,-9548.656652,-766.095498
729.986267,74.020594,-8586.388927,-842.705048
729.986590,1036.288319,-8882.471304,0.000000
729.986914,1110.308913,-9326.594869,0.000000
729.987238,1332.370696,-9474.636058,153.219100
729.987562,1036.288319,-9548.656652,306.438199
729.987886,370.102971,-9326.594869,536.266849
729.988210,666.185348,-9400.615463,842.705048
729.988534,74.020594,-9696.697840,766.095498
729.988858,-370.102971,-9992.780217,229.828649
729.989182,-666.185348,-9844.739029,-153.219100
729.989506,-1036.288319,-9918.759623,-459.657299
729.989830,-1258.350101,-9844.739029,-536.266849
729.990154,-962.267725,-9696.697840,-766.095498
729.990478,-740.205942,-10140.821405,-919.314598
729.990802,-222.061783,-9992.780217,-383.047749
729.991126,0.000000,-9992.780217,-229.828649
729.991450,222.061783,-10140.821405,-229.828649
729.991774,518.144159,-10066.800811,76.609550
729.992098,666.185348,-9992.780217,76.609550
729.992422,962.267725,-9918.759623,76.609550
729.992746,1036.288319,-9770.718434,383.047749
729.993070,1184.329507,-9844.739029,459.657299
729.993394,1184.329507,-9844.739029,-153.219100
729.993718,888.247130,-9844.739029,-383.047749
729.994042,666.185348,-9474.636058,-766.095498
729.994366,592.164754,-9474.636058,-919.314598
729.994690,740.205942,-9104.533087,-995.924147
729.995014,888.247130,-9252.574275,-995.924147
729.995338,1258.350101,-9400.615463,-1149.143247
729.995662,1110.308913,-9474.636058,-919.314598
729.995986,1406.391290,-9622.677246,-229.828649
729.996310,1036.288319,-9548.656652,-612.876398
729.996634,518.144159,-9918.759623,-459.657299
729.996958,0.000000,-9844.739029,-383.047749
729.997282,-666.185348,-10510.924376,0.000000
729.997606,-962.267725,-10436.903782,-153.219100
729.997930,-1332.370696,-10436.903782,0.000000
729.998254,-1628.453072,-10362.883188,-306.438199
729.998578,-1924.535449,-10214.842000,-383.047749
729.998902,-1480.411884,-9696.697840,-229.828649
729.999226,-1776.494261,-9770.718434,-612.876398
729.999550,-1998.556043,-9474.636058,-612.876398
729.999874,-1554.432478,-9548.656652,-306.438199
730.000198,-1332.370696,-9622.677246,0.000000
730.000522,-1036.288319,-9474.636058,0.000000
730.000846,-962.267725,-9770.718434,0.000000
730.001170,-1110.308913,-9622.677246,76.609550
730.001494,-444.123565,-9696.697840,229.828649
730.001818,-444.123565,-9326.594869,383.047749
730.002142,-148.041188,-9622.677246,229.828649
730.002466,-296.082377,-9474.636058,76.609550
730.002790,0.000000,-9400.615463,306.438199
730.003114,370.102971,-9030.512492,229.828649
730.003438,592.164754,-8882.471304,229.828649
730.003762,814.226536,-8808.450710,229.828649
730.004086,666.185348,-9030.512492,0.000000
730.004410,148.041188,-8956.491898,306.438199
730.004734,740.205942,-9400.615463,0.000000
730.005058,592.164754,-9326.594869,306.438199
730.005382,74.020594,-9548.656652,229.828649
730.005706,222.061783,-9104.533087,1149.143247
730.006030,666.185348,-9696.697840,919.314598
730.006354,444.123565,-9548.656652,1302.362347
730.006678,0.000000,-9474.636058,1302.362347
730.007002,-370.102971,-9622.677246,766.095498
730.007326,-222.061783,-9622.677246,766.095498
730.007650,-666.185348,-9474.636058,766.095498
730.007974,-1036.288319,-9770.718434,536.266849
730.008298,-1036.288319,-9696.697840,612.876398
730.008622,-740.205942,-9474.636058,306.438199
730.008946,0.000000,-9770.718434,383.047749
730.009270,370.102971,-9696.697840,0.000000
730.009594,444.123565,-9844.739029,536.266849
730.009918,814.226536,-9992.780217,536.266849
730.010242,1036.288319,-9696.697840,383.047749
730.010566,1332.370696,-9770.718434,229.828649
730.010890,1406.391290,-9844.739029,0.000000
730.011214,1480.411884,-9400.615463,229.828649
730.011538,1628.453072,-9178.553681,0.000000
730.011862,1258.350101,-9622.677246,-383.047749
730.012186,740.205942,-9770.718434,-459.657299
730.012510,444.123565,-9474.636058,-459.657299
730.012834,518.144159,-9252.574275,-306.438199
730.013158,888.247130,-9400.615463,-306.438199
730.013482,592.164754,-9474.636058,-689.485948
730.013806,370.102971,-9178.553681,-536.266849
730.014130,518.144159,-9622.677246,0.000000
730.014454,296.082377,-9696.697840,-229.828649
730.014778,0.000000,-9696.697840,-306.438199
730.015102,-518.144159,-9770.718434,-306.438199
730.015426,-1036.288319,-9474.636058,-459.657299
730.015750,-1332.370696,-9918.759623,-689.485948
730.016074,-1554.432478,-10066.800811,-536.266849
730.016398,-2072.576638,-10066.800811,-536.266849
730.016722,-2220.617826,-10140.821405,-459.657299
730.017046,-1924.535449,-10214.842000,-536.266849
730.017370,-1998.556043,-10140.821405,-766.095498
730.017694,-2368.659014,-10066.800811,-383.047749
730.018018,-2368.659014,-9918.759623,-153.219100
730.018342,-1702.473667,-9992.780217,-459.657299
730.018666,-740.205942,-10510.924376,-153.219100
730.018990,-518.144159,-9622.677246,0.000000
730.019314,-148.041188,-9770.718434,-536.266849
730.019638,74.020594,-9918.759623,-459.657299
730.019962,444.123565,-9696.697840,-689.485948
730.020286,666.185348,-9770.718434,-1149.143247
730.020610,666.185348,-9548.656652,-689.485948
730.020934,296.082377,-9474.636058,-612.876398
730.021258,888.247130,-9696.697840,-766.095498
730.021582,814.226536,-9622.677246,-1072.533697
730.021906,814.226536,-9474.636058,-612.876398
730.022230,1036.288319,-9474.636058,-536.266849
730.022554,1332.370696,-9326.594869,76.609550
730.022878,1110.308913,-8882.471304,612.876398
730.023202,1110.308913,-9326.594869,459.657299
730.023526,666.185348,-9548.656652,766.095498
730.023850,370.102971,-9770.718434,612.876398
730.024174,296.082377,-9696.697840,459.657299
730.024498,296.082377,-9770.718434,383.047749
730.024822,0.000000,-10214.842000,383.047749
730.025146,-370.102971,-9844.739029,0.000000
730.025470,-592.164754,-9622.677246,306.438199
730.025794,-1110.308913,-9548.656652,0.000000
730.026118,-1258.350101,-9622.677246,0.000000
730.026442,-962.267725,-9696.697840,153.219100
730.026766,0.000000,-9622.677246,612.876398
730.027090,666.185348,-9622.677246,536.266849
730.027414,666.185348,-9400.615463,612.876398
730.027738,1184.329507,-9474.636058,1072.533697
730.028062,1036.288319,-9178.553681,306.438199
730.028386,1480.411884,-9696.697840,766.095498
730.028710,1406.391290,-9548.656652,76.609550
730.029034,814.226536,-9844.739029,0.000000
730.029358,518.144159,-9696.697840,-229.828649
730.029682,222.061783,-9400.615463,-383.047749
730.030006,444.123565,-9474.636058,-536.266849
730.030330,592.164754,-9030.512492,-689.485948
730.030654,592.164754,-9104.533087,-383.047749
730.030978,888.247130,-9178.553681,0.000000
730.031302,962.267725,-9030.512492,0.000000
730.031626,444.123565,-9178.553681,0.000000
730.031950,0.000000,-9622.677246,153.219100
730.032274,0.000000,-9918.759623,76.609550
730.032598,-148.041188,-9992.780217,0.000000
730.032922,-592.164754,-10066.800811,229.828649
730.033246,-1406.391290,-10140.821405,-612.876398
730.033570,-1332.370696,-10436.903782,-306.438199
730.033894,-1998.556043,-10584.944971,-766.095498
730.034218,-2516.700203,-10362.883188,-689.485948
730.034542,-2368.659014,-10214.842000,-612.876398
730.034866,-2294.638420,-9770.718434,-153.219100
730.035190,-1850.514855,-9696.697840,-383.047749
730.035514,-1406.391290,-9474.636058,383.047749
730.035838,-888.247130,-9770.718434,459.657299
730.036162,-518.144159,-9696.697840,0.000000
730.036486,-444.123565,-9696.697840,612.876398
730.036810,-222.061783,-9992.780217,383.047749
730.037134,0.000000,-9844.739029,383.047749
730.037458,74.020594,-9770.718434,0.000000
730.037782,370.102971,-9548.656652,-383.047749
730.038106,0.000000,-9400.615463,-1072.533697
730.038430,0.000000,-8956.491898,0.000000
730.038754,296.082377,-9992.780217,-766.095498
730.039077,518.144159,-8808.450710,-459.657299
730.039401,888.247130,-8956.491898,-842.705048
730.039725,1036.288319,-9178.553681,-383.047749
730.040049,1036.288319,-9326.594869,0.000000
730.040373,1036.288319,-9400.615463,0.000000
730.040697,1258.350101,-9252.574275,536.266849
730.041021,814.226536,-9400.615463,306.438199
730.041345,1110.308913,-9770.718434,459.657299
730.041669,740.205942,-9622.677246,612.876398
730.041993,222.061783,-9622.677246,689.485948
730.042317,-148.041188,-9696.697840,459.657299
730.042641,-444.123565,-9844.739029,459.657299
730.042965,-740.205942,-9770.718434,306.438199
730.043289,-740.205942,-9770.718434,-229.828649
730.043613,-814.226536,-9178.553681,0.000000
730.043937,-962.267725,-9474.636058,0.000000
730.044261,-592.164754,-9474.636058,0.000000
730.044585,-148.041188,-9696.697840,0.000000
730.044909,74.020594,-9622.677246,-306.438199
730.045233,666.185348,-9770.718434,0.000000
730.045557,1184.329507,-10066.800811,306.438199
730.045881,1110.308913,-10140.821405,612.876398
730.046205,1406.391290,-10436.903782,76.609550
730.046529,1480.411884,-10140.821405,76.609550
730.046853,888.247130,-10288.862594,-76.609550
730.047177,814.226536,-10140.821405,-306.438199
730.047501,592.164754,-10066.800811,-459.657299
730.047825,592.164754,-9548.656652,-689.485948
730.048149,518.144159,-9548.656652,-842.705048
730.048473,148.041188,-9622.677246,-995.924147
730.048797,296.082377,-9326.594869,-612.876398
730.049121,518.144159,-9474.636058,-1149.143247
730.049445,518.144159,-9548.656652,-766.095498
730.049769,148.041188,-9844.739029,-1072.533697
730.050093,0.000000,-9918.759623,-612.876398
730.050417,-148.041188,-9918.759623,-689.485948
730.050741,0.000000,-10214.842000,-306.438199
730.051065,-592.164754,-10584.944971,0.000000
730.051389,-1036.288319,-10214.842000,-612.876398
730.051713,-814.226536,-10584.944971,-459.657299
730.052037,-1850.514855,-9844.739029,-306.438199
730.052361,-1480.411884,-9992.780217,-536.266849
730.052685,-2072.576638,-9844.739029,-459.657299
730.053009,-2072.576638,-9918.759623,-459.657299
730.053333,-1776.494261,-9548.656652,-229.828649
730.053657,-592.164754,-9548.656652,-153.219100
730.053981,-296.082377,-9252.574275,0.000000
730.054305,-222.061783,-9400.615463,76.609550
730.054629,0.000000,-9326.594869,306.438199
730.054953,0.000000,-9548.656652,76.609550
730.055277,444.123565,-9474.636058,-153.219100
730.055601,296.082377,-9474.636058,0.000000
730.055925,444.123565,-9400.615463,-76.609550
730.056249,666.185348,-9400.615463,0.000000
730.056573,444.123565,-8882.471304,-612.876398
730.056897,666.185348,-8882.471304,76.609550
730.057221,888.247130,-9252.574275,0.000000
730.057545,740.205942,-9030.512492,153.219100
730.057869,1110.308913,-8956.491898,459.657299
730.058193,666.185348,-9030.512492,536.266849
730.058517,370.102971,-9178.553681,1072.533697
730.058841,518.144159,-9770.718434,766.095498
730.059165,296.082377,-9474.636058,1072.533697
730.059489,-148.041188,-9474.636058,842.705048
730.059813,-592.164754,-9696.697840,612.876398
730.060137,-888.247130,-9770.718434,306.438199
730.060461,-962.267725,-9992.780217,306.438199
730.060785,-1110.308913,-9696.697840,229.828649
730.061109,-1110.308913,-9622.677246,383.047749
730.061433,-740.205942,-9844.739029,153.219100
730.061757,-370.102971,-9770.718434,536.266849
730.062081,-222.061783,-9696.697840,459.657299
730.062405,0.000000,-9992.780217,536.266849
730.062729,518.144159,-10066.800811,459.657299
730.063053,518.144159,-10066.800811,383.047749
730.063377,888.247130,-10214.842000,536.266849
730.063701,888.247130,-9696.697840,536.266849
730.064025,962.267725,-9844.739029,0.000000
730.064349,1036.288319,-9696.697840,459.657299
730.064673,1332.370696,-9770.718434,0.000000
730.064997,1258.350101,-9474.636058,-383.047749
730.065321,888.247130,-9252.574275,-459.657299
730.065645,1184.329507,-9326.594869,0.000000
730.065969,1110.308913,-8956.491898,-383.047749
730.066293,1110.308913,-9178.553681,-766.095498
730.066617,888.247130,-9400.615463,-612.876398
730.066941,444.123565,-9474.636058,-229.828649
730.067265,296.082377,-9770.718434,-229.828649
730.067589,-296.082377,-9844.739029,-383.047749
730.067913,-444.123565,-9770.718434,-383.047749
730.068237,-444.123565,-9844.739029,0.000000
730.068560,-444.123565,-10140.821405,0.000000
730.068884,-962.267725,-9918.759623,383.047749
730.069208,-1184.329507,-10140.821405,-153.219100
730.069532,-1480.411884,-10066.800811,-459.657299
730.069856,-1850.514855,-10214.842000,-306.438199
730.070180,-2146.597232,-9844.739029,-459.657299
730.070504,-2146.597232,-9622.677246,-459.657299
730.070828,-1776.494261,-9548.656652,-459.657299
730.071152,-1702.473667,-9326.594869,-153.219100
730.071476,-814.226536,-9770.718434,0.000000
730.071800,-666.185348,-9770.718434,0.000000
730.072124,0.000000,-9918.759623,-306.438199
730.072448,0.000000,-9474.636058,-229.828649
730.072772,0.000000,-9622.677246,0.000000
730.073096,148.041188,-9992.780217,-306.438199
730.073420,-370.102971,-9548.656652,-612.876398
730.073744,-296.082377,-9104.533087,-459.657299
730.074068,444.123565,-9400.615463,-842.705048
730.074392,814.226536,-9400.615463,-536.266849
730.074716,1258.350101,-9622.677246,-383.047749
730.075040,1184.329507,-9474.636058,-612.876398
730.075364,1332.370696,-9474.636058,-153.219100
730.075688,1110.308913,-9400.615463,0.000000
730.076012,962.267725,-9548.656652,76.609550
730.076336,740.205942,-9844.739029,229.828649
730.076660,222.061783,-9548.656652,459.657299
730.076984,0.000000,-10066.800811,306.438199
730.077308,-74.020594,-10140.821405,-383.047749
730.077632,-740.205942,-10066.800811,0.000000
730.077956,-444.123565,-10140.821405,229.828649
730.078280,-592.164754,-10066.800811,0.000000
730.078604,-666.185348,-10066.800811,306.438199
730.078928,-518.144159,-9770.718434,76.609550
730.079252,-296.082377,-9622.677246,383.047749
730.079576,148.041188,-9474.636058,76.609550
730.079900,222.061783,-9770.718434,306.438199
730.080224,444.123565,-9770.718434,153.219100
730.080548,888.247130,-9918.759623,536.266849
730.080872,518.144159,-9844.739029,459.657299
730.081196,444.123565,-9548.656652,459.657299
730.081520,814.226536,-9622.677246,-536.266849
730.081844,592.164754,-9326.594869,76.609550
730.082168,1036.288319,-9696.697840,0.000000
730.082492,1036.288319,-9252.574275,-153.219100
730.082816,1110.308913,-9030.512492,0.000000
730.083140,962.267725,-8882.471304,-306.438199
730.083464,518.144159,-8882.471304,-306.438199
730.083788,814.226536,-9326.594869,-459.657299
730.084112,74.020594,-8882.471304,76.609550
730.084436,518.144159,-9326.594869,0.000000
730.084760,0.000000,-9400.615463,306.438199
730.085084,0.000000,-9622.677246,0.000000
730.085408,-296.082377,-9770.718434,0.000000
730.085732,-666.185348,-9548.656652,0.000000
730.086056,-1258.350101,-9696.697840,306.438199
730.086380,-1332.370696,-9844.739029,-153.219100
730.086704,-1702.473667,-9770.718434,0.000000
730.087028,-1850.514855,-9622.677246,-689.485948
730.087352,-1776.494261,-9992.780217,0.000000
730.087676,-2072.576638,-9918.759623,-383.047749
730.088000,-2072.576638,-9844.739029,-383.047749
730.088324,-2220.617826,-9918.759623,306.438199
730.088648,-1702.473667,-9918.759623,0.000000
730.088972,-1184.329507,-10140.821405,76.609550
730.089296,-740.205942,-9992.780217,383.047749
730.089620,-888.247130,-9770.718434,76.609550
730.089944,-740.205942,-9918.759623,76.609550
730.090268,0.000000,-10066.800811,0.000000
730.090592,0.000000,-9918.759623,0.000000
730.090916,296.082377,-9622.677246,-229.828649
730.091240,444.123565,-10140.821405,-612.876398
730.091564,148.041188,-9474.636058,-306.438199
730.091888,148.041188,-9178.553681,-383.047749
730.092212,444.123565,-9548.656652,-1072.533697
730.092536,444.123565,-9474.636058,-612.876398
730.092860,1258.350101,-9474.636058,-153.219100
730.093184,1554.432478,-9622.677246,459.657299
730.093508,1480.411884,-9400.615463,459.657299
730.093832,1184.329507,-9770.718434,689.485948
730.094156,666.185348,-10140.821405,536.266849
730.094480,0.000000,-9918.759623,536.266849
730.094804,0.000000,-9844.739029,612.876398
730.095128,-148.041188,-9918.759623,612.876398
730.095452,-222.061783,-10066.800811,229.828649
730.095776,-222.061783,-9770.718434,229.828649
730.096100,-444.123565,-9770.718434,689.485948
730.096424,-592.164754,-9474.636058,-153.219100
730.096748,-592.164754,-9252.574275,383.047749
730.097072,-296.082377,-9400.615463,153.219100
730.097396,0.000000,-9252.574275,76.609550
730.097720,296.082377,-9770.718434,153.219100
730.098043,518.144159,-9548.656652,536.266849
730.098367,962.267725,-9400.615463,229.828649
730.098691,1036.288319,-9474.636058,0.000000
730.099015,1332.370696,-9548.656652,229.828649
730.099339,962.267725,-9474.636058,0.000000
730.099663,814.226536,-9622.677246,-229.828649
730.099987,444.123565,-9474.636058,-536.266849
730.100311,444.123565,-9178.553681,-766.095498
730.100635,888.247130,-8956.491898,-459.657299
730.100959,1036.288319,-8956.491898,-153.219100
730.101283,1258.350101,-9474.636058,-536.266849
730.101607,370.102971,-9030.512492,-689.485948
730.101931,222.061783,-9400.615463,-536.266849
730.102255,-148.041188,-9474.636058,-536.266849
730.102579,-296.082377,-10140.821405,-689.485948
730.102903,-592.164754,-10288.862594,-536.266849
730.103227,-888.247130,-10214.842000,-689.485948
730.103551,-1036.288319,-9918.759623,-459.657299
730.103875,-1554.432478,-10140.821405,-229.828649
730.104199,-1702.473667,-10214.842000,-612.876398
730.104523,-1850.514855,-10584.944971,-536.266849
730.104847,-1776.494261,-10288.862594,-536.266849
730.105171,-1924.535449,-10436.903782,-306.438199
730.105495,-1406.391290,-10658.965565,-153.219100
730.105819,-1776.494261,-9992.780217,-229.828649
730.106143,-1480.411884,-10436.903782,-306.438199
730.106467,-962.267725,-9918.759623,306.438199
730.106791,-814.226536,-10140.821405,0.000000
730.107115,-888.247130,-9992.780217,-153.219100
730.107439,-740.205942,-9622.677246,-153.219100
730.107763,-814.226536,-9696.697840,0.000000
730.108087,-222.061783,-9474.636058,-612.876398
730.108411,-222.061783,-9252.574275,-306.438199
730.108735,0.000000,-9326.594869,-536.266849
730.109059,296.082377,-9178.553681,-306.438199
730.109383,740.205942,-9104.533087,0.000000
730.109707,1184.329507,-9252.574275,0.000000
730.110031,1036.288319,-9104.533087,0.000000
730.110355,1036.288319,-9104.533087,-229.828649
730.110679,962.267725,-9474.636058,-153.219100
730.111003,1406.391290,-9400.615463,306.438199
730.111327,1110.308913,-9104.533087,766.095498
730.111651,740.205942,-9400.615463,689.485948
730.111975,370.102971,-9474.636058,536.266849
730.112299,444.123565,-9400.615463,383.047749
730.112623,0.000000,-9548.656652,766.095498
730.112947,-148.041188,-9548.656652,459.657299
730.113271,-888.247130,-9104.533087,383.047749
730.113595,-444.123565,-9400.615463,76.609550
730.113919,-1036.288319,-9400.615463,306.438199
730.114243,-962.267725,-9474.636058,76.609550
730.114567,-814.226536,-9548.656652,229.828649
730.114891,-518.144159,-9474.636058,459.657299
730.115215,0.000000,-9400.615463,842.705048
730.115539,370.102971,-9770.718434,689.485948
730.115863,370.102971,-9622.677246,459.657299
730.116187,148.041188,-9844.739029,306.438199
730.116511,518.144159,-9992.780217,229.828649
730.116835,370.102971,-10140.821405,76.609550
730.117159,666.185348,-10214.842000,0.000000
730.117483,518.144159,-10066.800811,-383.047749
730.117807,592.164754,-9474.636058,-536.266849
730.118131,740.205942,-9696.697840,-536.266849
730.118455,666.185348,-9252.574275,-536.266849
730.118779,222.061783,-9400.615463,-612.876398
730.119103,740.205942,-9622.677246,-383.047749
730.119427,740.205942,-9400.615463,-459.657299
730.119751,740.205942,-9770.718434,-153.219100
730.120075,740.205942,-9696.697840,0.000000
730.120399,444.123565,-10140.821405,306.438199
730.120723,74.020594,-9992.780217,76.609550
730.121047,-370.102971,-10288.862594,0.000000
730.121371,-814.226536,-10362.883188,0.000000
730.121695,-1110.308913,-10214.842000,-459.657299
730.122019,-888.247130,-10140.821405,-153.219100
730.122343,-1036.288319,-9770.718434,-536.266849
730.122667,-1554.432478,-9992.780217,-919.314598
730.122991,-1776.494261,-9696.697840,-536.266849
730.123315,-1924.535449,-9622.677246,-306.438199
730.123639,-1258.350101,-9474.636058,0.000000
730.123963,-1406.391290,-9696.697840,76.609550
730.124287,-1184.329507,-9622.677246,153.219100
730.124611,-814.226536,-9844.739029,229.828649
730.124935,-518.144159,-9918.759623,229.828649
730.125259,-370.102971,-9622.677246,766.095498
730.125583,0.000000,-9400.615463,153.219100
730.125907,0.000000,-9178.553681,306.438199
730.126231,0.000000,-8882.471304,0.000000
730.126555,74.020594,-9104.533087,-536.266849
730.126879,370.102971,-8882.471304,-383.047749
730.127203,296.082377,-9400.615463,-383.047749
730.127526,740.205942,-9104.533087,-383.047749
730.127850,1110.308913,-8956.491898,-383.047749
730.128174,888.247130,-9178.553681,-459.657299
730.128498,888.247130,-9252.574275,76.609550
730.128822,888.247130,-9104.533087,0.000000
730.129146,1110.308913,-9326.594869,306.438199
730.129470,370.102971,-9252.574275,612.876398
730.129794,296.082377,-9696.697840,459.657299
730.130118,222.061783,-9918.759623,689.485948
730.130442,0.000000,-9844.739029,459.657299
730.130766,-740.205942,-9548.656652,229.828649
730.131090,-1110.308913,-9918.759623,0.000000
730.131414,-1554.432478,-10140.821405,0.000000
730.131738,-962.267725,-10584.944971,76.609550
730.132062,-1036.288319,-10066.800811,-229.828649
730.132386,-666.185348,-9992.780217,-459.657299
730.132710,-148.041188,-9918.759623,-229.828649
730.133034,296.082377,-9992.780217,-306.438199
730.133358,888.247130,-9770.718434,0.000000
730.133682,1110.308913,-9548.656652,383.047749
730.134006,1110.308913,-9844.739029,-536.266849
730.134330,1258.350101,-9844.739029,0.000000
730.134654,1332.370696,-9992.780217,-306.438199
730.134978,1036.288319,-9844.739029,-459.657299
730.135302,814.226536,-9844.739029,-459.657299
730.135626,962.267725,-9918.759623,-383.047749
730.135950,1036.288319,-9178.553681,-229.828649
730.136274,1110.308913,-9252.574275,-306.438199
730.136598,666.185348,-9104.533087,-1149.143247
730.136922,962.267725,-9326.594869,-766.095498
730.137246,814.226536,-9326.594869,-459.657299
730.137570,740.205942,-9474.636058,-306.438199
730.137894,370.102971,-9770.718434,0.000000
730.138218,592.164754,-9474.636058,0.000000
730.138542,74.020594,-9844.739029,-229.828649
730.138866,0.000000,-9844.739029,-689.485948
730.139190,-1036.288319,-9992.780217,-766.095498
730.139514,-1628.453072,-10140.821405,-459.657299
730.139838,-1924.535449,-10140.821405,-536.266849
730.140162,-1924.535449,-10066.800811,-612.876398
730.140486,-2220.617826,-9992.780217,0.000000
730.140810,-2220.617826,-9474.636058,153.219100
730.141134,-1850.514855,-9548.656652,229.828649
730.141458,-1406.391290,-9474.636058,153.219100
730.141782,-1554.432478,-9474.636058,0.000000
730.142106,-1184.329507,-9696.697840,76.609550
730.142430,-740.205942,-9696.697840,76.609550
730.142754,-592.164754,-9918.759623,153.219100
730.143078,0.000000,-9474.636058,0.000000
730.143402,-222.061783,-9474.636058,306.438199
730.143726,0.000000,-9474.636058,0.000000
730.144050,222.061783,-9474.636058,0.000000
730.144374,0.000000,-9622.677246,0.000000
730.144698,0.000000,-9474.636058,-306.438199
730.145022,148.041188,-9252.574275,-383.047749
730.145346,370.102971,-9104.533087,0.000000
730.145670,518.144159,-9252.574275,229.828649
730.145994,740.205942,-9474.636058,383.047749
730.146318,740.205942,-9474.636058,0.000000
730.146642,370.102971,-9474.636058,229.828649
730.146966,296.082377,-9918.759623,229.828649
730.147290,222.061783,-9844.739029,306.438199
730.147614,0.000000,-9992.780217,383.047749
730.147938,0.000000,-9992.780217,459.657299
730.148262,0.000000,-9770.718434,689.485948
730.148586,0.000000,-9844.739029,306.438199
730.148910,0.000000,-9918.759623,459.657299
730.149234,-222.061783,-9696.697840,383.047749
730.149558,0.000000,-9844.739029,153.219100
730.149882,-444.123565,-9918.759623,383.047749
730.150206,-518.144159,-9326.594869,766.095498
730.150530,0.000000,-9548.656652,306.438199
730.150854,592.164754,-9474.636058,459.657299
730.151178,888.247130,-9178.553681,0.000000
730.151502,1110.308913,-9696.697840,306.438199
730.151826,888.247130,-9844.739029,0.000000
730.152150,1258.350101,-9770.718434,0.000000
730.152474,1332.370696,-9622.677246,0.000000
730.152798,1184.329507,-9400.615463,-229.828649
730.153122,1184.329507,-9252.574275,229.828649
730.153445,1332.370696,-9474.636058,0.000000
730.153769,1036.288319,-9474.636058,-383.047749
730.154093,1036.288319,-9400.615463,-306.438199
730.154417,592.164754,-9178.553681,-383.047749
730.154741,740.205942,-9178.553681,-306.438199
730.155065,296.082377,-9030.512492,-383.047749
730.155389,370.102971,-9326.594869,0.000000
730.155713,148.041188,-9696.697840,-383.047749
730.156037,-296.082377,-9770.718434,-383.047749
730.156361,-1036.288319,-9696.697840,-229.828649
730.156685,-1406.391290,-9992.780217,-459.657299
730.157009,-1776.494261,-10066.800811,-306.438199
730.157333,-1554.432478,-9992.780217,-459.657299
730.157657,-1702.473667,-9770.718434,-306.438199
730.157981,-1850.514855,-9844.739029,0.000000
730.158305,-2294.638420,-9992.780217,-459.657299
730.158629,-1998.556043,-9992.780217,-229.828649
730.158953,-2294.638420,-9918.759623,-383.047749
730.159277,-2072.576638,-10066.800811,-153.219100
730.159601,-1776.494261,-10066.800811,-229.828649
730.159925,-1480.411884,-9622.677246,229.828649
730.160249,-1110.308913,-9770.718434,0.000000
730.160573,-740.205942,-9844.739029,0.000000
730.160897,-888.247130,-9770.718434,-459.657299
730.161221,0.000000,-9770.718434,-612.876398
730.161545,74.020594,-9548.656652,-612.876398
730.161869,296.082377,-9696.697840,-766.095498
730.162193,518.144159,-9770.718434,-612.876398
730.162517,814.226536,-9474.636058,-612.876398
730.162841,740.205942,-9474.636058,-612.876398
730.163165,1184.329507,-9326.594869,-229.828649
730.163489,1258.350101,-9622.677246,0.000000
730.163813,1554.432478,-9548.656652,76.609550
730.164137,1332.370696,-9548.656652,153.219100
730.164461,962.267725,-9548.656652,459.657299
730.164785,1110.308913,-9548.656652,689.485948
730.165109,888.247130,-9548.656652,459.657299
730.165433,814.226536,-10066.800811,536.266849
730.165757,444.123565,-9696.697840,0.000000
730.166081,222.061783,-9844.739029,229.828649
730.166405,-148.041188,-9844.739029,306.438199
730.166729,-518.144159,-9844.739029,0.000000
730.167053,-666.185348,-9474.636058,0.000000
730.167377,-592.164754,-9474.636058,0.000000
730.167701,-370.102971,-9474.636058,0.000000
730.168025,0.000000,-9474.636058,0.000000
730.168349,444.123565,-9474.636058,766.095498
730.168673,1036.288319,-9474.636058,919.314598
730.168997,1406.391290,-9474.636058,306.438199
730.169321,1110.308913,-9474.636058,536.266849
730.169645,1184.329507,-9548.656652,459.657299
730.169969,1184.329507,-9474.636058,76.609550
730.170293,666.185348,-9844.739029,0.000000
730.170617,444.123565,-9474.636058,229.828649
730.170941,-222.061783,-9400.615463,-306.438199
730.171265,0.000000,-9030.512492,-383.047749
730.171589,222.061783,-8882.471304,-766.095498
730.171913,370.102971,-8882.471304,-383.047749
730.172237,518.144159,-9104.533087,-306.438199
730.172561,444.123565,-9104.533087,-306.438199
730.172885,222.061783,-9474.636058,-306.438199
730.173209,0.000000,-9474.636058,-459.657299
730.173533,-592.164754,-9696.697840,-306.438199
730.173857,-444.123565,-10140.821405,-459.657299
730.174181,-888.247130,-10436.903782,-306.438199
730.174505,-1406.391290,-10510.924376,0.000000
730.174829,-1628.453072,-10584.944971,-536.266849
730.175153,-1850.514855,-10584.944971,-459.657299
730.175477,-1776.494261,-10436.903782,-153.219100
730.175801,-1850.514855,-10362.883188,-536.266849
730.176125,-1998.556043,-10214.842000,0.000000
730.176449,-1776.494261,-10066.800811,-459.657299
730.176773,-1628.453072,-9992.780217,-306.438199
730.177097,-1258.350101,-10066.800811,-153.219100
730.177421,-1036.288319,-9770.718434,-153.219100
730.177745,-444.123565,-10066.800811,-306.438199
730.178068,-296.082377,-9622.677246,0.000000
730.178392,74.020594,-9844.739029,-153.219100
730.178716,296.082377,-9992.780217,-459.657299
730.179040,148.041188,-10066.800811,-383.047749
730.179364,0.000000,-9770.718434,-536.266849
730.179688,74.020594,-9548.656652,-306.438199
730.180012,444.123565,-9252.574275,-689.485948
730.180336,1406.391290,-9178.553681,-689.485948
730.180660,1554.432478,-8882.471304,0.000000
730.180984,1332.370696,-8586.388927,76.609550
730.181308,1184.329507,-8734.430116,383.047749
730.181632,1036.288319,-9252.574275,229.828649
730.181956,740.205942,-9400.615463,306.438199
730.182280,740.205942,-9548.656652,536.266849
730.182604,444.123565,-9622.677246,766.095498
730.182928,222.061783,-9474.636058,842.705048
730.183252,0.000000,-9696.697840,1149.143247
730.183576,-444.123565,-9548.656652,689.485948
730.183900,-518.144159,-9622.677246,536.266849
730.184224,-740.205942,-9400.615463,383.047749
730.184548,-962.267725,-9474.636058,229.828649
730.184872,-1036.288319,-9030.512492,0.000000
730.185196,-592.164754,-9252.574275,229.828649
730.185520,-444.123565,-9326.594869,383.047749
730.185844,148.041188,-9548.656652,459.657299
730.186168,518.144159,-9622.677246,612.876398
730.186492,666.185348,-9844.739029,459.657299
730.186816,888.247130,-9918.759623,383.047749
730.187140,888.247130,-9918.759623,689.485948
730.187464,888.247130,-9918.759623,76.609550
730.187788,1332.370696,-10362.883188,76.609550
730.188112,1036.288319,-9844.739029,0.000000
730.188436,666.185348,-9548.656652,-383.047749
730.188760,592.164754,-9548.656652,-689.485948
730.189084,592.164754,-9696.697840,-689.485948
730.189408,296.082377,-9400.615463,-536.266849
730.189732,444.123565,-9548.656652,-612.876398
730.190056,370.102971,-9474.636058,-459.657299
730.190380,370.102971,-9696.697840,-229.828649
730.190704,814.226536,-9696.697840,-153.219100
730.191028,222.061783,-10288.862594,-229.828649
730.191352,-148.041188,-10362.883188,-153.219100
730.191676,-518.144159,-10584.944971,-153.219100
730.192000,-888.247130,-10436.903782,76.609550
730.192324,-1110.308913,-9992.780217,-383.047749
730.192648,-1554.432478,-9992.780217,0.000000
730.192972,-1554.432478,-9844.739029,0.000000
730.193296,-1776.494261,-9844.739029,-459.657299
730.193620,-1702.473667,-9696.697840,-306.438199
730.193944,-1924.535449,-9548.656652,-383.047749
730.194268,-1702.473667,-9770.718434,-229.828649
730.194592,-1628.453072,-9474.636058,-459.657299
730.194916,-1406.391290,-9770.718434,-459.657299
730.195240,-1480.411884,-9474.636058,-306.438199
730.195564,-1184.329507,-9918.759623,0.000000
730.195888,-592.164754,-9770.718434,153.219100
730.196212,-148.041188,-9548.656652,0.000000
730.196536,0.000000,-9400.615463,229.828649
730.196860,74.020594,-9474.636058,0.000000
730.197184,222.061783,-9030.512492,-306.438199
730.197508,74.020594,-9030.512492,-842.705048
730.197832,370.102971,-8808.450710,-306.438199
730.198156,962.267725,-9252.574275,-536.266849
730.198480,814.226536,-8882.471304,-153.219100
730.198804,740.205942,-9030.512492,0.000000
730.199128,962.267725,-9326.594869,0.000000
730.199452,1110.308913,-9548.656652,76.609550
730.199776,222.061783,-9400.615463,153.219100
730.200100,296.082377,-9622.677246,842.705048
730.200424,0.000000,-9622.677246,689.485948
730.200748,-222.061783,-9548.656652,612.876398
730.201072,0.000000,-9770.718434,536.266849
730.201396,-148.041188,-9918.759623,612.876398
730.201720,-370.102971,-9474.636058,306.438199
730.202044,-592.164754,-9770.718434,306.438199
730.202368,-814.226536,-9474.636058,229.828649
730.202691,-592.164754,-9918.759623,153.219100
730.203015,-370.102971,-9918.759623,76.609550
730.203339,0.000000,-10140.821405,0.000000
730.203663,222.061783,-9918.759623,306.438199
730.203987,592.164754,-10066.800811,383.047749
730.204311,888.247130,-10288.862594,306.438199
730.204635,1332.370696,-10362.883188,0.000000
730.204959,1628.453072,-9918.759623,536.266849
730.205283,1554.432478,-9548.656652,306.438199
730.205607,1332.370696,-9844.739029,-306.438199
730.205931,1258.350101,-9696.697840,-306.438199
730.206255,1110.308913,-9622.677246,-383.047749
730.206579,1036.288319,-9104.533087,-612.876398
730.206903,1184.329507,-9178.553681,-689.485948
730.207227,1258.350101,-9326.594869,0.000000
730.207551,518.144159,-9252.574275,-612.876398
730.207875,888.247130,-9030.512492,-306.438199
730.208199,370.102971,-9252.574275,0.000000
730.208523,0.000000,-9474.636058,-459.657299
730.208847,-222.061783,-9548.656652,-306.438199
730.209171,-518.144159,-9770.718434,-306.438199
730.209495,-888.247130,-9992.780217,-689.485948
730.209819,-888.247130,-9696.697840,-612.876398
730.210143,-1258.350101,-10066.800811,-306.438199
730.210467,-1332.370696,-10584.944971,-153.219100
730.210791,-1924.535449,-10584.944971,-842.705048
730.211115,-1776.494261,-9992.780217,-306.438199
730.211439,-2368.659014,-10066.800811,-229.828649
730.211763,-2146.597232,-10066.800811,-612.876398
730.212087,-1998.556043,-10066.800811,-153.219100
730.212411,-1702.473667,-10066.800811,0.000000
730.212735,-1184.329507,-9918.759623,-229.828649
730.213059,-888.247130,-9548.656652,-459.657299
730.213383,-888.247130,-9622.677246,0.000000
730.213707,-592.164754,-9252.574275,153.219100
730.214031,-592.164754,-9400.615463,-306.438199
730.214355,-222.061783,-9548.656652,-612.876398
730.214679,0.000000,-9474.636058,-612.876398
730.215003,222.061783,-9548.656652,-612.876398
730.215327,740.205942,-9696.697840,-536.266849
730.215651,592.164754,-9104.533087,-612.876398
730.215975,740.205942,-9252.574275,-306.438199
730.216299,518.144159,-9474.636058,-306.438199
730.216623,888.247130,-9548.656652,-306.438199
730.216947,1036.288319,-9770.718434,0.000000
730.217271,1036.288319,-9770.718434,0.000000
730.217595,962.267725,-9548.656652,383.047749
730.217919,666.185348,-9474.636058,76.609550
730.218243,444.123565,-9770.718434,612.876398
730.218567,370.102971,-9918.759623,536.266849
730.218891,-148.041188,-10066.800811,229.828649
730.219215,-370.102971,-9696.697840,0.000000
730.219539,-370.102971,-9770.718434,76.609550
730.219863,-518.144159,-9548.656652,383.047749
730.220187,-740.205942,-9548.656652,0.000000
730.220511,-444.123565,-9400.615463,153.219100
730.220835,-222.061783,-9400.615463,459.657299
730.221159,444.123565,-9622.677246,306.438199
730.221483,518.144159,-9622.677246,383.047749
730.221807,666.185348,-9696.697840,459.657299
730.222131,888.247130,-9696.697840,383.047749
730.222455,1184.329507,-9326.594869,76.609550
730.222779,1480.411884,-9474.636058,842.705048
730.223103,1184.329507,-9548.656652,229.828649
730.223427,1332.370696,-9548.656652,153.219100
730.223751,1332.370696,-9548.656652,76.609550
730.224075,962.267725,-9770.718434,-153.219100
730.224399,518.144159,-9622.677246,-383.047749
730.224723,370.102971,-9104.533087,-536.266849
730.225047,222.061783,-8956.491898,-383.047749
730.225371,444.123565,-8956.491898,-76.609550
730.225695,222.061783,-9252.574275,-306.438199
730.226019,74.020594,-9548.656652,0.000000
730.226343,-148.041188,-9696.697840,153.219100
730.226667,-370.102971,-9844.739029,0.000000
730.226991,-592.164754,-9918.759623,76.609550
730.227315,-740.205942,-9770.718434,229.828649
730.227638,-1036.288319,-10066.800811,153.219100
730.227962,-1406.391290,-10214.842000,153.219100
730.228286,-1924.535449,-9770.718434,0.000000
730.228610,-2146.597232,-9770.718434,-153.219100
730.228934,-2220.617826,-10066.800811,-306.438199
730.229258,-2294.638420,-9918.759623,-229.828649
730.229582,-2146.597232,-9770.718434,0.000000
730.229906,-2368.659014,-10066.800811,0.000000
730.230230,-1850.514855,-10066.800811,-383.047749
730.230554,-1554.432478,-9400.615463,229.828649
730.230878,-1110.308913,-9770.718434,0.000000
730.231202,-740.205942,-9918.759623,76.609550
730.231526,-444.123565,-9696.697840,76.609550
730.231850,-370.102971,-9548.656652,0.000000
730.232174,370.102971,-9474.636058,0.000000
730.232498,222.061783,-9548.656652,-612.876398
730.232822,148.041188,-9474.636058,0.000000
730.233146,296.082377,-9844.739029,-612.876398
730.233470,814.226536,-9548.656652,-459.657299
730.233794,1036.288319,-9474.636058,-612.876398
730.234118,592.164754,-9178.553681,-536.266849
730.234442,740.205942,-9400.615463,306.438199
730.234766,1036.288319,-9474.636058,0.000000
730.235090,1628.453072,-9104.533087,766.095498
730.235414,1258.350101,-9474.636058,459.657299
730.235738,666.185348,-9474.636058,459.657299
730.236062,666.185348,-9474.636058,383.047749
730.236386,592.164754,-9548.656652,612.876398
730.236710,74.020594,-9918.759623,459.657299
730.237034,0.000000,-9844.739029,459.657299
730.237358,-518.144159,-9474.636058,229.828649
730.237682,-296.082377,-9844.739029,612.876398
730.238006,-592.164754,-9770.718434,76.609550
730.238330,-666.185348,-9770.718434,-153.219100
730.238654,-296.082377,-9844.739029,0.000000
730.238978,296.082377,-9622.677246,153.219100
730.239302,814.226536,-9474.636058,153.219100
730.239626,1258.350101,-9622.677246,76.609550
730.239950,1332.370696,-9622.677246,153.219100
730.240274,1628.453072,-9548.656652,229.828649
730.240598,1702.473667,-9844.739029,0.000000
730.240922,1110.308913,-9622.677246,-306.438199
730.241246,962.267725,-9844.739029,-153.219100
730.241570,740.205942,-9696.697840,-153.219100
730.241894,888.247130,-9400.615463,-306.438199
730.242218,444.123565,-9326.594869,-459.657299
730.242542,666.185348,-9474.636058,-306.438199
730.242866,444.123565,-9622.677246,-919.314598
730.243190,148.041188,-9252.574275,-689.485948
730.243514,148.041188,-9548.656652,0.000000
730.243838,148.041188,-9696.697840,-612.876398
730.244162,-296.082377,-9474.636058,-153.219100
730.244486,-740.205942,-9622.677246,0.000000
730.244810,-666.185348,-10140.821405,-536.266849
730.245134,-962.267725,-10140.821405,-766.095498
730.245458,-1480.411884,-10362.883188,-842.705048
730.245781,-1702.473667,-10288.862594,-612.876398
730.246105,-1702.473667,-10288.862594,-612.876398
730.246429,-2072.576638,-10362.883188,-536.266849
730.246753,-2146.597232,-9992.780217,0.000000
730.247077,-2664.741391,-9992.780217,-612.876398
730.247401,-1554.432478,-9992.780217,0.000000
730.247725,-1850.514855,-9696.697840,0.000000
730.248049,-1258.350101,-9992.780217,0.000000
730.248373,-740.205942,-9918.759623,153.219100
730.248697,-444.123565,-9622.677246,153.219100
730.249021,-148.041188,-9400.615463,-229.828649
730.249345,148.041188,-9474.636058,-536.266849
730.249669,222.061783,-9474.636058,-306.438199
730.249993,296.082377,-9178.553681,-459.657299
730.250317,296.082377,-9400.615463,-766.095498
730.250641,518.144159,-9252.574275,-153.219100
730.250965,740.205942,-9104.533087,-689.485948
730.251289,1480.411884,-9400.615463,-153.219100
730.251613,1406.391290,-9326.594869,0.000000
730.251937,1258.350101,-9400.615463,0.000000
730.252261,1110.308913,-9400.615463,536.266849
730.252585,962.267725,-9326.594869,536.266849
730.252909,666.185348,-9326.594869,383.047749
730.253233,518.144159,-9400.615463,995.924147
730.253557,666.185348,-9770.718434,612.876398
730.253881,222.061783,-9622.677246,919.314598
730.254205,0.000000,-9622.677246,536.266849
730.254529,-296.082377,-9474.636058,383.047749
730.254853,-370.102971,-9622.677246,536.266849
730.255177,-1036.288319,-10288.862594,0.000000
730.255501,-666.185348,-9622.677246,766.095498
730.255825,-518.144159,-9474.636058,536.266849
730.256149,-444.123565,-9622.677246,536.266849
730.256473,0.000000,-9770.718434,383.047749
730.256797,0.000000,-9622.677246,689.485948
730.257121,0.000000,-9474.636058,612.876398
730.257445,518.144159,-9548.656652,919.314598
730.257769,518.144159,-9696.697840,306.438199
730.258093,666.185348,-9992.780217,995.924147
730.258417,888.247130,-9696.697840,612.876398
730.258741,888.247130,-9844.739029,0.000000
730.259065,814.226536,-9844.739029,-306.438199
730.259389,0.000000,-9622.677246,-612.876398
730.259713,296.082377,-9474.636058,-612.876398
730.260037,518.144159,-9178.553681,0.000000
730.260361,370.102971,-9326.594869,-689.485948
730.260685,296.082377,-9252.574275,-383.047749
730.261008,296.082377,-9622.677246,-612.876398
730.261332,740.205942,-9474.636058,-459.657299
730.261656,444.123565,-9622.677246,-153.219100
730.261980,222.061783,-9770.718434,-612.876398
730.262304,0.000000,-9918.759623,0.000000
730.262628,-370.102971,-10066.800811,-459.657299
730.262952,-592.164754,-10436.903782,0.000000
730.263276,-1258.350101,-10362.883188,-306.438199
730.263600,-1628.453072,-10362.883188,-306.438199
730.263924,-1776.494261,-10288.862594,-536.266849
730.264248,-1480.411884,-10362.883188,-459.657299
730.264572,-1702.473667,-9992.780217,-383.047749
730.264896,-1776.494261,-9548.656652,-306.438199
730.265220,-1628.453072,-10066.800811,-306.438199
730.265544,-1776.494261,-9770.718434,0.000000
730.265868,-1110.308913,-9770.718434,0.000000
730.266192,-962.267725,-9622.677246,-153.219100
730.266516,-740.205942,-9844.739029,0.000000
730.266840,0.000000,-9918.759623,-229.828649
730.267164,222.061783,-9400.615463,0.000000
730.267488,592.164754,-9474.636058,-306.438199
730.267812,444.123565,-9696.697840,-383.047749
730.268136,148.041188,-9622.677246,-459.657299
730.268460,0.000000,-9326.594869,-536.266849
730.268784,296.082377,-9474.636058,-459.657299
730.269108,814.226536,-9252.574275,-306.438199
730.269432,592.164754,-9178.553681,-229.828649
730.269756,1332.370696,-9104.533087,229.828649
730.270080,1406.391290,-9104.533087,459.657299
730.270404,962.267725,-9326.594869,229.828649
730.270728,518.144159,-9622.677246,689.485948
730.271052,222.061783,-9770.718434,766.095498
730.271376,74.020594,-9696.697840,689.485948
730.271700,-296.082377,-9548.656652,536.266849
730.272024,-592.164754,-9992.780217,229.828649
730.272348,-962.267725,-9622.677246,536.266849
730.272672,-814.226536,-9770.718434,459.657299
730.272996,-666.185348,-9770.718434,229.828649
730.273320,-1258.350101,-9696.697840,153.219100
730.273644,-814.226536,-9844.739029,306.438199
730.273968,0.000000,-9844.739029,0.000000
730.274292,1036.288319,-9548.656652,766.095498
730.274616,1110.308913,-9548.656652,842.705048
730.274940,1258.350101,-9844.739029,536.266849
730.275264,1406.391290,-9844.739029,306.438199
730.275588,1406.391290,-9844.739029,459.657299
730.275912,1184.329507,-9844.739029,383.047749
730.276236,888.247130,-9992.780217,0.000000
730.276559,962.267725,-9474.636058,-153.219100
730.276883,1184.329507,-9400.615463,-536.266849
730.277207,1332.370696,-9104.533087,-459.657299
730.277531,814.226536,-9178.553681,-842.705048
730.277855,518.144159,-9030.512492,-612.876398
730.278179,666.185348,-9104.533087,-612.876398
730.278503,592.164754,-8956.491898,-229.828649
730.278827,592.164754,-9400.615463,-153.219100
730.279151,370.102971,-9548.656652,0.000000
730.279475,-296.082377,-9622.677246,-459.657299
730.279799,74.020594,-9474.636058,229.828649
730.280123,0.000000,-10066.800811,-229.828649
730.280447,-814.226536,-10362.883188,-229.828649
730.280771,-1184.329507,-10436.903782,-229.828649
730.281095,-1480.411884,-10436.903782,-383.047749
730.281419,-2368.659014,-9918.759623,-536.266849
730.281743,-2368.659014,-9918.759623,-612.876398
730.282067,-2368.659014,-10510.924376,-995.924147
730.282391,-1998.556043,-9992.780217,-383.047749
730.282715,-1850.514855,-9918.759623,-459.657299
730.283039,-2072.576638,-9770.718434,-306.438199
730.283363,-1480.411884,-9992.780217,-153.219100
730.283687,-962.267725,-10140.821405,-383.047749
730.284011,-666.185348,-9696.697840,76.609550
730.284335,0.000000,-9992.780217,-229.828649
730.284659,-296.082377,-9252.574275,-229.828649
730.284983,0.000000,-9696.697840,-536.266849
730.285307,296.082377,-9474.636058,-536.266849
730.285631,148.041188,-9622.677246,-766.095498
730.285955,-148.041188,-9474.636058,-689.485948
730.286279,148.041188,-9548.656652,-919.314598
730.286603,148.041188,-9252.574275,-383.047749
730.286927,370.102971,-9326.594869,0.000000
730.287251,666.185348,-9252.574275,76.609550
730.287575,1036.288319,-9696.697840,0.000000
730.287899,962.267725,-9474.636058,612.876398
730.288223,888.247130,-9474.636058,153.219100
730.288547,1036.288319,-9474.636058,536.266849
730.288871,518.144159,-9474.636058,153.219100
730.289195,444.123565,-9918.759623,612.876398
730.289519,0.000000,-9844.739029,0.000000
730.289843,-296.082377,-9844.739029,153.219100
730.290167,-296.082377,-9770.718434,76.609550
730.290491,-148.041188,-9770.718434,153.219100
730.290815,74.020594,-9622.677246,383.047749
730.291139,0.000000,-9696.697840,306.438199
730.291463,0.000000,-9474.636058,1149.143247
730.291786,0.000000,-9252.574275,842.705048
730.292110,74.020594,-9548.656652,919.314598
730.292434,888.247130,-9844.739029,919.314598
730.292758,1184.329507,-9696.697840,919.314598
730.293082,1332.370696,-9844.739029,766.095498
730.293406,1332.370696,-9548.656652,229.828649
730.293730,1628.453072,-9696.697840,383.047749
730.294054,1036.288319,-9474.636058,0.000000
730.294378,888.247130,-9548.656652,-229.828649
730.294702,592.164754,-9548.656652,-306.438199
730.295026,666.185348,-9696.697840,-306.438199
730.295350,444.123565,-9474.636058,-459.657299
730.295674,296.082377,-8882.471304,0.000000
730.295998,740.205942,-9030.512492,0.000000
730.296322,1258.350101,-9400.615463,0.000000
730.296646,888.247130,-9104.533087,-306.438199
730.296970,370.102971,-9770.718434,76.609550
730.297294,-296.082377,-9548.656652,0.000000
730.297618,-666.185348,-9844.739029,-153.219100
730.297942,-666.185348,-9770.718434,-229.828649
730.298266,-1184.329507,-10288.862594,-689.485948
730.298590,-1332.370696,-9844.739029,0.000000
730.298914,-1998.556043,-9622.677246,-306.438199
730.299238,-2146.597232,-9844.739029,-383.047749
730.299562,-2368.659014,-9844.739029,-612.876398
730.299886,-2442.679609,-9992.780217,-459.657299
730.300210,-2368.659014,-9992.780217,-536.266849
730.300534,-1850.514855,-10066.800811,-153.219100
730.300858,-1628.453072,-9696.697840,0.000000
730.301182,-888.247130,-9918.759623,842.705048
730.301506,-592.164754,-10140.821405,612.876398
730.301830,-962.267725,-9918.759623,306.438199
730.302154,-518.144159,-9844.739029,0.000000
730.302478,-518.144159,-9918.759623,-306.438199
730.302802,0.000000,-9918.759623,-612.876398
730.303126,148.041188,-9696.697840,-842.705048
730.303450,518.144159,-10140.821405,-689.485948
730.303774,296.082377,-9548.656652,-995.924147
730.304098,962.267725,-9474.636058,-919.314598
730.304422,814.226536,-9178.553681,-689.485948
730.304746,888.247130,-8956.491898,-383.047749
730.305070,1554.432478,-9400.615463,-229.828649
730.305394,1184.329507,-9474.636058,153.219100
730.305718,1554.432478,-9400.615463,689.485948
730.306042,888.247130,-9548.656652,689.485948
730.306366,666.185348,-9844.739029,306.438199
730.306690,222.061783,-9918.759623,306.438199
730.307014,0.000000,-9918.759623,153.219100
730.307337,-518.144159,-9770.718434,459.657299
730.307661,-666.185348,-9696.697840,153.219100
730.307985,-666.185348,-9326.594869,0.000000
730.308309,-518.144159,-9474.636058,-536.266849
730.308633,-518.144159,-9770.718434,-306.438199
730.308957,-518.144159,-9326.594869,306.438199
730.309281,0.000000,-9474.636058,76.609550
730.309605,148.041188,-9548.656652,229.828649
730.309929,814.226536,-9696.697840,383.047749
730.310253,814.226536,-9696.697840,689.485948
730.310577,1480.411884,-10066.800811,0.000000
730.310901,1110.308913,-9622.677246,76.609550
730.311225,1184.329507,-9844.739029,76.609550
730.311549,1406.391290,-9918.759623,0.000000
730.311873,1036.288319,-9474.636058,0.000000
730.312197,962.267725,-9326.594869,-383.047749
730.312521,370.102971,-9178.553681,-612.876398
730.312845,444.123565,-9104.533087,0.000000
730.313169,592.164754,-8808.450710,-766.095498
730.313493,518.144159,-9178.553681,-689.485948
730.313817,814.226536,-9252.574275,-689.485948
730.314141,740.205942,-9622.677246,-306.438199
730.314465,296.082377,-9992.780217,-459.657299
730.314789,-444.123565,-10066.800811,-459.657299
730.315113,-1036.288319,-10214.842000,0.000000
730.315437,-1258.350101,-10436.903782,-153.219100
730.315761,-1110.308913,-10140.821405,-306.438199
730.316085,-1406.391290,-9992.780217,0.000000
730.316409,-1554.432478,-10214.842000,-229.828649
730.316733,-1554.432478,-10436.903782,-536.266849
730.317057,-1850.514855,-10066.800811,-383.047749
730.317381,-2220.617826,-10066.800811,-689.485948
730.317705,-1924.535449,-10214.842000,-612.876398
730.318029,-1776.494261,-9918.759623,-229.828649
730.318353,-1480.411884,-9992.780217,-153.219100
730.318677,-1110.308913,-9992.780217,-153.219100
730.319001,-592.164754,-9844.739029,0.000000
730.319325,-148.041188,-9622.677246,0.000000
730.319649,74.020594,-9474.636058,153.219100
730.319973,370.102971,-9696.697840,229.828649
730.320297,222.061783,-9326.594869,-536.266849
730.320621,74.020594,-9474.636058,229.828649
730.320945,0.000000,-9400.615463,-229.828649
730.321269,74.020594,-9622.677246,-459.657299
730.321593,444.123565,-9400.615463,-229.828649
730.321917,814.226536,-9400.615463,-153.219100
730.322241,1110.308913,-9326.594869,0.000000
730.322564,1332.370696,-9104.533087,153.219100
730.322888,1776.494261,-9918.759623,306.438199
730.323212,1184.329507,-9474.636058,76.609550
730.323536,740.205942,-9030.512492,612.876398
730.323860,518.144159,-9622.677246,383.047749
730.324184,370.102971,-9696.697840,229.828649
730.324508,0.000000,-9622.677246,459.657299
730.324832,-592.164754,-9474.636058,383.047749
730.325156,-518.144159,-9474.636058,306.438199
730.325480,-444.123565,-9474.636058,0.000000
730.325804,-148.041188,-9696.697840,689.485948
730.326128,-296.082377,-9622.677246,383.047749
730.326452,-518.144159,-9696.697840,383.047749
730.326776,-444.123565,-9696.697840,536.266849
730.327100,-222.061783,-9844.739029,459.657299
730.327424,74.020594,-9548.656652,459.657299
730.327748,296.082377,-9622.677246,153.219100
730.328072,740.205942,-10140.821405,383.047749
730.328396,666.185348,-9622.677246,306.438199
730.328720,888.247130,-9844.739029,76.609550
730.329044,888.247130,-10066.800811,0.000000
730.329368,888.247130,-9844.739029,-306.438199
730.329692,1110.308913,-9474.636058,-536.266849
730.330016,962.267725,-9474.636058,-383.047749
730.330340,666.185348,-9326.594869,-153.219100
730.330664,1480.411884,-9918.759623,-612.876398
730.330988,888.247130,-9548.656652,-612.876398
730.331312,296.082377,-9548.656652,-383.047749
730.331636,444.123565,-9622.677246,-229.828649
730.331960,666.185348,-9844.739029,0.000000
730.332284,296.082377,-9548.656652,-766.095498
730.332608,370.102971,-9770.718434,-383.047749
730.332932,222.061783,-9696.697840,-459.657299
730.333256,0.000000,-9770.718434,-306.438199
730.333580,-592.164754,-9770.718434,-459.657299
730.333904,-1184.329507,-10140.821405,-766.095498
730.334228,-1776.494261,-10066.800811,-689.485948
730.334552,-2220.617826,-10066.800811,-919.314598
730.334876,-1998.556043,-9992.780217,-153.219100
730.335200,-1850.514855,-9696.697840,-306.438199
730.335524,-1924.535449,-9844.739029,0.000000
730.335848,-1480.411884,-10214.842000,153.219100
730.336172,-1332.370696,-9844.739029,153.219100
730.336496,-962.267725,-9844.739029,153.219100
730.336820,-888.247130,-9918.759623,229.828649
730.337144,-518.144159,-9844.739029,229.828649
730.337468,-814.226536,-9474.636058,76.609550
730.337792,0.000000,-10214.842000,153.219100
730.338116,-222.061783,-9326.594869,-689.485948
730.338440,0.000000,-9474.636058,-1072.533697
730.338764,0.000000,-9326.594869,-689.485948
730.339088,370.102971,-9326.594869,-612.876398
730.339412,740.205942,-9030.512492,-459.657299
730.339736,888.247130,-9104.533087,-306.438199
730.340060,962.267725,-8808.450710,76.609550
730.340384,1332.370696,-8586.388927,153.219100
730.340708,1184.329507,-9474.636058,306.438199
730.341032,888.247130,-9770.718434,459.657299
730.341356,592.164754,-9696.697840,459.657299
730.341680,74.020594,-9696.697840,536.266849
730.342004,0.000000,-9770.718434,76.609550
730.342328,-222.061783,-9548.656652,842.705048
730.342653,-370.102971,-9770.718434,76.609550
730.342977,-222.061783,-10362.883188,0.000000
730.343301,-592.164754,-9844.739029,0.000000
730.343625,-814.226536,-9770.718434,0.000000
730.343949,-592.164754,-9992.780217,0.000000
730.344273,-370.102971,-9622.677246,306.438199
730.344597,-222.061783,-9622.677246,459.657299
730.344921,148.041188,-9770.718434,459.657299
730.345245,74.020594,-9844.739029,612.876398
730.345569,592.164754,-9844.739029,612.876398
730.345893,1036.288319,-10288.862594,459.657299
730.346217,888.247130,-9918.759623,612.876398
730.346541,962.267725,-9696.697840,229.828649
730.346865,1332.370696,-9622.677246,76.609550
730.347189,1480.411884,-9548.656652,383.047749
730.347513,1184.329507,-9548.656652,306.438199
730.347837,888.247130,-9252.574275,0.000000
730.348161,1184.329507,-9326.594869,-229.828649
730.348485,1110.308913,-9104.533087,-306.438199
730.348809,814.226536,-9178.553681,-383.047749
730.349133,888.247130,-9252.574275,-153.219100
730.349457,888.247130,-9326.594869,-306.438199
730.349781,1406.391290,-9770.718434,-229.828649
730.350105,370.102971,-9548.656652,0.000000
730.350429,-444.123565,-9474.636058,0.000000
730.350753,-666.185348,-9844.739029,0.000000
730.351077,-1184.329507,-9992.780217,0.000000
730.351401,-1480.411884,-9918.759623,0.000000
730.351725,-1554.432478,-10140.821405,0.000000
730.352050,-1776.494261,-10066.800811,0.000000
730.352374,-2220.617826,-9474.636058,-306.438199
730.352698,-1850.514855,-9844.739029,459.657299
730.353022,-1924.535449,-10066.800811,-383.047749
730.353346,-2072.576638,-9770.718434,-459.657299
730.353670,-1850.514855,-9770.718434,-306.438199
730.353994,-1258.350101,-9622.677246,76.609550
730.354318,-666.185348,-9548.656652,76.609550
730.354642,-518.144159,-9474.636058,0.000000
730.354966,-296.082377,-9696.697840,0.000000
730.355290,-370.102971,-9696.697840,-306.438199
730.355614,-222.061783,-9696.697840,-459.657299
730.355938,-370.102971,-9696.697840,-383.047749
730.356262,-296.082377,-9844.739029,-306.438199
730.356586,-296.082377,-9474.636058,-459.657299
730.356910,0.000000,-9030.512492,-383.047749
730.357234,518.144159,-9252.574275,-383.047749
730.357558,666.185348,-9622.677246,-766.095498
730.357882,740.205942,-9548.656652,-459.657299
730.358206,1036.288319,-9548.656652,0.000000
730.358530,1184.329507,-9770.718434,0.000000
730.358854,740.205942,-9844.739029,689.485948
730.359178,518.144159,-9918.759623,306.438199
730.359502,592.164754,-9474.636058,383.047749
730.359826,518.144159,-9918.759623,0.000000
730.360150,148.041188,-10140.821405,306.438199
730.360474,0.000000,-10214.842000,0.000000
730.360798,-296.082377,-9992.780217,306.438199
730.361122,-518.144159,-9622.677246,153.219100
730.361446,-370.102971,-9844.739029,306.438199
730.361771,-444.123565,-9844.739029,229.828649
730.362095,-370.102971,-9770.718434,0.000000
730.362419,0.000000,-9474.636058,612.876398
730.362743,444.123565,-9474.636058,383.047749
730.363067,962.267725,-9548.656652,229.828649
730.363391,1110.308913,-9770.718434,612.876398
730.363715,1480.411884,-9474.636058,383.047749
730.364039,1776.494261,-9474.636058,0.000000
730.364363,1924.535449,-9474.636058,153.219100
730.364687,1332.370696,-9548.656652,-383.047749
730.365011,888.247130,-9474.636058,-383.047749
730.365335,592.164754,-9548.656652,-306.438199
730.365659,444.123565,-9474.636058,-229.828649
730.365983,666.185348,-9252.574275,-459.657299
730.366307,518.144159,-9104.533087,0.000000
730.366631,296.082377,-9252.574275,0.000000
730.366955,370.102971,-9104.533087,-153.219100
730.367279,222.061783,-9770.718434,153.219100
730.367603,0.000000,-9622.677246,0.000000
730.367927,0.000000,-9622.677246,76.609550
730.368251,-222.061783,-9918.759623,-306.438199
730.368575,-814.226536,-9548.656652,-383.047749
730.368899,-1332.370696,-10066.800811,76.609550
730.369223,-1406.391290,-10214.842000,-383.047749
730.369547,-1776.494261,-10214.842000,-306.438199
730.369871,-2220.617826,-10140.821405,-459.657299
730.370195,-2294.638420,-10066.800811,-76.609550
730.370519,-2294.638420,-9770.718434,-919.314598
730.370843,-1998.556043,-9770.718434,0.000000
730.371168,-1998.556043,-9770.718434,0.000000
730.371492,-1776.494261,-9918.759623,0.000000
730.371816,-1406.391290,-9992.780217,0.000000
730.372140,-962.267725,-9844.739029,229.828649
730.372464,-962.267725,-10214.842000,0.000000
730.372788,-740.205942,-10214.842000,0.000000
730.373112,-222.061783,-9844.739029,0.000000
730.373436,-296.082377,-9696.697840,0.000000
730.373760,222.061783,-9918.759623,-612.876398
730.374084,370.102971,-9474.636058,-689.485948
730.374408,222.061783,-9104.533087,-459.657299
730.374732,518.144159,-8956.491898,-766.095498
730.375056,888.247130,-8882.471304,-306.438199
730.375380,888.247130,-8956.491898,-383.047749
730.375704,1110.308913,-9400.615463,-383.047749
730.376028,1184.329507,-9474.636058,0.000000
730.376352,1036.288319,-9400.615463,229.828649
730.376676,888.247130,-9548.656652,689.485948
730.377000,518.144159,-9622.677246,766.095498
730.377324,296.082377,-9622.677246,383.047749
730.377648,222.061783,-9474.636058,383.047749
730.377972,0.000000,-9844.739029,536.266849
730.378296,0.000000,-9844.739029,229.828649
730.378620,-592.164754,-9770.718434,229.828649
730.378944,-740.205942,-9696.697840,76.609550
730.379268,-740.205942,-9474.636058,306.438199
730.379592,-370.102971,-9548.656652,-153.219100
730.379916,74.020594,-9696.697840,-153.219100
730.380240,-148.041188,-9474.636058,306.438199
730.380565,592.164754,-9770.718434,306.438199
730.380889,814.226536,-9770.718434,229.828649
730.381213,888.247130,-9770.718434,536.266849
730.381537,1110.308913,-9696.697840,459.657299
730.381861,962.267725,-9696.697840,0.000000
730.382185,1258.350101,-10362.883188,-153.219100
730.382509,962.267725,-9622.677246,153.219100
730.382833,888.247130,-9844.739029,-383.047749
730.383157,666.185348,-9474.636058,-612.876398
730.383481,518.144159,-9326.594869,-536.266849
730.383805,592.164754,-9474.636058,-842.705048
730.384129,814.226536,-9030.512492,-995.924147
730.384453,666.185348,-9178.553681,-383.047749
730.384777,370.102971,-9178.553681,-459.657299
730.385101,814.226536,-10066.800811,-612.876398
730.385425,0.000000,-9770.718434,-306.438199
730.385749,-592.164754,-9918.759623,-306.438199
730.386073,-814.226536,-10362.883188,-459.657299
730.386397,-1184.329507,-10214.842000,-612.876398
730.386721,-1554.432478,-10288.862594,0.000000
730.387045,-1184.329507,-10288.862594,0.000000
730.387369,-1776.494261,-10140.821405,-383.047749
730.387693,-1776.494261,-10436.903782,-689.485948
730.388017,-2146.597232,-10140.821405,-612.876398
730.388341,-1998.556043,-9992.780217,-459.657299
730.388665,-1924.535449,-10066.800811,-383.047749
730.388989,-1554.432478,-10066.800811,0.000000
730.389313,-740.205942,-9844.739029,0.000000
730.389637,-666.185348,-9844.739029,-229.828649
730.389962,-148.041188,-9696.697840,229.828649
730.390286,-148.041188,-9548.656652,0.000000
730.390610,0.000000,-9622.677246,0.000000
730.390934,74.020594,-9622.677246,-383.047749
730.391258,296.082377,-9548.656652,-383.047749
730.391582,444.123565,-9030.512492,0.000000
730.391906,666.185348,-9252.574275,-153.219100
730.392230,518.144159,-9326.594869,-153.219100
730.392554,592.164754,-9030.512492,-229.828649
730.392878,814.226536,-8882.471304,0.000000
730.393202,1184.329507,-9252.574275,0.000000
730.393526,1258.350101,-9178.553681,229.828649
730.393850,1258.350101,-9252.574275,842.705048
730.394174,1184.329507,-9252.574275,842.705048
730.394498,962.267725,-9474.636058,766.095498
730.394822,370.102971,-9326.594869,536.266849
730.395146,222.061783,-9622.677246,766.095498
730.395470,0.000000,-9918.759623,612.876398
730.395794,-296.082377,-9770.718434,459.657299
730.396118,-518.144159,-9474.636058,689.485948
730.396442,-1110.308913,-9622.677246,76.609550
730.396766,-1036.288319,-9622.677246,306.438199
730.397090,-1184.329507,-9326.594869,306.438199
730.397414,-814.226536,-9548.656652,383.047749
730.397738,-444.123565,-9770.718434,383.047749
730.398062,0.000000,-9844.739029,536.266849
730.398386,296.082377,-9770.718434,842.705048
730.398710,592.164754,-9548.656652,689.485948
730.399034,1110.308913,-10362.883188,689.485948
730.399358,1110.308913,-10066.800811,689.485948
730.399683,888.247130,-9844.739029,76.609550
730.400007,814.226536,-9844.739029,0.000000
730.400331,592.164754,-9918.759623,-383.047749
730.400655,296.082377,-9770.718434,-766.095498
730.400979,148.041188,-9844.739029,-536.266849
730.401303,518.144159,-9770.718434,-612.876398
730.401627,444.123565,-9548.656652,-536.266849
730.401951,888.247130,-9622.677246,-536.266849
730.402275,444.123565,-9696.697840,-459.657299
730.402599,370.102971,-9696.697840,-306.438199
730.402923,222.061783,-9770.718434,-306.438199
730.403247,148.041188,-9918.759623,0.000000
730.403571,74.020594,-9696.697840,0.000000
730.403895,148.041188,-10066.800811,-536.266849
730.404219,-296.082377,-10288.862594,0.000000
730.404543,-888.247130,-10807.006753,-383.047749
730.404867,-1554.432478,-10140.821405,-689.485948
730.405191,-1776.494261,-10066.800811,-689.485948
730.405515,-2072.576638,-10066.800811,-612.876398
730.405839,-1924.535449,-9770.718434,-383.047749
730.406163,-1998.556043,-9770.718434,-536.266849
730.406487,-1554.432478,-9474.636058,0.000000
730.406811,-1110.308913,-9548.656652,-383.047749
730.407135,-1036.288319,-9548.656652,0.000000
730.407459,-666.185348,-9696.697840,229.828649
730.407783,-370.102971,-9696.697840,153.219100
730.408107,-148.041188,-9474.636058,459.657299
730.408431,0.000000,-9548.656652,76.609550
730.408755,222.061783,-9474.636058,0.000000
730.409080,74.020594,-9104.533087,-459.657299
730.409404,518.144159,-9696.697840,-383.047749
730.409728,148.041188,-9548.656652,-612.876398
730.410052,444.123565,-9030.512492,-536.266849
730.410376,518.144159,-8882.471304,-689.485948
730.410700,740.205942,-8882.471304,0.000000
730.411024,1036.288319,-9252.574275,76.609550
730.411348,1406.391290,-9178.553681,383.047749
730.411672,592.164754,-8956.491898,459.657299
730.411996,814.226536,-9474.636058,689.485948
730.412320,222.061783,-9474.636058,383.047749
730.412644,222.061783,-9696.697840,612.876398
730.412968,0.000000,-9770.718434,459.657299
730.413292,-592.164754,-9548.656652,229.828649
730.413616,-666.185348,-9770.718434,153.219100
730.413940,-888.247130,-9918.759623,0.000000
730.414264,-814.226536,-9844.739029,306.438199
730.414588,-814.226536,-9770.718434,229.828649
730.414912,-740.205942,-9622.677246,0.000000
730.415236,-148.041188,-9844.739029,306.438199
730.415560,0.000000,-10140.821405,153.219100
730.415884,444.123565,-9844.739029,306.438199
730.416208,814.226536,-10066.800811,689.485948
730.416532,1110.308913,-9844.739029,153.219100
730.416856,1184.329507,-9770.718434,-229.828649
730.417180,1332.370696,-9918.759623,0.000000
730.417504,1184.329507,-9844.739029,0.000000
730.417828,1184.329507,-9844.739029,-536.266849
730.418152,962.267725,-9696.697840,-689.485948
730.418477,1036.288319,-9622.677246,0.000000
730.418801,666.185348,-9326.594869,-229.828649
730.419125,1036.288319,-9326.594869,-1149.143247
730.419449,962.267725,-9474.636058,-229.828649
730.419773,814.226536,-9474.636058,-1149.143247
730.420097,888.247130,-9622.677246,-459.657299
730.420421,518.144159,-9622.677246,-306.438199
730.420745,296.082377,-9622.677246,-383.047749
730.421069,74.020594,-9696.697840,-153.219100
730.421393,0.000000,-9844.739029,-153.219100
730.421717,-740.205942,-9992.780217,-612.876398
730.422041,-370.102971,-9992.780217,-306.438199
730.422365,-1110.308913,-9918.759623,-612.876398
730.422689,-1332.370696,-9992.780217,-689.485948
730.423013,-1702.473667,-10140.821405,-383.047749
730.423337,-2368.659014,-9770.718434,-459.657299
730.423661,-2590.720797,-10066.800811,0.000000
730.423985,-2072.576638,-9844.739029,-306.438199
730.424309,-1702.473667,-9400.615463,306.438199
730.424633,-1332.370696,-9400.615463,383.047749
730.424957,-962.267725,-9474.636058,306.438199
730.425281,-370.102971,-9622.677246,383.047749
730.425605,-444.123565,-9474.636058,0.000000
730.425929,-370.102971,-9326.594869,0.000000
730.426253,-592.164754,-8808.450710,0.000000
730.426577,0.000000,-9400.615463,-306.438199
730.426901,74.020594,-9104.533087,-459.657299
730.427225,296.082377,-9474.636058,-306.438199
730.427549,666.185348,-9400.615463,-229.828649
730.427874,666.185348,-9474.636058,-229.828649
730.428198,740.205942,-9326.594869,-306.438199
730.428522,962.267725,-9474.636058,-229.828649
730.428846,888.247130,-9474.636058,0.000000
730.429170,888.247130,-9474.636058,76.609550
730.429494,1110.308913,-9474.636058,919.314598
730.429818,888.247130,-9622.677246,766.095498
730.430142,888.247130,-9622.677246,612.876398
730.430466,296.082377,-9696.697840,459.657299
730.430790,0.000000,-9918.759623,383.047749
730.431114,-296.082377,-9992.780217,153.219100
730.431438,-444.123565,-10066.800811,229.828649
730.431762,-666.185348,-9474.636058,76.609550
730.432086,-888.247130,-9548.656652,0.000000
730.432410,-814.226536,-9992.780217,0.000000
730.432734,-518.144159,-9622.677246,229.828649
730.433058,-148.041188,-9696.697840,459.657299
730.433382,222.061783,-9770.718434,383.047749
730.433706,888.247130,-9474.636058,689.485948
730.434030,1184.329507,-9844.739029,1149.143247
730.434354,888.247130,-9696.697840,459.657299
730.434678,1110.308913,-9696.697840,383.047749
730.435002,1258.350101,-9844.739029,383.047749
730.435326,1110.308913,-9622.677246,0.000000
730.435650,1184.329507,-9622.677246,-306.438199
730.435974,888.247130,-9474.636058,-306.438199
730.436298,740.205942,-9474.636058,-536.266849
730.436623,666.185348,-9400.615463,-536.266849
730.436947,518.144159,-8808.450710,-536.266849
730.437271,148.041188,-8956.491898,-1302.362347
730.437595,296.082377,-9326.594869,-612.876398
730.437919,444.123565,-9474.636058,0.000000
730.438243,222.061783,-9474.636058,0.000000
730.438567,148.041188,-9622.677246,306.438199
730.438891,-370.102971,-9400.615463,0.000000
730.439215,-444.123565,-9696.697840,76.609550
730.439539,-888.247130,-9844.739029,-306.438199
730.439863,-1258.350101,-9918.759623,-229.828649
730.440187,-1776.494261,-10140.821405,-383.047749
730.440511,-2368.659014,-10066.800811,-306.438199
730.440835,-2368.659014,-9844.739029,-536.266849
730.441159,-2220.617826,-9844.739029,0.000000
730.441483,-2146.597232,-9918.759623,-459.657299
730.441808,-2072.576638,-9696.697840,-306.438199
730.442132,-1702.473667,-9548.656652,76.609550
730.442456,-1332.370696,-9548.656652,383.047749
730.442780,-1184.329507,-9622.677246,229.828649
730.443104,-888.247130,-9770.718434,76.609550
730.443428,-740.205942,-9770.718434,229.828649
730.443752,-148.041188,-9548.656652,-153.219100
730.444076,0.000000,-9474.636058,0.000000
730.444400,74.020594,-9474.636058,-383.047749
730.444724,0.000000,-9400.615463,-229.828649
730.445048,-148.041188,-9696.697840,-689.485948
730.445372,0.000000,-9548.656652,-459.657299
730.445696,444.123565,-9474.636058,-383.047749
730.446020,1110.308913,-9622.677246,229.828649
730.446344,1036.288319,-9252.574275,153.219100
730.446668,1406.391290,-9474.636058,153.219100
730.446992,1776.494261,-9400.615463,153.219100
730.447317,1332.370696,-9474.636058,536.266849
730.447641,888.247130,-9474.636058,383.047749
730.447965,888.247130,-9770.718434,459.657299
730.448289,592.164754,-9992.780217,612.876398
730.448613,296.082377,-10214.842000,0.000000
730.448937,0.000000,-9844.739029,919.314598
730.449261,-444.123565,-9918.759623,0.000000
730.449585,-666.185348,-9696.697840,229.828649
730.449909,-518.144159,-9770.718434,153.219100
730.450233,-666.185348,-9696.697840,0.000000
730.450557,-222.061783,-9474.636058,153.219100
730.450881,296.082377,-9622.677246,383.047749
730.451205,592.164754,-9548.656652,536.266849
730.451529,814.226536,-9252.574275,689.485948
730.451853,888.247130,-9622.677246,536.266849
730.452177,740.205942,-9474.636058,76.609550
730.452502,962.267725,-9622.677246,153.219100
730.452826,740.205942,-9770.718434,-153.219100
730.453150,740.205942,-9844.739029,-153.219100
730.453474,740.205942,-9844.739029,-383.047749
730.453798,814.226536,-9474.636058,-153.219100
730.454122,444.123565,-9252.574275,-766.095498
730.454446,296.082377,-9326.594869,-919.314598
730.454770,0.000000,-9400.615463,-536.266849
730.455094,148.041188,-9474.636058,-383.047749
730.455418,296.082377,-9548.656652,-536.266849
730.455742,222.061783,-9622.677246,0.000000
730.456066,74.020594,-9992.780217,0.000000
730.456390,0.000000,-9844.739029,-306.438199
730.456714,-444.123565,-9918.759623,-536.266849
730.457038,-888.247130,-10214.842000,-306.438199
730.457362,-1406.391290,-10288.862594,-536.266849
730.457686,-1480.411884,-10584.944971,-383.047749
730.458011,-1332.370696,-10362.883188,-306.438199
730.458335,-1776.494261,-9992.780217,-383.047749
730.458659,-1850.514855,-10288.862594,-459.657299
730.458983,-2146.597232,-10288.862594,-306.438199
730.459307,-1554.432478,-10066.800811,-459.657299
730.459631,-1258.350101,-9992.780217,-153.219100
730.459955,-1406.391290,-9844.739029,0.000000
730.460279,-962.267725,-9844.739029,0.000000
730.460603,-444.123565,-9770.718434,0.000000
730.460927,0.000000,-9474.636058,612.876398
730.461251,370.102971,-10066.800811,383.047749
730.461575,370.102971,-9548.656652,0.000000
730.461899,222.061783,-9400.615463,0.000000
730.462223,296.082377,-9326.594869,-229.828649
730.462547,222.061783,-9400.615463,-459.657299
730.462871,370.102971,-9474.636058,-229.828649
730.463196,518.144159,-9622.677246,-229.828649
730.463520,1036.288319,-8882.471304,229.828649
730.463844,1184.329507,-9400.615463,-612.876398
730.464168,1110.308913,-9400.615463,-306.438199
730.464492,740.205942,-9474.636058,689.485948
730.464816,740.205942,-9474.636058,459.657299
730.465140,740.205942,-9474.636058,612.876398
730.465464,296.082377,-9622.677246,612.876398
730.465788,518.144159,-9474.636058,766.095498
730.466112,222.061783,-9326.594869,919.314598
730.466436,-148.041188,-9622.677246,459.657299
730.466760,-592.164754,-9770.718434,153.219100
730.467084,-888.247130,-9696.697840,0.000000
730.467408,-888.247130,-9770.718434,153.219100
730.467732,-814.226536,-10066.800811,0.000000
730.468056,-814.226536,-9992.780217,306.438199
730.468381,-888.247130,-9770.718434,536.266849
730.468705,-444.123565,-9696.697840,229.828649
730.469029,370.102971,-9474.636058,383.047749
730.469353,518.144159,-9696.697840,536.266849
730.469677,962.267725,-9844.739029,383.047749
730.470001,1258.350101,-9844.739029,0.000000
730.470325,1332.370696,-9844.739029,-153.219100
730.470649,1480.411884,-9992.780217,-153.219100
730.470973,888.247130,-9622.677246,-689.485948
730.471297,814.226536,-9622.677246,-306.438199
730.471621,444.123565,-9770.718434,-842.705048
730.471945,592.164754,-9844.739029,-842.705048
730.472269,518.144159,-9622.677246,-766.095498
730.472593,740.205942,-9696.697840,-689.485948
730.472917,1036.288319,-9548.656652,-306.438199
730.473241,1110.308913,-9252.574275,-459.657299
730.473565,740.205942,-9104.533087,76.609550
730.473890,444.123565,-9474.636058,-383.047749
730.474214,222.061783,-9844.739029,0.000000
730.474538,0.000000,-10066.800811,-229.828649
730.474862,-518.144159,-10066.800811,-383.047749
730.475186,-1258.350101,-10066.800811,-536.266849
730.475510,-1850.514855,-10066.800811,-612.876398
730.475834,-1702.473667,-10436.903782,-766.095498
730.476158,-1924.535449,-9770.718434,-306.438199
730.476482,-1850.514855,-10066.800811,-536.266849
730.476806,-1628.453072,-9918.759623,-383.047749
730.477130,-1554.432478,-9770.718434,-229.828649
730.477454,-1332.370696,-9696.697840,76.609550
730.477778,-1258.350101,-9474.636058,153.219100
730.478102,-888.247130,-9548.656652,536.266849
730.478426,-814.226536,-9622.677246,306.438199
730.478750,-740.205942,-9474.636058,306.438199
730.479075,-370.102971,-9548.656652,153.219100
730.479399,0.000000,-9548.656652,0.000000
730.479723,74.020594,-9474.636058,-383.047749
730.480047,0.000000,-9326.594869,-612.876398
730.480371,-148.041188,-9030.512492,-536.266849
730.480695,0.000000,-9474.636058,-1378.971896
730.481019,148.041188,-9400.615463,-1149.143247
730.481343,370.102971,-9400.615463,-536.266849
730.481667,814.226536,-9400.615463,-153.219100
730.481991,1332.370696,-9178.553681,0.000000
730.482315,1480.411884,-9400.615463,536.266849
730.482639,1998.556043,-9474.636058,842.705048
730.482963,1110.308913,-9622.677246,919.314598
730.483287,518.144159,-10066.800811,1225.752797
730.483611,-444.123565,-9918.759623,995.924147
730.483935,-518.144159,-9992.780217,383.047749
730.484260,-962.267725,-9844.739029,-153.219100
730.484584,-1184.329507,-9992.780217,0.000000
730.484908,-1332.370696,-9548.656652,-612.876398
730.485232,-740.205942,-9622.677246,-612.876398
730.485556,-740.205942,-9548.656652,0.000000
730.485880,-518.144159,-9548.656652,-306.438199
730.486204,0.000000,-9622.677246,0.000000
730.486528,444.123565,-9696.697840,0.000000
730.486852,1110.308913,-9992.780217,689.485948
730.487176,1850.514855,-10214.842000,766.095498
730.487500,1776.494261,-10214.842000,842.705048
730.487824,1628.453072,-9844.739029,995.924147
730.488148,1850.514855,-9918.759623,612.876398
730.488472,1110.308913,-9844.739029,-153.219100
730.488796,666.185348,-9918.759623,-306.438199
730.489120,370.102971,-9696.697840,-766.095498
730.489444,74.020594,-9178.553681,-689.485948
730.489769,518.144159,-8882.471304,-459.657299
730.490093,1036.288319,-9104.533087,-995.924147
730.490417,1110.308913,-8808.450710,-612.876398
730.490741,592.164754,-8882.471304,-536.266849
730.491065,444.123565,-9104.533087,0.000000
730.491389,296.082377,-9474.636058,0.000000
730.491713,222.061783,-9770.718434,306.438199
730.492037,0.000000,-9844.739029,306.438199
730.492361,0.000000,-9770.718434,153.219100
730.492685,-444.123565,-9844.739029,229.828649
730.493009,-1110.308913,-9992.780217,536.266849
730.493333,-1332.370696,-10288.862594,383.047749
730.493657,-1850.514855,-9622.677246,0.000000
730.493981,-2072.576638,-9622.677246,-383.047749
730.494305,-2368.659014,-9918.759623,-229.828649
730.494629,-2146.597232,-9770.718434,-842.705048
730.494954,-1776.494261,-9548.656652,0.000000
730.495278,-1776.494261,-9474.636058,0.000000
730.495602,-1110.308913,-9252.574275,-383.047749
730.495926,-814.226536,-9474.636058,0.000000
730.496250,-518.144159,-9992.780217,0.000000
730.496574,-444.123565,-9844.739029,0.000000
730.496898,-148.041188,-9770.718434,0.000000
730.497222,0.000000,-9844.739029,0.000000
730.497546,0.000000,-9548.656652,459.657299
730.497870,444.123565,-9622.677246,306.438199
730.498194,222.061783,-9622.677246,-229.828649
730.498518,296.082377,-9548.656652,-612.876398
730.498842,222.061783,-9622.677246,-612.876398
730.499166,370.102971,-9474.636058,-689.485948
730.499490,592.164754,-9622.677246,-383.047749
730.499814,592.164754,-9770.718434,-383.047749
730.500138,444.123565,-9696.697840,76.609550
730.500463,518.144159,-9474.636058,-229.828649
730.500787,296.082377,-9474.636058,689.485948
730.501111,888.247130,-9696.697840,153.219100
730.501435,444.123565,-10436.903782,229.828649
730.501759,0.000000,-10214.842000,153.219100
730.502083,-222.061783,-10214.842000,229.828649
730.502407,-666.185348,-10066.800811,153.219100
730.502731,-962.267725,-9770.718434,153.219100
730.503055,-888.247130,-9770.718434,306.438199
730.503379,-814.226536,-9622.677246,459.657299
730.503703,-148.041188,-9326.594869,0.000000
730.504027,148.041188,-9992.780217,153.219100
730.504351,592.164754,-9696.697840,383.047749
730.504675,814.226536,-9622.677246,229.828649
730.504999,1406.391290,-9474.636058,306.438199
730.505323,1628.453072,-9400.615463,229.828649
730.505648,1850.514855,-9400.615463,612.876398
730.505972,1480.411884,-9548.656652,-306.438199
730.506296,1184.329507,-9548.656652,153.219100
730.506620,1036.288319,-9252.574275,-306.438199
730.506944,1036.288319,-9326.594869,-306.438199
730.507268,888.247130,-8956.491898,-306.438199
730.507592,592.164754,-8660.409521,-383.047749
730.507916,518.144159,-8956.491898,-383.047749
730.508240,962.267725,-8808.450710,0.000000
730.508564,814.226536,-9030.512492,-383.047749
730.508888,370.102971,-9252.574275,0.000000
730.509212,0.000000,-9400.615463,0.000000
730.509536,0.000000,-9696.697840,76.609550
730.509860,-370.102971,-9474.636058,-306.438199
730.510184,-888.247130,-9622.677246,229.828649
730.510508,-1480.411884,-9474.636058,-229.828649
730.510833,-1628.453072,-9696.697840,-689.485948
730.511157,-2146.597232,-10066.800811,-766.095498
730.511481,-2220.617826,-10214.842000,-766.095498
730.511805,-2664.741391,-9992.780217,-842.705048
730.512129,-2590.720797,-10140.821405,-536.266849
730.512453,-2072.576638,-10436.903782,0.000000
730.512777,-1998.556043,-9696.697840,-153.219100
730.513101,-1184.329507,-10436.903782,689.485948
730.513425,-1036.288319,-10140.821405,229.828649
730.513749,-814.226536,-10362.883188,459.657299
730.514073,-592.164754,-9844.739029,76.609550
730.514397,-148.041188,-9918.759623,76.609550
730.514721,148.041188,-10066.800811,-383.047749
730.515045,74.020594,-9992.780217,-306.438199
730.515369,740.205942,-9252.574275,-306.438199
730.515693,296.082377,-9474.636058,-306.438199
730.516017,222.061783,-9696.697840,-1378.971896
730.516342,296.082377,-9474.636058,-1149.143247
730.516666,592.164754,-9474.636058,-766.095498
730.516990,814.226536,-9548.656652,-459.657299
730.517314,1480.411884,-9474.636058,0.000000
730.517638,1702.473667,-9474.636058,0.000000
730.517962,1406.391290,-9400.615463,306.438199
730.518286,1332.370696,-9622.677246,689.485948
730.518610,888.247130,-9696.697840,919.314598
730.518934,518.144159,-9770.718434,919.314598
730.519258,222.061783,-10066.800811,766.095498
730.519582,-370.102971,-9918.759623,229.828649
730.519906,-666.185348,-9548.656652,229.828649
730.520230,-1184.329507,-9474.636058,0.000000
730.520554,-962.267725,-9474.636058,0.000000
730.520878,-518.144159,-9474.636058,0.000000
730.521202,-592.164754,-9326.594869,0.000000
730.521527,0.000000,-9178.553681,0.000000
730.521851,444.123565,-9326.594869,153.219100
730.522175,1036.288319,-9326.594869,612.876398
730.522499,962.267725,-9400.615463,766.095498
730.522823,814.226536,-9326.594869,766.095498
730.523147,1036.288319,-9474.636058,995.924147
730.523471,740.205942,-9548.656652,383.047749
730.523795,1036.288319,-9474.636058,459.657299
730.524119,814.226536,-9622.677246,383.047749
730.524443,518.144159,-9104.533087,76.609550
730.524767,592.164754,-9326.594869,-383.047749
730.525091,518.144159,-8586.388927,-306.438199
730.525415,0.000000,-8808.450710,-689.485948
730.525739,222.061783,-8956.491898,-842.705048
730.526063,370.102971,-9252.574275,-842.705048
730.526387,296.082377,-9548.656652,-383.047749
730.526711,222.061783,-9844.739029,-459.657299
730.527036,74.020594,-9548.656652,0.000000
730.527360,-296.082377,-10140.821405,-1149.143247
730.527684,-592.164754,-10288.862594,-689.485948
730.528008,-888.247130,-10732.986159,306.438199
730.528332,-1332.370696,-10658.965565,-229.828649
730.528656,-1480.411884,-10436.903782,-459.657299
730.528980,-1406.391290,-10510.924376,-689.485948
730.529304,-1850.514855,-10436.903782,-459.657299
730.529628,-1850.514855,-10510.924376,-536.266849
730.529952,-1850.514855,-9696.697840,-689.485948
730.530276,-1702.473667,-9844.739029,-766.095498
730.530600,-1480.411884,-9992.780217,-153.219100
730.530924,-1184.329507,-9992.780217,-153.219100
730.531248,-592.164754,-10288.862594,-306.438199
730.531572,-148.041188,-9918.759623,-153.219100
730.531896,0.000000,-9696.697840,-383.047749
730.532221,222.061783,-9400.615463,0.000000
730.532545,74.020594,-9474.636058,153.219100
730.532869,-518.144159,-9326.594869,-612.876398
730.533193,0.000000,-9400.615463,-766.095498
730.533517,296.082377,-9548.656652,-612.876398
730.533841,888.247130,-9326.594869,-612.876398
730.534165,1184.329507,-9252.574275,153.219100
730.534489,1110.308913,-9104.533087,229.828649
730.534813,1332.370696,-9104.533087,536.266849
730.535137,962.267725,-9178.553681,153.219100
730.535461,370.102971,-9326.594869,229.828649
730.535785,370.102971,-9400.615463,306.438199
730.536109,296.082377,-9400.615463,536.266849
730.536433,74.020594,-9400.615463,306.438199
730.536757,-296.082377,-8956.491898,229.828649
730.537081,-444.123565,-9252.574275,536.266849
730.537406,-370.102971,-10140.821405,306.438199
730.537730,-814.226536,-9548.656652,76.609550
730.538054,-1110.308913,-9622.677246,0.000000
730.538378,-1184.329507,-9844.739029,306.438199
730.538702,-888.247130,-9844.739029,229.828649
730.539026,-370.102971,-9548.656652,383.047749
730.539349,0.000000,-9474.636058,689.485948
730.539674,740.205942,-9474.636058,459.657299
730.539998,1258.350101,-9992.780217,536.266849
730.540322,1258.350101,-9918.759623,306.438199
730.540646,1258.350101,-9770.718434,153.219100
730.540970,1184.329507,-9696.697840,76.609550
730.541295,1258.350101,-9844.739029,0.000000
730.541619,962.267725,-9844.739029,0.000000
730.541943,888.247130,-9844.739029,-383.047749
730.542267,962.267725,-9696.697840,-459.657299
730.542591,962.267725,-9474.636058,-383.047749
730.542915,740.205942,-9474.636058,-536.266849
730.543240,666.185348,-9400.615463,-459.657299
730.543564,666.185348,-9770.718434,-536.266849
730.543888,888.247130,-10066.800811,0.000000
730.544212,0.000000,-9548.656652,0.000000
730.544536,222.061783,-9770.718434,-153.219100
730.544861,0.000000,-9770.718434,0.000000
730.545185,0.000000,-10288.862594,0.000000
730.545509,-222.061783,-10436.903782,0.000000
730.545833,-666.185348,-10436.903782,0.000000
730.546157,-1332.370696,-10140.821405,-153.219100
730.546482,-1924.535449,-9770.718434,-229.828649
730.546806,-1850.514855,-9918.759623,383.047749
730.547130,-2146.597232,-10214.842000,-306.438199
730.547454,-1998.556043,-9770.718434,-306.438199
730.547778,-2146.597232,-9844.739029,153.219100
730.548103,-1776.494261,-9696.697840,0.000000
730.548427,-1554.432478,-9696.697840,229.828649
730.548751,-962.267725,-9696.697840,459.657299
730.549075,-1110.308913,-9400.615463,306.438199
730.549399,-296.082377,-9474.636058,306.438199
730.549723,0.000000,-9326.594869,0.000000
730.550048,222.061783,-9252.574275,0.000000
730.550372,444.123565,-9400.615463,-153.219100
730.550696,740.205942,-9326.594869,-306.438199
730.551020,592.164754,-9252.574275,-612.876398
730.551344,518.144159,-9104.533087,-459.657299
730.551669,666.185348,-9400.615463,-383.047749
730.551993,962.267725,-9178.553681,-229.828649
730.552317,888.247130,-9400.615463,-153.219100
730.552641,740.205942,-9400.615463,76.609550
730.552965,592.164754,-9474.636058,383.047749
730.553290,592.164754,-9252.574275,536.266849
730.553614,370.102971,-9326.594869,459.657299
730.553938,74.020594,-9696.697840,383.047749
730.554262,-740.205942,-9178.553681,612.876398
730.554586,-666.185348,-9770.718434,0.000000
730.554911,-666.185348,-9992.780217,76.609550
730.555235,-666.185348,-10288.862594,-153.219100
730.555559,-888.247130,-10140.821405,-536.266849
730.555883,-814.226536,-10066.800811,0.000000
730.556207,-370.102971,-9918.759623,0.000000
730.556531,74.020594,-9548.656652,-306.438199
730.556856,-518.144159,-9770.718434,0.000000
730.557180,296.082377,-10362.883188,229.828649
730.557504,962.267725,-10510.924376,153.219100
730.557828,1036.288319,-9992.780217,383.047749
730.558152,814.226536,-9844.739029,306.438199
730.558477,814.226536,-9548.656652,383.047749
730.558801,1036.288319,-9474.636058,76.609550
730.559125,1036.288319,-9770.718434,383.047749
730.559449,444.123565,-9548.656652,-306.438199
730.559773,666.185348,-9474.636058,-536.266849
730.560098,962.267725,-9326.594869,-383.047749
730.560422,1184.329507,-9400.615463,-383.047749
730.560746,1184.329507,-9252.574275,-766.095498
730.561070,592.164754,-9474.636058,-459.657299
730.561394,592.164754,-8660.409521,-383.047749
730.561719,1184.329507,-9104.533087,-153.219100
730.562043,296.082377,-9474.636058,-229.828649
730.562367,0.000000,-9770.718434,0.000000
730.562691,-370.102971,-9770.718434,0.000000
730.563015,-296.082377,-9696.697840,0.000000
730.563339,-444.123565,-9474.636058,0.000000
730.563664,-518.144159,-10066.800811,383.047749
730.563988,-1258.350101,-9844.739029,-536.266849
730.564312,-1776.494261,-9918.759623,-689.485948
730.564636,-2146.597232,-9844.739029,-306.438199
730.564960,-2146.597232,-9844.739029,-536.266849
730.565285,-1998.556043,-9918.759623,-459.657299
730.565609,-1924.535449,-9622.677246,-383.047749
730.565933,-1628.453072,-9474.636058,0.000000
730.566257,-962.267725,-9696.697840,-536.266849
730.566581,-1036.288319,-9474.636058,306.438199
730.566906,-592.164754,-9844.739029,-153.219100
730.567230,-444.123565,-9474.636058,76.609550
730.567554,0.000000,-9696.697840,-153.219100
730.567878,0.000000,-9548.656652,-383.047749
730.568202,148.041188,-9696.697840,-612.876398
730.568527,0.000000,-9770.718434,-689.485948
730.568851,296.082377,-9696.697840,-536.266849
730.569175,296.082377,-9474.636058,-842.705048
730.569499,592.164754,-9548.656652,-459.657299
730.569823,740.205942,-9474.636058,-383.047749
730.570147,740.205942,-9622.677246,-229.828649
730.570472,814.226536,-9474.636058,0.000000
730.570796,518.144159,-9548.656652,536.266849
730.571120,888.247130,-9770.718434,459.657299
730.571444,518.144159,-9696.697840,459.657299
730.571768,740.205942,-9770.718434,229.828649
730.572093,74.020594,-9844.739029,383.047749
730.572417,-148.041188,-10140.821405,153.219100
730.572741,-148.041188,-10288.862594,689.485948
730.573065,0.000000,-9844.739029,612.876398
730.573389,-740.205942,-9548.656652,459.657299
730.573714,-444.123565,-9474.636058,383.047749
730.574038,-666.185348,-9622.677246,0.000000
730.574362,-296.082377,-9992.780217,229.828649
730.574686,0.000000,-9918.759623,306.438199
730.575010,148.041188,-9622.677246,459.657299
730.575335,444.123565,-9252.574275,536.266849
730.575659,962.267725,-9252.574275,612.876398
730.575983,1258.350101,-9104.533087,536.266849
730.576307,1554.432478,-9104.533087,842.705048
730.576631,1480.411884,-9548.656652,459.657299
730.576955,1258.350101,-9326.594869,153.219100
730.577280,962.267725,-9326.594869,0.000000
730.577604,444.123565,-9326.594869,-153.219100
730.577928,222.061783,-9178.553681,-306.438199
730.578252,444.123565,-8660.409521,-306.438199
730.578576,740.205942,-8956.491898,153.219100
730.578901,666.185348,-8882.471304,-306.438199
730.579225,740.205942,-8956.491898,0.000000
730.579549,518.144159,-9104.533087,-153.219100
730.579873,370.102971,-9326.594869,76.609550
730.580197,74.020594,-9104.533087,459.657299
730.580522,-296.082377,-9474.636058,0.000000
730.580846,-666.185348,-9770.718434,-153.219100
730.581170,-962.267725,-10362.883188,-459.657299
730.581494,-1554.432478,-10362.883188,-229.828649
730.581818,-2072.576638,-10436.903782,-306.438199
730.582143,-2368.659014,-10436.903782,-842.705048
730.582467,-2294.638420,-10362.883188,-306.438199
730.582791,-2368.659014,-9918.759623,-306.438199
730.583115,-1998.556043,-10214.842000,-536.266849
730.583439,-1406.391290,-9992.780217,0.000000
730.583763,-1332.370696,-10140.821405,-153.219100
730.584088,-888.247130,-10066.800811,-306.438199
730.584412,-518.144159,-10066.800811,-229.828649
730.584736,-592.164754,-9992.780217,-383.047749
730.585060,-370.102971,-10214.842000,-766.095498
730.585384,296.082377,-10362.883188,-383.047749
730.585709,222.061783,-9992.780217,-1225.752797
730.586033,518.144159,-9770.718434,-842.705048
730.586357,444.123565,-9770.718434,-995.924147
730.586681,444.123565,-9696.697840,-995.924147
730.587005,592.164754,-9474.636058,-995.924147
730.587330,740.205942,-9400.615463,-689.485948
730.587654,1258.350101,-9030.512492,0.000000
730.587978,1184.329507,-9030.512492,229.828649
730.588302,1776.494261,-9696.697840,0.000000
730.588626,1184.329507,-9400.615463,0.000000
730.588951,592.164754,-9622.677246,459.657299
730.589275,592.164754,-9918.759623,229.828649
730.589599,296.082377,-9696.697840,536.266849
730.589923,0.000000,-9474.636058,919.314598
730.590247,0.000000,-9696.697840,229.828649
730.590571,-666.185348,-9622.677246,76.609550
730.590896,-962.267725,-9474.636058,153.219100
730.591220,-1184.329507,-9474.636058,0.000000
730.591544,-888.247130,-9400.615463,153.219100
730.591868,-296.082377,-9400.615463,153.219100
730.592192,0.000000,-9252.574275,612.876398
730.592517,518.144159,-9178.553681,689.485948
730.592841,740.205942,-9548.656652,612.876398
730.593165,888.247130,-9474.636058,1455.581446
730.593489,962.267725,-9474.636058,842.705048
730.593813,1184.329507,-9474.636058,689.485948
730.594138,1332.370696,-9474.636058,689.485948
730.594462,1332.370696,-9474.636058,383.047749
730.594786,814.226536,-9030.512492,229.828649
730.595110,518.144159,-9178.553681,842.705048
730.595434,814.226536,-9252.574275,0.000000
730.595759,518.144159,-9252.574275,0.000000
730.596083,370.102971,-9178.553681,-383.047749
730.596407,222.061783,-9548.656652,-153.219100
730.596731,296.082377,-9548.656652,0.000000
730.597055,0.000000,-9400.615463,0.000000
730.597379,74.020594,-9844.739029,0.000000
730.597704,-370.102971,-9770.718434,0.000000
730.598028,-444.123565,-9844.739029,383.047749
730.598352,-888.247130,-10436.903782,153.219100
730.598676,-962.267725,-10362.883188,0.000000
730.599000,-1184.329507,-10510.924376,76.609550
730.599325,-1406.391290,-9992.780217,-306.438199
730.599649,-1554.432478,-10362.883188,-536.266849
730.599973,-1924.535449,-10066.800811,-919.314598
730.600297,-2368.659014,-10214.842000,0.000000
730.600621,-2220.617826,-10288.862594,-383.047749
730.600946,-2072.576638,-10214.842000,-306.438199
730.601270,-1850.514855,-10066.800811,0.000000
730.601594,-1406.391290,-9770.718434,0.000000
730.601918,-666.185348,-9548.656652,153.219100
730.602242,-148.041188,-9622.677246,0.000000
730.602567,222.061783,-9474.636058,459.657299
730.602891,148.041188,-9400.615463,153.219100
730.603215,74.020594,-9474.636058,0.000000
730.603539,148.041188,-9474.636058,-153.219100
730.603863,148.041188,-9474.636058,-383.047749
730.604187,296.082377,-9326.594869,-459.657299
730.604512,666.185348,-9252.574275,-536.266849
730.604836,666.185348,-8512.368333,0.000000
730.605160,1110.308913,-9622.677246,-383.047749
730.605484,1184.329507,-9030.512492,-383.047749
730.605808,962.267725,-9104.533087,-153.219100
730.606133,1036.288319,-9178.553681,153.219100
730.606457,740.205942,-9178.553681,306.438199
730.606781,1110.308913,-9400.615463,842.705048
730.607105,1036.288319,-9474.636058,766.095498
730.607429,814.226536,-9400.615463,383.047749
730.607754,222.061783,-9252.574275,689.485948
730.608078,-444.123565,-9696.697840,306.438199
730.608402,-666.185348,-9770.718434,153.219100
730.608726,-1036.288319,-9770.718434,0.000000
730.609050,-1332.370696,-9844.739029,0.000000
730.609375,-1184.329507,-9622.677246,0.000000
730.609699,-888.247130,-9400.615463,76.609550
730.610023,-296.082377,-9400.615463,76.609550
730.610347,296.082377,-9474.636058,229.828649
730.610671,592.164754,-9696.697840,0.000000
730.610995,740.205942,-9770.718434,153.219100
730.611320,814.226536,-9844.739029,0.000000
730.611644,814.226536,-10510.924376,306.438199
730.611968,1036.288319,-9992.780217,0.000000
730.612292,740.205942,-9918.759623,-383.047749
730.612616,1184.329507,-10288.862594,0.000000
730.612941,518.144159,-9918.759623,-536.266849
730.613265,518.144159,-9844.739029,-536.266849
730.613589,518.144159,-9548.656652,-766.095498
730.613913,444.123565,-9548.656652,-612.876398
730.614237,1184.329507,-9474.636058,-689.485948
730.614562,592.164754,-9548.656652,-689.485948
730.614886,740.205942,-9622.677246,-919.314598
730.615210,888.247130,-9918.759623,153.219100
730.615534,444.123565,-9844.739029,-383.047749
730.615858,-148.041188,-9992.780217,-306.438199
730.616183,-296.082377,-10288.862594,-536.266849
730.616507,-592.164754,-10658.965565,-306.438199
730.616831,-592.164754,-10288.862594,-229.828649
730.617155,-1406.391290,-9918.759623,-306.438199
730.617479,-1924.535449,-9918.759623,-459.657299
730.617803,-1924.535449,-10066.800811,-306.438199
730.618128,-1554.432478,-9918.759623,-383.047749
730.618452,-1776.494261,-9622.677246,-229.828649
730.618776,-1702.473667,-9770.718434,0.000000
730.619100,-1258.350101,-9770.718434,0.000000
730.619424,-740.205942,-9696.697840,0.000000
730.619749,-370.102971,-9178.553681,-153.219100
730.620073,-592.164754,-9474.636058,-153.219100
730.620397,0.000000,-9474.636058,76.609550
730.620721,0.000000,-9474.636058,-229.828649
730.621045,222.061783,-9474.636058,-306.438199
730.621370,222.061783,-9400.615463,-383.047749
730.621694,222.061783,-9104.533087,-229.828649
730.622018,296.082377,-9030.512492,-306.438199
730.622342,370.102971,-8808.450710,-153.219100
730.622666,740.205942,-9030.512492,-306.438199
730.622991,814.226536,-9178.553681,306.438199
730.623315,962.267725,-9104.533087,536.266849
730.623639,1110.308913,-9326.594869,459.657299
730.623963,518.144159,-9030.512492,612.876398
730.624287,444.123565,-9252.574275,842.705048
730.624612,74.020594,-9622.677246,689.485948
730.624936,-222.061783,-9770.718434,459.657299
730.625260,0.000000,-9770.718434,612.876398
730.625584,-444.123565,-9770.718434,459.657299
730.625908,-888.247130,-9844.739029,459.657299
730.626232,-1110.308913,-9770.718434,153.219100
730.626557,-1110.308913,-9104.533087,536.266849
730.626881,-962.267725,-9696.697840,383.047749
730.627205,-740.205942,-9474.636058,229.828649
730.627529,-296.082377,-9844.739029,153.219100
730.627853,148.041188,-9770.718434,229.828649
730.628178,518.144159,-9992.780217,306.438199
730.628502,518.144159,-10066.800811,612.876398
730.628826,1036.288319,-9844.739029,766.095498
730.629150,1110.308913,-9474.636058,153.219100
730.629474,1554.432478,-10066.800811,306.438199
730.629799,1184.329507,-9474.636058,229.828649
730.630123,888.247130,-9992.780217,0.000000
730.630447,666.185348,-9622.677246,-229.828649
730.630771,888.247130,-9474.636058,-383.047749
730.631095,666.185348,-9030.512492,-459.657299
730.631420,962.267725,-9178.553681,-306.438199
730.631744,814.226536,-8808.450710,-919.314598
730.632068,1036.288319,-9400.615463,76.609550
730.632392,666.185348,-9474.636058,-306.438199
730.632716,296.082377,-9548.656652,-536.266849
730.633040,-148.041188,-9844.739029,-383.047749
730.633365,-370.102971,-10214.842000,0.000000
730.633689,-444.123565,-10214.842000,-229.828649
