#time,accel_x,accel_y,accel_z
938.375311,518.144159,-9918.759623,0.000000
938.375635,518.144159,-9992.780217,0.000000
938.375959,370.102971,-9400.615463,306.438199
938.376283,0.000000,-9622.677246,153.219100
938.376608,0.000000,-9474.636058,153.219100
938.376932,0.000000,-9622.677246,-229.828649
938.377256,-370.102971,-9548.656652,-306.438199
938.377580,-444.123565,-9696.697840,-306.438199
938.377904,0.000000,-9622.677246,0.000000
938.378228,0.000000,-9770.718434,306.438199
938.378553,-222.061783,-9622.677246,76.609550
938.378877,-444.123565,-9548.656652,-229.828649
938.379201,0.000000,-9696.697840,-306.438199
938.379525,74.020594,-9770.718434,0.000000
938.379849,0.000000,-9844.739029,0.000000
938.380173,0.000000,-9992.780217,153.219100
938.380497,0.000000,-9918.759623,229.828649
938.380822,-148.041188,-9548.656652,153.219100
938.381146,-592.164754,-9474.636058,0.000000
938.381470,-148.041188,-9474.636058,-229.828649
938.381794,-444.123565,-9474.636058,-229.828649
938.382118,-444.123565,-9770.718434,-153.219100
938.382442,-148.041188,-9918.759623,0.000000
938.382766,74.020594,-9918.759623,0.000000
938.383091,0.000000,-9696.697840,0.000000
938.383415,74.020594,-9548.656652,-153.219100
938.383739,0.000000,-9474.636058,0.000000
938.384063,0.000000,-9474.636058,0.000000
938.384387,148.041188,-10066.800811,-306.438199
938.384711,0.000000,-10066.800811,0.000000
938.385036,0.000000,-9992.780217,0.000000
938.385360,0.000000,-9696.697840,0.000000
938.385684,0.000000,-9474.636058,76.609550
938.386008,148.041188,-9992.780217,-153.219100
938.386332,0.000000,-9844.739029,0.000000
938.386656,296.082377,-9474.636058,0.000000
938.386980,222.061783,-9918.759623,306.438199
938.387305,370.102971,-9992.780217,-306.438199
938.387629,222.061783,-9844.739029,459.657299
938.387953,-148.041188,-9918.759623,383.047749
938.388277,0.000000,-10066.800811,0.000000
938.388601,-444.123565,-9844.739029,383.047749
938.388925,-592.164754,-9696.697840,-153.219100
938.389250,-962.267725,-9548.656652,459.657299
938.389574,-814.226536,-9178.553681,0.000000
938.389898,-592.164754,-8586.388927,459.657299
938.390222,-814.226536,-8660.409521,842.705048
938.390546,0.000000,-9474.636058,229.828649
938.390870,148.041188,-9992.780217,766.095498
938.391194,-148.041188,-10140.821405,995.924147
938.391519,-888.247130,-9770.718434,612.876398
938.391843,-1628.453072,-10362.883188,995.924147
938.392167,-2368.659014,-10362.883188,306.438199
938.392491,-2960.823768,-10214.842000,766.095498
938.392815,-2368.659014,-10362.883188,1149.143247
938.393139,-1776.494261,-9548.656652,1072.533697
938.393463,-1184.329507,-8956.491898,995.924147
938.393788,-740.205942,-8734.430116,1072.533697
938.394112,-148.041188,-9326.594869,1302.362347
938.394436,-740.205942,-9548.656652,1608.800546
938.394760,-1628.453072,-10066.800811,1532.190996
938.395084,-2664.741391,-9918.759623,1378.971896
938.395408,-3256.906145,-10584.944971,1455.581446
938.395733,-3256.906145,-10732.986159,1225.752797
938.396057,-3256.906145,-10658.965565,1608.800546
938.396381,-3256.906145,-10362.883188,1608.800546
938.396705,-2442.679609,-10066.800811,766.095498
938.397029,-2368.659014,-9474.636058,1608.800546
938.397353,-1406.391290,-8438.347739,2145.067394
938.397677,-740.205942,-8660.409521,2068.457845
938.398002,-814.226536,-9030.512492,1685.410096
938.398326,-1184.329507,-9030.512492,1838.629195
938.398650,-1998.556043,-9474.636058,1685.410096
938.398974,-2516.700203,-9918.759623,1762.019645
938.399298,-3627.009116,-10288.862594,2451.505594
938.399622,-4219.173869,-10732.986159,2604.724693
938.399946,-4737.318029,-10807.006753,2451.505594
938.400271,-4959.379811,-10658.965565,2911.162892
938.400595,-4811.338623,-10214.842000,2757.943793
938.400919,-4441.235652,-9252.574275,2604.724693
938.401243,-4071.132681,-9400.615463,2451.505594
938.401567,-3108.864956,-10066.800811,3217.601092
938.401891,-1554.432478,-10288.862594,3140.991542
938.402216,0.000000,-9474.636058,4213.525239
938.402540,1036.288319,-8660.409521,4749.792088
938.402864,1406.391290,-8438.347739,3753.867940
938.403188,1110.308913,-8364.327145,3294.210641
938.403512,148.041188,-8586.388927,3217.601092
938.403836,-1184.329507,-8364.327145,2451.505594
938.404160,-2368.659014,-8512.368333,2451.505594
938.404485,-4811.338623,-7254.018232,0.000000
938.404809,-7105.977043,-9474.636058,76.609550
938.405133,-7402.059420,-12213.398043,689.485948
938.405457,-5255.462188,-12287.418637,459.657299
938.405781,-4293.194464,-10214.842000,2681.334243
938.406105,-1554.432478,-8142.265362,4519.963438
938.406430,2516.700203,-8734.430116,4136.915689
938.406754,4219.173869,-9104.533087,4443.353888
938.407078,5107.421000,-9474.636058,5286.058936
938.407402,4885.359217,-10584.944971,5592.497135
938.407726,3256.906145,-10881.027347,4443.353888
938.408050,444.123565,-9622.677246,3447.429741
938.408374,-3182.885551,-7031.956449,1072.533697
938.408699,-6365.771101,-7476.080014,-1991.848295
938.409023,-8660.409521,-11177.109724,-2374.896044
938.409347,-7402.059420,-12287.418637,-2451.505594
938.409671,-3923.091493,-9992.780217,-1225.752797
938.409995,-2590.720797,-8216.285956,995.924147
938.410319,-2368.659014,-7846.182985,995.924147
938.410643,-2886.803174,-8882.471304,1072.533697
938.410968,-3330.926739,-9696.697840,1225.752797
938.411292,-2516.700203,-10807.006753,1302.362347
938.411616,-370.102971,-11473.192101,3753.867940
938.411940,3552.988522,-11843.295072,5209.449386
938.412264,6291.750507,-11399.171507,4979.620737
938.412588,5255.462188,-10881.027347,3983.696590
938.412913,1480.411884,-10214.842000,1915.238745
938.413237,-3182.885551,-10140.821405,689.485948
938.413561,-5403.503377,-8660.409521,-995.924147
938.413885,-5255.462188,-6957.935855,-1991.848295
938.414209,-4959.379811,-6957.935855,-2528.115143
938.414533,-5847.626942,-9622.677246,-1608.800546
938.414857,-4811.338623,-11843.295072,-1532.190996
938.415182,-4663.297435,-10881.027347,-1838.629195
938.415506,-6735.874072,-9178.553681,76.609550
938.415830,-6439.791695,-8586.388927,919.314598
938.416154,-3775.050304,-9548.656652,306.438199
938.416478,-962.267725,-10658.965565,2145.067394
938.416802,814.226536,-11769.274478,2757.943793
938.417127,2220.617826,-13323.706956,3294.210641
938.417451,1554.432478,-13101.645173,3370.820191
938.417775,518.144159,-10955.047942,2911.162892
938.418099,-148.041188,-9030.512492,2451.505594
938.418423,-444.123565,-9474.636058,2068.457845
938.418747,-1554.432478,-10510.924376,1072.533697
938.419071,-2516.700203,-10140.821405,842.705048
938.419396,-3478.967927,-8586.388927,689.485948
938.419720,-3849.070898,-7772.162391,1072.533697
938.420044,-3182.885551,-7402.059420,1072.533697
938.420368,-3108.864956,-6809.894666,1149.143247
938.420692,-4293.194464,-7402.059420,1302.362347
938.421016,-6513.812290,-9474.636058,306.438199
938.421340,-6809.894666,-10584.944971,1378.971896
938.421665,-4663.297435,-9622.677246,2374.896044
938.421989,-1406.391290,-8660.409521,2298.286494
938.422313,-370.102971,-9622.677246,2528.115143
938.422637,-592.164754,-11621.233289,3677.258390
938.422961,0.000000,-12361.439231,4673.182538
938.423285,2146.597232,-11029.068536,4443.353888
938.423610,2146.597232,-9252.574275,4596.572988
938.423934,1332.370696,-8512.368333,3907.087040
938.424258,-1036.288319,-10214.842000,3370.820191
938.424582,-3404.947333,-11103.089130,3294.210641
938.424906,-4071.132681,-10362.883188,2757.943793
938.425230,-4293.194464,-8956.491898,2221.676944
938.425554,-4885.359217,-6809.894666,2221.676944
938.425879,-4959.379811,-7031.956449,2451.505594
938.426203,-4145.153275,-8512.368333,2987.772442
938.426527,-3108.864956,-9326.594869,1608.800546
938.426851,-4441.235652,-9030.512492,919.314598
938.427175,-5477.523971,-8438.347739,1072.533697
938.427499,-3997.112087,-9178.553681,2068.457845
938.427823,-592.164754,-10732.986159,3294.210641
938.428148,1036.288319,-11177.109724,3447.429741
938.428472,592.164754,-11843.295072,3677.258390
938.428796,1184.329507,-12065.356855,3983.696590
938.429120,2146.597232,-11621.233289,3830.477490
938.429444,2220.617826,-10807.006753,4290.134789
938.429768,296.082377,-10807.006753,4136.915689
938.430093,-2368.659014,-11399.171507,3370.820191
938.430417,-3404.947333,-10066.800811,1915.238745
938.430741,-3034.844362,-7550.100608,2221.676944
938.431065,-2960.823768,-6957.935855,2987.772442
938.431389,-4219.173869,-8512.368333,1149.143247
938.431713,-5255.462188,-7846.182985,0.000000
938.432037,-5107.421000,-6069.688724,459.657299
938.432362,-3404.947333,-7402.059420,1608.800546
938.432686,-2368.659014,-10140.821405,1225.752797
938.433010,-2368.659014,-8956.491898,1072.533697
938.433334,-1258.350101,-7105.977043,2757.943793
938.433658,518.144159,-8882.471304,3370.820191
938.433982,1628.453072,-11769.274478,2298.286494
938.434307,1184.329507,-10881.027347,2987.772442
938.434631,518.144159,-9992.780217,3830.477490
938.434955,-222.061783,-11399.171507,2757.943793
938.435279,-1110.308913,-11547.212695,1378.971896
938.435603,-2368.659014,-9474.636058,3753.867940
938.435927,-2368.659014,-10214.842000,3677.258390
938.436251,-2220.617826,-11843.295072,689.485948
938.436576,-3256.906145,-8956.491898,-306.438199
938.436900,-3775.050304,-6883.915261,689.485948
938.437224,-4219.173869,-8660.409521,-229.828649
938.437548,-3997.112087,-9030.512492,-1838.629195
938.437872,-2960.823768,-6587.832884,0.000000
938.438196,-1406.391290,-7031.956449,0.000000
938.438520,0.000000,-8586.388927,-1149.143247
938.438844,0.000000,-9326.594869,-536.266849
938.439168,-592.164754,-9548.656652,459.657299
938.439492,-1554.432478,-11399.171507,-229.828649
938.439815,-2368.659014,-11917.315666,0.000000
938.440139,-2368.659014,-10955.047942,842.705048
938.440463,-1332.370696,-11399.171507,612.876398
938.440787,-444.123565,-12287.418637,0.000000
938.441111,-592.164754,-11473.192101,766.095498
938.441435,592.164754,-11769.274478,1072.533697
938.441759,1628.453072,-10881.027347,-766.095498
938.442083,1480.411884,-9844.739029,76.609550
938.442407,1110.308913,-9548.656652,-1302.362347
938.442730,370.102971,-9992.780217,-2221.676944
938.443054,-444.123565,-10658.965565,-1608.800546
938.443378,-1924.535449,-11473.192101,-2451.505594
938.443702,-2812.782580,-10807.006753,-2451.505594
938.444026,-2886.803174,-9326.594869,-2451.505594
938.444350,-1406.391290,-9770.718434,-995.924147
938.444674,-1036.288319,-10436.903782,-995.924147
938.444998,-1998.556043,-9178.553681,-689.485948
938.445322,-2516.700203,-8882.471304,0.000000
938.445645,-1184.329507,-8882.471304,-306.438199
938.445969,1036.288319,-7994.224174,1838.629195
938.446293,2368.659014,-8290.306550,2068.457845
938.446617,3034.844362,-8512.368333,383.047749
938.446941,1628.453072,-8364.327145,842.705048
938.447265,0.000000,-10436.903782,459.657299
938.447589,-148.041188,-11769.274478,-1225.752797
938.447913,-666.185348,-10807.006753,0.000000
938.448237,0.000000,-10362.883188,1532.190996
938.448560,1554.432478,-10658.965565,-306.438199
938.448884,370.102971,-9548.656652,766.095498
938.449208,-1184.329507,-8068.244768,1149.143247
938.449532,-888.247130,-8586.388927,-612.876398
938.449856,-444.123565,-7550.100608,0.000000
938.450180,296.082377,-6513.812290,1302.362347
938.450504,1036.288319,-7476.080014,536.266849
938.450828,0.000000,-8142.265362,995.924147
938.451152,-1332.370696,-8438.347739,2298.286494
938.451475,-1998.556043,-10807.006753,536.266849
938.451799,-2146.597232,-9992.780217,0.000000
938.452123,-1480.411884,-9104.533087,1762.019645
938.452447,0.000000,-10510.924376,842.705048
938.452771,1110.308913,-11473.192101,612.876398
938.453095,-222.061783,-10732.986159,1532.190996
938.453419,-148.041188,-10510.924376,459.657299
938.453743,-444.123565,-9474.636058,383.047749
938.454067,592.164754,-9474.636058,1685.410096
938.454390,1998.556043,-9918.759623,1455.581446
938.454714,2368.659014,-9844.739029,1072.533697
938.455038,1702.473667,-9918.759623,1378.971896
938.455362,1036.288319,-9918.759623,229.828649
938.455686,1036.288319,-9030.512492,383.047749
938.456010,0.000000,-8956.491898,536.266849
938.456334,-1036.288319,-9770.718434,0.000000
938.456658,-1776.494261,-11029.068536,-306.438199
938.456982,-1628.453072,-9918.759623,459.657299
938.457305,-666.185348,-9844.739029,306.438199
938.457629,-222.061783,-9474.636058,459.657299
938.457953,222.061783,-9178.553681,1838.629195
938.458277,296.082377,-9696.697840,1149.143247
938.458601,1480.411884,-9474.636058,842.705048
938.458925,1480.411884,-9992.780217,995.924147
938.459249,740.205942,-11029.068536,459.657299
938.459573,592.164754,-9992.780217,153.219100
938.459897,518.144159,-9474.636058,612.876398
938.460220,-148.041188,-10584.944971,-536.266849
938.460544,-962.267725,-10658.965565,-1149.143247
938.460868,-2960.823768,-9696.697840,-1532.190996
938.461192,-3108.864956,-9400.615463,-2604.724693
938.461516,-2886.803174,-8882.471304,-2145.067394
938.461840,-1480.411884,-8808.450710,-842.705048
938.462164,-148.041188,-9474.636058,-995.924147
938.462488,592.164754,-9252.574275,-383.047749
938.462812,1036.288319,-8364.327145,459.657299
938.463135,1258.350101,-8808.450710,0.000000
938.463459,1258.350101,-9326.594869,76.609550
938.463783,1036.288319,-8586.388927,-153.219100
938.464107,1554.432478,-8734.430116,-766.095498
938.464431,1406.391290,-9474.636058,-1072.533697
938.464755,740.205942,-9622.677246,-1072.533697
938.465079,222.061783,-9326.594869,-1302.362347
938.465403,-370.102971,-8956.491898,-1608.800546
938.465727,-740.205942,-8364.327145,-995.924147
938.466050,-444.123565,-10584.944971,-1149.143247
938.466374,-888.247130,-11029.068536,-766.095498
938.466698,-1628.453072,-10658.965565,-1302.362347
938.467022,-2664.741391,-10807.006753,-1838.629195
938.467346,-2220.617826,-10584.944971,-1225.752797
938.467670,-814.226536,-11769.274478,229.828649
938.467994,1036.288319,-12583.501014,612.876398
938.468318,1628.453072,-11251.130318,0.000000
938.468642,666.185348,-9770.718434,689.485948
938.468965,814.226536,-10362.883188,0.000000
938.469289,1480.411884,-10362.883188,612.876398
938.469613,1110.308913,-9696.697840,1378.971896
938.469937,888.247130,-9252.574275,306.438199
938.470261,370.102971,-8808.450710,-229.828649
938.470585,-666.185348,-8956.491898,-842.705048
938.470909,-296.082377,-8882.471304,-766.095498
938.471233,-666.185348,-7772.162391,-459.657299
938.471557,-962.267725,-7994.224174,-612.876398
938.471880,-1036.288319,-9326.594869,-1149.143247
938.472204,-592.164754,-9474.636058,0.000000
938.472528,74.020594,-9474.636058,1685.410096
938.472852,444.123565,-9918.759623,306.438199
938.473176,592.164754,-9326.594869,1225.752797
938.473500,1406.391290,-8956.491898,2528.115143
938.473824,2590.720797,-11103.089130,1838.629195
938.474148,2886.803174,-11029.068536,1685.410096
938.474471,1850.514855,-10066.800811,1991.848295
938.474795,888.247130,-10658.965565,919.314598
938.475119,296.082377,-9326.594869,459.657299
938.475443,-592.164754,-9400.615463,229.828649
938.475767,-962.267725,-9992.780217,-153.219100
938.476091,-1406.391290,-9622.677246,-306.438199
938.476415,-2220.617826,-9400.615463,-766.095498
938.476739,-2368.659014,-8882.471304,-1378.971896
938.477063,-1480.411884,-7254.018232,-842.705048
938.477386,-296.082377,-8586.388927,1685.410096
938.477710,1036.288319,-10066.800811,1149.143247
938.478034,1776.494261,-8882.471304,1378.971896
938.478358,888.247130,-8882.471304,3294.210641
938.478682,1480.411884,-10288.862594,1225.752797
938.479006,2516.700203,-9252.574275,1455.581446
938.479330,1628.453072,-9252.574275,2451.505594
938.479654,1406.391290,-9400.615463,536.266849
938.479978,1184.329507,-9844.739029,0.000000
938.480301,0.000000,-10214.842000,0.000000
938.480625,-592.164754,-9918.759623,-1608.800546
938.480949,-1480.411884,-8956.491898,-1302.362347
938.481273,-1480.411884,-9474.636058,-1225.752797
938.481597,-1258.350101,-10658.965565,-2145.067394
938.481921,-2146.597232,-10214.842000,-1302.362347
938.482245,-1850.514855,-9770.718434,-153.219100
938.482569,-1184.329507,-10881.027347,-612.876398
938.482893,0.000000,-10214.842000,-306.438199
938.483216,0.000000,-9030.512492,919.314598
938.483540,222.061783,-10362.883188,306.438199
938.483864,666.185348,-10955.047942,383.047749
938.484188,0.000000,-10362.883188,842.705048
938.484512,-814.226536,-9918.759623,-229.828649
938.484836,-592.164754,-8734.430116,-459.657299
938.485160,-518.144159,-9252.574275,-536.266849
938.485484,0.000000,-9992.780217,-766.095498
938.485808,0.000000,-9992.780217,-612.876398
938.486131,-1184.329507,-10584.944971,-766.095498
938.486455,-1406.391290,-9992.780217,-842.705048
938.486779,-592.164754,-9400.615463,0.000000
938.487103,0.000000,-9400.615463,0.000000
938.487427,-444.123565,-10140.821405,-229.828649
938.487751,-1110.308913,-9992.780217,1149.143247
938.488075,-1924.535449,-9474.636058,1149.143247
938.488399,-962.267725,-9770.718434,306.438199
938.488723,-370.102971,-8882.471304,612.876398
938.489046,370.102971,-8364.327145,153.219100
938.489370,518.144159,-9548.656652,0.000000
938.489694,148.041188,-9770.718434,0.000000
938.490018,0.000000,-9474.636058,306.438199
938.490342,814.226536,-9474.636058,0.000000
938.490666,2072.576638,-9030.512492,612.876398
938.490990,1998.556043,-9104.533087,0.000000
938.491314,1184.329507,-9104.533087,-1149.143247
938.491638,222.061783,-8882.471304,-229.828649
938.491961,-222.061783,-10066.800811,-229.828649
938.492285,-222.061783,-10362.883188,-612.876398
938.492609,0.000000,-8290.306550,612.876398
938.492933,740.205942,-9178.553681,689.485948
938.493257,1554.432478,-10214.842000,536.266849
938.493581,962.267725,-10140.821405,1072.533697
938.493905,222.061783,-10658.965565,1762.019645
938.494229,962.267725,-10658.965565,842.705048
938.494553,2072.576638,-9326.594869,1225.752797
938.494876,2220.617826,-9400.615463,919.314598
938.495200,1406.391290,-10214.842000,383.047749
938.495524,0.000000,-10140.821405,-306.438199
938.495848,-1702.473667,-9844.739029,-919.314598
938.496172,-2072.576638,-8586.388927,-1302.362347
938.496496,-1554.432478,-8216.285956,-306.438199
938.496820,222.061783,-9252.574275,306.438199
938.497144,1406.391290,-10436.903782,229.828649
938.497468,962.267725,-9548.656652,1685.410096
938.497791,-222.061783,-8956.491898,842.705048
938.498115,222.061783,-9474.636058,-153.219100
938.498439,666.185348,-8142.265362,383.047749
938.498763,814.226536,-8956.491898,766.095498
938.499087,296.082377,-10362.883188,0.000000
938.499411,-370.102971,-10510.924376,76.609550
938.499735,-1036.288319,-9992.780217,229.828649
938.500059,-666.185348,-9252.574275,-1149.143247
938.500383,-222.061783,-8808.450710,-536.266849
938.500706,-888.247130,-9844.739029,-306.438199
938.501030,-444.123565,-11547.212695,-689.485948
938.501354,-1110.308913,-10584.944971,-383.047749
938.501678,-1998.556043,-9844.739029,0.000000
938.502002,-2220.617826,-9622.677246,-995.924147
938.502326,-1184.329507,-9326.594869,-842.705048
938.502650,0.000000,-9474.636058,-306.438199
938.502974,444.123565,-10362.883188,-229.828649
938.503298,222.061783,-10066.800811,0.000000
938.503621,-1184.329507,-9400.615463,-842.705048
938.503945,-1776.494261,-9178.553681,-995.924147
938.504269,-888.247130,-9178.553681,-383.047749
938.504593,0.000000,-9992.780217,-229.828649
938.504917,74.020594,-10214.842000,0.000000
938.505241,-370.102971,-9548.656652,612.876398
938.505565,-444.123565,-10066.800811,-153.219100
938.505889,222.061783,-10140.821405,-229.828649
938.506213,444.123565,-9252.574275,995.924147
938.506536,518.144159,-10066.800811,919.314598
938.506860,74.020594,-10584.944971,0.000000
938.507184,-888.247130,-9474.636058,306.438199
938.507508,-1628.453072,-9696.697840,459.657299
938.507832,-962.267725,-9548.656652,0.000000
938.508156,-666.185348,-9030.512492,919.314598
938.508480,-296.082377,-9474.636058,0.000000
938.508804,0.000000,-9474.636058,-919.314598
938.509128,-296.082377,-9104.533087,0.000000
938.509451,-148.041188,-10066.800811,153.219100
938.509775,1480.411884,-10214.842000,0.000000
938.510099,2220.617826,-9178.553681,919.314598
938.510423,2368.659014,-8808.450710,1149.143247
938.510747,2442.679609,-9252.574275,842.705048
938.511071,1850.514855,-9252.574275,1072.533697
938.511395,370.102971,-9622.677246,842.705048
938.511719,-444.123565,-9622.677246,536.266849
938.512042,-222.061783,-8586.388927,689.485948
938.512366,222.061783,-8438.347739,229.828649
938.512690,518.144159,-8808.450710,-153.219100
938.513014,444.123565,-9400.615463,689.485948
938.513338,-148.041188,-9844.739029,0.000000
938.513662,222.061783,-9326.594869,0.000000
938.513986,296.082377,-8290.306550,689.485948
938.514310,222.061783,-9770.718434,153.219100
938.514634,296.082377,-10732.986159,0.000000
938.514957,518.144159,-10584.944971,1455.581446
938.515281,0.000000,-11325.150913,766.095498
938.515605,0.000000,-10214.842000,76.609550
938.515929,74.020594,-9104.533087,612.876398
938.516253,666.185348,-10140.821405,536.266849
938.516577,222.061783,-10436.903782,-459.657299
938.516901,-1258.350101,-9770.718434,229.828649
938.517225,-1998.556043,-9622.677246,0.000000
938.517549,-1480.411884,-9474.636058,-383.047749
938.517872,-814.226536,-8660.409521,689.485948
938.518196,74.020594,-9030.512492,-76.609550
938.518520,296.082377,-9770.718434,-536.266849
938.518844,0.000000,-9400.615463,0.000000
938.519168,148.041188,-9548.656652,-842.705048
938.519492,0.000000,-9400.615463,-1302.362347
938.519816,-592.164754,-8882.471304,-229.828649
938.520140,-148.041188,-10288.862594,-536.266849
938.520464,444.123565,-11177.109724,-766.095498
938.520787,518.144159,-10214.842000,0.000000
938.521111,0.000000,-10732.986159,459.657299
938.521435,0.000000,-9770.718434,-612.876398
938.521759,0.000000,-9104.533087,0.000000
938.522083,-666.185348,-10066.800811,306.438199
938.522407,-444.123565,-10214.842000,-612.876398
938.522731,-888.247130,-9400.615463,-536.266849
938.523055,-1776.494261,-9548.656652,-612.876398
938.523379,-1554.432478,-9252.574275,-919.314598
938.523702,-592.164754,-9326.594869,-766.095498
938.524026,-740.205942,-10510.924376,-1225.752797
938.524350,-1036.288319,-10510.924376,-1302.362347
938.524674,-1184.329507,-9918.759623,-842.705048
938.524998,-1184.329507,-10436.903782,-1072.533697
938.525322,-1110.308913,-9918.759623,-612.876398
938.525646,-296.082377,-9104.533087,0.000000
938.525970,1184.329507,-10066.800811,383.047749
938.526294,1480.411884,-11251.130318,229.828649
938.526617,888.247130,-10436.903782,1378.971896
938.526941,222.061783,-9696.697840,919.314598
938.527265,0.000000,-9178.553681,0.000000
938.527589,74.020594,-9326.594869,842.705048
938.527913,-222.061783,-9770.718434,842.705048
938.528237,-518.144159,-9622.677246,-766.095498
938.528561,-1776.494261,-9178.553681,-612.876398
938.528885,-1924.535449,-9400.615463,-1072.533697
938.529209,-814.226536,-9104.533087,-842.705048
938.529532,148.041188,-8660.409521,-383.047749
938.529856,370.102971,-9030.512492,-306.438199
938.530180,814.226536,-9548.656652,0.000000
938.530504,1036.288319,-9474.636058,1072.533697
938.530828,1480.411884,-11029.068536,1225.752797
938.531152,1702.473667,-9548.656652,995.924147
938.531476,2590.720797,-8438.347739,2298.286494
938.531800,3256.906145,-9696.697840,1608.800546
938.532124,2886.803174,-10362.883188,1455.581446
938.532447,1406.391290,-9770.718434,2298.286494
938.532771,592.164754,-9548.656652,383.047749
938.533095,-222.061783,-8438.347739,76.609550
938.533419,-592.164754,-7994.224174,306.438199
938.533743,-1184.329507,-8586.388927,-383.047749
938.534067,-592.164754,-8956.491898,-842.705048
938.534391,0.000000,-9178.553681,76.609550
938.534715,0.000000,-9474.636058,0.000000
938.535039,74.020594,-8586.388927,536.266849
938.535362,148.041188,-8808.450710,1225.752797
938.535686,962.267725,-10288.862594,1225.752797
938.536010,1332.370696,-10955.047942,1302.362347
938.536334,740.205942,-10658.965565,1378.971896
938.536658,0.000000,-10881.027347,1455.581446
938.536982,592.164754,-10066.800811,842.705048
938.537306,1332.370696,-9474.636058,1072.533697
938.537630,222.061783,-10066.800811,0.000000
938.537954,-1480.411884,-10214.842000,-689.485948
938.538277,-2072.576638,-9844.739029,-612.876398
938.538601,-2294.638420,-9474.636058,-1685.410096
938.538925,-1850.514855,-8364.327145,-1455.581446
938.539249,-1480.411884,-8364.327145,-1149.143247
938.539573,-592.164754,-9992.780217,-1838.629195
938.539897,-296.082377,-10288.862594,-995.924147
938.540221,-518.144159,-10362.883188,-383.047749
938.540545,-1776.494261,-10140.821405,-766.095498
938.540869,-1776.494261,-9548.656652,-842.705048
938.541193,-888.247130,-9622.677246,153.219100
938.541517,74.020594,-11177.109724,306.438199
938.541841,592.164754,-11473.192101,229.828649
938.542165,0.000000,-10510.924376,536.266849
938.542489,-888.247130,-10362.883188,-1149.143247
938.542814,-296.082377,-9844.739029,-689.485948
938.543138,0.000000,-9474.636058,0.000000
938.543462,-740.205942,-10214.842000,-1302.362347
938.543786,-2146.597232,-9622.677246,-1838.629195
938.544110,-3478.967927,-9770.718434,-1225.752797
938.544434,-2664.741391,-10436.903782,-1685.410096
938.544758,-1036.288319,-9178.553681,-919.314598
938.545082,-296.082377,-8364.327145,-153.219100
938.545406,0.000000,-9030.512492,-306.438199
938.545730,0.000000,-9844.739029,0.000000
938.546054,148.041188,-9622.677246,1225.752797
938.546378,666.185348,-9326.594869,995.924147
938.546702,1110.308913,-8660.409521,689.485948
938.547026,1406.391290,-8142.265362,689.485948
938.547350,1628.453072,-9326.594869,919.314598
938.547674,1332.370696,-9770.718434,766.095498
938.547998,1184.329507,-9474.636058,919.314598
938.548322,0.000000,-8882.471304,-536.266849
938.548646,0.000000,-8586.388927,-612.876398
938.548970,148.041188,-9030.512492,-306.438199
938.549294,518.144159,-9918.759623,-995.924147
938.549618,0.000000,-9326.594869,-689.485948
938.549942,-296.082377,-9326.594869,0.000000
938.550266,-148.041188,-9992.780217,-612.876398
938.550590,296.082377,-9252.574275,153.219100
938.550914,1036.288319,-9178.553681,1455.581446
938.551238,2368.659014,-10732.986159,842.705048
938.551562,3627.009116,-10732.986159,689.485948
938.551886,2812.782580,-10510.924376,995.924147
938.552210,2220.617826,-10066.800811,1915.238745
938.552534,2886.803174,-9474.636058,612.876398
938.552858,2368.659014,-9474.636058,536.266849
938.553182,1184.329507,-10214.842000,-306.438199
938.553506,296.082377,-10066.800811,-383.047749
938.553830,-740.205942,-10140.821405,-153.219100
938.554154,-1480.411884,-10214.842000,0.000000
938.554478,-1554.432478,-8882.471304,0.000000
938.554802,-1332.370696,-9104.533087,-229.828649
938.555126,-1332.370696,-9326.594869,-842.705048
938.555450,-962.267725,-9474.636058,536.266849
938.555774,-222.061783,-10288.862594,1532.190996
938.556098,-222.061783,-10658.965565,1149.143247
938.556422,-666.185348,-9104.533087,1225.752797
938.556746,-592.164754,-8660.409521,1149.143247
938.557070,-296.082377,-9770.718434,-459.657299
938.557394,-814.226536,-10584.944971,0.000000
938.557718,-1850.514855,-10214.842000,536.266849
938.558042,-1480.411884,-9770.718434,-689.485948
938.558366,0.000000,-9030.512492,-459.657299
938.558690,-518.144159,-9030.512492,76.609550
938.559014,-592.164754,-10140.821405,-995.924147
938.559338,-1036.288319,-9326.594869,-1532.190996
938.559662,-1258.350101,-9030.512492,-459.657299
938.559986,-1258.350101,-9252.574275,-383.047749
938.560310,-666.185348,-8808.450710,-229.828649
938.560634,-592.164754,-8660.409521,612.876398
938.560958,-1998.556043,-9474.636058,-536.266849
938.561282,-1850.514855,-9696.697840,-612.876398
938.561606,-1406.391290,-9992.780217,-536.266849
938.561930,-1110.308913,-9622.677246,-689.485948
938.562254,222.061783,-8364.327145,76.609550
938.562578,814.226536,-8808.450710,-229.828649
938.562902,518.144159,-9770.718434,-766.095498
938.563226,666.185348,-10140.821405,-76.609550
938.563550,222.061783,-10214.842000,-919.314598
938.563874,0.000000,-9992.780217,-842.705048
938.564198,444.123565,-9030.512492,-612.876398
938.564522,74.020594,-9696.697840,-306.438199
938.564846,-814.226536,-11621.233289,-919.314598
938.565170,-222.061783,-10288.862594,-1302.362347
938.565494,-296.082377,-9400.615463,-536.266849
938.565818,-296.082377,-10732.986159,-766.095498
938.566142,518.144159,-9770.718434,-306.438199
938.566466,888.247130,-9178.553681,-229.828649
938.566790,1258.350101,-9770.718434,-306.438199
938.567114,1554.432478,-10066.800811,76.609550
938.567438,1332.370696,-10658.965565,0.000000
938.567762,1184.329507,-10362.883188,-689.485948
938.568086,1850.514855,-8586.388927,0.000000
938.568410,1776.494261,-9696.697840,0.000000
938.568734,1628.453072,-11621.233289,-1072.533697
938.569058,0.000000,-11399.171507,-689.485948
938.569382,-1554.432478,-11177.109724,-766.095498
938.569706,-962.267725,-10288.862594,-2145.067394
938.570030,-296.082377,-8512.368333,-536.266849
938.570354,0.000000,-8808.450710,612.876398
938.570678,1110.308913,-10066.800811,229.828649
938.571002,1332.370696,-9992.780217,842.705048
938.571326,592.164754,-9326.594869,1149.143247
938.571650,518.144159,-9030.512492,306.438199
938.571974,962.267725,-8438.347739,1149.143247
938.572298,1406.391290,-8586.388927,689.485948
938.572622,962.267725,-9844.739029,383.047749
938.572946,0.000000,-9030.512492,153.219100
938.573270,-814.226536,-9252.574275,76.609550
938.573594,-444.123565,-8882.471304,-229.828649
938.573918,148.041188,-8142.265362,459.657299
938.574242,0.000000,-9252.574275,1455.581446
938.574566,148.041188,-9918.759623,995.924147
938.574890,888.247130,-9252.574275,1455.581446
938.575214,0.000000,-8660.409521,1685.410096
938.575538,-222.061783,-9326.594869,1302.362347
938.575862,74.020594,-8882.471304,919.314598
938.576186,-592.164754,-8290.306550,383.047749
938.576510,-1036.288319,-9104.533087,-383.047749
938.576834,-1480.411884,-9400.615463,-689.485948
938.577158,-2368.659014,-9252.574275,-1532.190996
938.577482,-2590.720797,-9474.636058,-1838.629195
938.577806,-1554.432478,-9178.553681,-1838.629195
938.578130,-444.123565,-9918.759623,-1378.971896
938.578454,296.082377,-11029.068536,-1608.800546
938.578778,518.144159,-10214.842000,-153.219100
938.579102,222.061783,-10807.006753,153.219100
938.579426,296.082377,-11325.150913,-383.047749
938.579750,814.226536,-10584.944971,153.219100
938.580074,222.061783,-10955.047942,153.219100
938.580398,0.000000,-11547.212695,0.000000
938.580722,-444.123565,-10955.047942,0.000000
938.581046,-814.226536,-10807.006753,-612.876398
938.581370,-1110.308913,-10510.924376,-1378.971896
938.581694,-1184.329507,-9252.574275,-1915.238745
938.582018,-2220.617826,-9992.780217,-1685.410096
938.582342,-1406.391290,-10140.821405,-1455.581446
938.582666,-666.185348,-9548.656652,-1225.752797
938.582990,-814.226536,-10214.842000,-995.924147
938.583314,-592.164754,-10214.842000,-1225.752797
938.583638,518.144159,-9178.553681,-306.438199
938.583962,888.247130,-10362.883188,459.657299
938.584286,888.247130,-11251.130318,76.609550
938.584610,444.123565,-9918.759623,459.657299
938.584934,-370.102971,-9400.615463,1302.362347
938.585258,222.061783,-9548.656652,995.924147
938.585582,1110.308913,-9252.574275,1149.143247
938.585906,1110.308913,-9992.780217,1225.752797
938.586230,296.082377,-9844.739029,229.828649
938.586554,0.000000,-8364.327145,76.609550
938.586878,-888.247130,-8586.388927,-153.219100
938.587202,74.020594,-8882.471304,-459.657299
938.587526,740.205942,-8364.327145,-306.438199
938.587850,740.205942,-8882.471304,-229.828649
938.588174,666.185348,-8882.471304,-842.705048
938.588498,0.000000,-8882.471304,0.000000
938.588822,-370.102971,-9474.636058,0.000000
938.589146,74.020594,-8808.450710,0.000000
938.589470,814.226536,-7698.141797,1532.190996
938.589794,1184.329507,-8512.368333,612.876398
938.590119,1480.411884,-9474.636058,612.876398
938.590443,962.267725,-8808.450710,1378.971896
938.590767,518.144159,-8364.327145,1225.752797
938.591091,444.123565,-8734.430116,612.876398
938.591415,1258.350101,-8956.491898,1378.971896
938.591739,962.267725,-9104.533087,153.219100
938.592063,666.185348,-9474.636058,-153.219100
938.592387,0.000000,-8956.491898,-229.828649
938.592711,-962.267725,-10658.965565,-1378.971896
938.593035,-592.164754,-10955.047942,-1302.362347
938.593359,-148.041188,-9918.759623,0.000000
938.593683,592.164754,-10436.903782,-153.219100
938.594007,962.267725,-11103.089130,0.000000
938.594331,1258.350101,-11177.109724,919.314598
938.594655,74.020594,-11177.109724,995.924147
938.594979,1036.288319,-10140.821405,0.000000
938.595303,1850.514855,-9474.636058,995.924147
938.595627,1702.473667,-10510.924376,536.266849
938.595951,962.267725,-11029.068536,153.219100
938.596275,-814.226536,-10584.944971,-229.828649
938.596599,-1998.556043,-10288.862594,-1225.752797
938.596923,-2146.597232,-9474.636058,-1915.238745
938.597247,-1850.514855,-9474.636058,-1532.190996
938.597571,-1332.370696,-10510.924376,-1685.410096
938.597895,-296.082377,-10658.965565,-1532.190996
938.598219,-222.061783,-9696.697840,-229.828649
938.598543,-1332.370696,-10510.924376,-689.485948
938.598867,-1628.453072,-10214.842000,-612.876398
938.599191,-1184.329507,-8882.471304,-306.438199
938.599515,-222.061783,-9622.677246,0.000000
938.599839,0.000000,-10955.047942,-689.485948
938.600163,-592.164754,-9770.718434,229.828649
938.600487,-2516.700203,-9622.677246,0.000000
938.600811,-2886.803174,-9030.512492,-1608.800546
938.601135,-2516.700203,-8068.244768,-1608.800546
938.601459,-2220.617826,-9326.594869,-689.485948
938.601783,-1554.432478,-9992.780217,-1455.581446
938.602107,-2072.576638,-8956.491898,-612.876398
938.602431,-2368.659014,-8808.450710,-383.047749
938.602755,-888.247130,-8660.409521,-229.828649
938.603079,666.185348,-9030.512492,459.657299
938.603403,1554.432478,-9844.739029,536.266849
938.603727,2442.679609,-9178.553681,76.609550
938.604051,2812.782580,-9178.553681,842.705048
938.604375,2220.617826,-9992.780217,1072.533697
938.604699,962.267725,-9252.574275,76.609550
938.605023,148.041188,-8734.430116,229.828649
938.605347,0.000000,-9104.533087,-842.705048
938.605671,814.226536,-9474.636058,-1072.533697
938.605995,370.102971,-8956.491898,-919.314598
938.606319,0.000000,-9030.512492,-995.924147
938.606643,518.144159,-9178.553681,-919.314598
938.606967,1776.494261,-9326.594869,-229.828649
938.607291,2442.679609,-10658.965565,0.000000
938.607615,1480.411884,-10807.006753,-689.485948
938.607939,1036.288319,-10140.821405,459.657299
938.608263,1110.308913,-10955.047942,76.609550
938.608587,1554.432478,-11695.253884,0.000000
938.608911,1850.514855,-11103.089130,1225.752797
938.609235,1776.494261,-11029.068536,612.876398
938.609559,2072.576638,-10584.944971,383.047749
938.609883,962.267725,-9844.739029,689.485948
938.610207,370.102971,-10510.924376,383.047749
938.610531,0.000000,-10066.800811,-689.485948
938.610855,0.000000,-9252.574275,0.000000
938.611179,148.041188,-9770.718434,0.000000
938.611503,666.185348,-9844.739029,-306.438199
938.611827,0.000000,-9400.615463,0.000000
938.612151,-592.164754,-9696.697840,-459.657299
938.612475,0.000000,-8216.285956,-995.924147
938.612799,0.000000,-7994.224174,153.219100
938.613123,-296.082377,-9548.656652,229.828649
938.613447,444.123565,-9844.739029,689.485948
938.613771,0.000000,-9400.615463,766.095498
938.614095,-518.144159,-9400.615463,153.219100
938.614419,0.000000,-8882.471304,536.266849
938.614743,370.102971,-8660.409521,1378.971896
938.615067,148.041188,-9474.636058,0.000000
938.615391,-888.247130,-8808.450710,-766.095498
938.615715,-2072.576638,-8512.368333,-459.657299
938.616039,-2294.638420,-9622.677246,-1685.410096
938.616363,-1702.473667,-9030.512492,-1762.019645
938.616687,-1184.329507,-8364.327145,-766.095498
938.617011,-1036.288319,-10288.862594,-1072.533697
938.617335,-1332.370696,-10288.862594,-1608.800546
938.617659,-2146.597232,-10066.800811,-612.876398
938.617983,-2442.679609,-10881.027347,-612.876398
938.618307,-888.247130,-10214.842000,-689.485948
938.618631,-296.082377,-9474.636058,153.219100
938.618955,-148.041188,-10362.883188,536.266849
938.619279,444.123565,-10288.862594,76.609550
938.619603,592.164754,-9770.718434,612.876398
938.619927,74.020594,-10288.862594,842.705048
938.620251,370.102971,-9326.594869,-1149.143247
938.620575,296.082377,-8882.471304,-536.266849
938.620899,-148.041188,-10288.862594,-766.095498
938.621223,0.000000,-10584.944971,-2145.067394
938.621547,-666.185348,-9992.780217,-995.924147
938.621871,-1480.411884,-10066.800811,-1225.752797
938.622195,-888.247130,-10214.842000,-1072.533697
938.622519,-370.102971,-9844.739029,-536.266849
938.622843,370.102971,-10807.006753,-459.657299
938.623167,666.185348,-10584.944971,-306.438199
938.623491,148.041188,-10955.047942,536.266849
938.623815,-370.102971,-10436.903782,689.485948
938.624139,962.267725,-10066.800811,766.095498
938.624463,1110.308913,-9918.759623,1302.362347
938.624787,518.144159,-10510.924376,459.657299
938.625111,666.185348,-10214.842000,0.000000
938.625435,0.000000,-9548.656652,459.657299
938.625759,-814.226536,-9844.739029,-612.876398
938.626083,-814.226536,-8586.388927,-842.705048
938.626407,-370.102971,-7624.121203,0.000000
938.626731,-222.061783,-9178.553681,-383.047749
938.627055,148.041188,-9474.636058,0.000000
938.627379,592.164754,-8290.306550,766.095498
938.627703,444.123565,-8364.327145,229.828649
938.628027,1110.308913,-7550.100608,612.876398
938.628351,1776.494261,-7624.121203,1149.143247
938.628675,1924.535449,-9622.677246,1225.752797
938.628999,2146.597232,-8882.471304,1302.362347
938.629323,1036.288319,-8660.409521,1608.800546
938.629647,-666.185348,-9326.594869,612.876398
938.629971,-370.102971,-8586.388927,-153.219100
938.630295,0.000000,-8808.450710,919.314598
938.630619,148.041188,-9770.718434,0.000000
938.630943,296.082377,-9178.553681,-306.438199
938.631267,-518.144159,-9252.574275,383.047749
938.631591,-888.247130,-9918.759623,-383.047749
938.631915,-370.102971,-10214.842000,229.828649
938.632239,-148.041188,-9548.656652,536.266849
938.632563,74.020594,-10288.862594,76.609550
938.632887,222.061783,-10807.006753,76.609550
938.633211,-222.061783,-10510.924376,229.828649
938.633535,222.061783,-10584.944971,229.828649
938.633859,740.205942,-9918.759623,766.095498
938.634183,1998.556043,-10214.842000,536.266849
938.634507,740.205942,-10584.944971,-383.047749
938.634831,222.061783,-10214.842000,-689.485948
938.635155,-370.102971,-10362.883188,0.000000
938.635479,-592.164754,-10955.047942,-995.924147
938.635803,-296.082377,-9918.759623,-1302.362347
938.636127,0.000000,-9030.512492,-1149.143247
938.636451,-148.041188,-10140.821405,-1762.019645
938.636775,-370.102971,-9918.759623,-1378.971896
938.637099,-1184.329507,-9992.780217,-995.924147
938.637424,-1554.432478,-10807.006753,-1225.752797
938.637748,-1702.473667,-9622.677246,-995.924147
938.638072,-1406.391290,-8438.347739,-842.705048
938.638396,-1554.432478,-10214.842000,-919.314598
938.638720,-1924.535449,-10881.027347,-919.314598
938.639044,-1924.535449,-11251.130318,-689.485948
938.639368,-2294.638420,-10881.027347,-536.266849
938.639692,-1554.432478,-9252.574275,-1149.143247
938.640016,-1924.535449,-9400.615463,-995.924147
938.640340,-2072.576638,-10658.965565,-1149.143247
938.640664,-1924.535449,-10510.924376,-842.705048
938.640988,-1554.432478,-9622.677246,-536.266849
938.641312,-592.164754,-9104.533087,-689.485948
938.641636,518.144159,-7402.059420,76.609550
938.641960,1036.288319,-8660.409521,229.828649
938.642284,1036.288319,-9770.718434,306.438199
938.642607,444.123565,-8956.491898,76.609550
938.642931,-444.123565,-8660.409521,153.219100
938.643255,-1036.288319,-8956.491898,-229.828649
938.643579,148.041188,-7550.100608,-153.219100
938.643903,1258.350101,-7920.203579,842.705048
938.644227,1850.514855,-9844.739029,1225.752797
938.644551,1554.432478,-9548.656652,-383.047749
938.644875,518.144159,-8882.471304,-153.219100
938.645199,0.000000,-8734.430116,-842.705048
938.645523,592.164754,-8586.388927,-306.438199
938.645847,1776.494261,-9696.697840,0.000000
938.646171,1924.535449,-10955.047942,-153.219100
938.646495,1776.494261,-10288.862594,76.609550
938.646819,1406.391290,-10140.821405,459.657299
938.647143,1554.432478,-10881.027347,0.000000
938.647467,2072.576638,-9918.759623,306.438199
938.647791,2368.659014,-10510.924376,1072.533697
938.648114,2072.576638,-11621.233289,459.657299
938.648438,2516.700203,-11399.171507,995.924147
938.648762,1776.494261,-9844.739029,919.314598
938.649086,1036.288319,-9918.759623,-153.219100
938.649410,666.185348,-9104.533087,-842.705048
938.649734,74.020594,-9326.594869,-536.266849
938.650058,0.000000,-9992.780217,-919.314598
938.650382,-518.144159,-9696.697840,-229.828649
938.650706,-1406.391290,-9326.594869,0.000000
938.651030,-1332.370696,-9178.553681,-842.705048
938.651354,-148.041188,-8216.285956,612.876398
938.651678,666.185348,-9178.553681,766.095498
938.652002,1406.391290,-10362.883188,612.876398
938.652326,888.247130,-9474.636058,1072.533697
938.652650,148.041188,-9030.512492,995.924147
938.652974,0.000000,-9770.718434,766.095498
938.653297,-740.205942,-9474.636058,919.314598
938.653621,-1332.370696,-9474.636058,0.000000
938.653945,-2146.597232,-9770.718434,-995.924147
938.654269,-2590.720797,-9474.636058,-1762.019645
938.654593,-2146.597232,-9770.718434,-1072.533697
938.654917,-1332.370696,-9696.697840,-919.314598
938.655241,-962.267725,-8586.388927,-1225.752797
938.655565,-1258.350101,-8364.327145,-842.705048
938.655889,-1332.370696,-9474.636058,-1915.238745
938.656213,0.000000,-9770.718434,-1455.581446
938.656537,0.000000,-9844.739029,-459.657299
938.656861,-296.082377,-9696.697840,-1225.752797
938.657185,74.020594,-8882.471304,-919.314598
938.657509,-148.041188,-9400.615463,-383.047749
938.657833,0.000000,-10362.883188,-1072.533697
938.658157,-222.061783,-10140.821405,-1685.410096
938.658481,-962.267725,-10362.883188,-612.876398
938.658804,-1850.514855,-10436.903782,-1532.190996
938.659128,-1776.494261,-10658.965565,-1149.143247
938.659452,-1184.329507,-11621.233289,-689.485948
938.659776,-370.102971,-11769.274478,-1532.190996
938.660100,-296.082377,-10881.027347,-919.314598
938.660424,-444.123565,-10955.047942,-536.266849
938.660748,-222.061783,-11103.089130,-1532.190996
938.661072,74.020594,-9844.739029,-383.047749
938.661396,0.000000,-10214.842000,-459.657299
938.661720,0.000000,-11251.130318,-1302.362347
938.662044,-444.123565,-10584.944971,-536.266849
938.662368,-740.205942,-10362.883188,76.609550
938.662692,-222.061783,-9474.636058,-612.876398
938.663016,222.061783,-7846.182985,0.000000
938.663340,666.185348,-9178.553681,536.266849
938.663664,1628.453072,-9844.739029,0.000000
938.663988,2146.597232,-9474.636058,459.657299
938.664311,1332.370696,-8586.388927,612.876398
938.664635,1110.308913,-8882.471304,842.705048
938.664959,2072.576638,-8956.491898,919.314598
938.665283,2220.617826,-9474.636058,995.924147
938.665607,1924.535449,-9474.636058,612.876398
938.665931,666.185348,-9326.594869,612.876398
938.666255,-814.226536,-9770.718434,229.828649
938.666579,-1258.350101,-9474.636058,612.876398
938.666903,148.041188,-8438.347739,1608.800546
938.667227,1036.288319,-8734.430116,1915.238745
938.667551,1332.370696,-10510.924376,1762.019645
938.667875,962.267725,-9474.636058,2757.943793
938.668199,1036.288319,-9030.512492,2681.334243
938.668523,1110.308913,-8586.388927,1838.629195
938.668847,74.020594,-7105.977043,766.095498
938.669171,-888.247130,-7476.080014,0.000000
938.669494,-1036.288319,-8882.471304,-766.095498
938.669818,-814.226536,-8808.450710,-383.047749
938.670142,-740.205942,-9252.574275,0.000000
938.670466,-666.185348,-8882.471304,0.000000
938.670790,814.226536,-8290.306550,842.705048
938.671114,1480.411884,-9400.615463,1072.533697
938.671438,1184.329507,-9992.780217,306.438199
938.671762,444.123565,-9622.677246,995.924147
938.672086,-296.082377,-10510.924376,1072.533697
938.672410,444.123565,-10732.986159,459.657299
938.672734,1776.494261,-9548.656652,383.047749
938.673058,888.247130,-10066.800811,-306.438199
938.673382,0.000000,-10955.047942,-919.314598
938.673706,-740.205942,-11399.171507,-2145.067394
938.674030,-1776.494261,-10955.047942,-2374.896044
938.674354,-2294.638420,-10362.883188,-2681.334243
938.674678,-1924.535449,-10214.842000,-2374.896044
938.675001,-1554.432478,-11547.212695,-2604.724693
938.675325,0.000000,-12509.480420,-2451.505594
938.675649,296.082377,-11029.068536,-919.314598
938.675973,592.164754,-11843.295072,-383.047749
938.676297,222.061783,-11621.233289,-919.314598
938.676621,666.185348,-9918.759623,-612.876398
938.676945,888.247130,-10066.800811,-536.266849
938.677269,666.185348,-10955.047942,-1378.971896
938.677593,148.041188,-9918.759623,-842.705048
938.677917,-1702.473667,-9400.615463,-689.485948
938.678241,-2368.659014,-8512.368333,-2221.676944
938.678565,-1850.514855,-7476.080014,-2298.286494
938.678889,-1850.514855,-8808.450710,-1915.238745
938.679213,-1110.308913,-9696.697840,-1149.143247
938.679537,0.000000,-9474.636058,-459.657299
938.679861,-814.226536,-9770.718434,459.657299
938.680185,-1258.350101,-9548.656652,229.828649
938.680508,-296.082377,-9474.636058,0.000000
938.680832,0.000000,-10584.944971,229.828649
938.681156,0.000000,-11399.171507,0.000000
938.681480,0.000000,-10362.883188,536.266849
938.681804,-888.247130,-10288.862594,229.828649
938.682128,-1702.473667,-8882.471304,-383.047749
938.682452,-1036.288319,-7772.162391,306.438199
938.682776,370.102971,-9104.533087,536.266849
938.683100,1036.288319,-9622.677246,383.047749
938.683424,962.267725,-8956.491898,689.485948
938.683748,1036.288319,-8438.347739,1149.143247
938.684072,1628.453072,-8068.244768,689.485948
938.684396,1406.391290,-7550.100608,536.266849
938.684720,444.123565,-8364.327145,689.485948
938.685044,370.102971,-8882.471304,0.000000
938.685368,666.185348,-8586.388927,766.095498
938.685691,1036.288319,-9696.697840,1149.143247
938.686015,1184.329507,-8882.471304,229.828649
938.686339,1702.473667,-7698.141797,612.876398
938.686663,1480.411884,-9474.636058,383.047749
938.686987,1850.514855,-10584.944971,76.609550
938.687311,1776.494261,-10288.862594,689.485948
938.687635,888.247130,-10436.903782,383.047749
938.687959,814.226536,-10066.800811,612.876398
938.688283,1702.473667,-9844.739029,0.000000
938.688607,222.061783,-11399.171507,0.000000
938.688931,-666.185348,-11991.336260,0.000000
938.689255,-962.267725,-11399.171507,-229.828649
938.689579,-962.267725,-10732.986159,-1149.143247
938.689903,-888.247130,-9474.636058,-1225.752797
938.690227,74.020594,-9696.697840,-689.485948
938.690551,222.061783,-10955.047942,-306.438199
938.690875,1036.288319,-10658.965565,-153.219100
938.691198,1110.308913,-9474.636058,612.876398
938.691522,814.226536,-9326.594869,-229.828649
938.691846,740.205942,-9474.636058,0.000000
938.692170,666.185348,-8808.450710,-306.438199
938.692494,592.164754,-9400.615463,0.000000
938.692818,0.000000,-10732.986159,-383.047749
938.693142,-296.082377,-10584.944971,-995.924147
938.693466,-1110.308913,-9326.594869,-1302.362347
938.693790,-814.226536,-8586.388927,-1378.971896
938.694114,-370.102971,-8882.471304,-1072.533697
938.694438,-1036.288319,-10436.903782,-1072.533697
938.694762,-1258.350101,-9770.718434,-153.219100
938.695086,-1924.535449,-9030.512492,-536.266849
938.695410,-2442.679609,-9696.697840,306.438199
938.695734,-1702.473667,-10214.842000,-229.828649
938.696058,-962.267725,-9252.574275,689.485948
938.696382,-1036.288319,-10362.883188,0.000000
938.696705,-1184.329507,-10066.800811,-689.485948
938.697029,-1258.350101,-9104.533087,-383.047749
938.697353,-1480.411884,-9696.697840,-383.047749
938.697677,-1554.432478,-9030.512492,-1378.971896
938.698001,-1480.411884,-9030.512492,-459.657299
938.698325,-962.267725,-9622.677246,-766.095498
938.698649,-222.061783,-9474.636058,-459.657299
938.698973,-296.082377,-9104.533087,229.828649
938.699297,-962.267725,-9400.615463,0.000000
938.699621,-222.061783,-8882.471304,536.266849
938.699945,1036.288319,-8734.430116,1378.971896
938.700269,1480.411884,-9178.553681,536.266849
938.700593,296.082377,-9252.574275,0.000000
938.700917,-444.123565,-9178.553681,306.438199
938.701241,-518.144159,-10140.821405,0.000000
938.701565,0.000000,-9770.718434,383.047749
938.701888,444.123565,-8586.388927,536.266849
938.702212,148.041188,-9548.656652,612.876398
938.702536,222.061783,-9992.780217,-1302.362347
938.702860,0.000000,-10288.862594,-536.266849
938.703184,148.041188,-11399.171507,0.000000
938.703508,1628.453072,-11177.109724,536.266849
938.703832,2368.659014,-9992.780217,612.876398
938.704156,2072.576638,-10584.944971,536.266849
938.704480,1776.494261,-11177.109724,459.657299
938.704804,592.164754,-11325.150913,536.266849
938.705128,222.061783,-11325.150913,536.266849
938.705452,222.061783,-9252.574275,536.266849
938.705776,148.041188,-8142.265362,612.876398
938.706100,0.000000,-9474.636058,0.000000
938.706424,0.000000,-9326.594869,0.000000
938.706748,444.123565,-9400.615463,459.657299
938.707072,-370.102971,-10140.821405,-383.047749
938.707395,370.102971,-9474.636058,995.924147
938.707719,740.205942,-8660.409521,919.314598
938.708043,1110.308913,-10140.821405,919.314598
938.708367,1332.370696,-10658.965565,842.705048
938.708691,740.205942,-9992.780217,995.924147
938.709015,-444.123565,-9474.636058,536.266849
938.709339,-296.082377,-8290.306550,153.219100
938.709663,814.226536,-8068.244768,766.095498
938.709987,518.144159,-9696.697840,766.095498
938.710311,-888.247130,-9696.697840,0.000000
938.710635,-1924.535449,-8808.450710,459.657299
938.710959,-1924.535449,-9178.553681,459.657299
938.711283,-740.205942,-8512.368333,383.047749
938.711607,74.020594,-8142.265362,153.219100
938.711931,-444.123565,-8956.491898,-383.047749
938.712255,-222.061783,-9400.615463,-689.485948
938.712578,-222.061783,-9844.739029,0.000000
938.712902,-740.205942,-9992.780217,-229.828649
938.713226,-1110.308913,-8808.450710,-536.266849
938.713550,-962.267725,-8734.430116,-612.876398
938.713874,296.082377,-10362.883188,-229.828649
938.714198,1036.288319,-10436.903782,229.828649
938.714522,518.144159,-10140.821405,153.219100
938.714846,-1258.350101,-10584.944971,0.000000
938.715170,-1184.329507,-9696.697840,-766.095498
938.715494,-444.123565,-9252.574275,-153.219100
938.715818,-370.102971,-10955.047942,0.000000
938.716142,-814.226536,-10732.986159,-766.095498
938.716466,-1332.370696,-9252.574275,-1225.752797
938.716790,-2368.659014,-9326.594869,-1915.238745
938.717114,-1628.453072,-8660.409521,-1608.800546
938.717438,-518.144159,-9178.553681,-1149.143247
938.717762,-296.082377,-10288.862594,-1532.190996
938.718085,-888.247130,-9992.780217,-1762.019645
938.718409,-1184.329507,-10658.965565,-1302.362347
938.718733,-518.144159,-12213.398043,-1149.143247
938.719057,1110.308913,-11177.109724,-383.047749
938.719381,1776.494261,-10288.862594,306.438199
938.719705,1702.473667,-11029.068536,229.828649
938.720029,1258.350101,-11177.109724,766.095498
938.720353,888.247130,-11547.212695,1378.971896
938.720677,518.144159,-11399.171507,919.314598
938.721001,518.144159,-9474.636058,306.438199
938.721325,-222.061783,-8956.491898,-153.219100
938.721649,-1332.370696,-9474.636058,-689.485948
938.721973,-740.205942,-9400.615463,-1072.533697
938.722297,-592.164754,-9474.636058,-766.095498
938.722621,-1332.370696,-9548.656652,-1378.971896
938.722945,-740.205942,-8216.285956,-919.314598
938.723269,0.000000,-8068.244768,-766.095498
938.723592,740.205942,-8882.471304,-306.438199
938.723916,1184.329507,-9844.739029,0.000000
938.724240,1332.370696,-9474.636058,919.314598
938.724564,74.020594,-9474.636058,1455.581446
938.724888,1332.370696,-8808.450710,2068.457845
938.725212,2590.720797,-8364.327145,2298.286494
938.725536,2294.638420,-9400.615463,1991.848295
938.725860,1628.453072,-9252.574275,1455.581446
938.726184,0.000000,-8882.471304,1991.848295
938.726508,-592.164754,-9252.574275,536.266849
938.726832,-148.041188,-7550.100608,229.828649
938.727156,-740.205942,-7698.141797,0.000000
938.727480,-962.267725,-9548.656652,-689.485948
938.727804,-814.226536,-9326.594869,-919.314598
938.728128,-962.267725,-8956.491898,-306.438199
938.728452,-370.102971,-9770.718434,0.000000
938.728775,148.041188,-9178.553681,0.000000
938.729099,444.123565,-9030.512492,919.314598
938.729423,444.123565,-10436.903782,612.876398
938.729747,222.061783,-10584.944971,766.095498
938.730071,0.000000,-10436.903782,1149.143247
938.730395,0.000000,-10140.821405,919.314598
938.730719,814.226536,-8882.471304,1608.800546
938.731043,1332.370696,-8882.471304,536.266849
938.731367,518.144159,-9844.739029,-153.219100
938.731691,-666.185348,-9400.615463,-153.219100
938.732015,-1036.288319,-10214.842000,-153.219100
938.732339,-518.144159,-10436.903782,-1149.143247
938.732663,296.082377,-8734.430116,-1072.533697
938.732987,0.000000,-8956.491898,-689.485948
938.733311,-222.061783,-10881.027347,-2145.067394
938.733635,0.000000,-11399.171507,-1685.410096
938.733959,-740.205942,-11399.171507,-766.095498
938.734282,-740.205942,-11103.089130,-689.485948
938.734606,74.020594,-10140.821405,536.266849
938.734930,444.123565,-9992.780217,229.828649
938.735254,0.000000,-11473.192101,-153.219100
938.735578,0.000000,-11769.274478,76.609550
938.735902,-592.164754,-11325.150913,229.828649
938.736226,-1258.350101,-10658.965565,306.438199
938.736550,-296.082377,-8660.409521,536.266849
938.736874,-148.041188,-8290.306550,-919.314598
938.737198,-962.267725,-10436.903782,-1302.362347
938.737522,-1702.473667,-10066.800811,-842.705048
938.737846,-1480.411884,-10362.883188,-383.047749
938.738170,-962.267725,-9918.759623,-306.438199
938.738494,-592.164754,-7846.182985,-459.657299
938.738818,-814.226536,-7179.997637,-229.828649
938.739142,-740.205942,-9104.533087,-612.876398
938.739464,-222.061783,-9474.636058,-153.219100
938.739788,-444.123565,-9178.553681,536.266849
938.740112,-222.061783,-9030.512492,766.095498
938.740436,888.247130,-7105.977043,1072.533697
938.740760,1258.350101,-7920.203579,1072.533697
938.741084,888.247130,-9548.656652,612.876398
938.741408,888.247130,-9622.677246,0.000000
938.741732,0.000000,-9770.718434,0.000000
938.742056,-370.102971,-9030.512492,306.438199
938.742380,370.102971,-8290.306550,229.828649
938.742704,0.000000,-9548.656652,-536.266849
938.743028,-740.205942,-11103.089130,-536.266849
938.743352,-148.041188,-10288.862594,-383.047749
938.743677,0.000000,-10288.862594,-536.266849
938.744001,222.061783,-10140.821405,153.219100
938.744325,296.082377,-8808.450710,1915.238745
938.744649,1924.535449,-9252.574275,689.485948
938.744973,1776.494261,-10510.924376,76.609550
938.745297,1258.350101,-10288.862594,612.876398
938.745621,444.123565,-10288.862594,536.266849
938.745945,592.164754,-10288.862594,0.000000
938.746269,1554.432478,-8438.347739,383.047749
938.746593,1332.370696,-8808.450710,689.485948
938.746917,814.226536,-10362.883188,-76.609550
938.747241,222.061783,-9844.739029,-689.485948
938.747565,-444.123565,-9474.636058,-229.828649
938.747890,-74.020594,-9030.512492,0.000000
938.748214,888.247130,-8586.388927,536.266849
938.748538,814.226536,-9474.636058,1225.752797
938.748862,592.164754,-10288.862594,229.828649
938.749186,1036.288319,-9400.615463,612.876398
938.749510,888.247130,-10732.986159,919.314598
938.749834,148.041188,-10732.986159,612.876398
938.750158,222.061783,-9400.615463,842.705048
938.750482,-222.061783,-9696.697840,229.828649
938.750806,-1480.411884,-10584.944971,-459.657299
938.751130,-2072.576638,-10436.903782,-766.095498
938.751454,-2220.617826,-10584.944971,-229.828649
938.751778,-2072.576638,-10140.821405,-612.876398
938.752103,74.020594,-8808.450710,-612.876398
938.752427,0.000000,-8586.388927,-153.219100
938.752751,148.041188,-10214.842000,-229.828649
938.753075,962.267725,-9918.759623,306.438199
938.753399,148.041188,-9918.759623,1149.143247
938.753723,-222.061783,-8882.471304,306.438199
938.754047,-518.144159,-7105.977043,919.314598
938.754371,-518.144159,-8660.409521,0.000000
938.754695,-888.247130,-9918.759623,-459.657299
938.755019,-740.205942,-8956.491898,-842.705048
938.755343,-1850.514855,-8808.450710,-766.095498
938.755667,-2294.638420,-8586.388927,-766.095498
938.755991,-888.247130,-7624.121203,-306.438199
938.756316,-740.205942,-8512.368333,-459.657299
938.756640,-888.247130,-9770.718434,-689.485948
938.756964,0.000000,-10436.903782,76.609550
938.757288,74.020594,-11621.233289,536.266849
938.757612,740.205942,-10807.006753,383.047749
938.757936,1628.453072,-9030.512492,842.705048
938.758260,1036.288319,-10584.944971,459.657299
938.758584,0.000000,-11695.253884,229.828649
938.758908,-518.144159,-11695.253884,919.314598
938.759232,-1628.453072,-11621.233289,0.000000
938.759556,-1628.453072,-9844.739029,-766.095498
938.759880,-444.123565,-9178.553681,0.000000
938.760204,1036.288319,-10658.965565,0.000000
938.760528,1480.411884,-10955.047942,-766.095498
938.760853,1110.308913,-9326.594869,536.266849
938.761177,0.000000,-9252.574275,0.000000
938.761501,0.000000,-9548.656652,-842.705048
938.761825,1184.329507,-8438.347739,-689.485948
938.762149,666.185348,-9178.553681,0.000000
938.762473,296.082377,-10362.883188,-153.219100
938.762797,148.041188,-9992.780217,0.000000
938.763121,-518.144159,-10288.862594,306.438199
938.763445,-296.082377,-9326.594869,842.705048
938.763769,962.267725,-8438.347739,1072.533697
938.764093,1628.453072,-9918.759623,1302.362347
938.764417,1702.473667,-10362.883188,842.705048
938.764741,1480.411884,-9622.677246,1149.143247
938.765066,296.082377,-9622.677246,1072.533697
938.765390,0.000000,-9104.533087,995.924147
938.765714,1184.329507,-7846.182985,919.314598
938.766038,0.000000,-8586.388927,229.828649
938.766362,-518.144159,-9252.574275,-76.609550
938.766686,-814.226536,-9326.594869,-612.876398
938.767010,-1332.370696,-9104.533087,-153.219100
938.767334,-1036.288319,-8216.285956,-153.219100
938.767658,-518.144159,-7254.018232,459.657299
938.767982,-148.041188,-8216.285956,995.924147
938.768306,444.123565,-8956.491898,766.095498
938.768630,1554.432478,-8068.244768,1302.362347
938.768954,888.247130,-8882.471304,1378.971896
938.769279,370.102971,-9474.636058,689.485948
938.769603,666.185348,-8142.265362,842.705048
938.769927,814.226536,-8808.450710,306.438199
938.770251,888.247130,-9992.780217,-842.705048
938.770575,666.185348,-9844.739029,-1608.800546
938.770899,-592.164754,-10436.903782,-1302.362347
938.771223,-1332.370696,-10807.006753,-1685.410096
938.771547,-296.082377,-10288.862594,-1072.533697
938.771871,-1036.288319,-11251.130318,-1378.971896
938.772195,-1480.411884,-11621.233289,-1608.800546
938.772519,-518.144159,-11695.253884,-1302.362347
938.772843,0.000000,-12731.542202,-306.438199
938.773167,592.164754,-11991.336260,459.657299
938.773492,1332.370696,-10584.944971,612.876398
938.773816,296.082377,-10807.006753,1149.143247
938.774140,-814.226536,-11473.192101,-536.266849
938.774464,-1036.288319,-10066.800811,-842.705048
938.774788,-2368.659014,-10658.965565,-995.924147
938.775112,-2368.659014,-10658.965565,-1302.362347
938.775436,-1332.370696,-9104.533087,-1149.143247
938.775760,-1110.308913,-9474.636058,-919.314598
938.776084,-888.247130,-9622.677246,-612.876398
938.776408,148.041188,-9474.636058,-383.047749
938.776732,-370.102971,-10288.862594,-153.219100
938.777056,0.000000,-9548.656652,153.219100
938.777380,1258.350101,-8364.327145,919.314598
938.777704,888.247130,-9104.533087,1225.752797
938.778029,518.144159,-9622.677246,383.047749
938.778353,148.041188,-9030.512492,1302.362347
938.778677,-592.164754,-9622.677246,689.485948
938.779001,-888.247130,-9030.512492,536.266849
938.779325,-740.205942,-7772.162391,1455.581446
938.779649,-962.267725,-8216.285956,919.314598
938.779973,-888.247130,-8956.491898,306.438199
938.780297,-740.205942,-9104.533087,919.314598
938.780621,-1480.411884,-9030.512492,1149.143247
938.780945,0.000000,-8364.327145,842.705048
938.781269,592.164754,-7476.080014,689.485948
938.781593,0.000000,-8364.327145,536.266849
938.781917,222.061783,-9252.574275,459.657299
938.782242,814.226536,-10066.800811,689.485948
938.782566,0.000000,-10436.903782,842.705048
938.782890,370.102971,-8808.450710,1608.800546
938.783214,1776.494261,-7994.224174,2374.896044
938.783538,1924.535449,-8586.388927,689.485948
938.783862,1258.350101,-9548.656652,612.876398
938.784186,666.185348,-9844.739029,1302.362347
938.784510,370.102971,-11399.171507,842.705048
938.784834,962.267725,-10584.944971,1149.143247
938.785158,1702.473667,-8290.306550,1532.190996
938.785482,1258.350101,-9400.615463,76.609550
938.785806,148.041188,-10658.965565,-612.876398
938.786130,148.041188,-11547.212695,0.000000
938.786455,-148.041188,-11547.212695,536.266849
938.786779,296.082377,-10510.924376,459.657299
938.787103,962.267725,-9400.615463,1149.143247
938.787427,518.144159,-9844.739029,383.047749
938.787751,518.144159,-9548.656652,-383.047749
938.788075,296.082377,-9252.574275,-229.828649
938.788399,74.020594,-9622.677246,-459.657299
938.788723,666.185348,-9474.636058,76.609550
938.789047,1628.453072,-8142.265362,229.828649
938.789371,740.205942,-8734.430116,-383.047749
938.789695,-518.144159,-10066.800811,-1378.971896
938.790019,-1332.370696,-10436.903782,-1915.238745
938.790343,-2294.638420,-10436.903782,-1225.752797
938.790668,-1480.411884,-9696.697840,-1225.752797
938.790992,222.061783,-8808.450710,-306.438199
938.791316,740.205942,-10584.944971,-229.828649
938.791640,370.102971,-10955.047942,0.000000
938.791964,-296.082377,-10436.903782,-306.438199
938.792288,-1258.350101,-10436.903782,-995.924147
938.792612,-1184.329507,-9104.533087,-229.828649
938.792936,0.000000,-9030.512492,612.876398
938.793260,222.061783,-10140.821405,-383.047749
938.793584,-888.247130,-9992.780217,-1532.190996
938.793908,-2146.597232,-9030.512492,-1378.971896
938.794232,-2442.679609,-10066.800811,-1915.238745
938.794556,-1776.494261,-9844.739029,-1378.971896
938.794880,-962.267725,-8660.409521,-919.314598
938.795205,-740.205942,-9992.780217,-766.095498
938.795529,-962.267725,-10066.800811,-1225.752797
938.795853,-222.061783,-10362.883188,76.609550
938.796177,0.000000,-11325.150913,842.705048
938.796501,740.205942,-10066.800811,842.705048
938.796825,1184.329507,-8956.491898,1149.143247
938.797149,666.185348,-9474.636058,383.047749
938.797473,740.205942,-9992.780217,383.047749
938.797797,148.041188,-10732.986159,229.828649
938.798121,-962.267725,-10436.903782,-229.828649
938.798445,-1480.411884,-9474.636058,-306.438199
938.798769,-888.247130,-8808.450710,-153.219100
938.799093,-592.164754,-9400.615463,-842.705048
938.799418,-370.102971,-9474.636058,-766.095498
938.799742,-148.041188,-9178.553681,-995.924147
938.800066,-1184.329507,-9918.759623,0.000000
938.800390,-814.226536,-9030.512492,689.485948
938.800714,666.185348,-9178.553681,1072.533697
938.801038,1480.411884,-9548.656652,459.657299
938.801362,1924.535449,-9252.574275,153.219100
938.801686,1406.391290,-9992.780217,1072.533697
938.802010,666.185348,-11621.233289,1149.143247
938.802334,1406.391290,-10288.862594,1149.143247
938.802658,1924.535449,-8068.244768,1762.019645
938.802982,1258.350101,-8956.491898,919.314598
938.803306,1036.288319,-9474.636058,0.000000
938.803631,592.164754,-9622.677246,0.000000
938.803955,148.041188,-9918.759623,153.219100
938.804279,74.020594,-8364.327145,76.609550
938.804603,370.102971,-7550.100608,-536.266849
938.804927,444.123565,-8734.430116,383.047749
938.805251,592.164754,-9178.553681,0.000000
938.805575,666.185348,-9474.636058,459.657299
938.805899,0.000000,-10584.944971,0.000000
938.806223,-148.041188,-9844.739029,76.609550
938.806547,370.102971,-8956.491898,383.047749
938.806871,888.247130,-9696.697840,689.485948
938.807195,2072.576638,-9992.780217,306.438199
938.807519,1998.556043,-9696.697840,1455.581446
938.807844,888.247130,-10288.862594,1149.143247
938.808168,740.205942,-9548.656652,1072.533697
938.808492,1628.453072,-9252.574275,1149.143247
938.808816,1110.308913,-10436.903782,153.219100
938.809140,148.041188,-9844.739029,-459.657299
938.809464,-1258.350101,-9252.574275,-1378.971896
938.809788,-2738.761985,-9696.697840,-1532.190996
938.810112,-1628.453072,-8586.388927,-612.876398
938.810436,-1554.432478,-8808.450710,-842.705048
938.810760,-2886.803174,-9474.636058,-1762.019645
938.811084,-3552.988522,-9104.533087,-1302.362347
938.811408,-3034.844362,-9622.677246,-1225.752797
938.811732,-2442.679609,-10584.944971,-612.876398
938.812057,-814.226536,-9770.718434,153.219100
938.812381,-148.041188,-9030.512492,536.266849
938.812705,-518.144159,-9696.697840,1149.143247
938.813029,74.020594,-10510.924376,842.705048
938.813353,0.000000,-11473.192101,459.657299
938.813677,-666.185348,-10807.006753,-153.219100
938.814001,-962.267725,-9326.594869,-612.876398
938.814325,-814.226536,-9400.615463,-306.438199
938.814649,-592.164754,-10362.883188,-689.485948
938.814973,-444.123565,-9844.739029,-459.657299
938.815297,-1036.288319,-9474.636058,-1072.533697
938.815621,-2294.638420,-9474.636058,-1378.971896
938.815945,-1998.556043,-8956.491898,-689.485948
938.816269,-74.020594,-9918.759623,306.438199
938.816594,-148.041188,-10362.883188,229.828649
938.816918,0.000000,-9252.574275,229.828649
938.817242,-370.102971,-9474.636058,612.876398
938.817566,-592.164754,-10807.006753,1149.143247
938.817890,666.185348,-9770.718434,1532.190996
938.818214,1480.411884,-8956.491898,1455.581446
938.818538,962.267725,-9104.533087,536.266849
938.818862,888.247130,-9326.594869,-229.828649
938.819186,518.144159,-9474.636058,-919.314598
938.819510,518.144159,-10066.800811,-459.657299
938.819834,1110.308913,-8882.471304,-689.485948
938.820158,888.247130,-8808.450710,-1072.533697
938.820482,592.164754,-9918.759623,0.000000
938.820807,1184.329507,-9696.697840,153.219100
938.821131,1924.535449,-9770.718434,0.000000
938.821455,1036.288319,-10436.903782,0.000000
938.821779,1332.370696,-9326.594869,536.266849
938.822103,1924.535449,-9178.553681,1149.143247
938.822427,2812.782580,-10362.883188,1532.190996
938.822751,2960.823768,-9400.615463,1378.971896
938.823075,1554.432478,-9622.677246,1072.533697
938.823399,518.144159,-10066.800811,536.266849
938.823723,814.226536,-9252.574275,76.609550
938.824047,-370.102971,-9400.615463,0.000000
938.824371,-1258.350101,-9474.636058,-1072.533697
938.824695,-148.041188,-9104.533087,-612.876398
938.825020,148.041188,-9844.739029,-919.314598
938.825344,-296.082377,-10288.862594,-1685.410096
938.825668,-222.061783,-8882.471304,-153.219100
938.825992,222.061783,-9622.677246,229.828649
938.826316,666.185348,-10732.986159,153.219100
938.826640,814.226536,-9770.718434,919.314598
938.826964,0.000000,-10066.800811,1302.362347
938.827288,-814.226536,-9992.780217,229.828649
938.827612,-666.185348,-8808.450710,612.876398
938.827936,-666.185348,-8290.306550,459.657299
938.828260,-148.041188,-9770.718434,-383.047749
938.828584,0.000000,-9326.594869,-229.828649
938.828908,-666.185348,-9252.574275,-383.047749
938.829233,-1480.411884,-9400.615463,-1378.971896
938.829557,-1776.494261,-8660.409521,-766.095498
938.829881,-1628.453072,-9252.574275,-536.266849
938.830205,-592.164754,-10288.862594,-842.705048
938.830529,-148.041188,-9474.636058,-1072.533697
938.830853,-1110.308913,-9548.656652,-689.485948
938.831177,-1554.432478,-10288.862594,-919.314598
938.831501,0.000000,-9992.780217,0.000000
938.831825,592.164754,-10510.924376,306.438199
938.832149,-296.082377,-11029.068536,612.876398
938.832473,-1406.391290,-10066.800811,306.438199
938.832797,-2072.576638,-10288.862594,-383.047749
938.833121,-2146.597232,-10807.006753,-689.485948
938.833445,-1924.535449,-9770.718434,-229.828649
938.833770,-1554.432478,-9992.780217,-153.219100
938.834094,-1702.473667,-10584.944971,-383.047749
938.834418,-1628.453072,-9474.636058,-995.924147
938.834742,-1850.514855,-9474.636058,-229.828649
938.835066,-2072.576638,-9474.636058,-459.657299
938.835390,-518.144159,-9030.512492,-229.828649
938.835714,222.061783,-9178.553681,0.000000
938.836038,518.144159,-9400.615463,383.047749
938.836362,888.247130,-9178.553681,689.485948
938.836686,1036.288319,-9696.697840,766.095498
938.837010,1332.370696,-10436.903782,842.705048
938.837334,2072.576638,-9548.656652,919.314598
938.837658,2220.617826,-9474.636058,689.485948
938.837983,1554.432478,-10510.924376,766.095498
938.838307,1332.370696,-10658.965565,612.876398
938.838631,814.226536,-10436.903782,76.609550
938.838955,-222.061783,-10288.862594,-459.657299
938.839279,-518.144159,-9326.594869,-229.828649
938.839603,-296.082377,-9770.718434,-995.924147
938.839927,-222.061783,-10362.883188,-919.314598
938.840251,-592.164754,-9696.697840,-306.438199
938.840575,-888.247130,-10510.924376,0.000000
938.840899,-666.185348,-10362.883188,536.266849
938.841223,740.205942,-8660.409521,689.485948
938.841547,1628.453072,-8956.491898,1149.143247
938.841871,1776.494261,-9104.533087,1072.533697
938.842196,1998.556043,-8882.471304,1225.752797
938.842520,1406.391290,-8660.409521,1149.143247
938.842844,1406.391290,-8734.430116,1072.533697
938.843168,2294.638420,-7402.059420,459.657299
938.843492,2294.638420,-7624.121203,-229.828649
938.843816,1036.288319,-8956.491898,-689.485948
938.844140,296.082377,-9104.533087,-612.876398
938.844464,-666.185348,-9474.636058,-995.924147
938.844788,-888.247130,-8438.347739,-1532.190996
938.845112,0.000000,-7402.059420,-1072.533697
938.845436,888.247130,-9326.594869,-306.438199
938.845760,1110.308913,-11325.150913,689.485948
938.846084,1702.473667,-10807.006753,1455.581446
938.846408,1406.391290,-10510.924376,1455.581446
938.846733,962.267725,-9918.759623,689.485948
938.847057,740.205942,-10066.800811,1072.533697
938.847381,-148.041188,-10807.006753,153.219100
938.847705,-888.247130,-10881.027347,-612.876398
938.848029,-2368.659014,-10510.924376,-919.314598
938.848353,-3478.967927,-10658.965565,-2604.724693
938.848677,-3849.070898,-10510.924376,-2911.162892
938.849001,-2442.679609,-9474.636058,-1991.848295
938.849325,-740.205942,-9844.739029,-2145.067394
938.849649,-148.041188,-10955.047942,-2298.286494
938.849973,592.164754,-9252.574275,-1225.752797
938.850297,0.000000,-9474.636058,-153.219100
938.850621,0.000000,-10362.883188,76.609550
938.850945,592.164754,-9178.553681,383.047749
938.851269,370.102971,-8808.450710,842.705048
938.851593,222.061783,-9770.718434,229.828649
938.851917,296.082377,-9474.636058,842.705048
938.852241,-1332.370696,-9252.574275,-229.828649
938.852565,-2220.617826,-8290.306550,-229.828649
938.852889,-2294.638420,-8438.347739,-612.876398
938.853213,-1924.535449,-9474.636058,-1378.971896
938.853537,-2368.659014,-9696.697840,-1455.581446
938.853861,-2368.659014,-9474.636058,-919.314598
938.854185,-2442.679609,-9696.697840,-919.314598
938.854509,-1924.535449,-10362.883188,0.000000
938.854833,-1036.288319,-9770.718434,0.000000
938.855157,-888.247130,-10288.862594,0.000000
938.855481,-888.247130,-10658.965565,306.438199
938.855806,0.000000,-10732.986159,306.438199
938.856130,-370.102971,-10658.965565,153.219100
938.856454,-888.247130,-10140.821405,995.924147
938.856778,0.000000,-8882.471304,995.924147
938.857102,1332.370696,-9252.574275,612.876398
938.857426,1702.473667,-9474.636058,76.609550
938.857750,1924.535449,-9104.533087,536.266849
938.858074,1110.308913,-9844.739029,0.000000
938.858398,888.247130,-9326.594869,-612.876398
938.858722,1480.411884,-7550.100608,-459.657299
938.859046,1702.473667,-9030.512492,-612.876398
938.859370,1776.494261,-10362.883188,-995.924147
938.859694,1776.494261,-9178.553681,0.000000
938.860018,1110.308913,-9474.636058,76.609550
938.860342,1480.411884,-9770.718434,153.219100
938.860666,2368.659014,-9548.656652,612.876398
938.860990,2294.638420,-10288.862594,842.705048
938.861314,2146.597232,-10658.965565,919.314598
938.861638,2220.617826,-10066.800811,1302.362347
938.861962,1332.370696,-10732.986159,2145.067394
938.862286,370.102971,-10658.965565,1302.362347
938.862610,-370.102971,-9030.512492,229.828649
938.862934,-1628.453072,-9030.512492,-536.266849
938.863258,-2294.638420,-9548.656652,-995.924147
938.863582,-1702.473667,-9622.677246,-689.485948
938.863906,-1332.370696,-9844.739029,-766.095498
938.864230,-1036.288319,-8586.388927,-306.438199
938.864554,-370.102971,-7254.018232,766.095498
938.864879,740.205942,-8882.471304,612.876398
938.865203,1924.535449,-9622.677246,919.314598
938.865527,2664.741391,-8660.409521,1378.971896
938.865851,1480.411884,-8882.471304,1302.362347
938.866175,1332.370696,-9400.615463,1225.752797
938.866499,1998.556043,-8512.368333,1608.800546
938.866823,1332.370696,-8882.471304,459.657299
938.867147,74.020594,-9326.594869,-766.095498
938.867471,-1036.288319,-9326.594869,-995.924147
938.867795,-2294.638420,-9770.718434,-1838.629195
938.868119,-2590.720797,-9474.636058,-1991.848295
938.868443,-2738.761985,-8660.409521,-1455.581446
938.868767,-2590.720797,-9992.780217,-1455.581446
938.869091,-2072.576638,-10436.903782,-1991.848295
938.869415,-740.205942,-9696.697840,-1608.800546
938.869739,-1332.370696,-10584.944971,-1608.800546
938.870063,-1184.329507,-11325.150913,-536.266849
938.870387,0.000000,-11103.089130,-229.828649
938.870711,148.041188,-11325.150913,0.000000
938.871035,-148.041188,-10732.986159,-229.828649
938.871359,-814.226536,-10362.883188,-1685.410096
938.871683,-2590.720797,-11177.109724,-1762.019645
938.872007,-1850.514855,-10955.047942,-1302.362347
938.872331,-888.247130,-9844.739029,-2145.067394
938.872655,-888.247130,-10140.821405,-1838.629195
938.872979,-666.185348,-9548.656652,-1838.629195
938.873303,0.000000,-9770.718434,-2068.457845
938.873628,518.144159,-10955.047942,-1608.800546
938.873952,888.247130,-10807.006753,-383.047749
938.874276,1628.453072,-10066.800811,383.047749
938.874600,1480.411884,-9992.780217,76.609550
938.874924,1036.288319,-9918.759623,383.047749
938.875248,962.267725,-10362.883188,383.047749
938.875572,0.000000,-11399.171507,-153.219100
938.875896,-962.267725,-9918.759623,0.000000
938.876220,-888.247130,-8586.388927,0.000000
938.876544,-296.082377,-9622.677246,153.219100
938.876868,-296.082377,-9548.656652,0.000000
938.877192,-148.041188,-9474.636058,-153.219100
938.877516,-888.247130,-9918.759623,-229.828649
938.877840,0.000000,-9622.677246,-153.219100
938.878164,1110.308913,-8586.388927,689.485948
938.878488,1036.288319,-9326.594869,1225.752797
938.878812,1480.411884,-9622.677246,1378.971896
938.879136,1184.329507,-9400.615463,1225.752797
938.879460,0.000000,-9252.574275,1302.362347
938.879784,740.205942,-8512.368333,1915.238745
938.880108,2146.597232,-7772.162391,2298.286494
938.880432,2146.597232,-8586.388927,2374.896044
938.880756,1406.391290,-7550.100608,1915.238745
938.881080,814.226536,-7105.977043,1608.800546
938.881404,0.000000,-8438.347739,1455.581446
938.881728,74.020594,-8882.471304,1762.019645
938.882052,1184.329507,-7402.059420,1072.533697
938.882376,370.102971,-7402.059420,0.000000
938.882701,-962.267725,-7846.182985,-536.266849
938.883025,-1258.350101,-9178.553681,229.828649
938.883349,-888.247130,-10658.965565,536.266849
938.883673,-444.123565,-10066.800811,1378.971896
938.883997,148.041188,-8808.450710,1608.800546
938.884321,740.205942,-9326.594869,766.095498
938.884645,1480.411884,-9770.718434,383.047749
938.884969,1776.494261,-10214.842000,459.657299
938.885293,592.164754,-11325.150913,229.828649
938.885617,592.164754,-10881.027347,459.657299
938.885941,888.247130,-9474.636058,229.828649
938.886265,444.123565,-9918.759623,-1072.533697
938.886589,-444.123565,-10658.965565,-1225.752797
938.886913,-1628.453072,-10881.027347,-2451.505594
938.887237,-2812.782580,-11843.295072,-2604.724693
938.887561,-2442.679609,-11621.233289,-2221.676944
938.887885,-1258.350101,-10436.903782,-1838.629195
938.888209,148.041188,-10955.047942,-1838.629195
938.888533,814.226536,-11029.068536,-1762.019645
938.888857,370.102971,-11251.130318,-1532.190996
938.889181,-666.185348,-11843.295072,-1532.190996
938.889505,-1036.288319,-10955.047942,-536.266849
938.889829,0.000000,-10362.883188,-153.219100
938.890153,222.061783,-10807.006753,-842.705048
938.890477,-148.041188,-9696.697840,-919.314598
938.890801,-888.247130,-9252.574275,-1915.238745
938.891125,-2220.617826,-9770.718434,-2681.334243
938.891449,-2738.761985,-9326.594869,-2221.676944
938.891774,-1998.556043,-9252.574275,-1532.190996
938.892098,-1702.473667,-10288.862594,-1991.848295
938.892422,-1554.432478,-9770.718434,-1302.362347
938.892746,-1554.432478,-8660.409521,-1532.190996
938.893070,-1554.432478,-8808.450710,-612.876398
938.893394,-222.061783,-9252.574275,-229.828649
938.893718,1480.411884,-8734.430116,306.438199
938.894042,1924.535449,-7624.121203,229.828649
938.894366,2220.617826,-7550.100608,995.924147
938.894690,1554.432478,-8586.388927,383.047749
938.895014,-222.061783,-9400.615463,76.609550
938.895338,-1480.411884,-8142.265362,306.438199
938.895662,-962.267725,-7402.059420,76.609550
938.895986,148.041188,-8512.368333,-229.828649
938.896310,222.061783,-8734.430116,76.609550
938.896634,74.020594,-9400.615463,0.000000
938.896958,-296.082377,-10140.821405,-306.438199
938.897282,-444.123565,-8882.471304,153.219100
938.897606,370.102971,-8290.306550,0.000000
938.897930,814.226536,-9844.739029,0.000000
938.898254,1258.350101,-10214.842000,306.438199
938.898578,1702.473667,-10214.842000,306.438199
938.898902,1480.411884,-10807.006753,0.000000
938.899226,1702.473667,-10140.821405,459.657299
938.899550,1554.432478,-9548.656652,76.609550
938.899874,1184.329507,-10510.924376,0.000000
938.900198,1702.473667,-10436.903782,459.657299
938.900522,1480.411884,-10732.986159,76.609550
938.900847,444.123565,-11695.253884,0.000000
938.901171,592.164754,-9770.718434,229.828649
938.901495,1184.329507,-9252.574275,383.047749
938.901819,888.247130,-10732.986159,459.657299
938.902143,370.102971,-10436.903782,153.219100
938.902467,222.061783,-10214.842000,-459.657299
938.902791,148.041188,-9844.739029,-536.266849
938.903115,962.267725,-9696.697840,0.000000
938.903439,962.267725,-10436.903782,459.657299
938.903763,666.185348,-10807.006753,689.485948
938.904087,370.102971,-9696.697840,766.095498
938.904411,222.061783,-10066.800811,536.266849
938.904735,-1332.370696,-10510.924376,0.000000
938.905059,-740.205942,-9918.759623,383.047749
938.905383,-592.164754,-9622.677246,76.609550
938.905707,-1110.308913,-9918.759623,-383.047749
938.906031,-1702.473667,-9104.533087,-459.657299
938.906355,-2738.761985,-8290.306550,-2221.676944
938.906679,-3330.926739,-9326.594869,-1455.581446
938.907003,-2442.679609,-8512.368333,-995.924147
938.907327,-1554.432478,-7698.141797,-536.266849
938.907651,-1554.432478,-9252.574275,-383.047749
938.907975,-1332.370696,-9030.512492,0.000000
938.908299,-888.247130,-8586.388927,0.000000
938.908623,-1480.411884,-9178.553681,689.485948
938.908947,-592.164754,-9030.512492,766.095498
938.909271,0.000000,-9474.636058,1149.143247
938.909595,592.164754,-9474.636058,153.219100
938.909920,666.185348,-9252.574275,612.876398
938.910244,-296.082377,-9770.718434,-306.438199
938.910568,-1110.308913,-10140.821405,-1072.533697
938.910892,-296.082377,-9474.636058,-689.485948
938.911216,74.020594,-8808.450710,-1302.362347
938.911540,0.000000,-9622.677246,-766.095498
938.911864,-1036.288319,-10955.047942,-612.876398
938.912188,-1406.391290,-11325.150913,-1378.971896
938.912512,-1702.473667,-11103.089130,-919.314598
938.912836,-592.164754,-9696.697840,-306.438199
938.913160,296.082377,-9770.718434,-153.219100
938.913484,518.144159,-11621.233289,306.438199
938.913808,1036.288319,-10510.924376,1072.533697
938.914132,962.267725,-11251.130318,1378.971896
938.914456,0.000000,-11473.192101,919.314598
938.914780,740.205942,-10066.800811,536.266849
938.915104,1036.288319,-9400.615463,0.000000
938.915428,814.226536,-9548.656652,-459.657299
938.915752,1110.308913,-9844.739029,-153.219100
938.916076,592.164754,-10510.924376,0.000000
938.916400,0.000000,-10732.986159,-383.047749
938.916724,666.185348,-8808.450710,-612.876398
938.917048,1036.288319,-8290.306550,-383.047749
938.917372,1332.370696,-9918.759623,-306.438199
938.917696,1850.514855,-10066.800811,689.485948
938.918020,1110.308913,-9622.677246,766.095498
938.918344,148.041188,-9474.636058,306.438199
938.918669,1554.432478,-8586.388927,1685.410096
938.918993,2146.597232,-8364.327145,1532.190996
938.919317,1702.473667,-9400.615463,1149.143247
938.919641,518.144159,-8956.491898,1378.971896
938.919965,-444.123565,-8882.471304,919.314598
938.920289,-666.185348,-8586.388927,995.924147
938.920613,0.000000,-7994.224174,689.485948
938.920937,0.000000,-7328.038826,0.000000
938.921261,-296.082377,-8216.285956,-459.657299
938.921585,-370.102971,-8512.368333,-383.047749
938.921909,-740.205942,-8734.430116,-153.219100
938.922233,-814.226536,-8956.491898,0.000000
938.922557,0.000000,-7846.182985,612.876398
938.922881,888.247130,-8660.409521,766.095498
938.923205,962.267725,-9622.677246,459.657299
938.923529,666.185348,-9474.636058,766.095498
938.923853,0.000000,-9992.780217,842.705048
938.924177,-222.061783,-10362.883188,76.609550
938.924501,-370.102971,-9252.574275,306.438199
938.924825,-888.247130,-9252.574275,-536.266849
938.925149,-1406.391290,-10584.944971,-1149.143247
938.925473,-1258.350101,-10732.986159,-1072.533697
938.925797,-1554.432478,-10955.047942,-1302.362347
938.926121,-1998.556043,-10955.047942,-1762.019645
938.926445,-1258.350101,-9992.780217,-1378.971896
938.926769,-666.185348,-10362.883188,-1991.848295
938.927093,-148.041188,-11621.233289,-2451.505594
938.927417,-370.102971,-11251.130318,-2298.286494
938.927742,-666.185348,-11621.233289,-1838.629195
938.928066,-1036.288319,-11991.336260,-842.705048
938.928390,148.041188,-11621.233289,-229.828649
938.928714,-814.226536,-10510.924376,-1072.533697
938.929038,-814.226536,-11251.130318,-1225.752797
938.929362,-814.226536,-10732.986159,-1378.971896
938.929686,-1332.370696,-11473.192101,-2145.067394
938.930010,-2072.576638,-11103.089130,-1225.752797
938.930334,-740.205942,-9548.656652,-995.924147
938.930658,666.185348,-9622.677246,-1378.971896
938.930982,1110.308913,-9178.553681,-995.924147
938.931306,888.247130,-9474.636058,0.000000
938.931630,444.123565,-9844.739029,-689.485948
938.931954,518.144159,-9474.636058,-689.485948
938.932278,888.247130,-7698.141797,0.000000
938.932602,888.247130,-7994.224174,0.000000
938.932926,370.102971,-9104.533087,76.609550
938.933250,-148.041188,-7772.162391,-153.219100
938.933574,-1036.288319,-8364.327145,612.876398
938.933898,-1110.308913,-9030.512492,459.657299
938.934222,74.020594,-8586.388927,306.438199
938.934546,296.082377,-7920.203579,689.485948
938.934870,666.185348,-8290.306550,1072.533697
938.935194,0.000000,-8734.430116,919.314598
938.935518,-518.144159,-9474.636058,0.000000
938.935842,-1110.308913,-9326.594869,612.876398
938.936166,0.000000,-8364.327145,536.266849
938.936490,592.164754,-9104.533087,-536.266849
938.936815,814.226536,-9770.718434,0.000000
938.937139,1776.494261,-9622.677246,1072.533697
938.937463,2294.638420,-11103.089130,689.485948
938.937787,1628.453072,-10140.821405,1302.362347
938.938111,1850.514855,-9400.615463,2068.457845
938.938435,2664.741391,-10140.821405,1302.362347
938.938759,2590.720797,-11029.068536,1455.581446
938.939083,1628.453072,-10214.842000,1838.629195
938.939407,74.020594,-10066.800811,1455.581446
938.939731,-740.205942,-9844.739029,766.095498
938.940055,-370.102971,-8660.409521,536.266849
938.940379,-888.247130,-8956.491898,-153.219100
938.940703,-1554.432478,-9474.636058,0.000000
938.941027,-1554.432478,-9326.594869,229.828649
938.941351,-1776.494261,-9326.594869,-536.266849
938.941675,-1924.535449,-8808.450710,76.609550
938.941999,-1332.370696,-8068.244768,153.219100
938.942323,-222.061783,-9696.697840,0.000000
938.942647,592.164754,-10436.903782,383.047749
938.942972,1480.411884,-9918.759623,919.314598
938.943296,222.061783,-9770.718434,76.609550
938.943620,-1258.350101,-10510.924376,612.876398
938.943944,-740.205942,-9696.697840,383.047749
938.944268,-148.041188,-10066.800811,0.000000
938.944592,-962.267725,-10732.986159,-536.266849
938.944916,-888.247130,-10510.924376,-689.485948
938.945240,-1036.288319,-10955.047942,-1149.143247
938.945564,-444.123565,-10436.903782,-919.314598
938.945888,740.205942,-9474.636058,-689.485948
938.946212,518.144159,-10066.800811,-459.657299
938.946536,222.061783,-10584.944971,-766.095498
938.946860,740.205942,-10436.903782,-612.876398
938.947185,-148.041188,-10140.821405,-1532.190996
938.947509,-1036.288319,-9474.636058,-1302.362347
938.947833,-592.164754,-9178.553681,-1302.362347
938.948157,-592.164754,-9770.718434,-1685.410096
938.948481,-962.267725,-9252.574275,-1072.533697
938.948805,-1332.370696,-8956.491898,-1991.848295
938.949129,-2516.700203,-8808.450710,-1915.238745
938.949453,-2146.597232,-9400.615463,-1532.190996
938.949777,-814.226536,-8734.430116,-1072.533697
938.950101,444.123565,-9770.718434,-459.657299
938.950425,1480.411884,-9918.759623,76.609550
938.950749,2368.659014,-9770.718434,459.657299
938.951073,2146.597232,-10955.047942,306.438199
938.951398,1702.473667,-10288.862594,0.000000
938.951722,1258.350101,-9400.615463,229.828649
938.952046,0.000000,-10362.883188,-153.219100
938.952370,-518.144159,-10658.965565,-459.657299
938.952694,-1036.288319,-9992.780217,-459.657299
938.953018,-1702.473667,-10584.944971,-612.876398
938.953342,-962.267725,-9474.636058,-153.219100
938.953666,-370.102971,-8216.285956,-919.314598
938.953990,-370.102971,-8512.368333,-766.095498
938.954314,-296.082377,-9030.512492,0.000000
938.954638,592.164754,-9474.636058,229.828649
938.954962,592.164754,-9622.677246,306.438199
938.955286,444.123565,-8216.285956,612.876398
938.955611,444.123565,-7772.162391,1072.533697
938.955935,1110.308913,-9696.697840,459.657299
938.956259,1702.473667,-10214.842000,919.314598
938.956583,1480.411884,-9548.656652,919.314598
938.956907,-148.041188,-9548.656652,153.219100
938.957231,-1184.329507,-9474.636058,0.000000
938.957555,-518.144159,-8882.471304,229.828649
938.957879,962.267725,-9696.697840,612.876398
938.958203,1332.370696,-10436.903782,995.924147
938.958527,370.102971,-9400.615463,766.095498
938.958851,0.000000,-10066.800811,919.314598
938.959175,370.102971,-10066.800811,766.095498
938.959499,740.205942,-8808.450710,612.876398
938.959824,-592.164754,-9400.615463,306.438199
938.960148,-1924.535449,-9770.718434,-612.876398
938.960472,-1776.494261,-10066.800811,-306.438199
938.960796,-1406.391290,-10510.924376,306.438199
938.961120,-518.144159,-9474.636058,536.266849
938.961444,592.164754,-8660.409521,76.609550
938.961768,740.205942,-9400.615463,0.000000
938.962092,1110.308913,-10066.800811,306.438199
938.962416,1924.535449,-9992.780217,995.924147
938.962740,1702.473667,-11103.089130,1302.362347
938.963064,1628.453072,-10732.986159,1532.190996
938.963388,2072.576638,-9104.533087,1225.752797
938.963712,888.247130,-9844.739029,0.000000
938.964037,0.000000,-10214.842000,-612.876398
938.964361,-1332.370696,-10288.862594,-766.095498
938.964685,-2442.679609,-10807.006753,-1608.800546
938.965009,-2368.659014,-9622.677246,-1455.581446
938.965333,-1998.556043,-7846.182985,-995.924147
938.965657,-888.247130,-9400.615463,-1225.752797
938.965981,0.000000,-10732.986159,-766.095498
938.966305,0.000000,-10066.800811,-383.047749
938.966629,-1184.329507,-10436.903782,229.828649
938.966953,-666.185348,-10288.862594,766.095498
938.967277,666.185348,-9474.636058,1149.143247
938.967601,814.226536,-9622.677246,689.485948
938.967925,444.123565,-9326.594869,306.438199
938.968250,0.000000,-9030.512492,229.828649
938.968574,-1110.308913,-9252.574275,-689.485948
938.968898,-962.267725,-8586.388927,-229.828649
938.969222,-592.164754,-7476.080014,-153.219100
938.969546,-592.164754,-8586.388927,-1378.971896
938.969870,-740.205942,-8364.327145,-1378.971896
938.970194,-962.267725,-8142.265362,-306.438199
938.970518,-1480.411884,-9548.656652,-383.047749
938.970842,-666.185348,-10066.800811,0.000000
938.971166,666.185348,-8734.430116,-306.438199
938.971490,444.123565,-9104.533087,-536.266849
938.971814,148.041188,-10510.924376,0.000000
938.972138,0.000000,-10881.027347,76.609550
938.972463,-444.123565,-10732.986159,-153.219100
938.972787,-1480.411884,-9474.636058,766.095498
938.973111,-222.061783,-8808.450710,0.000000
938.973435,222.061783,-10066.800811,0.000000
938.973759,888.247130,-11029.068536,536.266849
938.974083,814.226536,-10436.903782,0.000000
938.974407,-592.164754,-9918.759623,-612.876398
938.974731,-962.267725,-8734.430116,-459.657299
938.975055,-370.102971,-9844.739029,-153.219100
938.975379,814.226536,-11621.233289,-306.438199
938.975703,814.226536,-11177.109724,-459.657299
938.976027,0.000000,-10288.862594,-612.876398
938.976351,-222.061783,-10955.047942,-612.876398
938.976676,962.267725,-10584.944971,842.705048
938.977000,2738.761985,-10214.842000,1225.752797
938.977324,2812.782580,-10584.944971,1302.362347
938.977648,2516.700203,-9992.780217,919.314598
938.977972,2294.638420,-9918.759623,1455.581446
938.978296,1258.350101,-10510.924376,1072.533697
938.978620,1110.308913,-9252.574275,1302.362347
938.978944,814.226536,-8512.368333,1149.143247
938.979268,-888.247130,-9400.615463,-153.219100
938.979592,-2220.617826,-9400.615463,0.000000
938.979916,-2368.659014,-8734.430116,-536.266849
938.980240,-2812.782580,-8586.388927,-1378.971896
938.980564,-2368.659014,-7994.224174,-306.438199
938.980889,-1184.329507,-8290.306550,-306.438199
938.981213,-592.164754,-8660.409521,689.485948
938.981537,814.226536,-9104.533087,842.705048
938.981861,1554.432478,-8586.388927,1149.143247
938.982185,1036.288319,-9178.553681,689.485948
938.982509,1036.288319,-9474.636058,1225.752797
938.982833,1776.494261,-9622.677246,1072.533697
938.983157,1184.329507,-9474.636058,306.438199
938.983481,0.000000,-9622.677246,0.000000
938.983805,-1036.288319,-9918.759623,-1378.971896
938.984129,-1850.514855,-9992.780217,-2451.505594
938.984453,-1184.329507,-8438.347739,-2298.286494
938.984777,-962.267725,-8734.430116,-1608.800546
938.985102,-1406.391290,-10214.842000,-1149.143247
938.985426,-1258.350101,-10584.944971,-766.095498
938.985750,-1554.432478,-10140.821405,-766.095498
938.986074,-1924.535449,-9474.636058,-766.095498
938.986398,-740.205942,-9400.615463,-919.314598
938.986722,0.000000,-9770.718434,-689.485948
938.987046,74.020594,-11029.068536,-383.047749
938.987370,148.041188,-10658.965565,-383.047749
938.987694,0.000000,-10214.842000,-612.876398
938.988018,-1554.432478,-10732.986159,-1608.800546
938.988342,-1406.391290,-9844.739029,-1149.143247
938.988666,-592.164754,-9474.636058,-1685.410096
938.988990,74.020594,-10658.965565,-1838.629195
938.989315,518.144159,-10584.944971,-689.485948
938.989639,888.247130,-10658.965565,0.000000
938.989963,2072.576638,-12065.356855,229.828649
938.990287,3256.906145,-11695.253884,1991.848295
938.990611,3108.864956,-9992.780217,842.705048
938.990935,2368.659014,-9622.677246,689.485948
938.991259,370.102971,-10362.883188,536.266849
938.991583,0.000000,-11029.068536,766.095498
938.991907,-962.267725,-11029.068536,306.438199
938.992231,-1332.370696,-9474.636058,536.266849
938.992555,-1702.473667,-8808.450710,459.657299
938.992879,-1850.514855,-8068.244768,-612.876398
938.993203,-2368.659014,-7550.100608,-612.876398
938.993528,-2294.638420,-8660.409521,0.000000
938.993852,-1924.535449,-9548.656652,153.219100
938.994176,222.061783,-8512.368333,612.876398
938.994500,1036.288319,-7772.162391,1302.362347
938.994824,1480.411884,-8956.491898,1072.533697
938.995148,1776.494261,-9252.574275,1302.362347
938.995472,1776.494261,-9548.656652,995.924147
938.995796,1406.391290,-9844.739029,1685.410096
938.996120,1184.329507,-9326.594869,1991.848295
938.996444,1628.453072,-8808.450710,1762.019645
938.996768,962.267725,-8882.471304,919.314598
938.997092,444.123565,-8216.285956,995.924147
938.997416,-518.144159,-8734.430116,306.438199
938.997741,-1258.350101,-9326.594869,-153.219100
938.998065,-1110.308913,-8068.244768,842.705048
938.998389,-296.082377,-7772.162391,229.828649
938.998713,-148.041188,-8956.491898,0.000000
938.999037,0.000000,-9474.636058,306.438199
938.999361,-592.164754,-9696.697840,-612.876398
938.999685,-1184.329507,-9474.636058,-842.705048
939.000009,-296.082377,-9326.594869,153.219100
939.000333,444.123565,-10436.903782,919.314598
939.000657,666.185348,-11325.150913,229.828649
939.000981,1184.329507,-10955.047942,306.438199
939.001305,1332.370696,-10510.924376,306.438199
939.001629,888.247130,-11177.109724,-612.876398
939.001954,666.185348,-10807.006753,-383.047749
939.002278,370.102971,-10807.006753,-306.438199
939.002602,296.082377,-11695.253884,-689.485948
939.002926,296.082377,-11695.253884,-612.876398
939.003250,-370.102971,-10658.965565,-1072.533697
939.003574,-1258.350101,-10214.842000,-1532.190996
939.003898,-962.267725,-9030.512492,-1378.971896
939.004222,-888.247130,-9770.718434,-1455.581446
939.004546,-518.144159,-11029.068536,-1685.410096
939.004870,0.000000,-9844.739029,-689.485948
939.005194,-444.123565,-8956.491898,-995.924147
939.005518,-222.061783,-9770.718434,0.000000
939.005842,0.000000,-9622.677246,76.609550
939.006167,370.102971,-9474.636058,536.266849
939.006491,0.000000,-9918.759623,536.266849
939.006815,-296.082377,-9844.739029,842.705048
939.007139,-888.247130,-9992.780217,536.266849
939.007463,-1258.350101,-8734.430116,153.219100
939.007787,-1332.370696,-8364.327145,306.438199
939.008111,-1110.308913,-8512.368333,229.828649
939.008435,-888.247130,-9770.718434,-306.438199
939.008759,-888.247130,-8882.471304,76.609550
939.009083,-1332.370696,-8438.347739,0.000000
939.009407,-888.247130,-9400.615463,0.000000
939.009731,0.000000,-9474.636058,689.485948
939.010055,444.123565,-9178.553681,383.047749
939.010380,666.185348,-9326.594869,919.314598
939.010704,814.226536,-9252.574275,1532.190996
939.011028,888.247130,-9770.718434,1685.410096
939.011352,444.123565,-10362.883188,1378.971896
939.011676,370.102971,-8734.430116,1302.362347
939.012000,-296.082377,-8068.244768,612.876398
939.012324,-666.185348,-7772.162391,-229.828649
939.012648,-1036.288319,-7994.224174,-459.657299
939.012972,-1036.288319,-9178.553681,-1302.362347
939.013296,-1924.535449,-10214.842000,-1302.362347
939.013620,-1406.391290,-9696.697840,-383.047749
939.013944,222.061783,-10214.842000,-536.266849
939.014268,1406.391290,-11103.089130,-306.438199
939.014593,1776.494261,-10584.944971,459.657299
939.014917,1332.370696,-10955.047942,76.609550
939.015241,1628.453072,-11695.253884,536.266849
939.015565,2886.803174,-11325.150913,842.705048
939.015889,3552.988522,-11473.192101,1149.143247
939.016213,2812.782580,-11177.109724,995.924147
939.016537,1628.453072,-10214.842000,766.095498
939.016861,296.082377,-10510.924376,-766.095498
939.017185,-1406.391290,-10732.986159,-1302.362347
939.017509,-1850.514855,-9844.739029,-306.438199
939.017833,-1480.411884,-9104.533087,-1378.971896
939.018157,-1258.350101,-9548.656652,-1455.581446
939.018481,-814.226536,-8734.430116,-766.095498
939.018806,-518.144159,-9178.553681,-842.705048
939.019130,0.000000,-9770.718434,-306.438199
939.019454,962.267725,-9104.533087,1149.143247
939.019778,1628.453072,-8660.409521,2068.457845
939.020102,2590.720797,-9474.636058,1225.752797
939.020426,2220.617826,-9474.636058,1532.190996
939.020750,962.267725,-9918.759623,842.705048
939.021074,0.000000,-9548.656652,229.828649
939.021398,-444.123565,-8956.491898,612.876398
939.021722,-518.144159,-8586.388927,229.828649
939.022046,-740.205942,-8882.471304,-459.657299
939.022370,-1480.411884,-8216.285956,-383.047749
939.022694,-1776.494261,-8882.471304,-995.924147
939.023019,-2368.659014,-9178.553681,-1302.362347
939.023343,-1628.453072,-8586.388927,-459.657299
939.023667,-1480.411884,-8660.409521,-306.438199
939.023991,-888.247130,-9474.636058,-536.266849
939.024315,-740.205942,-8956.491898,229.828649
939.024639,-962.267725,-9030.512492,76.609550
939.024963,-592.164754,-9844.739029,383.047749
939.025287,74.020594,-9918.759623,536.266849
939.025611,666.185348,-9992.780217,229.828649
939.025935,592.164754,-10436.903782,0.000000
939.026259,296.082377,-11029.068536,689.485948
939.026583,0.000000,-10214.842000,0.000000
939.026907,-518.144159,-10288.862594,-306.438199
939.027232,-962.267725,-9844.739029,-459.657299
939.027556,-1036.288319,-10658.965565,-766.095498
939.027880,-296.082377,-11473.192101,-842.705048
939.028204,-296.082377,-10881.027347,-536.266849
939.028528,-1702.473667,-10362.883188,-919.314598
939.028852,-1850.514855,-9992.780217,-383.047749
939.029176,-1036.288319,-10362.883188,0.000000
939.029500,-148.041188,-11251.130318,0.000000
939.029824,-518.144159,-11029.068536,0.000000
939.030148,0.000000,-10362.883188,153.219100
939.030472,444.123565,-10436.903782,229.828649
939.030796,1110.308913,-10436.903782,383.047749
939.031120,1554.432478,-10140.821405,1225.752797
939.031445,814.226536,-9844.739029,0.000000
939.031769,296.082377,-9844.739029,-689.485948
939.032093,1036.288319,-9400.615463,229.828649
939.032417,1776.494261,-9622.677246,383.047749
939.032741,1776.494261,-10214.842000,0.000000
939.033065,1110.308913,-8882.471304,842.705048
939.033389,222.061783,-8956.491898,-229.828649
939.033713,888.247130,-9770.718434,-229.828649
939.034037,962.267725,-9474.636058,229.828649
939.034361,-518.144159,-9178.553681,459.657299
939.034685,-296.082377,-9030.512492,842.705048
939.035009,148.041188,-8068.244768,459.657299
939.035333,666.185348,-8364.327145,766.095498
939.035658,666.185348,-8290.306550,842.705048
939.035982,592.164754,-8586.388927,995.924147
939.036306,0.000000,-8586.388927,536.266849
939.036630,222.061783,-8438.347739,1225.752797
939.036954,444.123565,-7550.100608,1685.410096
939.037278,222.061783,-8068.244768,536.266849
939.037602,-814.226536,-7772.162391,-459.657299
939.037926,-1110.308913,-7105.977043,-153.219100
939.038250,-888.247130,-9326.594869,-153.219100
939.038574,-148.041188,-9844.739029,612.876398
939.038898,592.164754,-9400.615463,1991.848295
939.039222,148.041188,-9252.574275,1302.362347
939.039546,222.061783,-9326.594869,306.438199
939.039871,-518.144159,-9326.594869,-306.438199
939.040195,-962.267725,-10732.986159,-612.876398
939.040519,-888.247130,-10732.986159,0.000000
939.040843,0.000000,-9992.780217,766.095498
939.041167,74.020594,-9844.739029,229.828649
939.041491,-370.102971,-10436.903782,-383.047749
939.041815,-1110.308913,-10436.903782,-1072.533697
939.042140,-1998.556043,-11251.130318,-1685.410096
939.042464,-2146.597232,-11251.130318,-2221.676944
939.042788,-888.247130,-10436.903782,-612.876398
939.043112,666.185348,-11177.109724,-153.219100
939.043436,1628.453072,-11473.192101,0.000000
939.043760,1406.391290,-10658.965565,-153.219100
939.044085,-148.041188,-10881.027347,-1225.752797
939.044409,-962.267725,-11103.089130,-689.485948
939.044733,0.000000,-11103.089130,-689.485948
939.045057,0.000000,-10436.903782,-612.876398
939.045381,-296.082377,-9770.718434,-536.266849
939.045705,-296.082377,-10066.800811,0.000000
939.046030,-666.185348,-10658.965565,-766.095498
939.046354,-962.267725,-9252.574275,-842.705048
939.046678,-666.185348,-7846.182985,-306.438199
939.047002,-148.041188,-8808.450710,229.828649
939.047326,592.164754,-10214.842000,306.438199
939.047651,1184.329507,-9400.615463,842.705048
939.047975,-740.205942,-9474.636058,0.000000
939.048299,-1332.370696,-9400.615463,-459.657299
939.048623,-592.164754,-8956.491898,-229.828649
939.048947,0.000000,-9252.574275,76.609550
939.049271,148.041188,-9104.533087,383.047749
939.049596,74.020594,-9326.594869,153.219100
939.049920,-222.061783,-9178.553681,-766.095498
939.050244,74.020594,-8882.471304,842.705048
939.050568,1110.308913,-9474.636058,1762.019645
939.050892,1332.370696,-10288.862594,1072.533697
939.051216,1258.350101,-9326.594869,1302.362347
939.051541,888.247130,-8216.285956,1532.190996
939.051865,740.205942,-8660.409521,76.609550
939.052189,222.061783,-8364.327145,-459.657299
939.052513,0.000000,-7698.141797,383.047749
939.052837,74.020594,-8882.471304,-536.266849
939.053161,0.000000,-9104.533087,-689.485948
939.053486,-370.102971,-8586.388927,0.000000
939.053810,-740.205942,-9178.553681,-229.828649
939.054134,370.102971,-9548.656652,-306.438199
939.054458,1554.432478,-9400.615463,-76.609550
939.054782,888.247130,-10140.821405,-153.219100
939.055107,592.164754,-9918.759623,842.705048
939.055431,1258.350101,-10140.821405,612.876398
939.055755,962.267725,-11769.274478,766.095498
939.056079,592.164754,-11843.295072,612.876398
939.056403,518.144159,-10436.903782,0.000000
939.056727,-444.123565,-9918.759623,0.000000
939.057052,-1110.308913,-10288.862594,306.438199
939.057376,-1258.350101,-11103.089130,-153.219100
939.057700,-2146.597232,-10140.821405,-919.314598
939.058024,-2146.597232,-8660.409521,-306.438199
939.058348,-1036.288319,-9326.594869,306.438199
939.058672,0.000000,-10288.862594,0.000000
939.058997,148.041188,-9992.780217,919.314598
939.059321,444.123565,-9400.615463,1378.971896
939.059645,888.247130,-9474.636058,459.657299
939.059969,592.164754,-8882.471304,536.266849
939.060293,0.000000,-9178.553681,919.314598
939.060617,0.000000,-10066.800811,229.828649
939.060942,296.082377,-9844.739029,-689.485948
939.061266,-1184.329507,-8660.409521,-459.657299
939.061590,-1554.432478,-9030.512492,-995.924147
939.061914,-296.082377,-8512.368333,-383.047749
939.062238,1110.308913,-8438.347739,0.000000
939.062562,740.205942,-9400.615463,-306.438199
939.062887,518.144159,-9474.636058,76.609550
939.063211,518.144159,-9844.739029,229.828649
939.063535,-148.041188,-10955.047942,153.219100
939.063859,222.061783,-9992.780217,1072.533697
939.064183,0.000000,-9326.594869,1378.971896
939.064508,-1036.288319,-9918.759623,0.000000
939.064832,-1480.411884,-8734.430116,-1225.752797
939.065156,-2294.638420,-8956.491898,-1072.533697
939.065480,-2886.803174,-10510.924376,-1532.190996
939.065804,-2960.823768,-9992.780217,-1378.971896
939.066128,-2368.659014,-8068.244768,-1225.752797
939.066453,-370.102971,-7994.224174,-1149.143247
939.066777,592.164754,-9770.718434,-1072.533697
939.067101,1702.473667,-10140.821405,-1072.533697
939.067425,1110.308913,-9770.718434,-459.657299
939.067749,962.267725,-9622.677246,919.314598
939.068073,2738.761985,-10140.821405,919.314598
939.068398,2590.720797,-11103.089130,689.485948
939.068722,1702.473667,-10362.883188,76.609550
939.069046,444.123565,-9326.594869,-612.876398
939.069370,-1184.329507,-10658.965565,-1378.971896
939.069694,-1332.370696,-10881.027347,-1072.533697
939.070018,-1480.411884,-9178.553681,-995.924147
939.070343,-962.267725,-9474.636058,-842.705048
939.070667,0.000000,-9622.677246,-1072.533697
939.070991,0.000000,-9844.739029,-1302.362347
939.071315,-1036.288319,-10288.862594,-2451.505594
939.071639,0.000000,-10140.821405,-153.219100
939.071964,1258.350101,-10436.903782,153.219100
939.072288,1554.432478,-9992.780217,-612.876398
939.072612,1110.308913,-9252.574275,-306.438199
939.072936,1332.370696,-10066.800811,-612.876398
939.073260,1628.453072,-11029.068536,-1225.752797
939.073584,2072.576638,-9474.636058,-612.876398
939.073909,2590.720797,-8438.347739,0.000000
939.074233,2738.761985,-9104.533087,0.000000
939.074557,3330.926739,-10214.842000,383.047749
939.074881,3256.906145,-9844.739029,842.705048
939.075205,1702.473667,-10066.800811,0.000000
939.075529,1110.308913,-9474.636058,153.219100
939.075854,1036.288319,-8734.430116,76.609550
939.076178,1628.453072,-9326.594869,-612.876398
939.076502,1850.514855,-8512.368333,-1225.752797
939.076826,814.226536,-7402.059420,-689.485948
939.077150,-222.061783,-8364.327145,-2221.676944
939.077474,-296.082377,-7550.100608,-2068.457845
939.077799,444.123565,-7772.162391,-536.266849
939.078123,1110.308913,-9622.677246,-612.876398
939.078447,1110.308913,-9400.615463,-536.266849
939.078771,666.185348,-8808.450710,-306.438199
939.079095,0.000000,-10362.883188,-536.266849
939.079419,814.226536,-10214.842000,-1149.143247
939.079744,2072.576638,-9252.574275,-229.828649
939.080068,2516.700203,-8956.491898,-383.047749
939.080392,2664.741391,-9622.677246,-2221.676944
939.080716,1924.535449,-8808.450710,-2451.505594
939.081040,814.226536,-9474.636058,-2681.334243
939.081365,592.164754,-10436.903782,-3217.601092
939.081689,740.205942,-9622.677246,-2987.772442
939.082013,962.267725,-9622.677246,-2145.067394
939.082337,1110.308913,-10362.883188,-2604.724693
939.082661,2368.659014,-10066.800811,-3217.601092
939.082985,1406.391290,-10288.862594,-1685.410096
939.083310,1628.453072,-11843.295072,-612.876398
939.083634,3034.844362,-11473.192101,-1915.238745
939.083958,2960.823768,-8956.491898,-1608.800546
939.084282,2368.659014,-9178.553681,-995.924147
939.084606,3256.906145,-9918.759623,-2911.162892
939.084930,2368.659014,-9918.759623,-3064.381992
939.085255,888.247130,-10066.800811,-2298.286494
939.085579,666.185348,-9918.759623,-3677.258390
939.085903,518.144159,-9696.697840,-4673.182538
939.086227,0.000000,-10658.965565,-3064.381992
939.086551,1110.308913,-10881.027347,-3370.820191
939.086875,2664.741391,-11325.150913,-3524.039291
939.087200,3478.967927,-11769.274478,-1378.971896
939.087524,3552.988522,-11103.089130,-1225.752797
939.087848,4663.297435,-10140.821405,-1225.752797
939.088172,4441.235652,-9992.780217,-919.314598
939.088496,3701.029710,-10658.965565,-1072.533697
939.088820,3330.926739,-9548.656652,-2068.457845
939.089145,2294.638420,-9030.512492,-2298.286494
939.089469,1850.514855,-8808.450710,-1532.190996
939.089793,1628.453072,-9030.512492,-2451.505594
939.090117,962.267725,-8364.327145,-2987.772442
939.090441,-814.226536,-7994.224174,-3140.991542
939.090766,-1258.350101,-9030.512492,-3294.210641
939.091090,0.000000,-9326.594869,-3294.210641
939.091414,1036.288319,-8216.285956,-2451.505594
939.091738,1776.494261,-7772.162391,-1149.143247
939.092062,3182.885551,-8734.430116,-1302.362347
939.092386,5329.482782,-8882.471304,-1149.143247
939.092711,5033.400406,-7920.203579,-1072.533697
939.093035,3552.988522,-8438.347739,-766.095498
939.093359,2886.803174,-9474.636058,-1532.190996
939.093683,3701.029710,-9178.553681,-1149.143247
939.094007,2886.803174,-8734.430116,-1838.629195
939.094331,2072.576638,-9622.677246,-1838.629195
939.094656,1850.514855,-10140.821405,-2451.505594
939.094980,2368.659014,-9622.677246,-2451.505594
939.095304,2590.720797,-9400.615463,-2451.505594
939.095628,2368.659014,-9400.615463,-2681.334243
939.095952,1258.350101,-9918.759623,-2145.067394
939.096276,518.144159,-10214.842000,-1532.190996
939.096601,1480.411884,-9474.636058,-2298.286494
939.096925,1924.535449,-9252.574275,-2221.676944
939.097249,2220.617826,-9770.718434,-1915.238745
939.097573,1628.453072,-10436.903782,-1762.019645
939.097897,2368.659014,-9992.780217,-1685.410096
939.098222,3256.906145,-9918.759623,-2068.457845
939.098546,2960.823768,-10807.006753,-2451.505594
939.098870,1628.453072,-11029.068536,-2757.943793
939.099194,518.144159,-10658.965565,-3217.601092
939.099518,-592.164754,-10288.862594,-3370.820191
939.099842,444.123565,-10362.883188,-3294.210641
939.100167,1628.453072,-10214.842000,-3370.820191
939.100491,2368.659014,-10510.924376,-3140.991542
939.100815,2886.803174,-10732.986159,-2604.724693
939.101139,3108.864956,-9992.780217,-1838.629195
939.101463,3108.864956,-10436.903782,-1838.629195
939.101787,3108.864956,-10214.842000,-1532.190996
939.102112,3923.091493,-10288.862594,-995.924147
939.102436,4293.194464,-10362.883188,-919.314598
939.102760,3404.947333,-10955.047942,-1225.752797
939.103084,518.144159,-11029.068536,-1915.238745
939.103408,-1258.350101,-10436.903782,-2221.676944
939.103732,-518.144159,-9178.553681,-2451.505594
939.104057,444.123565,-8438.347739,-1608.800546
939.104381,1702.473667,-9104.533087,-766.095498
939.104705,444.123565,-9696.697840,-1762.019645
939.105029,0.000000,-9548.656652,-1991.848295
939.105353,0.000000,-8068.244768,-1302.362347
939.105677,1702.473667,-7402.059420,-842.705048
939.106002,3404.947333,-7846.182985,-612.876398
939.106326,3552.988522,-7846.182985,-766.095498
939.106650,3701.029710,-9030.512492,-1378.971896
939.106974,3256.906145,-9252.574275,-1225.752797
939.107298,2516.700203,-9770.718434,-1532.190996
939.107623,1702.473667,-9474.636058,-842.705048
939.107947,518.144159,-8808.450710,-1608.800546
939.108271,296.082377,-8660.409521,-1685.410096
939.108595,1258.350101,-8438.347739,-1532.190996
939.108919,2590.720797,-8808.450710,-919.314598
939.109243,3775.050304,-9474.636058,-306.438199
939.109568,3330.926739,-9252.574275,-536.266849
939.109892,2368.659014,-9252.574275,-459.657299
939.110216,444.123565,-8364.327145,-1455.581446
939.110540,-740.205942,-8956.491898,-2528.115143
939.110864,-888.247130,-9770.718434,-3600.648841
939.111188,0.000000,-9622.677246,-3907.087040
939.111513,1702.473667,-9918.759623,-3217.601092
939.111837,3997.112087,-10584.944971,-3064.381992
939.112161,4737.318029,-10510.924376,-3370.820191
939.112485,4515.256246,-10584.944971,-3294.210641
939.112809,3034.844362,-10362.883188,-3600.648841
939.113133,2368.659014,-11251.130318,-3370.820191
939.113458,2590.720797,-11621.233289,-2681.334243
939.113782,3108.864956,-12065.356855,-1685.410096
939.114106,3627.009116,-11991.336260,-1455.581446
939.114430,3923.091493,-11399.171507,-995.924147
939.114754,3923.091493,-10807.006753,-842.705048
939.115079,3182.885551,-10288.862594,-919.314598
939.115403,2738.761985,-10288.862594,-1378.971896
939.115727,1924.535449,-9918.759623,-2221.676944
939.116051,666.185348,-9548.656652,-3294.210641
939.116375,-518.144159,-9474.636058,-4673.182538
939.116699,-1332.370696,-9474.636058,-5898.935335
939.117024,-1998.556043,-9326.594869,-6358.592633
939.117348,-1258.350101,-8364.327145,-5975.544884
939.117672,666.185348,-8586.388927,-4903.011187
939.117996,2886.803174,-9030.512492,-3600.648841
939.118320,4959.379811,-9918.759623,-1838.629195
939.118644,6143.709319,-10510.924376,-459.657299
939.118969,6365.771101,-10362.883188,306.438199
939.119293,5847.626942,-10732.986159,1225.752797
939.119617,4441.235652,-10214.842000,1302.362347
939.119941,3330.926739,-10658.965565,1225.752797
939.120265,2294.638420,-10214.842000,-229.828649
939.120589,888.247130,-9548.656652,-1455.581446
939.120914,-296.082377,-8882.471304,-2911.162892
939.121238,-1924.535449,-8364.327145,-5056.230287
939.121562,-3330.926739,-7846.182985,-6281.983084
939.121886,-3849.070898,-7698.141797,-6358.592633
939.122210,-2960.823768,-7031.956449,-5975.544884
939.122534,-296.082377,-6883.915261,-4519.963438
939.122859,2294.638420,-7698.141797,-2451.505594
939.123183,5551.544565,-9030.512492,0.000000
939.123507,7920.203579,-10066.800811,1225.752797
939.123831,8660.409521,-10807.006753,2451.505594
939.124155,7402.059420,-11399.171507,1915.238745
939.124480,5995.668130,-11547.212695,766.095498
939.124804,4663.297435,-12287.418637,383.047749
939.125128,2516.700203,-12435.459826,-1072.533697
939.125452,148.041188,-11917.315666,-2528.115143
939.125776,-2886.803174,-10436.903782,-5209.449386
939.126100,-5107.421000,-8734.430116,-6435.202183
939.126425,-5921.647536,-7994.224174,-5669.106685
939.126749,-4293.194464,-9178.553681,-4290.134789
939.127073,-2590.720797,-9178.553681,-2298.286494
939.127397,-666.185348,-8290.306550,-459.657299
939.127721,1554.432478,-8142.265362,0.000000
939.128045,3256.906145,-9844.739029,1225.752797
939.128370,4293.194464,-11621.233289,1532.190996
939.128694,5033.400406,-12731.542202,1991.848295
939.129018,4145.153275,-11621.233289,1608.800546
939.129342,3478.967927,-9696.697840,-536.266849
939.129666,1998.556043,-10140.821405,-1991.848295
939.129990,296.082377,-12139.377449,-2221.676944
939.130315,740.205942,-12287.418637,-3217.601092
939.130639,1036.288319,-11177.109724,-2528.115143
939.130963,1036.288319,-9030.512492,-1378.971896
939.131287,1776.494261,-7402.059420,-1302.362347
939.131611,2368.659014,-6513.812290,-995.924147
939.131936,3701.029710,-6069.688724,-536.266849
939.132260,4737.318029,-6587.832884,-153.219100
939.132584,5995.668130,-7772.162391,153.219100
939.132908,6069.688724,-7994.224174,1149.143247
939.133232,5329.482782,-8068.244768,1072.533697
939.133556,4959.379811,-8438.347739,306.438199
939.133881,2516.700203,-9400.615463,-2374.896044
939.134205,518.144159,-9844.739029,-3830.477490
939.134529,1258.350101,-9548.656652,-3983.696590
939.134853,2664.741391,-9474.636058,-3753.867940
939.135177,3701.029710,-9474.636058,-2834.553343
939.135501,3627.009116,-9104.533087,-2451.505594
939.135826,3552.988522,-8290.306550,-2987.772442
939.136150,3108.864956,-7846.182985,-2528.115143
939.136474,2812.782580,-8438.347739,-3064.381992
939.136798,2960.823768,-8734.430116,-1762.019645
939.137122,3627.009116,-9770.718434,-1991.848295
939.137446,4367.215058,-10362.883188,-1838.629195
939.137771,3849.070898,-10807.006753,-2068.457845
939.138095,2812.782580,-11325.150913,-2987.772442
939.138419,1702.473667,-11029.068536,-4136.915689
939.138743,888.247130,-10807.006753,-4826.401637
939.139067,222.061783,-10510.924376,-5745.716235
939.139391,-296.082377,-10658.965565,-6511.811733
939.139716,-1406.391290,-10584.944971,-6818.249932
939.140040,-2368.659014,-10881.027347,-6665.030833
939.140364,-2294.638420,-11177.109724,-6281.983084
939.140688,-1480.411884,-11029.068536,-5056.230287
939.141012,1258.350101,-10881.027347,-3983.696590
939.141337,4441.235652,-11325.150913,-2145.067394
939.141661,6439.791695,-11695.253884,-2374.896044
939.141985,6661.853478,-12139.377449,-1455.581446
939.142309,5995.668130,-12731.542202,-1608.800546
939.142633,4959.379811,-12953.603985,-1991.848295
939.142958,2664.741391,-11695.253884,-2528.115143
939.143282,-444.123565,-11029.068536,-4673.182538
939.143606,-2738.761985,-10658.965565,-6128.763984
939.143930,-4145.153275,-10214.842000,-6511.811733
939.144254,-2960.823768,-9104.533087,-6281.983084
939.144579,-888.247130,-8216.285956,-5822.325785
939.144903,1110.308913,-8068.244768,-4443.353888
939.145227,1776.494261,-8216.285956,-3370.820191
939.145551,2516.700203,-8808.450710,-2528.115143
939.145875,2664.741391,-8438.347739,-1532.190996
939.146199,3478.967927,-9252.574275,-153.219100
939.146524,4737.318029,-9548.656652,766.095498
939.146848,6957.935855,-9474.636058,1149.143247
939.147172,7846.182985,-9770.718434,1225.752797
939.147496,6661.853478,-10066.800811,995.924147
939.147820,3256.906145,-9992.780217,-536.266849
939.148145,-370.102971,-8956.491898,-2068.457845
939.148469,-2442.679609,-7254.018232,-2451.505594
939.148793,-2368.659014,-6587.832884,-3064.381992
939.149117,-1184.329507,-6809.894666,-3140.991542
939.149441,-592.164754,-7105.977043,-2528.115143
939.149766,0.000000,-7328.038826,-2221.676944
939.150090,296.082377,-7105.977043,-1149.143247
939.150414,1554.432478,-7254.018232,153.219100
939.150738,3256.906145,-7476.080014,1532.190996
939.151062,5329.482782,-8068.244768,1302.362347
939.151387,6439.791695,-9326.594869,1685.410096
939.151711,6217.729913,-11103.089130,1685.410096
939.152035,5477.523971,-12139.377449,919.314598
939.152359,4145.153275,-10955.047942,536.266849
939.152683,3552.988522,-9622.677246,0.000000
939.153008,2442.679609,-9326.594869,-1762.019645
939.153332,666.185348,-10066.800811,-3217.601092
939.153656,-1184.329507,-10584.944971,-4749.792088
939.153980,-2220.617826,-10288.862594,-4749.792088
939.154304,-814.226536,-10288.862594,-3753.867940
939.154629,1998.556043,-10066.800811,-2068.457845
939.154953,3775.050304,-9992.780217,-1302.362347
939.155277,4367.215058,-10510.924376,-1225.752797
939.155601,3849.070898,-11547.212695,-1302.362347
939.155925,4367.215058,-12065.356855,-1149.143247
939.156250,4959.379811,-12805.562797,306.438199
939.156574,4885.359217,-13101.645173,383.047749
939.156898,3108.864956,-12731.542202,76.609550
939.157222,888.247130,-11547.212695,-1378.971896
939.157546,-666.185348,-11547.212695,-2757.943793
939.157871,-1258.350101,-10436.903782,-4366.744339
939.158195,-1184.329507,-9030.512492,-4519.963438
939.158519,-1036.288319,-8364.327145,-3907.087040
939.158843,148.041188,-7920.203579,-3983.696590
939.159167,1184.329507,-8142.265362,-3907.087040
939.159492,1258.350101,-8734.430116,-3830.477490
939.159816,2220.617826,-8808.450710,-3140.991542
939.160140,3034.844362,-9178.553681,-2145.067394
939.160464,3923.091493,-9696.697840,-1225.752797
939.160788,4885.359217,-9844.739029,-1149.143247
939.161113,4959.379811,-10214.842000,-766.095498
939.161437,4663.297435,-10881.027347,-842.705048
939.161761,4441.235652,-10807.006753,0.000000
939.162085,3552.988522,-9770.718434,153.219100
939.162409,1110.308913,-8734.430116,-995.924147
939.162733,-2072.576638,-8438.347739,-2145.067394
939.163058,-2220.617826,-7920.203579,-2757.943793
939.163382,-1554.432478,-7328.038826,-2911.162892
939.163706,-1184.329507,-6439.791695,-3524.039291
939.164030,-1480.411884,-6143.709319,-3140.991542
939.164354,-444.123565,-7402.059420,-2298.286494
939.164679,1702.473667,-8142.265362,-2451.505594
939.165003,3108.864956,-7550.100608,-2528.115143
939.165327,2664.741391,-8216.285956,-2451.505594
939.165651,2368.659014,-10140.821405,-3217.601092
939.165975,3404.947333,-10658.965565,-2681.334243
939.166300,5255.462188,-9770.718434,-1991.848295
939.166624,6217.729913,-10214.842000,-995.924147
939.166948,5625.565159,-11843.295072,-2681.334243
939.167272,3849.070898,-11251.130318,-2604.724693
939.167596,2072.576638,-10510.924376,-2604.724693
939.167921,222.061783,-10584.944971,-3217.601092
939.168245,814.226536,-10732.986159,-2757.943793
939.168569,2072.576638,-10807.006753,-1378.971896
939.168893,3108.864956,-10214.842000,-2221.676944
939.169217,2960.823768,-10214.842000,-3064.381992
939.169542,1776.494261,-10436.903782,-2834.553343
939.169866,1332.370696,-10362.883188,-3064.381992
939.170190,370.102971,-10584.944971,-3907.087040
939.170514,-148.041188,-10807.006753,-4673.182538
939.170838,74.020594,-10510.924376,-4060.306139
939.171163,666.185348,-10732.986159,-5056.230287
939.171487,1258.350101,-11843.295072,-5209.449386
939.171811,814.226536,-11769.274478,-3294.210641
939.172135,592.164754,-11695.253884,-2374.896044
939.172459,666.185348,-10288.862594,-2221.676944
939.172784,888.247130,-9548.656652,-1149.143247
939.173108,1924.535449,-10584.944971,0.000000
939.173432,4441.235652,-10881.027347,-229.828649
939.173756,4959.379811,-10584.944971,1302.362347
939.174080,4219.173869,-9548.656652,1762.019645
939.174405,3330.926739,-9104.533087,459.657299
939.174729,2368.659014,-8734.430116,-1149.143247
939.175053,370.102971,-8438.347739,-1302.362347
939.175377,-814.226536,-8586.388927,-3064.381992
939.175701,-1702.473667,-7920.203579,-4136.915689
939.176026,-2442.679609,-8142.265362,-3447.429741
939.176350,-3923.091493,-9104.533087,-3677.258390
939.176674,-4515.256246,-8512.368333,-4136.915689
939.176998,-3775.050304,-6957.935855,-1915.238745
939.177322,-1998.556043,-8734.430116,-919.314598
939.177647,592.164754,-9474.636058,0.000000
939.177971,2738.761985,-8586.388927,2604.724693
939.178295,3627.009116,-11177.109724,4749.792088
939.178619,3701.029710,-12731.542202,2987.772442
939.178943,3701.029710,-11399.171507,4290.134789
939.179267,2590.720797,-12583.501014,6511.811733
939.179592,2590.720797,-13323.706956,3677.258390
939.179916,1480.411884,-9992.780217,2528.115143
939.180240,-1184.329507,-6069.688724,2681.334243
939.180564,-2516.700203,-3923.091493,-5362.668486
939.180888,-5921.647536,-6217.729913,-4213.525239
939.181213,-6439.791695,-8290.306550,-2145.067394
939.181537,-2368.659014,-9030.512492,-3524.039291
939.181861,-2960.823768,-8290.306550,-919.314598
939.182185,-3256.906145,-7254.018232,1455.581446
939.182509,-592.164754,-8882.471304,1532.190996
939.182834,3404.947333,-11399.171507,1378.971896
939.183158,4367.215058,-10362.883188,3830.477490
939.183482,4367.215058,-10955.047942,5669.106685
939.183806,4515.256246,-12065.356855,3677.258390
939.184130,1628.453072,-12287.418637,5975.544884
939.184455,222.061783,-11843.295072,4366.744339
939.184779,0.000000,-8364.327145,1762.019645
939.185103,-3034.844362,-6587.832884,-2451.505594
939.185427,-5403.503377,-9326.594869,-3600.648841
939.185751,-4663.297435,-9326.594869,-3294.210641
939.186076,-1702.473667,-9400.615463,-2987.772442
939.186400,-3034.844362,-9770.718434,-2451.505594
939.186724,-4071.132681,-8808.450710,-842.705048
939.187048,-740.205942,-9252.574275,-1149.143247
939.187372,1184.329507,-11177.109724,-995.924147
939.187697,1554.432478,-10955.047942,-306.438199
939.188021,2146.597232,-10510.924376,2528.115143
939.188345,4737.318029,-12657.521608,2451.505594
939.188669,5403.503377,-12509.480420,2911.162892
939.188993,5033.400406,-9326.594869,3294.210641
939.189318,3552.988522,-9104.533087,1762.019645
939.189642,1554.432478,-10214.842000,-1072.533697
