#time,accel_x,accel_y,accel_z
549.839434,0.000000,-9622.677246,0.000000
549.839759,0.000000,-9474.636058,0.000000
549.840083,0.000000,-9474.636058,0.000000
549.840407,-296.082377,-9474.636058,-459.657299
549.840731,0.000000,-9548.656652,-383.047749
549.841055,0.000000,-9548.656652,0.000000
549.841379,-148.041188,-9844.739029,0.000000
549.841703,-296.082377,-9622.677246,0.000000
549.842027,-518.144159,-9770.718434,-229.828649
549.842351,-1110.308913,-9548.656652,-229.828649
549.842675,-592.164754,-9474.636058,0.000000
549.843000,-148.041188,-9548.656652,-153.219100
549.843324,-148.041188,-9696.697840,153.219100
549.843648,0.000000,-9770.718434,-153.219100
549.843972,0.000000,-9844.739029,0.000000
549.844296,0.000000,-9770.718434,0.000000
549.844620,0.000000,-9548.656652,229.828649
549.844944,74.020594,-9844.739029,0.000000
549.845268,74.020594,-9548.656652,-153.219100
549.845592,-296.082377,-9474.636058,0.000000
549.845916,-222.061783,-9622.677246,-383.047749
549.846241,0.000000,-9770.718434,-229.828649
549.846565,296.082377,-9622.677246,-306.438199
549.846889,740.205942,-9770.718434,153.219100
549.847213,962.267725,-10214.842000,153.219100
549.847537,148.041188,-9622.677246,459.657299
549.847861,0.000000,-10362.883188,-306.438199
549.848185,-888.247130,-9548.656652,-459.657299
549.848509,-814.226536,-9252.574275,0.000000
549.848833,0.000000,-9474.636058,612.876398
549.849158,814.226536,-10066.800811,842.705048
549.849482,1776.494261,-9844.739029,1149.143247
549.849806,1628.453072,-9178.553681,689.485948
549.850130,1332.370696,-9548.656652,0.000000
549.850454,1110.308913,-9770.718434,0.000000
549.850778,444.123565,-9770.718434,-383.047749
549.851102,-296.082377,-10140.821405,-383.047749
549.851426,-888.247130,-10066.800811,-229.828649
549.851750,-962.267725,-10140.821405,0.000000
549.852074,74.020594,-9844.739029,536.266849
549.852399,1258.350101,-9400.615463,689.485948
549.852723,1850.514855,-9622.677246,306.438199
549.853047,2812.782580,-9770.718434,1838.629195
549.853371,2886.803174,-9844.739029,1608.800546
549.853695,2738.761985,-9844.739029,1378.971896
549.854019,2072.576638,-9474.636058,689.485948
549.854343,1258.350101,-9400.615463,76.609550
549.854667,370.102971,-9400.615463,0.000000
549.854991,-222.061783,-9770.718434,-153.219100
549.855315,-1036.288319,-9622.677246,0.000000
549.855640,0.000000,-9770.718434,0.000000
549.855964,1036.288319,-9622.677246,689.485948
549.856288,2590.720797,-9844.739029,1685.410096
549.856612,3997.112087,-9326.594869,2298.286494
549.856936,4737.318029,-9474.636058,2911.162892
549.857260,4959.379811,-9992.780217,2834.553343
549.857584,4219.173869,-10362.883188,2681.334243
549.857908,3478.967927,-10140.821405,2145.067394
549.858232,2664.741391,-9992.780217,1608.800546
549.858556,1332.370696,-10510.924376,1302.362347
549.858881,222.061783,-10807.006753,612.876398
549.859205,74.020594,-10362.883188,766.095498
549.859529,814.226536,-10066.800811,1762.019645
549.859853,2516.700203,-9548.656652,1991.848295
549.860177,4367.215058,-9844.739029,3217.601092
549.860501,4737.318029,-9326.594869,4673.182538
549.860825,4663.297435,-9992.780217,4826.401637
549.861149,4145.153275,-10066.800811,4903.011187
549.861473,2664.741391,-9844.739029,4443.353888
549.861797,888.247130,-9326.594869,3753.867940
549.862122,-740.205942,-8808.450710,2681.334243
549.862446,-1480.411884,-8956.491898,1838.629195
549.862770,-1850.514855,-8364.327145,1762.019645
549.863094,-962.267725,-7550.100608,1838.629195
549.863418,0.000000,-6735.874072,2374.896044
549.863742,888.247130,-6365.771101,2221.676944
549.864066,2442.679609,-6217.729913,2911.162892
549.864390,3627.009116,-6661.853478,3524.039291
549.864714,4441.235652,-8216.285956,3830.477490
549.865038,5107.421000,-9696.697840,4519.963438
549.865363,5255.462188,-10510.924376,4749.792088
549.865687,4589.276840,-11547.212695,4213.525239
549.866011,2368.659014,-12805.562797,3677.258390
549.866335,0.000000,-12509.480420,2451.505594
549.866659,-1702.473667,-12435.459826,1532.190996
549.866983,-2072.576638,-11029.068536,995.924147
549.867307,-592.164754,-9696.697840,1149.143247
549.867631,1702.473667,-8512.368333,1991.848295
549.867955,3775.050304,-7402.059420,1225.752797
549.868279,4663.297435,-6883.915261,919.314598
549.868604,4811.338623,-7254.018232,1608.800546
549.868928,4515.256246,-8364.327145,1991.848295
549.869252,3552.988522,-10436.903782,2451.505594
549.869576,1998.556043,-11917.315666,2604.724693
549.869900,222.061783,-12361.439231,2451.505594
549.870224,-666.185348,-11473.192101,1991.848295
549.870548,-814.226536,-11547.212695,1532.190996
549.870872,296.082377,-11251.130318,689.485948
549.871196,1480.411884,-9918.759623,766.095498
549.871520,2368.659014,-9326.594869,766.095498
549.871845,3108.864956,-8882.471304,766.095498
549.872169,2886.803174,-8512.368333,689.485948
549.872493,2220.617826,-8364.327145,0.000000
549.872817,1406.391290,-8660.409521,-459.657299
549.873141,1998.556043,-8586.388927,-306.438199
549.873465,3627.009116,-9918.759623,842.705048
549.873789,5625.565159,-11695.253884,1915.238745
549.874113,6365.771101,-12435.459826,2451.505594
549.874437,4885.359217,-12657.521608,2145.067394
549.874761,2146.597232,-12139.377449,1378.971896
549.875086,-666.185348,-11473.192101,459.657299
549.875410,-2220.617826,-10807.006753,689.485948
549.875734,-1924.535449,-9030.512492,1072.533697
549.876058,0.000000,-7920.203579,1149.143247
549.876382,1258.350101,-7105.977043,1072.533697
549.876706,1554.432478,-6957.935855,306.438199
549.877030,888.247130,-6439.791695,-229.828649
549.877354,740.205942,-5551.544565,-536.266849
549.877678,1628.453072,-5995.668130,0.000000
549.878003,3256.906145,-7920.203579,1225.752797
549.878327,4071.132681,-9992.780217,2451.505594
549.878651,4737.318029,-11177.109724,2604.724693
549.878975,3404.947333,-11251.130318,2145.067394
549.879299,1480.411884,-10362.883188,1455.581446
549.879623,666.185348,-10510.924376,1608.800546
549.879947,1702.473667,-11473.192101,1532.190996
549.880271,2368.659014,-11917.315666,2451.505594
549.880595,1184.329507,-11621.233289,2374.896044
549.880919,444.123565,-10362.883188,1685.410096
549.881244,1184.329507,-8586.388927,1072.533697
549.881568,2960.823768,-7846.182985,842.705048
549.881892,3775.050304,-8438.347739,766.095498
549.882216,2886.803174,-9844.739029,842.705048
549.882540,1110.308913,-10214.842000,1072.533697
549.882864,-666.185348,-9844.739029,459.657299
549.883188,-148.041188,-9844.739029,2068.457845
549.883512,2442.679609,-11399.171507,2834.553343
549.883836,3923.091493,-11843.295072,3140.991542
549.884160,4145.153275,-11103.089130,3447.429741
549.884485,4071.132681,-10214.842000,3600.648841
549.884809,4441.235652,-10584.944971,3907.087040
549.885133,3627.009116,-11029.068536,4136.915689
549.885457,2368.659014,-9992.780217,3677.258390
549.885781,740.205942,-8586.388927,2451.505594
549.886105,0.000000,-8216.285956,1149.143247
549.886429,814.226536,-8660.409521,1225.752797
549.886753,2220.617826,-9474.636058,1915.238745
549.887077,2664.741391,-8586.388927,2451.505594
549.887401,2516.700203,-7476.080014,1838.629195
549.887726,2886.803174,-8142.265362,2604.724693
549.888050,2812.782580,-9400.615463,3677.258390
549.888374,3108.864956,-10807.006753,3753.867940
549.888698,2738.761985,-10584.944971,3983.696590
549.889022,2590.720797,-9622.677246,4749.792088
549.889346,3182.885551,-10140.821405,4903.011187
549.889670,3775.050304,-10288.862594,4673.182538
549.889994,3701.029710,-10214.842000,4596.572988
549.890318,2590.720797,-9844.739029,3447.429741
549.890642,1332.370696,-9104.533087,2834.553343
549.890967,-962.267725,-8438.347739,1685.410096
549.891291,-1998.556043,-8808.450710,1532.190996
549.891615,-1110.308913,-8808.450710,1838.629195
549.891939,962.267725,-7698.141797,1225.752797
549.892263,1998.556043,-6587.832884,1225.752797
549.892587,2368.659014,-7772.162391,2068.457845
549.892911,3923.091493,-8586.388927,3140.991542
549.893235,4737.318029,-8512.368333,3600.648841
549.893559,4219.173869,-8586.388927,4443.353888
549.893883,3404.947333,-9474.636058,4826.401637
549.894208,3627.009116,-11325.150913,4749.792088
549.894532,4071.132681,-10362.883188,3830.477490
549.894856,3256.906145,-7772.162391,2068.457845
549.895180,666.185348,-8808.450710,1532.190996
549.895504,-2220.617826,-10732.986159,689.485948
549.895828,-3330.926739,-10214.842000,-766.095498
549.896152,-4811.338623,-8068.244768,-1302.362347
549.896476,-5477.523971,-7698.141797,-1608.800546
549.896800,-3108.864956,-8882.471304,-1455.581446
549.897124,814.226536,-8882.471304,-1532.190996
549.897449,4367.215058,-8512.368333,153.219100
549.897773,6661.853478,-10288.862594,1455.581446
549.898097,6587.832884,-11843.295072,2145.067394
549.898421,4737.318029,-11991.336260,1991.848295
549.898745,2220.617826,-11029.068536,2068.457845
549.899069,1036.288319,-10732.986159,1149.143247
549.899393,0.000000,-13101.645173,229.828649
549.899717,-1258.350101,-13915.871710,-689.485948
549.900041,-2146.597232,-11325.150913,-1072.533697
549.900365,-2664.741391,-9992.780217,-1915.238745
549.900689,-3997.112087,-10510.924376,-3064.381992
549.901013,-4145.153275,-9992.780217,-3447.429741
549.901337,-2812.782580,-7846.182985,-3064.381992
549.901661,-148.041188,-7105.977043,-3294.210641
549.901985,518.144159,-9400.615463,-3140.991542
549.902309,1998.556043,-10584.944971,-1532.190996
549.902632,3330.926739,-9622.677246,459.657299
549.902956,4145.153275,-10288.862594,0.000000
549.903280,3108.864956,-9622.677246,306.438199
549.903604,2072.576638,-9030.512492,0.000000
549.903928,370.102971,-11177.109724,229.828649
549.904252,-518.144159,-13323.706956,766.095498
549.904576,-666.185348,-11843.295072,612.876398
549.904900,-1924.535449,-10362.883188,0.000000
549.905224,-3330.926739,-10066.800811,-1532.190996
549.905548,-2590.720797,-8956.491898,-2911.162892
549.905872,-666.185348,-6957.935855,-3294.210641
549.906196,-814.226536,-7550.100608,-2604.724693
549.906520,-1554.432478,-9030.512492,-3064.381992
549.906844,-1036.288319,-8142.265362,-3294.210641
549.907168,0.000000,-7254.018232,-1378.971896
549.907492,2072.576638,-8438.347739,-229.828649
549.907816,3701.029710,-8364.327145,0.000000
549.908140,5033.400406,-8142.265362,1149.143247
549.908464,4737.318029,-9400.615463,2757.943793
549.908787,2960.823768,-11029.068536,2374.896044
549.909111,814.226536,-11547.212695,2068.457845
549.909435,-3330.926739,-11843.295072,842.705048
549.909759,-6735.874072,-11843.295072,-536.266849
549.910083,-6291.750507,-9992.780217,-2451.505594
549.910407,-4515.256246,-8142.265362,-2528.115143
549.910731,-1258.350101,-9252.574275,-1762.019645
549.911055,592.164754,-8808.450710,-1532.190996
549.911379,1850.514855,-8882.471304,-1915.238745
549.911703,1850.514855,-8660.409521,-1149.143247
549.912027,2368.659014,-8586.388927,-612.876398
549.912351,3552.988522,-8808.450710,0.000000
549.912675,3404.947333,-10732.986159,1762.019645
549.912999,3034.844362,-11843.295072,2451.505594
549.913323,2368.659014,-11769.274478,2681.334243
549.913647,74.020594,-12213.398043,3217.601092
549.913971,-2294.638420,-12435.459826,2451.505594
549.914295,-3404.947333,-10807.006753,1378.971896
549.914618,-3923.091493,-9178.553681,919.314598
549.914942,-4071.132681,-9178.553681,306.438199
549.915266,-3923.091493,-9252.574275,-842.705048
549.915590,-2516.700203,-7476.080014,-995.924147
549.915914,-1332.370696,-6809.894666,-459.657299
549.916238,666.185348,-7624.121203,0.000000
549.916562,2220.617826,-8364.327145,383.047749
549.916886,2220.617826,-9178.553681,1378.971896
549.917210,1850.514855,-9622.677246,1915.238745
549.917534,1554.432478,-10510.924376,2068.457845
549.917858,888.247130,-10881.027347,1608.800546
549.918182,222.061783,-11325.150913,2681.334243
549.918506,-74.020594,-10955.047942,2911.162892
549.918830,592.164754,-11399.171507,2298.286494
549.919154,74.020594,-10658.965565,1608.800546
549.919478,-666.185348,-8882.471304,1225.752797
549.919802,-370.102971,-7994.224174,842.705048
549.920126,-444.123565,-7846.182985,0.000000
549.920450,1258.350101,-7698.141797,-612.876398
549.920773,2590.720797,-7846.182985,-153.219100
549.921097,2738.761985,-10066.800811,153.219100
549.921421,2368.659014,-11769.274478,766.095498
549.921745,1332.370696,-10584.944971,383.047749
549.922069,-296.082377,-10140.821405,919.314598
549.922393,-2368.659014,-11473.192101,612.876398
549.922717,-1332.370696,-10362.883188,383.047749
549.923041,-962.267725,-10140.821405,229.828649
549.923365,-1184.329507,-10955.047942,1225.752797
549.923689,-1184.329507,-9770.718434,689.485948
549.924013,-1036.288319,-8216.285956,995.924147
549.924337,-814.226536,-7476.080014,306.438199
549.924661,370.102971,-6809.894666,-459.657299
549.924985,1702.473667,-6513.812290,-306.438199
549.925309,1924.535449,-7846.182985,-1302.362347
549.925633,888.247130,-8956.491898,-1072.533697
549.925957,0.000000,-8956.491898,-919.314598
549.926281,-740.205942,-9474.636058,-919.314598
549.926604,-1628.453072,-10658.965565,-536.266849
549.926928,-1258.350101,-9622.677246,-1149.143247
549.927252,-518.144159,-8882.471304,-919.314598
549.927576,-1036.288319,-10288.862594,-459.657299
549.927900,-1702.473667,-10288.862594,-229.828649
549.928224,-1480.411884,-9992.780217,76.609550
549.928548,-666.185348,-9992.780217,306.438199
549.928872,740.205942,-8660.409521,-229.828649
549.929196,2812.782580,-7846.182985,-383.047749
549.929520,3775.050304,-9104.533087,-306.438199
549.929844,3404.947333,-10732.986159,-1149.143247
549.930168,1480.411884,-11251.130318,-2068.457845
549.930492,-962.267725,-12361.439231,-2221.676944
549.930816,-2738.761985,-12731.542202,-3064.381992
549.931140,-2516.700203,-12583.501014,-3140.991542
549.931464,-1702.473667,-11843.295072,-2757.943793
549.931788,-1998.556043,-11621.233289,-2068.457845
549.932112,-2146.597232,-11399.171507,-2451.505594
549.932436,-1480.411884,-10436.903782,-1685.410096
549.932759,-814.226536,-9918.759623,-459.657299
549.933083,592.164754,-8734.430116,-383.047749
549.933407,2664.741391,-8068.244768,-153.219100
549.933731,3034.844362,-9252.574275,689.485948
549.934055,2812.782580,-9400.615463,689.485948
549.934379,2220.617826,-9178.553681,76.609550
549.934703,0.000000,-9992.780217,-153.219100
549.935027,-2294.638420,-11399.171507,-995.924147
549.935351,-2664.741391,-10584.944971,-1762.019645
549.935675,-2664.741391,-9844.739029,-1532.190996
549.935999,-3330.926739,-10510.924376,-689.485948
549.936323,-3182.885551,-10510.924376,-536.266849
549.936647,-2812.782580,-9030.512492,229.828649
549.936971,-2368.659014,-8512.368333,1302.362347
549.937295,-1332.370696,-7254.018232,1149.143247
549.937619,814.226536,-5921.647536,919.314598
549.937943,1702.473667,-6661.853478,1608.800546
549.938267,1702.473667,-7105.977043,1762.019645
549.938590,1924.535449,-7550.100608,1225.752797
549.938914,1110.308913,-8586.388927,1838.629195
549.939238,888.247130,-9770.718434,2298.286494
549.939562,1332.370696,-9696.697840,1762.019645
549.939886,1036.288319,-9770.718434,842.705048
549.940210,-592.164754,-10066.800811,842.705048
549.940534,-2072.576638,-10362.883188,306.438199
549.940858,-1628.453072,-9548.656652,229.828649
549.941182,-1702.473667,-10288.862594,919.314598
549.941506,-222.061783,-10214.842000,842.705048
549.941830,1406.391290,-8512.368333,766.095498
549.942154,1850.514855,-9400.615463,612.876398
549.942478,1036.288319,-9844.739029,766.095498
549.942802,962.267725,-9992.780217,-306.438199
549.943126,0.000000,-10436.903782,229.828649
549.943450,-962.267725,-11547.212695,1072.533697
549.943774,-222.061783,-11473.192101,229.828649
549.944098,370.102971,-11103.089130,689.485948
549.944422,0.000000,-12213.398043,76.609550
549.944745,-518.144159,-11917.315666,-306.438199
549.945069,-444.123565,-10066.800811,-612.876398
549.945393,-814.226536,-10362.883188,459.657299
549.945717,296.082377,-10584.944971,1225.752797
549.946041,2368.659014,-9400.615463,1149.143247
549.946365,2442.679609,-8438.347739,1915.238745
549.946689,1554.432478,-7772.162391,766.095498
549.947013,444.123565,-7105.977043,-1685.410096
549.947337,-888.247130,-7846.182985,-1608.800546
549.947661,-962.267725,-8956.491898,-459.657299
549.947985,148.041188,-9030.512492,229.828649
549.948309,1036.288319,-9474.636058,689.485948
549.948633,74.020594,-10140.821405,842.705048
549.948957,-518.144159,-9696.697840,0.000000
549.949281,-1036.288319,-8956.491898,-1072.533697
549.949605,-1184.329507,-9474.636058,0.000000
549.949929,-296.082377,-9474.636058,306.438199
549.950253,1998.556043,-9104.533087,1302.362347
549.950576,2960.823768,-9400.615463,1455.581446
549.950900,1924.535449,-9326.594869,842.705048
549.951224,296.082377,-8734.430116,-995.924147
549.951548,-1184.329507,-9104.533087,-1455.581446
549.951872,-1110.308913,-10658.965565,-995.924147
549.952196,222.061783,-10658.965565,0.000000
549.952520,1480.411884,-9992.780217,76.609550
549.952844,666.185348,-10436.903782,-153.219100
549.953168,296.082377,-10436.903782,-612.876398
549.953492,-222.061783,-9992.780217,-689.485948
549.953816,-666.185348,-9918.759623,-459.657299
549.954140,0.000000,-9400.615463,0.000000
549.954464,1110.308913,-7920.203579,-306.438199
549.954788,1554.432478,-8068.244768,383.047749
549.955112,592.164754,-9104.533087,153.219100
549.955436,0.000000,-8808.450710,-1072.533697
549.955760,-1184.329507,-8734.430116,-1149.143247
549.956084,-1850.514855,-9178.553681,-766.095498
549.956408,-888.247130,-9474.636058,-766.095498
549.956731,-222.061783,-9696.697840,-536.266849
549.957055,-1184.329507,-10807.006753,-383.047749
549.957379,-2294.638420,-10658.965565,-1149.143247
549.957703,-2960.823768,-10214.842000,-1532.190996
549.958027,-3108.864956,-10658.965565,-536.266849
549.958351,-2294.638420,-10732.986159,-153.219100
549.958675,0.000000,-9992.780217,-459.657299
549.958999,740.205942,-10288.862594,0.000000
549.959323,0.000000,-10584.944971,76.609550
549.959647,-740.205942,-10140.821405,-1149.143247
549.959971,-666.185348,-9326.594869,-919.314598
549.960295,74.020594,-9474.636058,0.000000
549.960619,2072.576638,-10288.862594,229.828649
549.960943,1850.514855,-10362.883188,-459.657299
549.961267,-370.102971,-10436.903782,-459.657299
549.961591,-2146.597232,-10140.821405,-1149.143247
549.961915,-2146.597232,-10362.883188,-1838.629195
549.962239,-1702.473667,-10436.903782,-766.095498
549.962562,-666.185348,-9918.759623,766.095498
549.962886,2146.597232,-9326.594869,153.219100
549.963210,2368.659014,-9622.677246,0.000000
549.963534,2072.576638,-9770.718434,229.828649
549.963858,1406.391290,-9474.636058,-306.438199
549.964182,740.205942,-10362.883188,-459.657299
549.964506,0.000000,-9992.780217,-229.828649
549.964830,444.123565,-9474.636058,0.000000
549.965154,1480.411884,-10807.006753,0.000000
549.965478,0.000000,-11103.089130,689.485948
549.965802,-1036.288319,-10881.027347,0.000000
549.966126,-1924.535449,-9400.615463,-1072.533697
549.966450,-2664.741391,-9474.636058,-229.828649
549.966774,-2220.617826,-9622.677246,612.876398
549.967098,-222.061783,-8364.327145,536.266849
549.967422,592.164754,-8068.244768,919.314598
549.967746,-296.082377,-8364.327145,536.266849
549.968070,222.061783,-7698.141797,229.828649
549.968394,592.164754,-7624.121203,383.047749
549.968717,888.247130,-7846.182985,1225.752797
549.969041,1850.514855,-7476.080014,612.876398
549.969365,2664.741391,-7402.059420,76.609550
549.969689,1406.391290,-8586.388927,1149.143247
549.970013,740.205942,-9474.636058,459.657299
549.970337,592.164754,-9326.594869,459.657299
549.970661,-592.164754,-9992.780217,689.485948
549.970985,-962.267725,-9992.780217,919.314598
549.971309,0.000000,-8586.388927,229.828649
549.971633,-222.061783,-9178.553681,306.438199
549.971957,-1554.432478,-10362.883188,383.047749
549.972281,-962.267725,-10436.903782,0.000000
549.972605,0.000000,-9992.780217,-612.876398
549.972929,0.000000,-10140.821405,0.000000
549.973253,666.185348,-10066.800811,-459.657299
549.973577,1924.535449,-9844.739029,-383.047749
549.973901,1702.473667,-11547.212695,383.047749
549.974225,1332.370696,-12657.521608,919.314598
549.974548,1406.391290,-11621.233289,0.000000
549.974872,296.082377,-11029.068536,612.876398
549.975196,74.020594,-10955.047942,612.876398
549.975520,1036.288319,-9992.780217,-612.876398
549.975844,888.247130,-10732.986159,459.657299
549.976168,-518.144159,-11769.274478,536.266849
549.976492,-1406.391290,-10658.965565,0.000000
549.976816,-1554.432478,-9326.594869,0.000000
549.977140,-1480.411884,-8512.368333,-229.828649
549.977464,-592.164754,-8734.430116,-842.705048
549.977788,0.000000,-8512.368333,0.000000
549.978112,0.000000,-9252.574275,229.828649
549.978436,0.000000,-9104.533087,0.000000
549.978760,0.000000,-9104.533087,-383.047749
549.979084,-592.164754,-9992.780217,459.657299
549.979408,-444.123565,-9844.739029,459.657299
549.979732,-370.102971,-8882.471304,842.705048
549.980056,-222.061783,-10510.924376,1915.238745
549.980380,-1406.391290,-11103.089130,1762.019645
549.980703,-1332.370696,-9844.739029,689.485948
549.981027,-1258.350101,-7476.080014,-153.219100
549.981351,-1406.391290,-7105.977043,-306.438199
549.981675,-740.205942,-7328.038826,-459.657299
549.981999,74.020594,-7402.059420,-766.095498
549.982323,-296.082377,-7920.203579,0.000000
549.982647,-296.082377,-6957.935855,-612.876398
549.982971,-296.082377,-7031.956449,-1225.752797
549.983295,-148.041188,-9252.574275,-612.876398
549.983619,592.164754,-9918.759623,0.000000
549.983943,1924.535449,-8808.450710,-229.828649
549.984267,1480.411884,-9918.759623,229.828649
549.984591,74.020594,-11843.295072,1149.143247
549.984915,-444.123565,-11621.233289,0.000000
549.985239,74.020594,-10881.027347,0.000000
549.985563,0.000000,-10881.027347,-306.438199
549.985887,518.144159,-10584.944971,-1225.752797
549.986211,1110.308913,-10436.903782,-1225.752797
549.986534,740.205942,-10881.027347,-153.219100
549.986858,296.082377,-10584.944971,-1072.533697
549.987182,148.041188,-9992.780217,-1762.019645
549.987506,-1332.370696,-10955.047942,-1685.410096
549.987830,-1258.350101,-11621.233289,-1149.143247
549.988154,222.061783,-10732.986159,-1072.533697
549.988478,222.061783,-10881.027347,-383.047749
549.988802,-740.205942,-12361.439231,76.609550
549.989126,-888.247130,-11029.068536,0.000000
549.989450,-666.185348,-9844.739029,229.828649
549.989774,-666.185348,-9548.656652,-229.828649
549.990098,0.000000,-9030.512492,0.000000
549.990422,666.185348,-8142.265362,-612.876398
549.990746,666.185348,-8068.244768,-383.047749
549.991070,592.164754,-7624.121203,-459.657299
549.991394,814.226536,-7772.162391,-1149.143247
549.991718,518.144159,-8364.327145,-306.438199
549.992042,592.164754,-8734.430116,-842.705048
549.992366,1036.288319,-8438.347739,-76.609550
549.992689,444.123565,-10658.965565,153.219100
549.993013,-1406.391290,-11917.315666,153.219100
549.993337,-1924.535449,-11103.089130,0.000000
549.993661,-1480.411884,-10510.924376,459.657299
549.993985,-592.164754,-10436.903782,919.314598
549.994309,888.247130,-9918.759623,459.657299
549.994633,1776.494261,-9252.574275,842.705048
549.994957,1628.453072,-9770.718434,1149.143247
549.995281,962.267725,-9770.718434,229.828649
549.995605,222.061783,-8956.491898,-919.314598
549.995929,-1184.329507,-9030.512492,-612.876398
549.996253,-1036.288319,-9400.615463,-383.047749
549.996577,814.226536,-9326.594869,153.219100
549.996901,1110.308913,-10214.842000,689.485948
549.997225,-518.144159,-11177.109724,1302.362347
549.997549,-1036.288319,-10658.965565,612.876398
549.997873,-888.247130,-8956.491898,229.828649
549.998197,-1258.350101,-8956.491898,1302.362347
549.998520,-444.123565,-8438.347739,1378.971896
549.998844,1110.308913,-8364.327145,919.314598
549.999168,1998.556043,-7698.141797,1762.019645
549.999492,1480.411884,-7402.059420,766.095498
549.999816,592.164754,-7550.100608,-153.219100
550.000140,-666.185348,-8068.244768,0.000000
550.000464,-1184.329507,-8882.471304,383.047749
550.000788,0.000000,-9474.636058,0.000000
550.001112,-296.082377,-10510.924376,153.219100
550.001436,-3404.947333,-11695.253884,995.924147
550.001760,-3775.050304,-10436.903782,-306.438199
550.002084,-2886.803174,-9992.780217,0.000000
550.002408,-2368.659014,-10955.047942,919.314598
550.002732,-1110.308913,-9474.636058,76.609550
550.003056,-444.123565,-8660.409521,459.657299
550.003379,222.061783,-9474.636058,1072.533697
550.003703,1776.494261,-9474.636058,153.219100
550.004027,1480.411884,-8142.265362,-459.657299
550.004351,296.082377,-8512.368333,0.000000
550.004675,592.164754,-9622.677246,-153.219100
550.004999,2664.741391,-9844.739029,-995.924147
550.005323,2516.700203,-10584.944971,-766.095498
550.005647,-148.041188,-11917.315666,-536.266849
550.005971,-814.226536,-11843.295072,-1072.533697
550.006295,-370.102971,-11177.109724,-689.485948
550.006619,-888.247130,-11177.109724,0.000000
550.006943,148.041188,-10658.965565,-153.219100
550.007267,1332.370696,-9918.759623,-229.828649
550.007591,1776.494261,-10288.862594,76.609550
550.007915,2146.597232,-9548.656652,383.047749
550.008238,2072.576638,-8808.450710,-459.657299
550.008562,1036.288319,-9252.574275,-689.485948
550.008886,1036.288319,-9696.697840,-766.095498
550.009210,1850.514855,-9400.615463,-689.485948
550.009534,1628.453072,-10436.903782,-153.219100
550.009858,-296.082377,-11991.336260,153.219100
550.010182,-1110.308913,-11103.089130,-153.219100
550.010506,-1406.391290,-10436.903782,0.000000
550.010830,-2886.803174,-10510.924376,-536.266849
550.011154,-2738.761985,-10214.842000,-689.485948
550.011478,-2220.617826,-7994.224174,-1455.581446
550.011802,-962.267725,-8290.306550,-76.609550
550.012126,-444.123565,-7846.182985,-306.438199
550.012450,740.205942,-6883.915261,-1072.533697
550.012773,1258.350101,-6661.853478,-536.266849
550.013097,2294.638420,-7031.956449,76.609550
550.013421,3849.070898,-6883.915261,0.000000
550.013745,3478.967927,-8290.306550,459.657299
550.014069,740.205942,-10510.924376,842.705048
550.014393,-888.247130,-11103.089130,-153.219100
550.014717,-2072.576638,-10807.006753,-766.095498
550.015041,-3108.864956,-11769.274478,-459.657299
550.015365,-2738.761985,-11325.150913,-229.828649
550.015689,-1110.308913,-10732.986159,-689.485948
550.016013,-518.144159,-10732.986159,842.705048
550.016337,148.041188,-10510.924376,153.219100
550.016661,148.041188,-8734.430116,-1149.143247
550.016985,0.000000,-8956.491898,-459.657299
550.017308,444.123565,-9474.636058,-306.438199
550.017632,2220.617826,-8956.491898,-689.485948
550.017956,2146.597232,-9326.594869,0.000000
550.018280,888.247130,-11843.295072,1072.533697
550.018604,592.164754,-11843.295072,-306.438199
550.018928,-444.123565,-11103.089130,-306.438199
550.019252,-1850.514855,-11547.212695,383.047749
550.019576,-1850.514855,-11325.150913,383.047749
550.019900,-814.226536,-10066.800811,306.438199
550.020224,-666.185348,-9918.759623,1149.143247
550.020548,-962.267725,-9104.533087,689.485948
550.020872,-444.123565,-7254.018232,-459.657299
550.021196,-1036.288319,-6957.935855,0.000000
550.021520,-1332.370696,-7328.038826,0.000000
550.021844,0.000000,-7476.080014,-842.705048
550.022167,740.205942,-8142.265362,-459.657299
550.022491,222.061783,-9844.739029,153.219100
550.022815,-148.041188,-10436.903782,-612.876398
550.023139,-740.205942,-10288.862594,-612.876398
550.023463,-1406.391290,-11399.171507,842.705048
550.023787,-814.226536,-11769.274478,1455.581446
550.024111,962.267725,-11843.295072,1072.533697
550.024435,888.247130,-10807.006753,1225.752797
550.024759,0.000000,-9622.677246,536.266849
550.025083,-222.061783,-8734.430116,-383.047749
550.025407,-296.082377,-8734.430116,0.000000
550.025731,296.082377,-8512.368333,995.924147
550.026055,1332.370696,-7624.121203,0.000000
550.026379,2072.576638,-8068.244768,0.000000
550.026702,1036.288319,-9844.739029,0.000000
550.027026,518.144159,-10288.862594,-612.876398
550.027350,-148.041188,-10214.842000,-842.705048
550.027674,-1628.453072,-10658.965565,-383.047749
550.027998,-1850.514855,-10436.903782,-383.047749
550.028322,0.000000,-10362.883188,0.000000
550.028646,740.205942,-10732.986159,383.047749
550.028970,666.185348,-10436.903782,306.438199
550.029294,1184.329507,-9178.553681,-153.219100
550.029618,814.226536,-8660.409521,-229.828649
550.029942,962.267725,-8882.471304,689.485948
550.030266,2294.638420,-8068.244768,383.047749
550.030590,2738.761985,-8438.347739,842.705048
550.030914,1110.308913,-9474.636058,153.219100
550.031238,0.000000,-9844.739029,-536.266849
550.031561,0.000000,-10140.821405,-536.266849
550.031885,-1554.432478,-10732.986159,0.000000
550.032209,-1998.556043,-9918.759623,-229.828649
550.032533,-1776.494261,-9474.636058,-536.266849
550.032857,-1924.535449,-9770.718434,76.609550
550.033181,-1628.453072,-9770.718434,229.828649
550.033505,-666.185348,-9030.512492,76.609550
550.033829,0.000000,-8290.306550,0.000000
550.034153,296.082377,-8290.306550,76.609550
550.034477,1998.556043,-7920.203579,-229.828649
550.034801,2960.823768,-7846.182985,-459.657299
550.035125,1998.556043,-9400.615463,153.219100
550.035449,1036.288319,-10214.842000,-153.219100
550.035773,518.144159,-9770.718434,-612.876398
550.036096,-148.041188,-11251.130318,0.000000
550.036420,0.000000,-11695.253884,153.219100
550.036744,370.102971,-11029.068536,-153.219100
550.037068,-296.082377,-11843.295072,229.828649
550.037392,-1406.391290,-11769.274478,383.047749
550.037716,-1480.411884,-10584.944971,-229.828649
550.038040,-1480.411884,-9474.636058,-306.438199
550.038364,-1110.308913,-9178.553681,-306.438199
550.038688,592.164754,-8660.409521,0.000000
550.039012,1258.350101,-8586.388927,-383.047749
550.039336,148.041188,-8956.491898,-612.876398
550.039660,-1332.370696,-8586.388927,-1149.143247
550.039984,-1480.411884,-8290.306550,-1532.190996
550.040308,-1776.494261,-9622.677246,-1072.533697
550.040631,-814.226536,-9770.718434,153.219100
550.040955,296.082377,-9400.615463,383.047749
550.041279,0.000000,-10732.986159,689.485948
550.041603,-1184.329507,-10584.944971,306.438199
550.041927,-1184.329507,-9252.574275,306.438199
550.042251,-1480.411884,-9252.574275,0.000000
550.042575,-1406.391290,-8956.491898,153.219100
550.042899,0.000000,-8808.450710,-306.438199
550.043223,666.185348,-7476.080014,0.000000
550.043547,888.247130,-8956.491898,306.438199
550.043871,296.082377,-9252.574275,-689.485948
550.044195,0.000000,-9178.553681,-1072.533697
550.044519,-1036.288319,-10288.862594,-689.485948
550.044843,-888.247130,-11103.089130,-612.876398
550.045167,-222.061783,-10288.862594,-1149.143247
550.045490,-1036.288319,-11177.109724,-383.047749
550.045814,-1850.514855,-12065.356855,0.000000
550.046138,-740.205942,-11621.233289,-766.095498
550.046462,-148.041188,-10807.006753,-766.095498
550.046786,74.020594,-9992.780217,0.000000
550.047110,1702.473667,-8660.409521,-383.047749
550.047434,2812.782580,-8586.388927,0.000000
550.047758,2590.720797,-9696.697840,229.828649
550.048082,1850.514855,-9918.759623,-689.485948
550.048406,592.164754,-9400.615463,-1762.019645
550.048730,-666.185348,-10140.821405,-1302.362347
550.049054,-296.082377,-10436.903782,-536.266849
550.049378,888.247130,-10807.006753,-459.657299
550.049702,0.000000,-10658.965565,0.000000
550.050025,-740.205942,-11251.130318,153.219100
550.050349,-1258.350101,-9992.780217,0.000000
550.050673,0.000000,-9696.697840,-536.266849
550.050997,-592.164754,-9696.697840,0.000000
550.051321,0.000000,-8660.409521,0.000000
550.051645,1110.308913,-8216.285956,-153.219100
550.051969,370.102971,-9252.574275,306.438199
550.052293,0.000000,-8956.491898,306.438199
550.052617,-296.082377,-7772.162391,-229.828649
550.052941,-518.144159,-9474.636058,-459.657299
550.053265,-296.082377,-10140.821405,229.828649
550.053589,518.144159,-9770.718434,0.000000
550.053913,0.000000,-10362.883188,536.266849
550.054237,-1036.288319,-10584.944971,919.314598
550.054560,-296.082377,-9326.594869,0.000000
550.054884,148.041188,-8808.450710,0.000000
550.055208,370.102971,-9326.594869,1608.800546
550.055532,2368.659014,-8586.388927,1378.971896
550.055856,2960.823768,-8068.244768,1532.190996
550.056180,1628.453072,-8586.388927,1762.019645
550.056504,296.082377,-8882.471304,766.095498
550.056828,0.000000,-8438.347739,-76.609550
550.057152,-666.185348,-8734.430116,-153.219100
550.057476,-1406.391290,-8956.491898,-536.266849
550.057800,-1480.411884,-9400.615463,229.828649
550.058124,-2146.597232,-10807.006753,-766.095498
550.058448,-3034.844362,-10807.006753,-229.828649
550.058772,-2590.720797,-10066.800811,-766.095498
550.059096,-2072.576638,-9918.759623,-1072.533697
550.059419,-2220.617826,-10066.800811,-383.047749
550.059743,-962.267725,-9104.533087,383.047749
550.060067,1332.370696,-9252.574275,306.438199
550.060391,1628.453072,-10140.821405,76.609550
550.060715,1554.432478,-10732.986159,-306.438199
550.061039,1554.432478,-9770.718434,-229.828649
550.061363,1554.432478,-10362.883188,76.609550
550.061687,1258.350101,-10807.006753,306.438199
550.062011,888.247130,-10658.965565,-459.657299
550.062335,-740.205942,-11251.130318,306.438199
550.062659,-888.247130,-12065.356855,-919.314598
550.062983,-740.205942,-10807.006753,-612.876398
550.063307,-1480.411884,-10362.883188,-459.657299
550.063631,-2220.617826,-10066.800811,-229.828649
550.063954,-1332.370696,-9030.512492,-383.047749
550.064278,0.000000,-7920.203579,-306.438199
550.064602,74.020594,-8660.409521,0.000000
550.064926,0.000000,-8808.450710,153.219100
550.065250,592.164754,-8290.306550,-536.266849
550.065574,592.164754,-8142.265362,153.219100
550.065898,888.247130,-8586.388927,-383.047749
550.066222,814.226536,-8734.430116,-383.047749
550.066546,0.000000,-9992.780217,0.000000
550.066870,-444.123565,-10881.027347,0.000000
550.067194,-592.164754,-10214.842000,-459.657299
550.067518,-1406.391290,-9696.697840,-612.876398
550.067842,-1998.556043,-10362.883188,-459.657299
550.068166,-740.205942,-10140.821405,-766.095498
550.068489,962.267725,-9400.615463,-612.876398
550.068813,962.267725,-9474.636058,0.000000
550.069137,1110.308913,-10362.883188,0.000000
550.069461,1332.370696,-8734.430116,-842.705048
550.069785,1702.473667,-9474.636058,-306.438199
550.070109,1998.556043,-10362.883188,76.609550
550.070433,2664.741391,-9918.759623,-229.828649
550.070757,2146.597232,-10584.944971,459.657299
550.071081,814.226536,-10881.027347,383.047749
550.071405,-296.082377,-10066.800811,0.000000
550.071729,-1480.411884,-9918.759623,-536.266849
550.072053,-2664.741391,-10362.883188,76.609550
550.072377,-1924.535449,-9474.636058,76.609550
550.072701,-962.267725,-7920.203579,-612.876398
550.073025,-962.267725,-8882.471304,306.438199
550.073348,-888.247130,-9548.656652,306.438199
550.073672,-592.164754,-9252.574275,229.828649
550.073996,-962.267725,-8734.430116,689.485948
550.074320,-1184.329507,-8512.368333,536.266849
550.074644,-370.102971,-8142.265362,-1608.800546
550.074968,0.000000,-8364.327145,-766.095498
550.075292,296.082377,-10362.883188,229.828649
550.075616,518.144159,-10436.903782,-306.438199
550.075940,-592.164754,-9918.759623,-612.876398
550.076264,-1850.514855,-9622.677246,-306.438199
550.076588,-222.061783,-9474.636058,76.609550
550.076912,1406.391290,-9474.636058,-229.828649
550.077236,1332.370696,-10881.027347,536.266849
550.077560,814.226536,-11029.068536,306.438199
550.077883,1332.370696,-10214.842000,76.609550
550.078207,1110.308913,-9770.718434,76.609550
550.078531,444.123565,-9770.718434,-383.047749
550.078855,888.247130,-9622.677246,-1608.800546
550.079179,740.205942,-10658.965565,-919.314598
550.079503,148.041188,-11769.274478,-229.828649
550.079827,0.000000,-11325.150913,-459.657299
550.080151,-1406.391290,-10658.965565,-1378.971896
550.080475,-2664.741391,-10881.027347,-1072.533697
550.080799,-1850.514855,-10807.006753,-1762.019645
550.081123,74.020594,-10881.027347,-1532.190996
550.081447,-370.102971,-11103.089130,0.000000
550.081771,-1332.370696,-11177.109724,383.047749
550.082095,-740.205942,-10362.883188,76.609550
550.082419,-1110.308913,-9622.677246,536.266849
550.082742,-370.102971,-9474.636058,76.609550
550.083066,888.247130,-8734.430116,0.000000
550.083390,1480.411884,-8734.430116,229.828649
550.083714,1924.535449,-9474.636058,1149.143247
550.084038,1776.494261,-8734.430116,459.657299
550.084362,888.247130,-8290.306550,76.609550
550.084686,-444.123565,-8512.368333,0.000000
550.085010,-444.123565,-8068.244768,-153.219100
550.085334,296.082377,-7328.038826,-383.047749
550.085658,-962.267725,-8882.471304,306.438199
550.085982,-1258.350101,-9400.615463,842.705048
550.086306,0.000000,-7994.224174,766.095498
550.086630,74.020594,-7550.100608,919.314598
550.086954,-370.102971,-7550.100608,919.314598
550.087277,222.061783,-8142.265362,612.876398
550.087601,592.164754,-8808.450710,842.705048
550.087925,814.226536,-9178.553681,1378.971896
550.088249,444.123565,-8734.430116,76.609550
550.088573,0.000000,-8808.450710,-153.219100
550.088897,-518.144159,-10362.883188,76.609550
550.089221,1036.288319,-11399.171507,0.000000
550.089545,2294.638420,-10288.862594,0.000000
550.089869,888.247130,-11695.253884,612.876398
550.090193,-666.185348,-11843.295072,-153.219100
550.090517,-888.247130,-10732.986159,-995.924147
550.090841,-814.226536,-10362.883188,-536.266849
550.091165,-518.144159,-10214.842000,0.000000
550.091489,1110.308913,-9696.697840,-919.314598
550.091812,2072.576638,-9252.574275,153.219100
550.092136,1554.432478,-9474.636058,766.095498
550.092460,962.267725,-9548.656652,-383.047749
550.092784,0.000000,-9474.636058,-1072.533697
550.093108,-1480.411884,-10807.006753,-766.095498
550.093432,-1036.288319,-11103.089130,-689.485948
550.093756,148.041188,-9918.759623,-1072.533697
550.094080,-148.041188,-11029.068536,306.438199
550.094404,-962.267725,-11769.274478,153.219100
550.094728,-962.267725,-11251.130318,-689.485948
550.095052,-1480.411884,-10807.006753,-766.095498
550.095376,-2072.576638,-10584.944971,-383.047749
550.095700,-444.123565,-9770.718434,-306.438199
550.096024,1036.288319,-9400.615463,459.657299
550.096348,814.226536,-10436.903782,919.314598
550.096671,666.185348,-9178.553681,-306.438199
550.096995,148.041188,-8438.347739,-383.047749
550.097319,74.020594,-9474.636058,153.219100
550.097643,1110.308913,-9474.636058,76.609550
550.097967,1480.411884,-8734.430116,0.000000
550.098291,-296.082377,-9400.615463,229.828649
550.098615,-1924.535449,-10362.883188,-459.657299
550.098939,-1924.535449,-9252.574275,-842.705048
550.099263,-1776.494261,-8734.430116,0.000000
550.099587,-1258.350101,-8808.450710,229.828649
550.099911,222.061783,-7994.224174,-229.828649
550.100235,1850.514855,-7402.059420,229.828649
550.100559,1924.535449,-8364.327145,0.000000
550.100883,1554.432478,-8438.347739,-536.266849
550.101207,1036.288319,-8882.471304,-383.047749
550.101531,592.164754,-9992.780217,306.438199
550.101855,1776.494261,-9770.718434,689.485948
550.102179,2368.659014,-10140.821405,306.438199
550.102503,1110.308913,-11695.253884,306.438199
550.102827,-888.247130,-11917.315666,0.000000
550.103151,-2294.638420,-10362.883188,-1072.533697
550.103475,-3182.885551,-10362.883188,-229.828649
550.103799,-3627.009116,-11029.068536,-612.876398
550.104123,-2516.700203,-9326.594869,-919.314598
550.104447,-1776.494261,-7920.203579,-1149.143247
550.104771,-1480.411884,-7624.121203,-1149.143247
550.105095,-370.102971,-8142.265362,-1378.971896
550.105419,0.000000,-8660.409521,-1149.143247
550.105743,222.061783,-9474.636058,-306.438199
550.106067,666.185348,-9474.636058,76.609550
550.106391,1702.473667,-9474.636058,-612.876398
550.106715,666.185348,-11621.233289,0.000000
550.107039,-444.123565,-12657.521608,76.609550
550.107363,0.000000,-11621.233289,0.000000
550.107687,74.020594,-11251.130318,229.828649
550.108011,370.102971,-11695.253884,612.876398
550.108335,2368.659014,-10881.027347,306.438199
550.108659,3552.988522,-10066.800811,-306.438199
550.108983,2886.803174,-10510.924376,1302.362347
550.109307,2072.576638,-9770.718434,-306.438199
550.109631,1036.288319,-9474.636058,-383.047749
550.109955,888.247130,-9696.697840,0.000000
550.110279,1036.288319,-9326.594869,-306.438199
550.110603,1850.514855,-9178.553681,-153.219100
550.110928,444.123565,-10436.903782,0.000000
550.111252,-1258.350101,-10658.965565,689.485948
550.111576,-2516.700203,-9030.512492,383.047749
550.111900,-3478.967927,-9104.533087,612.876398
550.112224,-4145.153275,-9474.636058,306.438199
550.112548,-2738.761985,-8216.285956,-383.047749
550.112872,-1184.329507,-7254.018232,229.828649
550.113196,-518.144159,-7846.182985,995.924147
550.113520,1036.288319,-8068.244768,919.314598
550.113844,370.102971,-7031.956449,153.219100
550.114168,518.144159,-7328.038826,1302.362347
550.114492,1628.453072,-8438.347739,689.485948
550.114816,2146.597232,-9104.533087,76.609550
550.115140,888.247130,-10066.800811,306.438199
550.115464,0.000000,-11177.109724,766.095498
550.115788,-666.185348,-10732.986159,536.266849
550.116112,-1924.535449,-10732.986159,306.438199
550.116436,-2368.659014,-11103.089130,459.657299
550.116760,-1924.535449,-9770.718434,-229.828649
550.117084,-1036.288319,-9252.574275,-153.219100
550.117408,-148.041188,-9770.718434,689.485948
550.117732,592.164754,-9400.615463,612.876398
550.118056,666.185348,-8068.244768,153.219100
550.118380,740.205942,-7846.182985,0.000000
550.118704,1924.535449,-8512.368333,-306.438199
550.119028,2590.720797,-7994.224174,-1072.533697
550.119352,1628.453072,-10288.862594,-612.876398
550.119676,370.102971,-11769.274478,-459.657299
550.120000,-518.144159,-11695.253884,-536.266849
550.120324,-1480.411884,-11399.171507,-689.485948
550.120648,-2368.659014,-11547.212695,-995.924147
550.120972,-1332.370696,-10881.027347,-1149.143247
550.121296,0.000000,-10140.821405,-1455.581446
550.121620,-222.061783,-10658.965565,-1072.533697
550.121944,-148.041188,-10881.027347,-995.924147
550.122268,222.061783,-10436.903782,-919.314598
550.122592,962.267725,-10140.821405,-612.876398
550.122916,1924.535449,-9400.615463,-383.047749
550.123240,2960.823768,-9030.512492,-1225.752797
550.123564,1998.556043,-10584.944971,-766.095498
550.123888,444.123565,-11917.315666,-383.047749
550.124212,222.061783,-11695.253884,-153.219100
550.124536,-1702.473667,-11473.192101,-536.266849
550.124860,-3478.967927,-11325.150913,-689.485948
550.125184,-3404.947333,-9252.574275,-1378.971896
550.125509,-2368.659014,-8216.285956,-1532.190996
550.125833,-1998.556043,-8808.450710,-766.095498
550.126157,-1554.432478,-8438.347739,-153.219100
550.126481,-666.185348,-7698.141797,76.609550
550.126805,666.185348,-7105.977043,689.485948
550.127129,2072.576638,-6661.853478,536.266849
550.127453,3034.844362,-6365.771101,229.828649
550.127777,2072.576638,-7994.224174,0.000000
550.128101,814.226536,-10510.924376,383.047749
550.128425,-444.123565,-10066.800811,536.266849
550.128749,-1776.494261,-10140.821405,306.438199
550.129073,-2368.659014,-10955.047942,0.000000
550.129397,-592.164754,-9918.759623,76.609550
550.129721,666.185348,-9770.718434,689.485948
550.130045,-296.082377,-10362.883188,842.705048
550.130369,-888.247130,-9918.759623,536.266849
550.130693,-1258.350101,-8216.285956,229.828649
550.131017,74.020594,-8364.327145,612.876398
550.131341,1628.453072,-7846.182985,0.000000
550.131665,2368.659014,-7476.080014,0.000000
550.131989,1998.556043,-8956.491898,766.095498
550.132313,1850.514855,-11103.089130,76.609550
550.132637,444.123565,-10584.944971,0.000000
550.132961,-1628.453072,-10066.800811,-229.828649
550.133285,-3108.864956,-10436.903782,-766.095498
550.133609,-2146.597232,-11029.068536,-1302.362347
550.133933,-740.205942,-10807.006753,-612.876398
550.134257,-592.164754,-11325.150913,995.924147
550.134581,0.000000,-10732.986159,76.609550
550.134905,518.144159,-9548.656652,0.000000
550.135229,370.102971,-9770.718434,536.266849
550.135553,740.205942,-9474.636058,-383.047749
550.135877,1036.288319,-8734.430116,-766.095498
550.136201,1776.494261,-10066.800811,-153.219100
550.136525,1850.514855,-11621.233289,536.266849
550.136849,1332.370696,-11769.274478,0.000000
550.137173,0.000000,-11177.109724,-306.438199
550.137497,-1850.514855,-10510.924376,-612.876398
550.137821,-1184.329507,-11251.130318,-919.314598
550.138145,-222.061783,-10732.986159,-536.266849
550.138469,-1110.308913,-10955.047942,689.485948
550.138793,-1184.329507,-10140.821405,995.924147
550.139117,-740.205942,-8734.430116,383.047749
550.139441,0.000000,-8660.409521,229.828649
550.139766,1258.350101,-7772.162391,689.485948
550.140090,3182.885551,-7328.038826,919.314598
550.140414,3552.988522,-8586.388927,1455.581446
550.140738,2442.679609,-9400.615463,1225.752797
550.141062,666.185348,-8438.347739,76.609550
550.141386,-740.205942,-8734.430116,0.000000
550.141710,-1184.329507,-10066.800811,-229.828649
550.142034,-592.164754,-9622.677246,-689.485948
550.142358,-370.102971,-8438.347739,0.000000
550.142682,-1184.329507,-9104.533087,229.828649
550.143006,-888.247130,-9474.636058,306.438199
550.143330,-666.185348,-8586.388927,306.438199
550.143654,-740.205942,-8882.471304,612.876398
550.143978,-814.226536,-8808.450710,153.219100
550.144302,74.020594,-7624.121203,-229.828649
550.144626,814.226536,-8512.368333,766.095498
550.144950,1184.329507,-10140.821405,1378.971896
550.145274,888.247130,-9992.780217,0.000000
550.145598,-666.185348,-9844.739029,-229.828649
550.145922,-2516.700203,-10732.986159,0.000000
550.146246,-2294.638420,-10658.965565,-1072.533697
550.146570,-1850.514855,-10362.883188,-995.924147
550.146894,-2664.741391,-11473.192101,0.000000
550.147218,-2442.679609,-10955.047942,-689.485948
550.147542,-740.205942,-9770.718434,-1072.533697
550.147866,-296.082377,-9474.636058,0.000000
550.148190,518.144159,-9178.553681,153.219100
550.148514,2072.576638,-8586.388927,76.609550
550.148838,2738.761985,-9474.636058,689.485948
550.149162,2368.659014,-9918.759623,536.266849
550.149486,2220.617826,-9474.636058,459.657299
550.149810,1628.453072,-9252.574275,383.047749
550.150134,962.267725,-10214.842000,0.000000
550.150458,1776.494261,-10362.883188,0.000000
550.150782,1480.411884,-9548.656652,76.609550
550.151106,-296.082377,-10732.986159,-76.609550
550.151430,-2072.576638,-10584.944971,-995.924147
550.151754,-2294.638420,-9548.656652,-1225.752797
550.152078,-3182.885551,-9104.533087,-612.876398
550.152402,-2368.659014,-9252.574275,-1302.362347
550.152726,-962.267725,-7772.162391,-1991.848295
550.153050,518.144159,-8586.388927,-306.438199
550.153374,1628.453072,-10288.862594,-229.828649
550.153698,1036.288319,-10214.842000,-995.924147
550.154022,-592.164754,-9918.759623,-842.705048
550.154347,-1702.473667,-10881.027347,-689.485948
550.154671,-1110.308913,-11251.130318,-689.485948
550.154995,-444.123565,-11029.068536,-1302.362347
550.155319,-1036.288319,-12139.377449,-306.438199
550.155643,-1036.288319,-11769.274478,-536.266849
550.155967,-222.061783,-10807.006753,-1225.752797
550.156291,0.000000,-9844.739029,-919.314598
550.156615,222.061783,-8882.471304,-459.657299
550.156939,2072.576638,-8586.388927,-919.314598
550.157263,2368.659014,-9252.574275,0.000000
550.157587,1924.535449,-8808.450710,0.000000
550.157911,1702.473667,-8586.388927,-459.657299
550.158235,1036.288319,-9326.594869,-306.438199
550.158559,0.000000,-10436.903782,-383.047749
550.158883,-444.123565,-9548.656652,-459.657299
550.159207,-740.205942,-9252.574275,-766.095498
550.159531,-1850.514855,-10214.842000,0.000000
550.159855,-2368.659014,-10436.903782,0.000000
550.160179,-1702.473667,-9030.512492,0.000000
550.160503,-1406.391290,-8882.471304,76.609550
550.160827,-1110.308913,-8956.491898,0.000000
550.161151,370.102971,-7772.162391,0.000000
550.161475,1480.411884,-8142.265362,919.314598
550.161799,1184.329507,-8882.471304,153.219100
550.162123,814.226536,-9252.574275,76.609550
550.162447,0.000000,-8438.347739,229.828649
550.162771,148.041188,-10288.862594,383.047749
550.163095,962.267725,-10658.965565,229.828649
550.163419,1924.535449,-9474.636058,306.438199
550.163743,1406.391290,-9548.656652,919.314598
550.164067,888.247130,-10436.903782,842.705048
550.164391,296.082377,-10140.821405,536.266849
550.164715,0.000000,-10066.800811,1685.410096
550.165039,-592.164754,-9474.636058,689.485948
550.165363,0.000000,-8734.430116,459.657299
550.165687,1036.288319,-9030.512492,229.828649
550.166011,1110.308913,-9252.574275,306.438199
550.166335,592.164754,-9178.553681,229.828649
550.166659,-592.164754,-9400.615463,536.266849
550.166983,-1554.432478,-10066.800811,0.000000
550.167307,-888.247130,-10362.883188,-306.438199
550.167631,-592.164754,-9992.780217,-306.438199
550.167955,-814.226536,-10584.944971,306.438199
550.168279,-1036.288319,-11399.171507,383.047749
550.168604,-962.267725,-11029.068536,153.219100
550.168928,-1110.308913,-11103.089130,383.047749
550.169252,-592.164754,-10214.842000,919.314598
550.169576,1184.329507,-9104.533087,1225.752797
550.169900,1776.494261,-9400.615463,842.705048
550.170224,518.144159,-9548.656652,1149.143247
550.170548,-518.144159,-8808.450710,536.266849
550.170872,-814.226536,-8808.450710,383.047749
550.171196,0.000000,-8660.409521,459.657299
550.171520,592.164754,-8512.368333,383.047749
550.171844,888.247130,-7846.182985,306.438199
550.172168,-444.123565,-9030.512492,0.000000
550.172492,-1776.494261,-9992.780217,-612.876398
550.172816,-2664.741391,-9178.553681,-1225.752797
550.173140,-3256.906145,-9474.636058,-536.266849
550.173464,-2812.782580,-9474.636058,-229.828649
550.173788,0.000000,-8734.430116,306.438199
550.174112,1258.350101,-8956.491898,612.876398
550.174436,1258.350101,-10510.924376,1149.143247
550.174760,1036.288319,-10658.965565,0.000000
550.175084,518.144159,-10066.800811,-306.438199
550.175408,222.061783,-9622.677246,0.000000
550.175732,888.247130,-9844.739029,-766.095498
550.176056,666.185348,-9548.656652,-842.705048
550.176380,444.123565,-10436.903782,-919.314598
550.176704,74.020594,-11325.150913,-1225.752797
550.177028,222.061783,-10584.944971,-1532.190996
550.177352,-962.267725,-10214.842000,-1225.752797
550.177676,-2072.576638,-9622.677246,-1532.190996
550.178000,-888.247130,-8882.471304,-1762.019645
550.178324,0.000000,-9252.574275,-306.438199
550.178648,-296.082377,-9844.739029,-229.828649
550.178972,0.000000,-9474.636058,-689.485948
550.179296,444.123565,-8290.306550,-536.266849
550.179620,444.123565,-8660.409521,-689.485948
550.179944,1628.453072,-9252.574275,-383.047749
550.180268,2294.638420,-9474.636058,0.000000
550.180592,1776.494261,-11029.068536,306.438199
550.180916,1184.329507,-11177.109724,-229.828649
550.181240,666.185348,-9770.718434,-766.095498
550.181564,-296.082377,-10436.903782,-995.924147
550.181888,74.020594,-11769.274478,-306.438199
550.182212,666.185348,-10584.944971,-1225.752797
550.182536,1184.329507,-9770.718434,0.000000
550.182860,-592.164754,-10436.903782,-459.657299
550.183185,-1628.453072,-9548.656652,-1302.362347
550.183509,-1628.453072,-9400.615463,-612.876398
550.183833,-666.185348,-10214.842000,0.000000
550.184157,518.144159,-9622.677246,76.609550
550.184481,888.247130,-8512.368333,0.000000
550.184805,740.205942,-9474.636058,306.438199
550.185129,444.123565,-10436.903782,306.438199
550.185453,444.123565,-10658.965565,0.000000
550.185777,-518.144159,-10658.965565,0.000000
550.186101,-1184.329507,-10584.944971,76.609550
550.186425,0.000000,-9474.636058,76.609550
550.186749,518.144159,-9548.656652,612.876398
550.187073,-296.082377,-10732.986159,536.266849
550.187397,-1184.329507,-10214.842000,76.609550
550.187721,-1258.350101,-8956.491898,0.000000
550.188045,-1332.370696,-8586.388927,536.266849
550.188369,-962.267725,-8586.388927,383.047749
550.188693,0.000000,-8068.244768,459.657299
550.189017,0.000000,-8808.450710,1302.362347
550.189341,-962.267725,-9326.594869,383.047749
550.189665,-740.205942,-8660.409521,919.314598
550.189989,-1924.535449,-8808.450710,842.705048
550.190313,-2294.638420,-9400.615463,842.705048
550.190637,-1110.308913,-9030.512492,689.485948
550.190961,-518.144159,-9696.697840,1225.752797
550.191285,-1184.329507,-10955.047942,1225.752797
550.191609,-1702.473667,-10362.883188,919.314598
550.191933,-222.061783,-8586.388927,1302.362347
550.192257,370.102971,-8290.306550,842.705048
550.192581,962.267725,-8808.450710,612.876398
550.192905,1776.494261,-8290.306550,459.657299
550.193229,1332.370696,-8956.491898,1072.533697
550.193553,1036.288319,-9696.697840,459.657299
550.193877,592.164754,-8882.471304,153.219100
550.194201,-370.102971,-8660.409521,-306.438199
550.194525,0.000000,-9622.677246,229.828649
550.194849,888.247130,-9548.656652,229.828649
550.195173,1110.308913,-9474.636058,229.828649
550.195497,-370.102971,-10436.903782,842.705048
550.195821,-1110.308913,-10140.821405,0.000000
550.196145,-592.164754,-10066.800811,-306.438199
550.196469,-666.185348,-9696.697840,-229.828649
550.196793,148.041188,-10584.944971,0.000000
550.197117,1332.370696,-9844.739029,0.000000
550.197441,1776.494261,-10214.842000,0.000000
550.197766,1702.473667,-10140.821405,-153.219100
550.198090,1702.473667,-10066.800811,-612.876398
550.198414,1110.308913,-11029.068536,-919.314598
550.198738,1036.288319,-11843.295072,-153.219100
550.199062,1480.411884,-10658.965565,76.609550
550.199386,1036.288319,-9918.759623,-306.438199
550.199710,-814.226536,-10658.965565,229.828649
550.200034,-1554.432478,-10214.842000,-306.438199
550.200358,-1258.350101,-10066.800811,-766.095498
550.200682,-1776.494261,-9400.615463,-229.828649
550.201006,-1258.350101,-8660.409521,-612.876398
550.201330,148.041188,-7254.018232,-995.924147
550.201654,888.247130,-7105.977043,0.000000
550.201978,1184.329507,-9030.512492,-306.438199
550.202302,740.205942,-8660.409521,-1072.533697
550.202626,-888.247130,-8142.265362,-1225.752797
550.202950,-148.041188,-8956.491898,-1072.533697
550.203274,1628.453072,-9548.656652,-689.485948
550.203598,2368.659014,-10732.986159,-459.657299
550.203922,592.164754,-12287.418637,0.000000
550.204246,-1184.329507,-11399.171507,-919.314598
550.204571,-1258.350101,-10362.883188,-919.314598
550.204895,-888.247130,-10436.903782,-459.657299
550.205219,-370.102971,-9918.759623,-1225.752797
550.205543,222.061783,-8808.450710,-1149.143247
550.205867,148.041188,-9178.553681,-383.047749
550.206191,222.061783,-9770.718434,-306.438199
550.206515,666.185348,-9030.512492,-612.876398
550.206839,296.082377,-9622.677246,-153.219100
550.207163,-222.061783,-9474.636058,153.219100
550.207487,222.061783,-9474.636058,-383.047749
550.207811,-296.082377,-10881.027347,-459.657299
550.208135,-2220.617826,-11991.336260,-459.657299
550.208459,-3034.844362,-10881.027347,-842.705048
550.208783,-2738.761985,-9548.656652,-689.485948
550.209107,-2442.679609,-9474.636058,-995.924147
550.209431,-1258.350101,-9474.636058,-842.705048
550.209756,-518.144159,-8364.327145,-229.828649
550.210080,1628.453072,-9104.533087,842.705048
550.210404,1998.556043,-9696.697840,1149.143247
550.210728,2072.576638,-8660.409521,919.314598
550.211052,888.247130,-8216.285956,1072.533697
550.211376,592.164754,-9548.656652,766.095498
550.211700,814.226536,-9992.780217,919.314598
550.212024,296.082377,-10066.800811,995.924147
550.212348,-1554.432478,-11325.150913,995.924147
550.212672,-2738.761985,-11251.130318,536.266849
550.212996,-3108.864956,-10436.903782,0.000000
550.213320,-3256.906145,-9992.780217,689.485948
550.213644,-2442.679609,-10288.862594,842.705048
550.213968,-888.247130,-9400.615463,1072.533697
550.214292,518.144159,-8586.388927,1225.752797
550.214616,962.267725,-7179.997637,1455.581446
550.214941,1036.288319,-6587.832884,383.047749
550.215265,592.164754,-7328.038826,0.000000
550.215589,222.061783,-8956.491898,153.219100
550.215913,1332.370696,-8808.450710,842.705048
550.216237,1998.556043,-9104.533087,1608.800546
550.216561,1258.350101,-10732.986159,1915.238745
550.216885,222.061783,-10510.924376,612.876398
550.217209,-444.123565,-9696.697840,459.657299
550.217533,-814.226536,-10584.944971,612.876398
550.217857,0.000000,-11325.150913,842.705048
550.218181,962.267725,-9622.677246,612.876398
550.218505,1406.391290,-8364.327145,536.266849
550.218829,1480.411884,-8364.327145,-383.047749
550.219153,1036.288319,-8586.388927,-1302.362347
550.219477,1036.288319,-9326.594869,-766.095498
550.219801,962.267725,-9918.759623,-383.047749
550.220126,1258.350101,-9696.697840,-689.485948
550.220450,1258.350101,-9548.656652,-766.095498
550.220774,-370.102971,-11695.253884,-459.657299
550.221098,-1702.473667,-11917.315666,-1225.752797
550.221422,-1924.535449,-11399.171507,-995.924147
550.221746,-2294.638420,-11843.295072,76.609550
550.222070,-1554.432478,-11621.233289,842.705048
550.222394,962.267725,-10436.903782,919.314598
550.222718,2294.638420,-9696.697840,1302.362347
550.223042,2072.576638,-9474.636058,612.876398
550.223366,1702.473667,-8882.471304,-612.876398
550.223690,1554.432478,-8290.306550,76.609550
550.224014,2368.659014,-8068.244768,153.219100
550.224338,3256.906145,-7920.203579,-536.266849
550.224662,2812.782580,-8290.306550,-459.657299
550.224986,1332.370696,-10288.862594,-536.266849
550.225311,0.000000,-10807.006753,-842.705048
550.225635,-1332.370696,-10066.800811,-919.314598
550.225959,-2516.700203,-10140.821405,-459.657299
550.226283,-3478.967927,-10140.821405,-383.047749
550.226607,-2368.659014,-9104.533087,-306.438199
550.226931,-740.205942,-9178.553681,919.314598
550.227255,-296.082377,-10140.821405,919.314598
550.227579,222.061783,-9548.656652,459.657299
550.227903,444.123565,-8290.306550,459.657299
550.228227,814.226536,-8660.409521,383.047749
550.228551,888.247130,-8660.409521,-306.438199
550.228875,222.061783,-9474.636058,-459.657299
550.229199,-1258.350101,-10732.986159,-612.876398
550.229523,-2368.659014,-11103.089130,-1838.629195
550.229847,-2664.741391,-10584.944971,-1685.410096
550.230171,-3034.844362,-10288.862594,-612.876398
550.230496,-2812.782580,-10510.924376,-536.266849
550.230820,-1702.473667,-9252.574275,-1225.752797
550.231144,-1258.350101,-9104.533087,-459.657299
550.231468,-1554.432478,-8438.347739,0.000000
550.231792,-370.102971,-8142.265362,0.000000
550.232116,0.000000,-7698.141797,76.609550
550.232440,888.247130,-7772.162391,459.657299
550.232764,1998.556043,-7994.224174,306.438199
550.233088,2442.679609,-8882.471304,383.047749
550.233412,2072.576638,-10807.006753,76.609550
550.233736,666.185348,-11251.130318,-1302.362347
550.234060,-1110.308913,-10214.842000,-1762.019645
550.234384,-2368.659014,-11177.109724,-919.314598
550.234708,-2220.617826,-12139.377449,-919.314598
550.235032,-814.226536,-11251.130318,-919.314598
550.235356,-296.082377,-10436.903782,-229.828649
550.235681,-592.164754,-10436.903782,0.000000
550.236005,74.020594,-9770.718434,-459.657299
550.236329,740.205942,-8586.388927,229.828649
550.236653,1110.308913,-8882.471304,459.657299
550.236977,1258.350101,-8660.409521,0.000000
550.237301,1110.308913,-9030.512492,0.000000
550.237625,518.144159,-10510.924376,459.657299
550.237949,444.123565,-11473.192101,0.000000
550.238273,370.102971,-10214.842000,-536.266849
550.238597,-370.102971,-9770.718434,-995.924147
550.238921,-888.247130,-10510.924376,-842.705048
550.239245,0.000000,-10436.903782,-612.876398
550.239569,592.164754,-10807.006753,-229.828649
550.239893,518.144159,-10881.027347,0.000000
550.240217,0.000000,-8956.491898,-459.657299
550.240541,222.061783,-8068.244768,-536.266849
550.240866,740.205942,-8586.388927,76.609550
550.241190,1850.514855,-8734.430116,842.705048
550.241514,2516.700203,-8512.368333,689.485948
550.241838,1110.308913,-9548.656652,1149.143247
550.242162,-222.061783,-10066.800811,536.266849
550.242486,-1332.370696,-9770.718434,0.000000
550.242810,-2442.679609,-9696.697840,-306.438199
550.243134,-2738.761985,-9918.759623,536.266849
550.243458,-1628.453072,-10066.800811,383.047749
550.243782,-296.082377,-10140.821405,1072.533697
550.244106,0.000000,-9770.718434,842.705048
550.244430,666.185348,-8142.265362,459.657299
550.244754,370.102971,-7402.059420,76.609550
550.245078,296.082377,-8290.306550,0.000000
550.245402,1406.391290,-7550.100608,0.000000
550.245726,2738.761985,-6883.915261,459.657299
550.246051,2960.823768,-7846.182985,766.095498
550.246375,1998.556043,-8734.430116,76.609550
550.246699,0.000000,-9400.615463,-383.047749
550.247023,-1480.411884,-10362.883188,0.000000
550.247347,-1258.350101,-11103.089130,0.000000
550.247671,74.020594,-10584.944971,306.438199
550.247995,666.185348,-10584.944971,229.828649
550.248319,296.082377,-11029.068536,1378.971896
550.248643,-370.102971,-10214.842000,-306.438199
550.248967,-592.164754,-9770.718434,-153.219100
550.249291,-740.205942,-10436.903782,-153.219100
550.249615,0.000000,-9770.718434,-1149.143247
550.249939,296.082377,-8734.430116,-842.705048
550.250263,74.020594,-9844.739029,-306.438199
550.250587,-222.061783,-11695.253884,-995.924147
550.250911,-740.205942,-11843.295072,-995.924147
550.251236,-1110.308913,-11473.192101,0.000000
550.251560,-814.226536,-11251.130318,0.000000
550.251884,148.041188,-10658.965565,76.609550
550.252208,444.123565,-10807.006753,1072.533697
550.252532,-148.041188,-11251.130318,1302.362347
550.252856,-666.185348,-10140.821405,612.876398
550.253180,-1554.432478,-8882.471304,76.609550
550.253504,-2220.617826,-8216.285956,76.609550
550.253828,-666.185348,-7698.141797,0.000000
550.254152,592.164754,-7254.018232,0.000000
550.254476,666.185348,-8438.347739,153.219100
550.254800,-444.123565,-8512.368333,-689.485948
550.255124,-1110.308913,-7624.121203,-1685.410096
550.255448,-2072.576638,-8364.327145,-459.657299
550.255772,-1036.288319,-9474.636058,76.609550
550.256096,0.000000,-9696.697840,0.000000
550.256421,-444.123565,-9770.718434,383.047749
550.256745,-1554.432478,-10955.047942,229.828649
550.257069,-1184.329507,-11325.150913,306.438199
550.257393,0.000000,-10436.903782,995.924147
550.257717,518.144159,-10140.821405,1225.752797
550.258041,1332.370696,-9770.718434,229.828649
550.258365,1998.556043,-8512.368333,-459.657299
550.258689,1258.350101,-8512.368333,-612.876398
550.259013,370.102971,-9622.677246,-1302.362347
550.259337,148.041188,-9918.759623,-2068.457845
550.259661,-1184.329507,-9844.739029,-1685.410096
550.259985,-1258.350101,-9622.677246,-1685.410096
550.260309,-296.082377,-9696.697840,-1838.629195
550.260633,-370.102971,-10288.862594,-842.705048
550.260957,-592.164754,-11769.274478,-689.485948
550.261281,-666.185348,-11251.130318,-612.876398
550.261606,666.185348,-9844.739029,-536.266849
550.261930,1258.350101,-9474.636058,153.219100
550.262254,2146.597232,-9474.636058,76.609550
550.262578,3182.885551,-8512.368333,612.876398
550.262902,2664.741391,-9474.636058,153.219100
550.263226,1776.494261,-10288.862594,-459.657299
550.263550,592.164754,-9474.636058,-1302.362347
550.263874,0.000000,-10288.862594,-612.876398
550.264198,-296.082377,-12065.356855,-383.047749
550.264522,-370.102971,-11769.274478,-995.924147
550.264846,-1184.329507,-11547.212695,-153.219100
550.265170,-1998.556043,-11917.315666,0.000000
550.265494,-1924.535449,-10807.006753,-612.876398
550.265818,-1998.556043,-9252.574275,0.000000
550.266142,-1702.473667,-9474.636058,536.266849
550.266466,-222.061783,-9030.512492,306.438199
550.266791,1406.391290,-7920.203579,1072.533697
550.267115,2146.597232,-7698.141797,2068.457845
550.267439,2442.679609,-8364.327145,1532.190996
550.267763,1702.473667,-8290.306550,689.485948
550.268087,814.226536,-7624.121203,689.485948
550.268411,0.000000,-7994.224174,306.438199
550.268735,0.000000,-8068.244768,153.219100
550.269059,-518.144159,-8956.491898,766.095498
550.269383,-1036.288319,-10214.842000,1455.581446
550.269707,-296.082377,-9770.718434,919.314598
550.270031,-666.185348,-8586.388927,842.705048
550.270355,-1480.411884,-9178.553681,842.705048
550.270679,-814.226536,-8660.409521,229.828649
550.271003,518.144159,-8216.285956,459.657299
550.271327,1480.411884,-8956.491898,1608.800546
550.271651,1406.391290,-9696.697840,1149.143247
550.271976,592.164754,-9548.656652,536.266849
550.272300,-222.061783,-9622.677246,536.266849
550.272624,-1480.411884,-9474.636058,-229.828649
550.272948,-962.267725,-9992.780217,-612.876398
550.273272,-1702.473667,-10288.862594,-1072.533697
550.273596,-2664.741391,-11399.171507,-153.219100
550.273920,-2664.741391,-11029.068536,-383.047749
550.274244,-1998.556043,-10436.903782,0.000000
550.274568,-2146.597232,-11103.089130,229.828649
550.274892,-1258.350101,-9918.759623,76.609550
550.275216,74.020594,-8956.491898,229.828649
550.275540,1184.329507,-9178.553681,689.485948
550.275864,1110.308913,-10288.862594,306.438199
550.276188,888.247130,-9474.636058,-536.266849
550.276512,888.247130,-9252.574275,-229.828649
550.276836,1258.350101,-9844.739029,0.000000
550.277161,1776.494261,-9548.656652,-995.924147
550.277485,1332.370696,-10066.800811,-689.485948
550.277809,370.102971,-11991.336260,229.828649
550.278133,-148.041188,-11695.253884,-995.924147
550.278457,-740.205942,-11029.068536,-919.314598
550.278781,-1332.370696,-10436.903782,-1072.533697
550.279105,-1036.288319,-10066.800811,-766.095498
550.279429,740.205942,-9844.739029,-229.828649
550.279753,592.164754,-10436.903782,0.000000
550.280077,0.000000,-10066.800811,-536.266849
550.280401,0.000000,-9474.636058,-306.438199
550.280725,444.123565,-9548.656652,-383.047749
550.281049,740.205942,-9844.739029,-842.705048
550.281373,962.267725,-9474.636058,-766.095498
550.281697,666.185348,-9918.759623,-229.828649
550.282021,0.000000,-10436.903782,-766.095498
550.282346,-370.102971,-9918.759623,-995.924147
550.282670,-1332.370696,-9104.533087,-1302.362347
550.282994,-1554.432478,-9844.739029,-306.438199
550.283318,-962.267725,-9474.636058,-383.047749
550.283642,666.185348,-7846.182985,229.828649
550.283966,740.205942,-8216.285956,995.924147
550.284290,222.061783,-8808.450710,229.828649
550.284614,444.123565,-8142.265362,76.609550
550.284938,0.000000,-7031.956449,-383.047749
550.285262,74.020594,-7550.100608,0.000000
550.285586,222.061783,-8068.244768,-766.095498
550.285910,0.000000,-8586.388927,-383.047749
550.286234,0.000000,-9252.574275,459.657299
550.286558,-370.102971,-9696.697840,-459.657299
550.286882,-1036.288319,-9844.739029,-842.705048
550.287206,-1850.514855,-10066.800811,-766.095498
550.287531,-518.144159,-9770.718434,-1149.143247
550.287855,666.185348,-9400.615463,-229.828649
550.288179,1184.329507,-10140.821405,76.609550
550.288503,814.226536,-10732.986159,0.000000
550.288827,222.061783,-10214.842000,-612.876398
550.289151,0.000000,-9696.697840,0.000000
550.289475,222.061783,-10362.883188,-689.485948
550.289799,444.123565,-10436.903782,-1149.143247
550.290123,1406.391290,-10436.903782,0.000000
550.290447,1258.350101,-12435.459826,383.047749
550.290771,888.247130,-12139.377449,-842.705048
550.291095,0.000000,-11399.171507,-459.657299
550.291419,-592.164754,-11843.295072,-459.657299
550.291743,-296.082377,-11843.295072,-612.876398
550.292067,518.144159,-10584.944971,-383.047749
550.292391,518.144159,-10510.924376,536.266849
550.292716,-222.061783,-11325.150913,-306.438199
550.293040,-296.082377,-10732.986159,-919.314598
550.293364,-1184.329507,-9326.594869,-153.219100
550.293688,-1258.350101,-9326.594869,229.828649
550.294012,-370.102971,-9104.533087,-306.438199
550.294336,-296.082377,-8290.306550,689.485948
550.294660,0.000000,-9252.574275,1608.800546
550.294984,-222.061783,-9918.759623,1149.143247
550.295308,-222.061783,-9696.697840,689.485948
550.295632,-1110.308913,-9030.512492,995.924147
550.295956,-1406.391290,-8956.491898,919.314598
550.296280,-592.164754,-8660.409521,1225.752797
550.296604,-296.082377,-9400.615463,1685.410096
550.296928,-1332.370696,-9252.574275,1532.190996
550.297252,-1554.432478,-7698.141797,1302.362347
550.297576,-1258.350101,-6661.853478,1608.800546
550.297901,-518.144159,-7698.141797,1302.362347
550.298225,0.000000,-7105.977043,766.095498
550.298549,-370.102971,-6735.874072,766.095498
550.298873,-1110.308913,-7994.224174,919.314598
550.299197,-888.247130,-9030.512492,76.609550
550.299521,-444.123565,-8216.285956,383.047749
550.299845,0.000000,-9030.512492,1455.581446
550.300169,1110.308913,-9474.636058,842.705048
550.300493,2220.617826,-9400.615463,995.924147
550.300817,2072.576638,-9844.739029,1762.019645
550.301141,1406.391290,-11103.089130,1149.143247
550.301466,1258.350101,-10584.944971,612.876398
550.301790,1258.350101,-9548.656652,842.705048
550.302114,1036.288319,-9178.553681,229.828649
550.302438,1258.350101,-8882.471304,-383.047749
550.302762,592.164754,-8142.265362,-1149.143247
550.303087,518.144159,-9474.636058,-995.924147
550.303411,0.000000,-9770.718434,-1762.019645
550.303735,-962.267725,-10140.821405,-1991.848295
550.304059,-1480.411884,-10807.006753,-1225.752797
550.304383,-814.226536,-11177.109724,-1149.143247
550.304708,148.041188,-10658.965565,-1378.971896
550.305032,-444.123565,-11843.295072,153.219100
550.305356,-740.205942,-12953.603985,0.000000
550.305680,592.164754,-12213.398043,-459.657299
550.306005,1628.453072,-11177.109724,76.609550
550.306329,1480.411884,-10510.924376,-153.219100
550.306653,1184.329507,-10362.883188,-995.924147
550.306977,1480.411884,-9918.759623,-459.657299
550.307301,1554.432478,-10140.821405,-536.266849
550.307626,962.267725,-9992.780217,-1149.143247
550.307950,222.061783,-9252.574275,-1838.629195
550.308274,-1480.411884,-9918.759623,-1149.143247
550.308598,-1332.370696,-10436.903782,-1762.019645
550.308922,-592.164754,-9770.718434,-1455.581446
550.309247,-1406.391290,-10214.842000,-919.314598
550.309571,-2220.617826,-10955.047942,-459.657299
550.309895,-2442.679609,-9622.677246,-383.047749
550.310219,-962.267725,-8808.450710,459.657299
550.310544,0.000000,-8956.491898,536.266849
550.310868,888.247130,-8808.450710,0.000000
550.311192,1776.494261,-7846.182985,-153.219100
550.311516,1628.453072,-7994.224174,459.657299
550.311840,888.247130,-7920.203579,-842.705048
550.312165,222.061783,-9104.533087,-689.485948
550.312489,-740.205942,-9400.615463,-459.657299
550.312813,-666.185348,-9400.615463,-919.314598
550.313137,-1480.411884,-8438.347739,-1608.800546
550.313461,-1850.514855,-9622.677246,-536.266849
550.313786,-2442.679609,-11399.171507,-612.876398
550.314110,-2664.741391,-10288.862594,-459.657299
550.314434,-3034.844362,-8512.368333,383.047749
550.314758,-2220.617826,-8660.409521,766.095498
550.315083,-296.082377,-8586.388927,76.609550
550.315407,814.226536,-7846.182985,536.266849
550.315731,1184.329507,-8808.450710,1149.143247
550.316055,1110.308913,-8808.450710,153.219100
550.316379,592.164754,-8364.327145,0.000000
550.316704,518.144159,-9992.780217,76.609550
550.317028,888.247130,-9844.739029,0.000000
550.317352,1110.308913,-9622.677246,-153.219100
550.317676,-296.082377,-10584.944971,0.000000
550.318001,-1258.350101,-11991.336260,-612.876398
550.318325,-1776.494261,-11621.233289,-1302.362347
550.318649,-2072.576638,-10436.903782,-536.266849
550.318973,-1554.432478,-10584.944971,-766.095498
550.319297,-888.247130,-9696.697840,-1378.971896
550.319622,222.061783,-9178.553681,-689.485948
550.319946,1332.370696,-9770.718434,1072.533697
550.320270,2368.659014,-10362.883188,612.876398
550.320594,2220.617826,-9622.677246,459.657299
550.320918,1480.411884,-10140.821405,995.924147
550.321243,1776.494261,-10584.944971,153.219100
550.321567,2738.761985,-10881.027347,0.000000
550.321891,1850.514855,-11399.171507,1149.143247
550.322215,296.082377,-12435.459826,689.485948
550.322540,-1406.391290,-11473.192101,-383.047749
550.322864,-2442.679609,-10510.924376,-689.485948
550.323188,-2442.679609,-10288.862594,-536.266849
550.323512,-1258.350101,-9252.574275,-995.924147
550.323836,148.041188,-8068.244768,306.438199
550.324161,1184.329507,-8586.388927,1378.971896
550.324485,1924.535449,-7846.182985,229.828649
550.324809,1924.535449,-7105.977043,306.438199
550.325133,1776.494261,-7624.121203,689.485948
550.325457,1184.329507,-8734.430116,153.219100
550.325782,1406.391290,-8512.368333,0.000000
550.326106,888.247130,-9252.574275,1378.971896
550.326430,-74.020594,-11103.089130,612.876398
550.326754,-592.164754,-9918.759623,-612.876398
550.327079,-1628.453072,-9030.512492,0.000000
550.327403,-2294.638420,-9622.677246,536.266849
550.327727,-1702.473667,-9548.656652,-536.266849
550.328051,-370.102971,-8512.368333,229.828649
550.328375,-222.061783,-8586.388927,1302.362347
550.328700,74.020594,-8734.430116,0.000000
550.329024,444.123565,-7772.162391,-689.485948
550.329348,0.000000,-7846.182985,0.000000
550.329672,518.144159,-8364.327145,76.609550
550.329996,962.267725,-8586.388927,-536.266849
550.330321,1850.514855,-9548.656652,459.657299
550.330645,1554.432478,-11325.150913,689.485948
550.330969,666.185348,-11251.130318,-229.828649
550.331293,-444.123565,-10510.924376,-383.047749
550.331618,-1702.473667,-11177.109724,0.000000
550.331942,-1628.453072,-11103.089130,-459.657299
550.332266,-222.061783,-10066.800811,76.609550
550.332590,0.000000,-9548.656652,-383.047749
550.332914,0.000000,-8956.491898,-1302.362347
550.333239,74.020594,-9178.553681,-1378.971896
550.333563,148.041188,-9844.739029,-689.485948
550.333887,444.123565,-9770.718434,-1072.533697
550.334211,592.164754,-9178.553681,-1302.362347
550.334536,222.061783,-10066.800811,-1532.190996
550.334860,-296.082377,-12731.542202,-1225.752797
550.335184,-1184.329507,-12287.418637,-1838.629195
550.335508,-1924.535449,-12139.377449,-689.485948
550.335832,-1924.535449,-12657.521608,-306.438199
550.336157,-1628.453072,-11843.295072,-306.438199
550.336481,-1258.350101,-10066.800811,0.000000
550.336805,-592.164754,-10214.842000,229.828649
550.337129,296.082377,-10807.006753,-766.095498
550.337453,222.061783,-10140.821405,-842.705048
550.337778,0.000000,-9104.533087,459.657299
550.338102,148.041188,-8438.347739,0.000000
550.338426,962.267725,-8068.244768,0.000000
550.338750,518.144159,-9622.677246,0.000000
550.339075,-962.267725,-10584.944971,-153.219100
550.339399,-1998.556043,-9474.636058,-919.314598
550.339723,-2368.659014,-9030.512492,0.000000
550.340047,-2146.597232,-9252.574275,306.438199
550.340371,-962.267725,-9030.512492,229.828649
550.340696,0.000000,-8216.285956,919.314598
550.341020,592.164754,-8068.244768,1149.143247
550.341344,518.144159,-8068.244768,536.266849
550.341668,1332.370696,-7031.956449,0.000000
550.341992,1406.391290,-6587.832884,1072.533697
550.342317,2590.720797,-7920.203579,1149.143247
550.342641,3034.844362,-7624.121203,612.876398
550.342965,1998.556043,-8216.285956,1225.752797
550.343289,1036.288319,-9696.697840,612.876398
550.343614,296.082377,-9844.739029,-383.047749
550.343938,-1036.288319,-9474.636058,-153.219100
550.344262,-2812.782580,-9844.739029,0.000000
550.344586,-3108.864956,-10066.800811,-995.924147
550.344910,-3404.947333,-9474.636058,-1378.971896
550.345235,-3108.864956,-9548.656652,-612.876398
550.345559,-1776.494261,-10658.965565,-1378.971896
550.345883,370.102971,-9992.780217,-1455.581446
550.346207,2368.659014,-9104.533087,-306.438199
550.346531,4145.153275,-9252.574275,-536.266849
550.346856,4071.132681,-9770.718434,-766.095498
550.347180,4071.132681,-10955.047942,153.219100
550.347504,2812.782580,-12361.439231,153.219100
550.347828,1702.473667,-12435.459826,-919.314598
550.348153,74.020594,-11547.212695,-459.657299
550.348477,-666.185348,-12435.459826,-153.219100
550.348801,-370.102971,-12879.583391,-383.047749
550.349125,-814.226536,-12065.356855,-306.438199
550.349449,-1628.453072,-11325.150913,536.266849
550.349774,-2294.638420,-10881.027347,-689.485948
550.350098,-2072.576638,-9622.677246,-1149.143247
550.350422,-1110.308913,-8438.347739,0.000000
550.350746,814.226536,-8512.368333,76.609550
550.351071,2220.617826,-8142.265362,0.000000
550.351395,3478.967927,-8808.450710,536.266849
550.351719,3182.885551,-9622.677246,766.095498
550.352043,2220.617826,-9770.718434,153.219100
550.352367,666.185348,-9548.656652,229.828649
550.352692,-1184.329507,-10436.903782,689.485948
550.353016,-1332.370696,-11029.068536,76.609550
550.353340,-592.164754,-9992.780217,689.485948
550.353664,-222.061783,-9844.739029,2374.896044
550.353988,0.000000,-9548.656652,612.876398
550.354313,-592.164754,-7624.121203,306.438199
550.354637,-1258.350101,-7328.038826,76.609550
550.354961,-1554.432478,-8882.471304,306.438199
550.355285,-148.041188,-7476.080014,-689.485948
550.355610,1184.329507,-6957.935855,1149.143247
550.355934,592.164754,-8660.409521,1225.752797
550.356258,888.247130,-9030.512492,-1072.533697
550.356582,-666.185348,-9178.553681,-842.705048
550.356906,-2886.803174,-11177.109724,229.828649
550.357231,-2294.638420,-11843.295072,-919.314598
550.357555,-2294.638420,-11029.068536,0.000000
550.357879,-3256.906145,-10362.883188,919.314598
550.358203,-3034.844362,-10214.842000,842.705048
550.358527,-1776.494261,-10584.944971,76.609550
550.358852,-1036.288319,-9474.636058,1378.971896
550.359176,-444.123565,-8364.327145,612.876398
550.359500,1036.288319,-7254.018232,229.828649
550.359824,2072.576638,-6365.771101,842.705048
550.360149,1702.473667,-7994.224174,766.095498
550.360473,814.226536,-9326.594869,-689.485948
550.360797,296.082377,-9178.553681,0.000000
550.361121,-518.144159,-10584.944971,383.047749
550.361445,740.205942,-10881.027347,-383.047749
550.361770,1332.370696,-9622.677246,-612.876398
550.362094,518.144159,-10658.965565,153.219100
550.362418,0.000000,-11843.295072,-612.876398
550.362742,-518.144159,-11029.068536,-995.924147
550.363066,-518.144159,-9474.636058,229.828649
550.363391,592.164754,-9030.512492,-459.657299
550.363715,2294.638420,-9030.512492,-689.485948
550.364039,2590.720797,-8882.471304,76.609550
550.364363,2368.659014,-10510.924376,0.000000
550.364688,1850.514855,-11029.068536,-689.485948
550.365012,148.041188,-11177.109724,-459.657299
550.365336,-1184.329507,-11177.109724,-919.314598
550.365660,-2368.659014,-11251.130318,-1532.190996
550.365984,-2220.617826,-10955.047942,-1532.190996
550.366309,-1924.535449,-12509.480420,-1149.143247
550.366633,-1258.350101,-12953.603985,-766.095498
550.366957,-222.061783,-11177.109724,-153.219100
550.367281,74.020594,-8956.491898,153.219100
550.367606,1036.288319,-7846.182985,-459.657299
550.367930,1776.494261,-7846.182985,-459.657299
550.368254,2738.761985,-8290.306550,-153.219100
550.368578,2368.659014,-8734.430116,76.609550
550.368902,1628.453072,-8216.285956,-842.705048
550.369227,814.226536,-7920.203579,-612.876398
550.369551,-370.102971,-8438.347739,-842.705048
550.369875,-666.185348,-8586.388927,-1378.971896
550.370199,-592.164754,-9326.594869,-1149.143247
550.370523,-1480.411884,-10288.862594,0.000000
550.370848,-2368.659014,-10807.006753,0.000000
550.371172,-2146.597232,-9474.636058,0.000000
550.371496,-1184.329507,-8882.471304,153.219100
550.371820,222.061783,-9474.636058,-383.047749
550.372145,1628.453072,-8660.409521,-766.095498
550.372469,1776.494261,-7624.121203,229.828649
550.372793,1110.308913,-9178.553681,383.047749
550.373117,888.247130,-9474.636058,-536.266849
550.373441,222.061783,-9252.574275,-383.047749
550.373766,-1184.329507,-9844.739029,76.609550
550.374090,-1258.350101,-9918.759623,-1149.143247
550.374414,-962.267725,-9770.718434,-995.924147
550.374738,-888.247130,-11399.171507,842.705048
550.375062,-1184.329507,-11991.336260,689.485948
550.375387,-1036.288319,-10807.006753,0.000000
550.375711,-1850.514855,-8956.491898,153.219100
550.376035,-1776.494261,-9030.512492,0.000000
550.376359,666.185348,-9104.533087,-689.485948
550.376684,2368.659014,-8808.450710,459.657299
550.377008,2294.638420,-9770.718434,1072.533697
550.377332,1850.514855,-9252.574275,153.219100
550.377656,1406.391290,-9030.512492,0.000000
550.377980,740.205942,-10362.883188,842.705048
550.378305,666.185348,-11547.212695,0.000000
550.378629,740.205942,-11177.109724,0.000000
550.378953,-592.164754,-11325.150913,919.314598
550.379277,-2072.576638,-11325.150913,612.876398
550.379601,-1628.453072,-11621.233289,536.266849
550.379926,-1776.494261,-10881.027347,919.314598
550.380250,-1850.514855,-9696.697840,689.485948
550.380574,-1406.391290,-8512.368333,0.000000
550.380898,-888.247130,-8068.244768,383.047749
550.381223,-888.247130,-9326.594869,1455.581446
550.381547,-1258.350101,-9400.615463,612.876398
550.381871,-370.102971,-8290.306550,766.095498
550.382195,-370.102971,-7846.182985,229.828649
550.382519,148.041188,-8068.244768,-459.657299
550.382844,444.123565,-8734.430116,0.000000
550.383168,74.020594,-10288.862594,1072.533697
550.383492,-148.041188,-10807.006753,919.314598
550.383816,-814.226536,-10140.821405,76.609550
550.384141,-962.267725,-8882.471304,995.924147
550.384465,74.020594,-9178.553681,459.657299
550.384789,1628.453072,-9030.512492,0.000000
550.385113,1924.535449,-9030.512492,1302.362347
550.385437,1850.514855,-9844.739029,1532.190996
550.385762,1776.494261,-9696.697840,153.219100
550.386086,1480.411884,-8512.368333,612.876398
550.386410,740.205942,-8438.347739,536.266849
550.386734,296.082377,-9400.615463,0.000000
550.387058,370.102971,-9918.759623,-919.314598
550.387383,-666.185348,-10214.842000,0.000000
550.387707,-962.267725,-10732.986159,-612.876398
550.388031,-666.185348,-10288.862594,-536.266849
550.388355,-592.164754,-10214.842000,0.000000
550.388680,-296.082377,-9992.780217,306.438199
550.389004,-222.061783,-9030.512492,-689.485948
550.389328,296.082377,-7846.182985,-459.657299
550.389652,0.000000,-9474.636058,-153.219100
550.389976,444.123565,-9400.615463,-1378.971896
550.390301,1110.308913,-8216.285956,-919.314598
550.390625,888.247130,-8882.471304,229.828649
550.390949,2220.617826,-9770.718434,-1072.533697
550.391273,2368.659014,-9696.697840,-1225.752797
550.391597,1924.535449,-10288.862594,229.828649
550.391922,814.226536,-10732.986159,-1149.143247
550.392246,-296.082377,-11325.150913,-1838.629195
550.392570,-1554.432478,-10955.047942,-1302.362347
550.392894,-1258.350101,-10807.006753,-766.095498
550.393219,0.000000,-10140.821405,-1608.800546
550.393543,-148.041188,-9770.718434,-766.095498
550.393867,-1036.288319,-10510.924376,-459.657299
550.394191,-1110.308913,-11547.212695,-1149.143247
550.394515,-1258.350101,-10214.842000,-1072.533697
550.394840,-962.267725,-9474.636058,-153.219100
550.395164,-370.102971,-9252.574275,-995.924147
550.395488,-148.041188,-9400.615463,-1378.971896
550.395812,-740.205942,-9696.697840,-153.219100
550.396136,-1406.391290,-10140.821405,-612.876398
550.396461,-1184.329507,-10510.924376,-612.876398
550.396785,-1480.411884,-11103.089130,306.438199
550.397109,-1036.288319,-10881.027347,76.609550
550.397433,296.082377,-9696.697840,0.000000
550.397758,888.247130,-9030.512492,0.000000
550.398082,592.164754,-10732.986159,995.924147
550.398406,814.226536,-11029.068536,76.609550
550.398730,518.144159,-9104.533087,-383.047749
550.399054,-296.082377,-8068.244768,229.828649
550.399379,0.000000,-8808.450710,-459.657299
550.399703,814.226536,-9252.574275,-1225.752797
550.400027,74.020594,-9548.656652,766.095498
550.400351,0.000000,-10362.883188,383.047749
550.400676,-592.164754,-9770.718434,0.000000
550.401000,-1776.494261,-9474.636058,1302.362347
550.401324,-2146.597232,-10288.862594,919.314598
550.401645,-1184.329507,-10362.883188,-536.266849
550.401969,-1332.370696,-9622.677246,612.876398
550.402293,-2072.576638,-10140.821405,1608.800546
550.402617,-1184.329507,-10436.903782,766.095498
550.402942,0.000000,-9400.615463,766.095498
550.403266,518.144159,-7920.203579,2145.067394
550.403590,1332.370696,-8364.327145,1072.533697
550.403914,2220.617826,-8364.327145,383.047749
550.404238,1480.411884,-8734.430116,1225.752797
550.404562,1184.329507,-8512.368333,842.705048
550.404887,1184.329507,-7772.162391,-612.876398
550.405211,518.144159,-8068.244768,76.609550
550.405535,666.185348,-9474.636058,153.219100
550.405859,1628.453072,-9104.533087,-842.705048
550.406183,962.267725,-8586.388927,76.609550
550.406507,592.164754,-9844.739029,1838.629195
550.406832,740.205942,-10510.924376,0.000000
550.407156,444.123565,-9622.677246,153.219100
550.407480,0.000000,-9474.636058,842.705048
550.407804,74.020594,-10066.800811,0.000000
550.408128,962.267725,-9622.677246,-383.047749
550.408452,1406.391290,-9696.697840,536.266849
550.408777,1184.329507,-9770.718434,229.828649
550.409101,518.144159,-10140.821405,-1302.362347
550.409425,-444.123565,-10584.944971,-153.219100
550.409749,-1702.473667,-11695.253884,-1072.533697
550.410073,-814.226536,-11103.089130,-1532.190996
550.410397,-740.205942,-10288.862594,-612.876398
550.410722,-1554.432478,-11547.212695,-536.266849
550.411046,-1480.411884,-11473.192101,-995.924147
550.411370,-1258.350101,-10140.821405,-766.095498
550.411694,-1036.288319,-9622.677246,0.000000
550.412018,-592.164754,-9400.615463,-612.876398
550.412342,444.123565,-8216.285956,-612.876398
550.412667,814.226536,-8142.265362,689.485948
550.412991,1184.329507,-9030.512492,-153.219100
550.413315,1480.411884,-9178.553681,-1149.143247
550.413639,666.185348,-8734.430116,0.000000
550.413963,962.267725,-9104.533087,536.266849
550.414287,1998.556043,-9622.677246,-612.876398
550.414611,1480.411884,-9474.636058,0.000000
550.414936,-222.061783,-10436.903782,0.000000
550.415260,-1480.411884,-11843.295072,-689.485948
550.415584,-1850.514855,-10807.006753,-612.876398
550.415908,-1776.494261,-9474.636058,0.000000
550.416232,-1554.432478,-9178.553681,-919.314598
550.416556,-1258.350101,-8956.491898,-689.485948
550.416881,-592.164754,-8512.368333,383.047749
550.417205,444.123565,-9548.656652,229.828649
550.417529,1258.350101,-9474.636058,-459.657299
550.417853,1258.350101,-9178.553681,229.828649
550.418177,740.205942,-9992.780217,76.609550
550.418501,740.205942,-9844.739029,-229.828649
550.418826,666.185348,-9770.718434,766.095498
550.419150,0.000000,-11177.109724,459.657299
550.419474,-1406.391290,-11547.212695,0.000000
550.419798,-1258.350101,-10140.821405,153.219100
550.420122,-592.164754,-9770.718434,1302.362347
550.420446,296.082377,-9844.739029,153.219100
550.420771,592.164754,-8290.306550,0.000000
550.421095,74.020594,-7920.203579,919.314598
550.421419,0.000000,-8956.491898,306.438199
550.421743,0.000000,-8808.450710,-689.485948
550.422067,-296.082377,-7698.141797,919.314598
550.422391,-814.226536,-8586.388927,1149.143247
550.422716,-962.267725,-9326.594869,-383.047749
550.423040,-1554.432478,-9918.759623,76.609550
550.423364,-2368.659014,-10732.986159,459.657299
550.423688,-2368.659014,-11325.150913,-536.266849
550.424012,-2738.761985,-10584.944971,0.000000
550.424336,-2664.741391,-9622.677246,383.047749
550.424661,-1776.494261,-9918.759623,-995.924147
550.424985,-666.185348,-9178.553681,-229.828649
550.425309,296.082377,-8956.491898,459.657299
550.425633,1702.473667,-9104.533087,0.000000
550.425957,3034.844362,-8808.450710,0.000000
550.426281,3256.906145,-9178.553681,689.485948
550.426606,2368.659014,-9474.636058,459.657299
550.426930,2072.576638,-10066.800811,-842.705048
550.427254,1850.514855,-10214.842000,-842.705048
550.427578,962.267725,-11029.068536,0.000000
550.427902,0.000000,-11547.212695,-536.266849
550.428226,-1406.391290,-11029.068536,-383.047749
550.428551,-2294.638420,-10214.842000,-306.438199
550.428875,-1998.556043,-10140.821405,-1762.019645
550.429199,-888.247130,-9474.636058,-1302.362347
550.429523,74.020594,-8586.388927,306.438199
550.429847,962.267725,-8882.471304,76.609550
550.430171,814.226536,-8586.388927,-689.485948
550.430496,518.144159,-8438.347739,229.828649
550.430820,888.247130,-9400.615463,-306.438199
550.431144,1776.494261,-9696.697840,-842.705048
550.431468,1850.514855,-9030.512492,153.219100
550.431792,518.144159,-10510.924376,842.705048
550.432116,-592.164754,-11843.295072,383.047749
550.432441,-1776.494261,-10955.047942,-229.828649
550.432765,-2368.659014,-9696.697840,612.876398
550.433089,-1776.494261,-9770.718434,76.609550
550.433413,-444.123565,-8808.450710,-919.314598
550.433737,444.123565,-8068.244768,919.314598
550.434061,740.205942,-7550.100608,919.314598
550.434386,1332.370696,-7920.203579,0.000000
550.434710,222.061783,-7920.203579,0.000000
550.435034,0.000000,-8142.265362,0.000000
550.435358,1554.432478,-8068.244768,-229.828649
550.435682,2664.741391,-8956.491898,-229.828649
550.436006,1554.432478,-10584.944971,459.657299
550.436330,518.144159,-11769.274478,0.000000
550.436655,-1184.329507,-11029.068536,-689.485948
550.436979,-1850.514855,-11473.192101,0.000000
550.437303,-2146.597232,-11473.192101,-995.924147
550.437627,-1776.494261,-9918.759623,-995.924147
550.437951,-1110.308913,-9548.656652,383.047749
550.438275,148.041188,-10807.006753,536.266849
550.438600,1036.288319,-9844.739029,-229.828649
550.438924,962.267725,-8808.450710,229.828649
550.439248,1184.329507,-8660.409521,0.000000
550.439572,1998.556043,-9474.636058,-1762.019645
550.439896,1702.473667,-9474.636058,-1302.362347
550.440220,222.061783,-10955.047942,229.828649
550.440545,-666.185348,-11991.336260,-536.266849
550.440869,-1554.432478,-11695.253884,-1302.362347
550.441193,-3182.885551,-11177.109724,-995.924147
550.441517,-2442.679609,-10955.047942,-459.657299
550.441841,-740.205942,-10658.965565,-919.314598
550.442165,-296.082377,-10510.924376,766.095498
550.442490,-296.082377,-9622.677246,1455.581446
550.442814,-370.102971,-8586.388927,153.219100
550.443138,-592.164754,-7402.059420,0.000000
550.443462,0.000000,-8068.244768,1072.533697
550.443786,518.144159,-8290.306550,-153.219100
550.444110,1036.288319,-8216.285956,383.047749
550.444435,0.000000,-9548.656652,1149.143247
550.444759,-888.247130,-10436.903782,306.438199
550.445083,-2072.576638,-9992.780217,-766.095498
550.445407,-3701.029710,-10214.842000,306.438199
550.445731,-3701.029710,-10436.903782,0.000000
550.446055,-1776.494261,-9474.636058,-1762.019645
550.446380,-740.205942,-8290.306550,689.485948
550.446704,0.000000,-8290.306550,536.266849
550.447028,1036.288319,-8364.327145,-229.828649
550.447352,1554.432478,-8142.265362,76.609550
550.447676,1776.494261,-8216.285956,919.314598
550.448000,2886.803174,-8512.368333,306.438199
550.448325,3478.967927,-8586.388927,306.438199
550.448649,2960.823768,-10362.883188,1302.362347
550.448973,2294.638420,-11843.295072,689.485948
550.449297,1332.370696,-11769.274478,76.609550
550.449621,-740.205942,-11843.295072,459.657299
550.449945,-1998.556043,-11473.192101,0.000000
550.450270,-1554.432478,-10584.944971,-919.314598
550.450594,-1480.411884,-9622.677246,-229.828649
550.450918,-962.267725,-10066.800811,459.657299
550.451242,-148.041188,-9992.780217,-689.485948
550.451566,148.041188,-8290.306550,0.000000
550.451890,814.226536,-7994.224174,76.609550
550.452215,2072.576638,-7698.141797,-689.485948
550.452539,2812.782580,-7920.203579,0.000000
550.452863,2442.679609,-9400.615463,383.047749
550.453187,1258.350101,-10066.800811,76.609550
550.453511,-444.123565,-9622.677246,0.000000
550.453835,-740.205942,-10510.924376,76.609550
550.454160,-592.164754,-10807.006753,-229.828649
550.454484,0.000000,-10436.903782,-383.047749
550.454808,-444.123565,-10140.821405,612.876398
550.455132,-518.144159,-10510.924376,459.657299
550.455456,-222.061783,-10214.842000,-153.219100
550.455780,-222.061783,-8586.388927,0.000000
550.456105,370.102971,-8216.285956,0.000000
550.456429,1184.329507,-8216.285956,-1149.143247
550.456753,1036.288319,-8142.265362,-1225.752797
550.457077,888.247130,-9326.594869,0.000000
550.457401,1036.288319,-11399.171507,-612.876398
550.457725,0.000000,-10732.986159,-1302.362347
550.458050,-1924.535449,-10066.800811,-459.657299
550.458374,-2812.782580,-10732.986159,-1149.143247
550.458698,-1850.514855,-11177.109724,-1072.533697
550.459022,-1110.308913,-10881.027347,0.000000
550.459346,-444.123565,-11473.192101,459.657299
550.459670,222.061783,-10288.862594,-459.657299
550.459994,518.144159,-8734.430116,0.000000
550.460319,740.205942,-8068.244768,766.095498
550.460643,2072.576638,-8734.430116,-153.219100
550.460967,2294.638420,-8586.388927,-76.609550
550.461291,1554.432478,-9030.512492,689.485948
550.461615,1110.308913,-10288.862594,229.828649
550.461939,444.123565,-10732.986159,-689.485948
550.462264,-1406.391290,-10955.047942,76.609550
550.462588,-2072.576638,-10807.006753,229.828649
550.462912,-2146.597232,-10362.883188,0.000000
550.463236,-2368.659014,-10510.924376,383.047749
550.463560,-2812.782580,-10288.862594,76.609550
550.463884,-2960.823768,-8956.491898,0.000000
550.464209,-2738.761985,-8512.368333,459.657299
550.464533,-1702.473667,-8808.450710,612.876398
550.464857,0.000000,-8216.285956,689.485948
550.465181,1776.494261,-7031.956449,1378.971896
550.465505,1924.535449,-7994.224174,2681.334243
550.465829,1480.411884,-8734.430116,1378.971896
550.466154,740.205942,-8956.491898,612.876398
550.466478,-1406.391290,-9918.759623,919.314598
550.466802,-1998.556043,-10214.842000,229.828649
550.467126,-888.247130,-9474.636058,153.219100
550.467450,-962.267725,-9622.677246,536.266849
550.467774,-1628.453072,-10140.821405,1072.533697
550.468099,-1628.453072,-9918.759623,-459.657299
550.468423,-740.205942,-8808.450710,229.828649
550.468747,-148.041188,-7994.224174,229.828649
550.469071,1554.432478,-7846.182985,0.000000
550.469395,2812.782580,-7550.100608,383.047749
550.469719,2960.823768,-8290.306550,919.314598
550.470044,2146.597232,-9474.636058,-153.219100
550.470368,1332.370696,-9696.697840,-1455.581446
550.470692,-296.082377,-10436.903782,-612.876398
550.471016,-666.185348,-11695.253884,-919.314598
550.471340,370.102971,-12065.356855,-842.705048
550.471664,222.061783,-12361.439231,-153.219100
550.471989,-592.164754,-12731.542202,-459.657299
550.472313,-1554.432478,-11843.295072,-1378.971896
550.472637,-1406.391290,-10140.821405,-1302.362347
550.472961,-888.247130,-9548.656652,-1455.581446
550.473285,592.164754,-9622.677246,-1072.533697
550.473609,2294.638420,-9030.512492,-1072.533697
550.473934,2590.720797,-8660.409521,0.000000
550.474258,2442.679609,-9622.677246,-536.266849
550.474582,1924.535449,-10066.800811,-1762.019645
550.474906,370.102971,-10066.800811,-459.657299
550.475230,0.000000,-10584.944971,-1072.533697
550.475554,-296.082377,-9918.759623,-1608.800546
550.475879,-814.226536,-9696.697840,-995.924147
550.476203,-814.226536,-10881.027347,-383.047749
550.476527,-888.247130,-10658.965565,-1225.752797
550.476851,-1628.453072,-9326.594869,-766.095498
550.477175,-1628.453072,-8660.409521,459.657299
550.477499,0.000000,-8068.244768,-459.657299
550.477824,2294.638420,-7476.080014,0.000000
550.478148,2886.803174,-7698.141797,1378.971896
550.478472,1998.556043,-9104.533087,842.705048
550.478796,1036.288319,-8956.491898,-383.047749
550.479120,0.000000,-8734.430116,612.876398
550.479444,0.000000,-9844.739029,766.095498
550.479769,518.144159,-10066.800811,-689.485948
550.480093,-1036.288319,-9622.677246,0.000000
550.480417,-2516.700203,-10658.965565,766.095498
550.480741,-2368.659014,-11399.171507,0.000000
550.481065,-2368.659014,-10140.821405,76.609550
550.481389,-2812.782580,-8882.471304,919.314598
550.481714,-1406.391290,-8364.327145,76.609550
550.482038,1110.308913,-8512.368333,153.219100
550.482362,2220.617826,-9104.533087,1838.629195
550.482686,2294.638420,-9252.574275,1685.410096
550.483010,1924.535449,-8438.347739,919.314598
550.483334,592.164754,-8290.306550,842.705048
550.483658,-370.102971,-9474.636058,612.876398
550.483983,0.000000,-10288.862594,0.000000
550.484307,-296.082377,-10362.883188,306.438199
550.484631,-1332.370696,-11103.089130,1455.581446
550.484955,-1924.535449,-11029.068536,612.876398
550.485279,-2664.741391,-9622.677246,-153.219100
550.485603,-3552.988522,-9326.594869,766.095498
550.485928,-2516.700203,-9696.697840,0.000000
550.486252,-1332.370696,-9474.636058,306.438199
550.486576,-370.102971,-9474.636058,1455.581446
550.486900,-74.020594,-9474.636058,1532.190996
550.487224,444.123565,-9104.533087,0.000000
550.487548,444.123565,-8068.244768,76.609550
550.487873,-222.061783,-8882.471304,536.266849
550.488197,444.123565,-9992.780217,-612.876398
550.488521,740.205942,-10362.883188,153.219100
550.488845,296.082377,-11399.171507,842.705048
550.489169,0.000000,-11473.192101,-383.047749
550.489493,-592.164754,-10436.903782,-689.485948
550.489818,-814.226536,-10288.862594,-612.876398
550.490142,0.000000,-10584.944971,-612.876398
550.490466,1480.411884,-9548.656652,-229.828649
550.490790,2516.700203,-9770.718434,1225.752797
550.491114,2738.761985,-9770.718434,1225.752797
550.491438,2886.803174,-9474.636058,536.266849
550.491763,2516.700203,-8956.491898,459.657299
550.492087,1480.411884,-8956.491898,-383.047749
550.492411,1184.329507,-8734.430116,-689.485948
550.492735,814.226536,-8956.491898,0.000000
550.493059,0.000000,-10807.006753,76.609550
550.493383,-592.164754,-10658.965565,-995.924147
550.493708,-1480.411884,-9400.615463,-1378.971896
550.494032,-2220.617826,-9474.636058,-766.095498
550.494356,-1702.473667,-9918.759623,-1072.533697
550.494680,0.000000,-8882.471304,-1225.752797
550.495004,666.185348,-8290.306550,459.657299
550.495328,1406.391290,-9474.636058,919.314598
550.495653,1406.391290,-9400.615463,383.047749
550.495977,592.164754,-8290.306550,-306.438199
550.496301,296.082377,-8438.347739,383.047749
550.496625,740.205942,-9474.636058,-612.876398
550.496949,592.164754,-9474.636058,-153.219100
550.497273,296.082377,-10140.821405,0.000000
550.497598,-370.102971,-10510.924376,-612.876398
550.497922,-1036.288319,-9992.780217,-2068.457845
550.498246,-2072.576638,-9918.759623,-919.314598
550.498570,-1998.556043,-10214.842000,-689.485948
550.498894,-740.205942,-9622.677246,-1149.143247
550.499218,296.082377,-8882.471304,-612.876398
550.499543,370.102971,-9622.677246,-383.047749
550.499867,370.102971,-9696.697840,-229.828649
550.500191,518.144159,-9400.615463,-153.219100
550.500515,148.041188,-8438.347739,-229.828649
550.500839,148.041188,-8438.347739,-536.266849
550.501163,740.205942,-9326.594869,-306.438199
550.501488,740.205942,-10436.903782,-229.828649
550.501812,0.000000,-10510.924376,-1225.752797
550.502136,-814.226536,-10066.800811,-1532.190996
550.502460,-1110.308913,-10732.986159,-383.047749
550.502784,-444.123565,-11177.109724,-842.705048
550.503109,370.102971,-9844.739029,-919.314598
550.503433,-148.041188,-10214.842000,-153.219100
550.503757,-518.144159,-11769.274478,-842.705048
550.504081,-740.205942,-11547.212695,-1378.971896
550.504405,-888.247130,-10288.862594,0.000000
550.504730,0.000000,-9918.759623,919.314598
550.505054,1184.329507,-9622.677246,-306.438199
550.505378,814.226536,-9770.718434,536.266849
550.505702,148.041188,-10066.800811,1225.752797
550.506026,0.000000,-11399.171507,153.219100
550.506351,-962.267725,-10658.965565,0.000000
550.506675,-2294.638420,-10436.903782,919.314598
550.506999,-2220.617826,-10214.842000,536.266849
550.507323,-888.247130,-9400.615463,-229.828649
550.507647,-814.226536,-9104.533087,1072.533697
550.507972,-370.102971,-9622.677246,1302.362347
550.508296,-370.102971,-9252.574275,459.657299
550.508620,-592.164754,-7994.224174,1149.143247
550.508944,-740.205942,-7624.121203,1072.533697
550.509269,-444.123565,-7698.141797,383.047749
550.509593,444.123565,-7994.224174,1302.362347
550.509917,1036.288319,-8882.471304,1838.629195
550.510241,1184.329507,-9252.574275,1532.190996
550.510565,666.185348,-9104.533087,1455.581446
550.510890,-592.164754,-8882.471304,995.924147
550.511214,-814.226536,-8660.409521,612.876398
550.511538,296.082377,-8882.471304,1072.533697
550.511862,1332.370696,-10362.883188,1762.019645
550.512186,888.247130,-10955.047942,1072.533697
550.512511,0.000000,-9696.697840,536.266849
550.512835,-370.102971,-8586.388927,842.705048
550.513159,-148.041188,-9474.636058,306.438199
550.513483,74.020594,-9696.697840,-842.705048
550.513807,0.000000,-9104.533087,0.000000
550.514132,1184.329507,-9252.574275,536.266849
550.514456,2146.597232,-9918.759623,76.609550
550.514780,1554.432478,-9992.780217,612.876398
550.515104,518.144159,-10658.965565,1225.752797
550.515429,0.000000,-11029.068536,-306.438199
550.515753,444.123565,-10510.924376,-229.828649
550.516077,666.185348,-10955.047942,766.095498
550.516401,370.102971,-11843.295072,612.876398
550.516725,0.000000,-11251.130318,-153.219100
550.517050,-1184.329507,-9104.533087,-383.047749
550.517374,-1850.514855,-8068.244768,-766.095498
550.517698,74.020594,-8586.388927,-1455.581446
550.518022,814.226536,-8512.368333,-995.924147
550.518346,888.247130,-8364.327145,459.657299
550.518671,1036.288319,-9030.512492,-766.095498
550.518995,-148.041188,-8808.450710,-1149.143247
550.519319,-814.226536,-9474.636058,-153.219100
550.519643,-296.082377,-10362.883188,-1149.143247
550.519967,444.123565,-9326.594869,-689.485948
550.520292,518.144159,-9548.656652,76.609550
550.520616,222.061783,-11251.130318,0.000000
550.520940,-296.082377,-11399.171507,-1225.752797
550.521264,-1332.370696,-9696.697840,-1532.190996
550.521589,-1998.556043,-9104.533087,-919.314598
550.521913,-518.144159,-9178.553681,-1838.629195
550.522237,1332.370696,-9178.553681,-766.095498
550.522561,2368.659014,-9252.574275,0.000000
550.522885,2368.659014,-8734.430116,-536.266849
550.523210,1258.350101,-9474.636058,-1532.190996
550.523534,-148.041188,-10362.883188,-1072.533697
550.523858,-814.226536,-11399.171507,-766.095498
550.524182,-518.144159,-10807.006753,-995.924147
550.524506,-962.267725,-10510.924376,-383.047749
550.524831,-1998.556043,-10955.047942,-306.438199
550.525155,-2368.659014,-11177.109724,-1608.800546
550.525479,-3108.864956,-10066.800811,-1302.362347
550.525803,-3034.844362,-9474.636058,-306.438199
550.526127,-1850.514855,-9696.697840,-689.485948
550.526452,-592.164754,-8956.491898,0.000000
550.526776,148.041188,-8438.347739,919.314598
550.527100,444.123565,-8438.347739,76.609550
550.527424,740.205942,-8734.430116,-383.047749
550.527749,-370.102971,-9104.533087,-306.438199
550.528073,-444.123565,-9326.594869,0.000000
550.528397,592.164754,-9104.533087,-229.828649
550.528721,518.144159,-10066.800811,689.485948
550.529045,-296.082377,-11177.109724,919.314598
550.529370,-1628.453072,-10510.924376,306.438199
550.529694,-2960.823768,-9400.615463,536.266849
550.530018,-2516.700203,-9178.553681,536.266849
550.530342,-1554.432478,-8808.450710,153.219100
550.530666,370.102971,-8142.265362,766.095498
550.530991,1406.391290,-8068.244768,2221.676944
550.531315,1776.494261,-8142.265362,1762.019645
550.531639,1628.453072,-7698.141797,383.047749
550.531963,370.102971,-8142.265362,76.609550
550.532287,518.144159,-9844.739029,536.266849
550.532612,444.123565,-9548.656652,76.609550
550.532936,962.267725,-10658.965565,766.095498
550.533260,0.000000,-12287.418637,612.876398
550.533584,-962.267725,-12213.398043,-383.047749
550.533909,-1036.288319,-11103.089130,229.828649
550.534233,-888.247130,-10732.986159,612.876398
550.534557,592.164754,-11177.109724,0.000000
550.534881,1110.308913,-10214.842000,842.705048
550.535205,1850.514855,-9770.718434,1762.019645
550.535530,2146.597232,-8956.491898,842.705048
550.535854,1628.453072,-8364.327145,-153.219100
550.536178,1184.329507,-8882.471304,459.657299
550.536502,1332.370696,-9992.780217,306.438199
550.536826,1480.411884,-9548.656652,153.219100
550.537151,740.205942,-9178.553681,536.266849
550.537475,-370.102971,-10436.903782,153.219100
550.537799,-1406.391290,-11769.274478,-842.705048
550.538123,-1776.494261,-10807.006753,-842.705048
550.538447,-1850.514855,-10214.842000,0.000000
550.538772,-814.226536,-9622.677246,-383.047749
550.539096,888.247130,-9104.533087,-383.047749
550.539420,814.226536,-8364.327145,995.924147
550.539744,1184.329507,-8660.409521,536.266849
550.540069,888.247130,-8142.265362,0.000000
550.540393,444.123565,-7698.141797,-153.219100
550.540717,814.226536,-7550.100608,76.609550
550.541041,1924.535449,-7328.038826,-536.266849
550.541365,1850.514855,-8142.265362,-229.828649
550.541690,74.020594,-10436.903782,0.000000
550.542014,-1332.370696,-10807.006753,-1608.800546
550.542338,-2664.741391,-10214.842000,-919.314598
550.542662,-3701.029710,-10362.883188,0.000000
550.542986,-2590.720797,-10362.883188,-1302.362347
550.543311,-1110.308913,-9252.574275,-1149.143247
550.543635,74.020594,-9474.636058,0.000000
550.543959,666.185348,-9474.636058,-689.485948
550.544283,1110.308913,-9326.594869,-1072.533697
550.544607,1406.391290,-8586.388927,-612.876398
550.544932,2146.597232,-8734.430116,-995.924147
550.545256,2368.659014,-9178.553681,-1302.362347
550.545580,1184.329507,-10214.842000,-306.438199
550.545904,-444.123565,-11991.336260,-153.219100
550.546229,-1332.370696,-12435.459826,-995.924147
550.546553,-2516.700203,-11547.212695,-689.485948
550.546877,-3923.091493,-11177.109724,-536.266849
550.547201,-2886.803174,-11251.130318,-1302.362347
550.547525,-2516.700203,-9918.759623,-842.705048
550.547850,-2146.597232,-9326.594869,0.000000
550.548174,-1850.514855,-9474.636058,0.000000
550.548498,-1036.288319,-8882.471304,-612.876398
550.548822,222.061783,-7994.224174,383.047749
550.549146,1776.494261,-8586.388927,76.609550
550.549471,2738.761985,-8512.368333,0.000000
550.549795,2442.679609,-9622.677246,919.314598
550.550119,1258.350101,-11473.192101,689.485948
550.550443,0.000000,-11177.109724,0.000000
550.550767,-1110.308913,-10288.862594,306.438199
550.551092,-2146.597232,-10658.965565,76.609550
550.551416,-2220.617826,-10510.924376,-689.485948
550.551740,-1406.391290,-9178.553681,-612.876398
550.552064,-1406.391290,-8882.471304,383.047749
550.552389,-592.164754,-9474.636058,76.609550
550.552713,-148.041188,-8438.347739,0.000000
550.553037,0.000000,-7550.100608,919.314598
550.553361,1110.308913,-7846.182985,383.047749
550.553685,2146.597232,-7920.203579,0.000000
550.554010,2072.576638,-8438.347739,612.876398
550.554334,1406.391290,-10362.883188,689.485948
550.554658,814.226536,-11325.150913,-306.438199
550.554982,-148.041188,-10955.047942,0.000000
550.555306,-888.247130,-11325.150913,76.609550
550.555631,-666.185348,-11325.150913,-612.876398
550.555955,148.041188,-10066.800811,-306.438199
550.556279,74.020594,-9844.739029,919.314598
550.556603,592.164754,-9548.656652,153.219100
550.556927,0.000000,-8142.265362,153.219100
550.557252,74.020594,-8734.430116,1225.752797
550.557576,1332.370696,-8586.388927,0.000000
550.557900,1998.556043,-7846.182985,-383.047749
550.558224,1702.473667,-8216.285956,766.095498
550.558549,1184.329507,-10214.842000,383.047749
550.558873,888.247130,-10658.965565,0.000000
550.559197,-962.267725,-9992.780217,0.000000
550.559521,-2146.597232,-10214.842000,0.000000
550.559845,-1628.453072,-10732.986159,-995.924147
550.560170,74.020594,-10066.800811,-459.657299
550.560494,888.247130,-10214.842000,689.485948
550.560818,370.102971,-10362.883188,383.047749
550.561142,222.061783,-9474.636058,-383.047749
550.561466,592.164754,-8734.430116,612.876398
550.561791,1110.308913,-8364.327145,0.000000
550.562115,1998.556043,-8142.265362,-306.438199
550.562439,1702.473667,-8290.306550,306.438199
550.562763,1184.329507,-10066.800811,689.485948
550.563087,518.144159,-10807.006753,-689.485948
550.563412,-222.061783,-9474.636058,-229.828649
550.563736,-1258.350101,-10510.924376,-383.047749
550.564060,-1480.411884,-10658.965565,-995.924147
550.564384,-814.226536,-9770.718434,-842.705048
550.564709,-222.061783,-10584.944971,459.657299
550.565033,444.123565,-11251.130318,0.000000
550.565357,888.247130,-9770.718434,-842.705048
550.565681,888.247130,-8512.368333,383.047749
550.566005,814.226536,-8882.471304,153.219100
550.566330,1702.473667,-9178.553681,-229.828649
550.566654,1258.350101,-9030.512492,383.047749
550.566978,0.000000,-9622.677246,306.438199
550.567302,-740.205942,-10436.903782,-536.266849
550.567626,-1332.370696,-10807.006753,-536.266849
550.567951,-1702.473667,-11029.068536,842.705048
550.568275,-1998.556043,-10066.800811,153.219100
550.568599,-2590.720797,-9326.594869,-306.438199
550.568923,-2738.761985,-9548.656652,306.438199
550.569247,-2442.679609,-10510.924376,0.000000
550.569572,-1998.556043,-9622.677246,153.219100
550.569896,-1628.453072,-8438.347739,766.095498
550.570220,-962.267725,-7920.203579,153.219100
550.570544,0.000000,-7328.038826,0.000000
550.570869,814.226536,-7994.224174,0.000000
550.571193,444.123565,-9178.553681,76.609550
550.571517,296.082377,-9696.697840,-153.219100
550.571841,-1184.329507,-9918.759623,-229.828649
550.572165,-1406.391290,-10288.862594,0.000000
550.572490,-444.123565,-10881.027347,-306.438199
550.572814,-222.061783,-10288.862594,0.000000
550.573138,-444.123565,-10658.965565,536.266849
550.573462,-814.226536,-10732.986159,0.000000
550.573786,-296.082377,-9474.636058,306.438199
550.574111,814.226536,-9400.615463,1149.143247
550.574435,1776.494261,-9474.636058,306.438199
550.574759,2220.617826,-8142.265362,-612.876398
550.575083,2368.659014,-7698.141797,-459.657299
550.575407,2368.659014,-9030.512492,-612.876398
550.575732,1628.453072,-9918.759623,-1302.362347
550.576056,-370.102971,-9770.718434,-1302.362347
550.576380,-1258.350101,-10658.965565,0.000000
550.576704,-1036.288319,-11177.109724,-1225.752797
550.577029,-444.123565,-11103.089130,-1455.581446
550.577353,-888.247130,-11473.192101,-459.657299
550.577677,-444.123565,-11769.274478,-612.876398
550.578001,-222.061783,-11103.089130,-459.657299
550.578325,740.205942,-10140.821405,383.047749
550.578650,2072.576638,-9992.780217,1302.362347
550.578974,3256.906145,-9326.594869,153.219100
550.579298,3108.864956,-8586.388927,306.438199
550.579622,2368.659014,-9400.615463,229.828649
550.579946,1332.370696,-10066.800811,-995.924147
550.580271,370.102971,-10066.800811,-995.924147
550.580595,-888.247130,-10140.821405,0.000000
550.580919,-1480.411884,-10584.944971,-1378.971896
550.581243,-1702.473667,-9622.677246,-1149.143247
550.581567,-2442.679609,-9918.759623,-459.657299
550.581892,-2664.741391,-10066.800811,-919.314598
550.582216,-2368.659014,-9252.574275,-1225.752797
550.582540,-1924.535449,-7698.141797,-536.266849
550.582864,-888.247130,-7476.080014,536.266849
550.583189,1406.391290,-7994.224174,766.095498
550.583513,3330.926739,-8142.265362,1302.362347
550.583837,3627.009116,-9104.533087,1838.629195
550.584161,2590.720797,-9474.636058,1149.143247
550.584485,1184.329507,-8956.491898,76.609550
550.584810,0.000000,-9622.677246,536.266849
550.585134,-592.164754,-9548.656652,0.000000
550.585458,-740.205942,-9696.697840,-459.657299
550.585782,-1184.329507,-9622.677246,0.000000
550.586106,-2294.638420,-10140.821405,-612.876398
550.586431,-2294.638420,-9696.697840,-842.705048
550.586755,-2368.659014,-8882.471304,-229.828649
550.587079,-1480.411884,-9030.512492,0.000000
550.587403,0.000000,-8216.285956,-459.657299
550.587727,962.267725,-8734.430116,76.609550
550.588052,1702.473667,-9918.759623,1302.362347
550.588376,1776.494261,-10288.862594,1149.143247
550.588700,1776.494261,-9548.656652,766.095498
550.589024,666.185348,-10066.800811,383.047749
550.589349,148.041188,-10732.986159,-536.266849
550.589673,0.000000,-10807.006753,-689.485948
550.589997,-444.123565,-11621.233289,153.219100
550.590321,-592.164754,-12657.521608,0.000000
550.590645,-1924.535449,-11251.130318,-612.876398
550.590970,-2368.659014,-10140.821405,0.000000
550.591294,-2294.638420,-10066.800811,-383.047749
550.591618,-962.267725,-9474.636058,-995.924147
550.591942,-518.144159,-8660.409521,-383.047749
550.592266,-518.144159,-8882.471304,0.000000
550.592591,0.000000,-9326.594869,0.000000
550.592915,296.082377,-9030.512492,153.219100
550.593239,-296.082377,-8882.471304,995.924147
550.593563,-370.102971,-10140.821405,459.657299
550.593887,0.000000,-10658.965565,0.000000
550.594212,-666.185348,-10584.944971,536.266849
550.594536,-444.123565,-10732.986159,0.000000
550.594860,74.020594,-10214.842000,-766.095498
550.595184,-666.185348,-9992.780217,-459.657299
550.595509,-1258.350101,-9696.697840,-306.438199
550.595833,-1702.473667,-8808.450710,-689.485948
550.596157,-1406.391290,-8068.244768,-766.095498
550.596481,-1702.473667,-8364.327145,-383.047749
550.596805,-1850.514855,-8882.471304,-842.705048
550.597130,-1480.411884,-7920.203579,-1302.362347
550.597454,-1184.329507,-7402.059420,153.219100
550.597778,0.000000,-8512.368333,-612.876398
550.598102,1110.308913,-8216.285956,-1149.143247
550.598426,444.123565,-8586.388927,-306.438199
550.598751,-444.123565,-10140.821405,-612.876398
550.599075,-666.185348,-10362.883188,-1455.581446
550.599399,-1258.350101,-9622.677246,-1685.410096
550.599723,-1628.453072,-9770.718434,-919.314598
550.600047,-1258.350101,-10066.800811,-1685.410096
550.600372,-518.144159,-9400.615463,-2221.676944
550.600696,296.082377,-9178.553681,-995.924147
550.601020,666.185348,-10288.862594,-1225.752797
550.601344,814.226536,-10066.800811,-1915.238745
550.601668,74.020594,-8290.306550,-2451.505594
550.601993,-592.164754,-8142.265362,-1608.800546
550.602317,-1628.453072,-9104.533087,-2298.286494
550.602641,-2442.679609,-9844.739029,-3140.991542
550.602965,-3849.070898,-10214.842000,-3064.381992
550.603289,-4367.215058,-10807.006753,-3294.210641
550.603614,-3923.091493,-10658.965565,-3830.477490
550.603938,-4515.256246,-11251.130318,-3753.867940
550.604262,-5033.400406,-11769.274478,-3753.867940
550.604586,-4071.132681,-11177.109724,-3064.381992
550.604910,-1332.370696,-10732.986159,-2221.676944
550.605235,370.102971,-10436.903782,-1991.848295
550.605559,1628.453072,-10362.883188,-1915.238745
550.605883,2368.659014,-11177.109724,-2221.676944
550.606207,1480.411884,-11177.109724,-2987.772442
550.606531,-592.164754,-11103.089130,-3370.820191
550.606856,-2072.576638,-11621.233289,-3140.991542
550.607180,-3108.864956,-11843.295072,-4366.744339
550.607504,-4589.276840,-11103.089130,-5209.449386
550.607828,-4367.215058,-10288.862594,-3677.258390
550.608152,-3404.947333,-11103.089130,-3064.381992
550.608476,-2960.823768,-10955.047942,-3447.429741
550.608801,-3701.029710,-8808.450710,-2604.724693
550.609125,-3997.112087,-7402.059420,-2528.115143
550.609449,-3478.967927,-9252.574275,-2451.505594
550.609773,-2368.659014,-10807.006753,-1608.800546
550.610097,-1406.391290,-9770.718434,-1302.362347
550.610422,-888.247130,-8882.471304,76.609550
550.610746,222.061783,-9030.512492,-306.438199
550.611070,888.247130,-8808.450710,-1225.752797
550.611394,-1036.288319,-7994.224174,-1608.800546
550.611718,-3775.050304,-8142.265362,-1991.848295
550.612043,-5181.441594,-9474.636058,-1762.019645
550.612367,-3552.988522,-10732.986159,-1225.752797
550.612691,-3256.906145,-9104.533087,-612.876398
550.613015,-3849.070898,-8438.347739,-536.266849
550.613339,-4515.256246,-9326.594869,-1685.410096
550.613663,-3256.906145,-9252.574275,-2451.505594
550.613988,-2590.720797,-8734.430116,-1762.019645
550.614312,-2738.761985,-9252.574275,-919.314598
550.614636,-2886.803174,-9474.636058,-1455.581446
550.614960,-2072.576638,-8068.244768,-1072.533697
550.615284,-1480.411884,-6439.791695,-229.828649
550.615609,-1110.308913,-7624.121203,-1532.190996
550.615933,-1850.514855,-9326.594869,-1762.019645
550.616257,-2294.638420,-9104.533087,-1225.752797
550.616581,-962.267725,-7772.162391,-995.924147
550.616905,-222.061783,-7698.141797,-919.314598
550.617230,-1776.494261,-9918.759623,-1225.752797
550.617554,-3775.050304,-11103.089130,-995.924147
550.617878,-4219.173869,-11103.089130,-1762.019645
550.618202,-4145.153275,-10658.965565,-2451.505594
550.618526,-3478.967927,-10510.924376,-2068.457845
550.618850,-1776.494261,-10658.965565,-1378.971896
550.619175,148.041188,-10510.924376,-842.705048
550.619499,148.041188,-10288.862594,-1532.190996
550.619823,-592.164754,-10362.883188,-2987.772442
550.620147,-2146.597232,-11843.295072,-3294.210641
550.620471,-2072.576638,-12435.459826,-3294.210641
550.620796,-444.123565,-11695.253884,-3064.381992
550.621120,814.226536,-11621.233289,-2298.286494
550.621444,296.082377,-12805.562797,-2451.505594
550.621768,-1702.473667,-13323.706956,-2987.772442
550.622092,-2664.741391,-11325.150913,-2987.772442
550.622417,-2812.782580,-8660.409521,-3140.991542
550.622741,-1998.556043,-8882.471304,-2987.772442
550.623065,-1850.514855,-9770.718434,-2528.115143
550.623389,-2146.597232,-9548.656652,-1991.848295
550.623713,-1850.514855,-8956.491898,-2145.067394
550.624037,-2516.700203,-8290.306550,-2911.162892
550.624362,-2664.741391,-8068.244768,-2528.115143
550.624686,-1628.453072,-7254.018232,-1838.629195
550.625010,74.020594,-7624.121203,-1991.848295
550.625334,0.000000,-9178.553681,-2451.505594
550.625658,-1258.350101,-11399.171507,-2374.896044
550.625983,-2442.679609,-12657.521608,-2221.676944
550.626307,-3330.926739,-11769.274478,-2374.896044
550.626631,-4589.276840,-9474.636058,-2374.896044
550.626955,-4885.359217,-8808.450710,-1685.410096
550.627279,-3849.070898,-8734.430116,-2298.286494
550.627604,-2146.597232,-8216.285956,-2374.896044
550.627928,-814.226536,-7698.141797,-2145.067394
550.628252,0.000000,-7179.997637,-1991.848295
550.628576,0.000000,-7550.100608,-1991.848295
550.628900,-1480.411884,-7846.182985,-1532.190996
550.629224,-2738.761985,-7994.224174,-1762.019645
550.629549,-3849.070898,-8290.306550,-2221.676944
550.629873,-4737.318029,-9030.512492,-2221.676944
550.630197,-3108.864956,-9770.718434,-2298.286494
550.630521,-962.267725,-9474.636058,-1225.752797
550.630845,444.123565,-9474.636058,-689.485948
550.631170,592.164754,-10140.821405,-1072.533697
550.631494,-814.226536,-10066.800811,-1915.238745
550.631818,-2812.782580,-10510.924376,-1915.238745
550.632142,-4515.256246,-10807.006753,-3064.381992
550.632466,-5477.523971,-11843.295072,-3064.381992
550.632791,-4737.318029,-11843.295072,-3217.601092
550.633115,-3256.906145,-11547.212695,-2681.334243
550.633439,-1702.473667,-11325.150913,-2451.505594
550.633763,-1628.453072,-10066.800811,-2528.115143
550.634087,-1702.473667,-9104.533087,-2604.724693
550.634411,-1924.535449,-9252.574275,-2987.772442
550.634736,-2146.597232,-9844.739029,-2298.286494
550.635060,-2294.638420,-10955.047942,-1991.848295
550.635384,-2294.638420,-10584.944971,-1685.410096
550.635708,-2886.803174,-10066.800811,-1991.848295
550.636032,-3997.112087,-9844.739029,-2528.115143
550.636357,-5107.421000,-10955.047942,-2451.505594
550.636681,-4811.338623,-12139.377449,-2374.896044
550.637005,-3404.947333,-11991.336260,-2298.286494
550.637329,-1628.453072,-11251.130318,-2068.457845
550.637653,0.000000,-9104.533087,-1378.971896
550.637978,666.185348,-8438.347739,-1685.410096
550.638302,444.123565,-7624.121203,-2221.676944
550.638626,0.000000,-7624.121203,-2221.676944
550.638950,148.041188,-7920.203579,-2374.896044
550.639274,0.000000,-8438.347739,-1991.848295
550.639598,-814.226536,-8660.409521,-1608.800546
550.639923,-2664.741391,-9104.533087,-1915.238745
550.640247,-4885.359217,-8956.491898,-2681.334243
550.640571,-6661.853478,-9770.718434,-3294.210641
550.640895,-7550.100608,-9622.677246,-3983.696590
550.641219,-5921.647536,-10066.800811,-2757.943793
550.641544,-3552.988522,-11251.130318,-1608.800546
550.641868,-888.247130,-11029.068536,-612.876398
550.642192,888.247130,-9918.759623,-306.438199
550.642516,1924.535449,-8660.409521,-536.266849
550.642840,2294.638420,-8586.388927,-2068.457845
550.643165,3034.844362,-9474.636058,-1915.238745
550.643489,3997.112087,-9474.636058,-1608.800546
550.643813,4219.173869,-9844.739029,-689.485948
550.644137,2590.720797,-10066.800811,-919.314598
550.644461,222.061783,-9992.780217,-1455.581446
550.644785,-2886.803174,-10362.883188,-2145.067394
550.645110,-5921.647536,-10658.965565,-2528.115143
550.645434,-8734.430116,-10436.903782,-3753.867940
550.645758,-8808.450710,-10510.924376,-3140.991542
550.646082,-7105.977043,-9696.697840,-2528.115143
550.646406,-4737.318029,-9030.512492,-1762.019645
550.646731,-2442.679609,-8364.327145,-766.095498
550.647055,-592.164754,-7476.080014,-766.095498
550.647379,518.144159,-8068.244768,-842.705048
550.647703,1924.535449,-8956.491898,306.438199
550.648027,2738.761985,-9918.759623,459.657299
550.648352,2886.803174,-9770.718434,229.828649
550.648676,1924.535449,-9770.718434,-306.438199
550.649000,-222.061783,-10066.800811,-1762.019645
550.649324,-2516.700203,-11325.150913,-2757.943793
550.649648,-5625.565159,-11325.150913,-2757.943793
550.649972,-6957.935855,-11177.109724,-2987.772442
550.650297,-8142.265362,-9622.677246,-3217.601092
550.650621,-8586.388927,-8586.388927,-3600.648841
550.650945,-7846.182985,-8142.265362,-3447.429741
550.651269,-6069.688724,-8216.285956,-2911.162892
550.651593,-3552.988522,-8586.388927,-1915.238745
550.651918,-1110.308913,-9326.594869,-995.924147
550.652242,1406.391290,-9400.615463,-536.266849
550.652566,2590.720797,-9252.574275,0.000000
550.652890,2442.679609,-9844.739029,-229.828649
550.653214,1998.556043,-10658.965565,-995.924147
550.653539,888.247130,-11547.212695,-1302.362347
550.653863,-370.102971,-11325.150913,-1608.800546
550.654187,-1998.556043,-11177.109724,-2068.457845
550.654511,-3627.009116,-10584.944971,-3217.601092
550.654835,-6143.709319,-9844.739029,-4596.572988
