#time,accel_x,accel_y,accel_z
660.114021,3256.906145,-11769.274478,612.876398
660.114345,-148.041188,-12065.356855,0.000000
660.114669,-3997.112087,-11177.109724,0.000000
660.114993,-6883.915261,-9770.718434,-1225.752797
660.115317,-8882.471304,-9474.636058,-3447.429741
660.115642,-11251.130318,-11399.171507,-2528.115143
660.115966,-9770.718434,-11917.315666,-2757.943793
660.116290,-5995.668130,-9844.739029,-3064.381992
660.116614,-2220.617826,-7476.080014,-995.924147
660.116939,2442.679609,-5329.482782,-1225.752797
660.117263,5625.565159,-5107.421000,-919.314598
660.117587,6735.874072,-7328.038826,383.047749
660.117911,7772.162391,-9474.636058,1762.019645
660.118235,8586.388927,-11325.150913,1685.410096
660.118560,6809.894666,-12287.418637,383.047749
660.118884,3478.967927,-11917.315666,1072.533697
660.119208,740.205942,-12361.439231,842.705048
660.119532,-2516.700203,-13101.645173,-995.924147
660.119857,-6883.915261,-13545.768739,-2298.286494
660.120181,-9400.615463,-10732.986159,-3140.991542
660.120505,-7846.182985,-8216.285956,-3294.210641
660.120829,-5329.482782,-7698.141797,-1838.629195
660.121154,-3330.926739,-6587.832884,-306.438199
660.121478,-666.185348,-5847.626942,0.000000
660.121802,592.164754,-6661.853478,-76.609550
660.122126,1850.514855,-7105.977043,153.219100
660.122450,3404.947333,-8438.347739,842.705048
660.122775,5033.400406,-10214.842000,689.485948
660.123099,5773.606348,-12361.439231,995.924147
660.123423,5329.482782,-13841.851115,919.314598
660.123747,3923.091493,-13619.789333,1072.533697
660.124072,1702.473667,-12953.603985,842.705048
660.124396,-1036.288319,-11621.233289,306.438199
660.124720,-2812.782580,-10807.006753,-1149.143247
660.125044,-3701.029710,-9474.636058,-1991.848295
660.125369,-4589.276840,-7698.141797,-1302.362347
660.125693,-4293.194464,-6661.853478,-612.876398
660.126017,-2516.700203,-6069.688724,-689.485948
660.126341,-518.144159,-6143.709319,306.438199
660.126665,222.061783,-7254.018232,919.314598
660.126990,666.185348,-8882.471304,229.828649
660.127314,592.164754,-10140.821405,612.876398
660.127638,814.226536,-11103.089130,536.266849
660.127962,814.226536,-11769.274478,229.828649
660.128287,1258.350101,-11695.253884,0.000000
660.128611,1776.494261,-11843.295072,689.485948
660.128935,2664.741391,-10658.965565,1225.752797
660.129259,1924.535449,-10362.883188,0.000000
660.129583,296.082377,-10510.924376,0.000000
660.129908,-1332.370696,-9400.615463,-153.219100
660.130232,-1924.535449,-8068.244768,0.000000
660.130556,-1554.432478,-7476.080014,0.000000
660.130880,-1110.308913,-7550.100608,383.047749
660.131205,-1036.288319,-7772.162391,689.485948
660.131529,-592.164754,-8512.368333,229.828649
660.131853,-666.185348,-9030.512492,0.000000
660.132177,-592.164754,-9400.615463,-229.828649
660.132502,-814.226536,-9400.615463,-229.828649
660.132826,-444.123565,-9844.739029,0.000000
660.133150,148.041188,-10288.862594,459.657299
660.133474,1406.391290,-10510.924376,536.266849
660.133798,1406.391290,-9992.780217,229.828649
660.134123,1258.350101,-9918.759623,-459.657299
660.134447,888.247130,-9622.677246,-229.828649
660.134771,296.082377,-9252.574275,153.219100
660.135095,-148.041188,-9548.656652,0.000000
660.135420,-592.164754,-9770.718434,0.000000
660.135744,0.000000,-10066.800811,0.000000
660.136068,-592.164754,-10288.862594,-1302.362347
660.136392,-1332.370696,-10881.027347,-536.266849
660.136716,-1406.391290,-10732.986159,-383.047749
660.137041,-1258.350101,-9992.780217,-383.047749
660.137365,-888.247130,-10140.821405,-383.047749
660.137689,-444.123565,-10066.800811,-306.438199
660.138013,148.041188,-10214.842000,0.000000
660.138338,666.185348,-10140.821405,0.000000
660.138662,962.267725,-9696.697840,0.000000
660.138986,740.205942,-9844.739029,0.000000
660.139310,814.226536,-9326.594869,-536.266849
660.139635,814.226536,-9104.533087,0.000000
660.139959,1184.329507,-9400.615463,306.438199
660.140283,1184.329507,-9696.697840,459.657299
660.140607,518.144159,-10066.800811,306.438199
660.140931,-296.082377,-9844.739029,459.657299
660.141256,-518.144159,-9030.512492,0.000000
660.141580,-296.082377,-9400.615463,0.000000
660.141904,-592.164754,-9622.677246,0.000000
660.142228,-444.123565,-9770.718434,153.219100
660.142553,-296.082377,-9696.697840,0.000000
660.142877,-370.102971,-9548.656652,0.000000
660.143201,-1036.288319,-9104.533087,-459.657299
660.143525,-962.267725,-8364.327145,0.000000
660.143850,-370.102971,-8734.430116,0.000000
660.144174,370.102971,-8660.409521,383.047749
660.144498,1110.308913,-9178.553681,229.828649
660.144822,1628.453072,-9326.594869,0.000000
660.145146,962.267725,-9474.636058,306.438199
660.145471,74.020594,-9400.615463,153.219100
660.145795,-444.123565,-9474.636058,0.000000
660.146119,-888.247130,-9474.636058,76.609550
660.146443,-666.185348,-9548.656652,0.000000
660.146768,0.000000,-9770.718434,0.000000
660.147092,592.164754,-9844.739029,-536.266849
660.147416,148.041188,-9696.697840,-383.047749
660.147740,-444.123565,-9326.594869,-536.266849
660.148064,-592.164754,-8956.491898,-383.047749
660.148389,-592.164754,-9548.656652,0.000000
660.148713,-148.041188,-9474.636058,0.000000
660.149037,296.082377,-9918.759623,0.000000
660.149361,592.164754,-9992.780217,-306.438199
660.149686,0.000000,-10436.903782,-536.266849
660.150010,-592.164754,-10807.006753,-536.266849
660.150334,-592.164754,-10510.924376,-383.047749
660.150658,-740.205942,-10732.986159,-306.438199
660.150983,-888.247130,-10732.986159,-766.095498
660.151307,-370.102971,-9992.780217,-459.657299
660.151631,444.123565,-10214.842000,536.266849
660.151955,0.000000,-10362.883188,0.000000
660.152279,0.000000,-9474.636058,0.000000
660.152604,-222.061783,-9326.594869,0.000000
660.152928,0.000000,-9400.615463,0.000000
660.153252,148.041188,-9548.656652,0.000000
660.153576,518.144159,-9548.656652,306.438199
660.153901,-222.061783,-9844.739029,0.000000
660.154225,-592.164754,-9770.718434,153.219100
660.154549,-814.226536,-9252.574275,-306.438199
660.154873,-1110.308913,-8956.491898,-612.876398
660.155198,-518.144159,-9622.677246,-536.266849
660.155522,148.041188,-9770.718434,0.000000
660.155846,814.226536,-9622.677246,76.609550
660.156170,888.247130,-9252.574275,-153.219100
660.156494,518.144159,-9252.574275,459.657299
660.156819,74.020594,-8512.368333,536.266849
660.157143,0.000000,-9030.512492,153.219100
660.157467,74.020594,-9474.636058,76.609550
660.157791,518.144159,-9548.656652,306.438199
660.158115,666.185348,-9622.677246,0.000000
660.158440,518.144159,-9918.759623,383.047749
660.158764,74.020594,-9400.615463,0.000000
660.159088,-296.082377,-9326.594869,-229.828649
660.159412,-518.144159,-9474.636058,-689.485948
660.159736,-592.164754,-9548.656652,0.000000
660.160061,148.041188,-9696.697840,76.609550
660.160385,518.144159,-9622.677246,-153.219100
660.160709,0.000000,-9770.718434,229.828649
660.161033,-222.061783,-9104.533087,76.609550
660.161357,-370.102971,-8882.471304,0.000000
660.161682,0.000000,-9326.594869,0.000000
660.162006,148.041188,-9622.677246,459.657299
660.162330,814.226536,-9918.759623,459.657299
660.162654,814.226536,-9992.780217,76.609550
660.162978,148.041188,-10066.800811,229.828649
660.163303,-592.164754,-9474.636058,229.828649
660.163627,-592.164754,-9326.594869,0.000000
660.163951,-222.061783,-10066.800811,-306.438199
660.164275,-370.102971,-10362.883188,0.000000
660.164599,-222.061783,-10214.842000,-306.438199
660.164924,-444.123565,-10584.944971,0.000000
660.165248,-962.267725,-10214.842000,-306.438199
660.165572,-962.267725,-9474.636058,0.000000
660.165896,-666.185348,-9474.636058,229.828649
660.166220,-296.082377,-9696.697840,76.609550
660.166545,74.020594,-9622.677246,76.609550
660.166869,592.164754,-9474.636058,153.219100
660.167193,296.082377,-10066.800811,0.000000
660.167517,-370.102971,-10066.800811,-153.219100
660.167841,-740.205942,-9548.656652,-229.828649
660.168166,-962.267725,-9326.594869,-459.657299
660.168490,-444.123565,-9474.636058,-459.657299
660.168814,0.000000,-9770.718434,-689.485948
660.169138,740.205942,-10362.883188,-229.828649
660.169462,296.082377,-9844.739029,-229.828649
660.169787,-296.082377,-9548.656652,-306.438199
660.170111,-444.123565,-9252.574275,-306.438199
660.170435,-444.123565,-9326.594869,0.000000
660.170759,0.000000,-9474.636058,-306.438199
660.171083,518.144159,-9474.636058,0.000000
660.171408,962.267725,-9918.759623,0.000000
660.171732,296.082377,-10140.821405,0.000000
660.172056,-148.041188,-9696.697840,-383.047749
660.172380,-296.082377,-9474.636058,-153.219100
660.172704,-444.123565,-9474.636058,-612.876398
660.173029,0.000000,-9548.656652,-306.438199
660.173353,592.164754,-9696.697840,0.000000
660.173677,1184.329507,-9474.636058,-689.485948
660.174001,1184.329507,-9770.718434,0.000000
660.174325,296.082377,-9252.574275,0.000000
660.174650,-148.041188,-8956.491898,0.000000
660.174974,-222.061783,-9252.574275,0.000000
660.175298,0.000000,-9474.636058,0.000000
660.175622,296.082377,-9696.697840,0.000000
660.175946,370.102971,-10066.800811,689.485948
660.176271,-148.041188,-9696.697840,306.438199
660.176595,-518.144159,-9474.636058,0.000000
660.176919,-592.164754,-9326.594869,-306.438199
660.177243,-666.185348,-9696.697840,-229.828649
660.177567,0.000000,-9696.697840,-229.828649
660.177892,814.226536,-9548.656652,153.219100
660.178216,1110.308913,-10066.800811,-229.828649
660.178540,0.000000,-9844.739029,-459.657299
660.178864,-370.102971,-9474.636058,0.000000
660.179188,-888.247130,-9622.677246,-383.047749
660.179513,-888.247130,-9844.739029,-153.219100
660.179837,-444.123565,-9918.759623,0.000000
660.180161,296.082377,-9992.780217,229.828649
660.180485,370.102971,-9918.759623,383.047749
660.180809,0.000000,-9696.697840,536.266849
660.181134,-1110.308913,-9474.636058,0.000000
660.181458,-1258.350101,-9326.594869,0.000000
660.181782,-1184.329507,-9770.718434,-153.219100
660.182106,-444.123565,-9844.739029,0.000000
660.182430,222.061783,-9992.780217,-153.219100
660.182755,0.000000,-9992.780217,0.000000
660.183079,-296.082377,-9770.718434,-229.828649
660.183403,0.000000,-9178.553681,229.828649
660.183727,0.000000,-9326.594869,153.219100
660.184051,0.000000,-9622.677246,76.609550
660.184376,518.144159,-9696.697840,153.219100
660.184700,814.226536,-9770.718434,76.609550
660.185024,444.123565,-10140.821405,76.609550
660.185348,74.020594,-9770.718434,0.000000
660.185672,74.020594,-9104.533087,0.000000
660.185997,-296.082377,-9474.636058,0.000000
660.186321,74.020594,-9622.677246,459.657299
660.186645,296.082377,-9622.677246,76.609550
660.186969,148.041188,-9844.739029,-306.438199
660.187293,-296.082377,-9474.636058,-153.219100
660.187618,-518.144159,-9474.636058,-153.219100
660.187942,-296.082377,-9030.512492,-306.438199
660.188266,222.061783,-9252.574275,0.000000
660.188590,666.185348,-9474.636058,-153.219100
660.188914,1110.308913,-9474.636058,383.047749
660.189239,814.226536,-9474.636058,76.609550
660.189563,148.041188,-9918.759623,0.000000
660.189887,0.000000,-9548.656652,0.000000
660.190211,-222.061783,-9326.594869,0.000000
660.190535,-74.020594,-9622.677246,-229.828649
660.190860,0.000000,-9844.739029,0.000000
660.191184,518.144159,-9992.780217,229.828649
660.191508,444.123565,-9844.739029,-153.219100
660.191832,-296.082377,-9548.656652,0.000000
660.192156,-740.205942,-9178.553681,0.000000
660.192481,-518.144159,-9474.636058,0.000000
660.192805,0.000000,-9770.718434,0.000000
660.193129,740.205942,-9992.780217,0.000000
660.193453,592.164754,-10066.800811,0.000000
660.193777,296.082377,-10066.800811,0.000000
660.194101,-296.082377,-9622.677246,0.000000
660.194426,-814.226536,-9474.636058,-306.438199
660.194750,-814.226536,-9992.780217,-536.266849
660.195074,-592.164754,-10288.862594,-383.047749
660.195398,74.020594,-10066.800811,0.000000
660.195722,666.185348,-10066.800811,-306.438199
660.196047,148.041188,-9696.697840,76.609550
660.196371,-444.123565,-9474.636058,-153.219100
660.196695,-518.144159,-9252.574275,229.828649
660.197019,-666.185348,-9474.636058,0.000000
660.197343,-296.082377,-9918.759623,153.219100
660.197668,296.082377,-9918.759623,229.828649
660.197992,666.185348,-10066.800811,-306.438199
660.198316,222.061783,-10066.800811,0.000000
660.198640,-296.082377,-9474.636058,153.219100
660.198964,-592.164754,-9474.636058,-383.047749
660.199289,-740.205942,-9326.594869,-153.219100
660.199613,0.000000,-9622.677246,0.000000
660.199937,370.102971,-9622.677246,-229.828649
660.200261,592.164754,-9622.677246,153.219100
660.200585,592.164754,-9770.718434,306.438199
660.200910,0.000000,-9252.574275,459.657299
660.201234,-370.102971,-9030.512492,-383.047749
660.201558,-296.082377,-9548.656652,0.000000
660.201882,0.000000,-9770.718434,0.000000
660.202206,666.185348,-9770.718434,153.219100
660.202531,518.144159,-9918.759623,-306.438199
660.202855,296.082377,-9548.656652,0.000000
660.203179,-518.144159,-9252.574275,0.000000
660.203503,-148.041188,-9252.574275,229.828649
660.203827,-222.061783,-9326.594869,0.000000
660.204152,74.020594,-9474.636058,0.000000
660.204476,592.164754,-9622.677246,0.000000
660.204800,518.144159,-9844.739029,153.219100
660.205124,370.102971,-9696.697840,383.047749
660.205448,-444.123565,-9178.553681,-229.828649
660.205773,-444.123565,-9474.636058,-383.047749
660.206097,-370.102971,-9326.594869,76.609550
660.206421,296.082377,-9696.697840,0.000000
660.206745,666.185348,-9918.759623,-306.438199
660.207069,222.061783,-10288.862594,-383.047749
660.207394,0.000000,-9992.780217,-153.219100
660.207718,-222.061783,-9474.636058,0.000000
660.208042,-666.185348,-9696.697840,0.000000
660.208366,-592.164754,-9548.656652,0.000000
660.208690,-296.082377,-9622.677246,153.219100
660.209015,296.082377,-9992.780217,0.000000
660.209339,74.020594,-9918.759623,0.000000
660.209663,-222.061783,-9622.677246,76.609550
660.209987,-222.061783,-8956.491898,153.219100
660.210311,0.000000,-9326.594869,-153.219100
660.210636,0.000000,-9252.574275,-153.219100
660.210960,0.000000,-9474.636058,229.828649
660.211284,444.123565,-10140.821405,-153.219100
660.211608,0.000000,-10288.862594,0.000000
660.211932,-444.123565,-9696.697840,0.000000
660.212257,-740.205942,-9474.636058,0.000000
660.212581,-1184.329507,-9400.615463,-229.828649
660.212905,-518.144159,-9548.656652,0.000000
660.213229,592.164754,-9918.759623,0.000000
660.213553,666.185348,-9844.739029,153.219100
660.213878,148.041188,-9770.718434,76.609550
660.214202,0.000000,-9104.533087,0.000000
660.214526,-296.082377,-9030.512492,-229.828649
660.214850,-666.185348,-9400.615463,0.000000
660.215174,0.000000,-9622.677246,76.609550
660.215499,444.123565,-9474.636058,-229.828649
660.215823,296.082377,-9918.759623,0.000000
660.216147,-148.041188,-10214.842000,0.000000
660.216471,-222.061783,-9844.739029,0.000000
660.216795,-296.082377,-9622.677246,0.000000
660.217120,0.000000,-9770.718434,-229.828649
660.217444,222.061783,-9696.697840,383.047749
660.217768,518.144159,-9844.739029,0.000000
660.218092,592.164754,-10066.800811,229.828649
660.218416,74.020594,-9918.759623,0.000000
660.218741,0.000000,-9178.553681,0.000000
660.219065,-296.082377,-9326.594869,0.000000
660.219389,-370.102971,-9548.656652,-153.219100
660.219713,0.000000,-9844.739029,-153.219100
660.220037,148.041188,-9474.636058,153.219100
660.220362,-148.041188,-10140.821405,153.219100
660.220686,-148.041188,-9474.636058,306.438199
660.221010,-518.144159,-8882.471304,0.000000
660.221334,-296.082377,-9252.574275,0.000000
660.221658,0.000000,-9474.636058,0.000000
660.221983,444.123565,-9696.697840,76.609550
660.222307,370.102971,-9696.697840,459.657299
660.222631,74.020594,-10140.821405,-153.219100
660.222955,-296.082377,-9474.636058,0.000000
660.223279,-962.267725,-9030.512492,-153.219100
660.223604,-444.123565,-9696.697840,-306.438199
660.223928,-222.061783,-9992.780217,0.000000
660.224252,444.123565,-9770.718434,229.828649
660.224576,296.082377,-9770.718434,0.000000
660.224900,222.061783,-9622.677246,0.000000
660.225225,-444.123565,-9474.636058,0.000000
660.225549,-592.164754,-9474.636058,-229.828649
660.225873,-518.144159,-9548.656652,-383.047749
660.226197,0.000000,-9770.718434,-153.219100
660.226521,148.041188,-9918.759623,-306.438199
660.226846,296.082377,-10362.883188,-536.266849
660.227170,-222.061783,-9918.759623,-229.828649
660.227494,-1036.288319,-9474.636058,-76.609550
660.227818,-148.041188,-9474.636058,0.000000
660.228142,-148.041188,-9918.759623,0.000000
660.228467,666.185348,-9992.780217,0.000000
660.228791,592.164754,-9696.697840,0.000000
660.229115,518.144159,-10066.800811,0.000000
660.229439,148.041188,-9770.718434,-229.828649
660.229763,0.000000,-9474.636058,0.000000
660.230088,-222.061783,-9548.656652,-306.438199
660.230412,0.000000,-9474.636058,-306.438199
660.230736,296.082377,-9844.739029,0.000000
660.231060,666.185348,-9844.739029,-306.438199
660.231384,222.061783,-10140.821405,76.609550
660.231709,-296.082377,-9844.739029,76.609550
660.232033,-370.102971,-9030.512492,306.438199
660.232357,-592.164754,-9252.574275,76.609550
660.232681,-444.123565,-9252.574275,229.828649
660.233005,74.020594,-9696.697840,0.000000
660.233330,518.144159,-9400.615463,383.047749
660.233654,0.000000,-9548.656652,306.438199
660.233978,0.000000,-9474.636058,0.000000
660.234302,-518.144159,-9252.574275,-153.219100
660.234626,-592.164754,-9474.636058,0.000000
660.234951,-370.102971,-9622.677246,0.000000
660.235275,0.000000,-9548.656652,459.657299
660.235599,518.144159,-9326.594869,0.000000
660.235923,444.123565,-10066.800811,0.000000
660.236247,0.000000,-9326.594869,76.609550
660.236572,-370.102971,-9178.553681,153.219100
660.236896,-666.185348,-9770.718434,0.000000
660.237220,-370.102971,-9622.677246,0.000000
660.237544,444.123565,-9918.759623,153.219100
660.237868,222.061783,-10214.842000,0.000000
660.238193,0.000000,-10214.842000,-229.828649
660.238517,-740.205942,-9030.512492,229.828649
660.238841,-1110.308913,-9400.615463,-612.876398
660.239165,-1036.288319,-9622.677246,-229.828649
660.239489,-148.041188,-9844.739029,0.000000
660.239814,592.164754,-9844.739029,0.000000
660.240138,962.267725,-10214.842000,-153.219100
660.240462,370.102971,-9622.677246,-383.047749
660.240786,74.020594,-9548.656652,-459.657299
660.241110,222.061783,-9548.656652,-459.657299
660.241435,-148.041188,-10066.800811,-459.657299
660.241759,0.000000,-10140.821405,-383.047749
660.242083,296.082377,-10140.821405,-383.047749
660.242407,74.020594,-10288.862594,-229.828649
660.242731,-296.082377,-9844.739029,0.000000
660.243056,-1110.308913,-9104.533087,-459.657299
660.243380,-148.041188,-9474.636058,306.438199
660.243704,-222.061783,-9474.636058,383.047749
660.244028,740.205942,-9622.677246,459.657299
660.244352,814.226536,-9622.677246,153.219100
660.244676,370.102971,-9918.759623,383.047749
660.245001,0.000000,-9622.677246,0.000000
660.245325,-592.164754,-9474.636058,76.609550
660.245649,-740.205942,-9474.636058,-766.095498
660.245973,-592.164754,-9844.739029,-229.828649
660.246297,148.041188,-9918.759623,-153.219100
660.246622,740.205942,-9992.780217,0.000000
660.246946,370.102971,-9696.697840,-153.219100
660.247270,148.041188,-8882.471304,0.000000
660.247594,74.020594,-8734.430116,76.609550
660.247918,0.000000,-9326.594869,-153.219100
660.248243,0.000000,-9696.697840,76.609550
660.248567,370.102971,-9622.677246,306.438199
660.248891,518.144159,-10066.800811,229.828649
660.249215,-148.041188,-9992.780217,229.828649
660.249539,-962.267725,-9548.656652,0.000000
660.249864,-1184.329507,-9548.656652,0.000000
660.250188,-740.205942,-9622.677246,229.828649
660.250512,0.000000,-9844.739029,689.485948
660.250836,222.061783,-9696.697840,0.000000
660.251160,148.041188,-9992.780217,-229.828649
660.251485,-444.123565,-9548.656652,-383.047749
660.251809,-814.226536,-9178.553681,-459.657299
660.252133,-814.226536,-9178.553681,-153.219100
660.252457,-666.185348,-9622.677246,76.609550
660.252781,740.205942,-10510.924376,-153.219100
660.253106,962.267725,-10214.842000,459.657299
660.253430,222.061783,-10732.986159,153.219100
660.253754,-666.185348,-10436.903782,0.000000
660.254078,-814.226536,-9696.697840,76.609550
660.254402,-370.102971,-9474.636058,153.219100
660.254727,-222.061783,-9696.697840,383.047749
660.255051,222.061783,-9548.656652,306.438199
660.255375,592.164754,-9622.677246,76.609550
660.255699,518.144159,-9622.677246,153.219100
660.256023,296.082377,-9474.636058,0.000000
660.256348,0.000000,-9030.512492,-229.828649
660.256672,-148.041188,-9252.574275,-383.047749
660.256996,-444.123565,-9474.636058,-459.657299
660.257320,444.123565,-9474.636058,0.000000
660.257644,962.267725,-9622.677246,0.000000
660.257969,740.205942,-10066.800811,0.000000
660.258293,0.000000,-9548.656652,153.219100
660.258617,-222.061783,-9252.574275,0.000000
660.258941,-222.061783,-9474.636058,306.438199
660.259265,0.000000,-9622.677246,0.000000
660.259590,222.061783,-9474.636058,536.266849
660.259914,-222.061783,-9548.656652,0.000000
660.260238,148.041188,-9844.739029,-153.219100
660.260562,-74.020594,-9548.656652,-153.219100
660.260886,-518.144159,-9178.553681,-306.438199
660.261211,-666.185348,-9622.677246,-229.828649
660.261535,0.000000,-9474.636058,-383.047749
660.261859,666.185348,-9548.656652,0.000000
660.262183,518.144159,-9844.739029,-153.219100
660.262507,518.144159,-9918.759623,0.000000
660.262832,0.000000,-9400.615463,-153.219100
660.263156,-148.041188,-9326.594869,-459.657299
660.263480,-444.123565,-9474.636058,0.000000
660.263804,0.000000,-9844.739029,0.000000
660.264129,222.061783,-9622.677246,0.000000
660.264453,444.123565,-10288.862594,76.609550
660.264777,74.020594,-10140.821405,76.609550
660.265101,-370.102971,-9548.656652,-995.924147
660.265425,-592.164754,-9178.553681,0.000000
660.265750,-888.247130,-9622.677246,-229.828649
660.266074,-296.082377,-9696.697840,-306.438199
660.266398,148.041188,-9918.759623,-306.438199
660.266722,0.000000,-9918.759623,-153.219100
660.267046,74.020594,-10066.800811,-536.266849
660.267371,74.020594,-9400.615463,-229.828649
660.267695,-222.061783,-9770.718434,-459.657299
660.268019,-370.102971,-9770.718434,0.000000
660.268343,0.000000,-10140.821405,0.000000
660.268668,296.082377,-10140.821405,0.000000
660.268992,74.020594,-10214.842000,0.000000
660.269316,-148.041188,-10066.800811,229.828649
660.269640,-296.082377,-9400.615463,153.219100
660.269964,-148.041188,-9400.615463,0.000000
660.270289,-296.082377,-9252.574275,0.000000
660.270613,592.164754,-9622.677246,0.000000
660.270937,666.185348,-9918.759623,-306.438199
660.271261,518.144159,-10066.800811,-153.219100
660.271585,222.061783,-9474.636058,229.828649
660.271910,0.000000,-8882.471304,-536.266849
660.272234,-222.061783,-9696.697840,0.000000
660.272558,148.041188,-10140.821405,0.000000
660.272882,592.164754,-9992.780217,0.000000
660.273206,814.226536,-10214.842000,76.609550
660.273531,148.041188,-10140.821405,0.000000
660.273855,-370.102971,-9474.636058,76.609550
660.274179,-296.082377,-9400.615463,0.000000
660.274503,-518.144159,-9474.636058,-766.095498
660.274828,0.000000,-9770.718434,-153.219100
660.275152,296.082377,-9400.615463,0.000000
660.275476,370.102971,-10066.800811,153.219100
660.275800,0.000000,-9696.697840,76.609550
660.276124,0.000000,-9400.615463,0.000000
660.276449,-444.123565,-9326.594869,-612.876398
660.276773,-370.102971,-9474.636058,0.000000
660.277097,370.102971,-9622.677246,0.000000
660.277421,740.205942,-9252.574275,0.000000
660.277745,518.144159,-9622.677246,0.000000
660.278070,0.000000,-9844.739029,0.000000
660.278394,-592.164754,-9252.574275,153.219100
660.278718,-592.164754,-9326.594869,0.000000
660.279042,-518.144159,-9696.697840,153.219100
660.279367,-444.123565,-9696.697840,0.000000
660.279691,74.020594,-10436.903782,153.219100
660.280015,-444.123565,-10214.842000,0.000000
660.280339,-592.164754,-9622.677246,153.219100
660.280663,-444.123565,-9178.553681,76.609550
660.280988,-592.164754,-9400.615463,76.609550
660.281312,74.020594,-9770.718434,0.000000
660.281636,814.226536,-9696.697840,229.828649
660.281960,962.267725,-9992.780217,383.047749
660.282284,0.000000,-10214.842000,-229.828649
660.282609,-518.144159,-9992.780217,-383.047749
660.282933,-888.247130,-9474.636058,-383.047749
660.283257,-1110.308913,-9844.739029,-306.438199
660.283581,-518.144159,-9918.759623,-229.828649
660.283905,888.247130,-9696.697840,0.000000
660.284230,1184.329507,-9844.739029,0.000000
660.284554,666.185348,-9992.780217,153.219100
660.284878,148.041188,-9474.636058,76.609550
660.285202,-148.041188,-9252.574275,-229.828649
660.285527,-296.082377,-9548.656652,-306.438199
660.285851,0.000000,-9622.677246,-229.828649
660.286175,962.267725,-10140.821405,153.219100
660.286499,666.185348,-10362.883188,-459.657299
660.286823,74.020594,-10584.944971,-536.266849
660.287148,-222.061783,-9474.636058,-229.828649
660.287472,-370.102971,-9400.615463,-306.438199
660.287796,-370.102971,-9696.697840,0.000000
660.288120,148.041188,-9622.677246,76.609550
660.288444,814.226536,-9696.697840,459.657299
660.288769,1110.308913,-10140.821405,306.438199
660.289093,296.082377,-9696.697840,0.000000
660.289417,0.000000,-8956.491898,0.000000
660.289741,-592.164754,-9400.615463,-153.219100
660.290065,-592.164754,-9918.759623,0.000000
660.290390,74.020594,-9844.739029,76.609550
660.290714,0.000000,-9844.739029,0.000000
660.291038,0.000000,-9770.718434,76.609550
660.291362,0.000000,-9622.677246,0.000000
660.291687,-444.123565,-8734.430116,0.000000
660.292011,-518.144159,-8734.430116,0.000000
660.292335,-370.102971,-9326.594869,76.609550
660.292659,74.020594,-9326.594869,229.828649
660.292983,222.061783,-9474.636058,0.000000
660.293308,-222.061783,-9918.759623,-153.219100
660.293632,-1036.288319,-9400.615463,-306.438199
660.293956,-814.226536,-9252.574275,-153.219100
660.294280,-740.205942,-9548.656652,-306.438199
660.294604,-296.082377,-9474.636058,153.219100
660.294929,74.020594,-9992.780217,-229.828649
660.295253,370.102971,-10362.883188,0.000000
660.295577,0.000000,-10436.903782,0.000000
660.295901,-370.102971,-9844.739029,306.438199
660.296226,-370.102971,-9326.594869,-383.047749
660.296550,-296.082377,-9770.718434,0.000000
660.296874,296.082377,-10214.842000,-153.219100
660.297198,814.226536,-10066.800811,0.000000
660.297522,666.185348,-10066.800811,-229.828649
660.297847,0.000000,-10066.800811,0.000000
660.298171,-444.123565,-9696.697840,-383.047749
660.298495,-444.123565,-9252.574275,-76.609550
660.298819,0.000000,-10288.862594,-76.609550
660.299143,148.041188,-9992.780217,459.657299
660.299468,814.226536,-9770.718434,306.438199
660.299792,518.144159,-9918.759623,76.609550
660.300116,0.000000,-9548.656652,229.828649
660.300440,-222.061783,-9326.594869,229.828649
660.300764,0.000000,-9030.512492,0.000000
660.301089,0.000000,-9474.636058,76.609550
660.301413,444.123565,-9474.636058,229.828649
660.301737,1036.288319,-9992.780217,536.266849
660.302061,740.205942,-9844.739029,-153.219100
660.302386,0.000000,-10066.800811,0.000000
660.302710,-962.267725,-9400.615463,0.000000
660.303034,-962.267725,-9474.636058,0.000000
660.303358,-592.164754,-9474.636058,0.000000
660.303682,0.000000,-9252.574275,0.000000
660.304007,592.164754,-9474.636058,0.000000
660.304331,222.061783,-9622.677246,229.828649
660.304655,0.000000,-9400.615463,0.000000
660.304979,-370.102971,-8808.450710,0.000000
660.305303,-740.205942,-8734.430116,0.000000
660.305628,-592.164754,-9400.615463,76.609550
660.305952,0.000000,-9844.739029,383.047749
660.306276,666.185348,-10066.800811,383.047749
660.306600,74.020594,-9844.739029,153.219100
660.306924,-518.144159,-9770.718434,0.000000
660.307249,-444.123565,-9326.594869,-153.219100
660.307573,-592.164754,-9696.697840,0.000000
660.307897,-222.061783,-9696.697840,76.609550
660.308221,0.000000,-9622.677246,0.000000
660.308546,444.123565,-9844.739029,0.000000
660.308870,148.041188,-10140.821405,-306.438199
660.309194,-370.102971,-9696.697840,0.000000
660.309518,-666.185348,-9252.574275,-536.266849
660.309842,-814.226536,-9770.718434,-153.219100
660.310167,-296.082377,-10140.821405,-229.828649
660.310491,518.144159,-10214.842000,0.000000
660.310815,370.102971,-10140.821405,0.000000
660.311139,0.000000,-10584.944971,0.000000
660.311463,74.020594,-9918.759623,76.609550
660.311788,0.000000,-9400.615463,-306.438199
660.312112,-296.082377,-9474.636058,-229.828649
660.312436,0.000000,-9844.739029,-383.047749
660.312760,666.185348,-9844.739029,0.000000
660.313085,962.267725,-10140.821405,0.000000
660.313409,0.000000,-9770.718434,153.219100
660.313733,-444.123565,-8956.491898,-306.438199
660.314057,-296.082377,-8956.491898,76.609550
660.314381,-296.082377,-9622.677246,-383.047749
660.314706,296.082377,-9918.759623,0.000000
660.315030,740.205942,-9844.739029,0.000000
660.315354,666.185348,-9844.739029,153.219100
660.315678,222.061783,-9326.594869,-306.438199
660.316002,148.041188,-9104.533087,-229.828649
660.316327,0.000000,-9400.615463,0.000000
660.316651,-592.164754,-9622.677246,0.000000
660.316975,-370.102971,-9622.677246,-306.438199
660.317299,0.000000,-9622.677246,-229.828649
660.317623,0.000000,-9474.636058,-459.657299
660.317948,-370.102971,-9622.677246,0.000000
660.318272,-370.102971,-8956.491898,76.609550
660.318596,-518.144159,-9030.512492,0.000000
660.318920,0.000000,-9474.636058,0.000000
660.319245,148.041188,-9622.677246,153.219100
660.319569,814.226536,-9622.677246,229.828649
660.319893,74.020594,-9770.718434,153.219100
660.320217,-444.123565,-9474.636058,76.609550
660.320541,-518.144159,-9326.594869,0.000000
660.320866,-740.205942,-9474.636058,-689.485948
660.321190,-296.082377,-9844.739029,-383.047749
660.321514,148.041188,-9918.759623,-229.828649
660.321838,296.082377,-9992.780217,0.000000
660.322162,-222.061783,-9918.759623,-459.657299
660.322487,-370.102971,-9474.636058,-229.828649
660.322811,-296.082377,-9400.615463,0.000000
660.323135,-222.061783,-9992.780217,0.000000
660.323459,296.082377,-10066.800811,612.876398
660.323783,296.082377,-9622.677246,0.000000
660.324108,370.102971,-10066.800811,76.609550
660.324432,0.000000,-9992.780217,0.000000
660.324756,-666.185348,-9844.739029,76.609550
660.325080,-518.144159,-9622.677246,-229.828649
660.325405,-444.123565,-9992.780217,-459.657299
660.325729,0.000000,-9844.739029,-459.657299
660.326053,444.123565,-9548.656652,-306.438199
660.326377,370.102971,-9696.697840,-306.438199
660.326701,148.041188,-9918.759623,-459.657299
660.327026,-148.041188,-9326.594869,-919.314598
660.327350,0.000000,-9474.636058,-229.828649
660.327674,148.041188,-10066.800811,-229.828649
660.327998,518.144159,-9770.718434,0.000000
660.328322,666.185348,-9770.718434,459.657299
660.328647,444.123565,-10066.800811,536.266849
660.328971,296.082377,-9622.677246,0.000000
660.329295,-444.123565,-8586.388927,-153.219100
660.329619,-296.082377,-9326.594869,0.000000
660.329944,-518.144159,-9622.677246,-153.219100
660.330268,296.082377,-9622.677246,0.000000
660.330592,592.164754,-9844.739029,0.000000
660.330916,148.041188,-10066.800811,-383.047749
660.331240,-666.185348,-9252.574275,76.609550
660.331565,-592.164754,-9178.553681,-153.219100
660.331889,-666.185348,-9400.615463,-459.657299
660.332213,0.000000,-9770.718434,0.000000
660.332537,814.226536,-9696.697840,-153.219100
660.332861,740.205942,-9696.697840,-153.219100
660.333186,296.082377,-9918.759623,153.219100
660.333510,0.000000,-9252.574275,0.000000
660.333834,0.000000,-8734.430116,383.047749
660.334158,-222.061783,-9252.574275,229.828649
660.334482,-296.082377,-9992.780217,76.609550
660.334807,370.102971,-10066.800811,0.000000
660.335131,444.123565,-10288.862594,0.000000
660.335455,-296.082377,-10066.800811,-153.219100
660.335779,-518.144159,-9622.677246,76.609550
660.336104,-666.185348,-8956.491898,0.000000
660.336428,-296.082377,-9696.697840,-1072.533697
660.336752,0.000000,-9400.615463,-536.266849
660.337076,592.164754,-9622.677246,-536.266849
660.337400,444.123565,-10066.800811,-383.047749
660.337725,0.000000,-9918.759623,-383.047749
660.338049,-666.185348,-9770.718434,-306.438199
660.338373,-666.185348,-9400.615463,0.000000
660.338697,-888.247130,-9622.677246,-229.828649
660.339021,0.000000,-9696.697840,306.438199
660.339346,74.020594,-9992.780217,0.000000
660.339670,74.020594,-10436.903782,76.609550
660.339994,-148.041188,-10066.800811,0.000000
660.340318,-370.102971,-9252.574275,-306.438199
660.340642,-296.082377,-9104.533087,-383.047749
660.340967,-444.123565,-9548.656652,-383.047749
660.341291,296.082377,-9178.553681,-536.266849
660.341615,518.144159,-9770.718434,-153.219100
660.341939,222.061783,-9918.759623,-612.876398
660.342264,-370.102971,-9770.718434,-459.657299
660.342588,-148.041188,-9252.574275,-153.219100
660.342912,74.020594,-9326.594869,0.000000
660.343236,148.041188,-9622.677246,459.657299
660.343560,518.144159,-9474.636058,229.828649
660.343885,1036.288319,-9770.718434,153.219100
660.344209,518.144159,-9844.739029,0.000000
660.344533,-296.082377,-9400.615463,0.000000
660.344857,-518.144159,-9326.594869,0.000000
660.345181,-518.144159,-9622.677246,-306.438199
660.345506,-370.102971,-9474.636058,0.000000
660.345830,148.041188,-9844.739029,229.828649
660.346154,222.061783,-9696.697840,-306.438199
660.346478,148.041188,-10066.800811,0.000000
660.346803,0.000000,-9326.594869,0.000000
660.347127,0.000000,-9252.574275,76.609550
660.347451,222.061783,-9400.615463,383.047749
660.347775,444.123565,-9474.636058,0.000000
660.348099,1036.288319,-9770.718434,306.438199
660.348424,592.164754,-9770.718434,76.609550
660.348748,0.000000,-9992.780217,0.000000
660.349072,-740.205942,-9770.718434,-383.047749
660.349396,-1184.329507,-9178.553681,-536.266849
660.349720,-1332.370696,-9770.718434,0.000000
660.350045,-740.205942,-9696.697840,-153.219100
660.350369,0.000000,-9918.759623,-76.609550
660.350693,222.061783,-10288.862594,-76.609550
660.351017,0.000000,-9400.615463,76.609550
660.351341,-296.082377,-8956.491898,76.609550
660.351666,-518.144159,-9326.594869,0.000000
660.351990,-296.082377,-9770.718434,0.000000
660.352314,518.144159,-10066.800811,0.000000
660.352638,962.267725,-10436.903782,0.000000
660.352963,222.061783,-10658.965565,0.000000
660.353287,-296.082377,-10288.862594,-306.438199
660.353611,-1036.288319,-9474.636058,-383.047749
660.353935,-1258.350101,-9474.636058,-536.266849
660.354259,-814.226536,-9918.759623,-536.266849
660.354584,0.000000,-9770.718434,-153.219100
660.354908,518.144159,-9548.656652,-229.828649
660.355232,592.164754,-9622.677246,0.000000
660.355556,222.061783,-9326.594869,-153.219100
660.355880,222.061783,-9104.533087,0.000000
660.356205,0.000000,-9252.574275,153.219100
660.356529,0.000000,-9622.677246,0.000000
660.356853,962.267725,-10066.800811,76.609550
660.357177,1036.288319,-10288.862594,0.000000
660.357501,148.041188,-10140.821405,0.000000
660.357826,0.000000,-9548.656652,0.000000
660.358150,-222.061783,-9104.533087,-612.876398
660.358474,-518.144159,-9326.594869,-383.047749
660.358798,0.000000,-9844.739029,-229.828649
660.359123,444.123565,-9622.677246,-306.438199
660.359447,518.144159,-9696.697840,0.000000
660.359771,0.000000,-9474.636058,-306.438199
660.360095,-148.041188,-9326.594869,0.000000
660.360419,0.000000,-9770.718434,76.609550
660.360744,296.082377,-9622.677246,536.266849
660.361068,222.061783,-9770.718434,612.876398
660.361392,666.185348,-9770.718434,383.047749
660.361716,962.267725,-10288.862594,76.609550
660.362040,74.020594,-9844.739029,0.000000
660.362364,-370.102971,-9252.574275,0.000000
660.362688,-814.226536,-9030.512492,-689.485948
660.363012,-740.205942,-9622.677246,0.000000
660.363336,-592.164754,-9400.615463,-306.438199
660.363660,296.082377,-9474.636058,-229.828649
660.363984,74.020594,-9770.718434,-229.828649
660.364308,-296.082377,-9770.718434,0.000000
660.364632,-518.144159,-9400.615463,-229.828649
660.364956,-518.144159,-9696.697840,-306.438199
660.365280,0.000000,-9918.759623,-306.438199
660.365604,444.123565,-9918.759623,-153.219100
660.365928,740.205942,-10066.800811,0.000000
660.366252,222.061783,-10658.965565,-842.705048
660.366576,-444.123565,-10140.821405,0.000000
660.366900,-814.226536,-9918.759623,0.000000
660.367224,-814.226536,-9696.697840,-229.828649
660.367548,-444.123565,-9992.780217,0.000000
660.367872,0.000000,-9622.677246,0.000000
660.368196,0.000000,-9918.759623,0.000000
660.368520,296.082377,-10140.821405,-306.438199
660.368844,-296.082377,-9548.656652,-459.657299
660.369168,-666.185348,-9104.533087,0.000000
660.369493,-666.185348,-9622.677246,-306.438199
660.369817,0.000000,-9992.780217,0.000000
660.370141,814.226536,-9622.677246,0.000000
660.370465,444.123565,-9548.656652,-689.485948
660.370789,74.020594,-10140.821405,-306.438199
660.371113,-296.082377,-9474.636058,0.000000
660.371437,0.000000,-9252.574275,0.000000
660.371761,-222.061783,-9474.636058,0.000000
660.372085,0.000000,-9770.718434,0.000000
660.372409,370.102971,-9400.615463,536.266849
660.372733,592.164754,-9178.553681,0.000000
660.373057,518.144159,-9918.759623,153.219100
660.373381,0.000000,-9252.574275,0.000000
660.373705,-296.082377,-9326.594869,-153.219100
660.374029,-296.082377,-9696.697840,-153.219100
660.374353,222.061783,-9622.677246,76.609550
660.374677,444.123565,-9622.677246,153.219100
660.375001,0.000000,-9548.656652,153.219100
660.375325,-222.061783,-10066.800811,76.609550
660.375649,-222.061783,-8734.430116,76.609550
660.375973,-592.164754,-9030.512492,459.657299
660.376297,-518.144159,-9474.636058,-153.219100
660.376621,0.000000,-9474.636058,0.000000
660.376945,296.082377,-9548.656652,229.828649
660.377269,-592.164754,-10140.821405,459.657299
660.377593,-1036.288319,-9548.656652,153.219100
660.377917,-1554.432478,-9030.512492,0.000000
660.378241,-888.247130,-9548.656652,-229.828649
660.378565,-148.041188,-9918.759623,76.609550
660.378889,444.123565,-9992.780217,306.438199
660.379213,814.226536,-9992.780217,0.000000
660.379537,0.000000,-10066.800811,0.000000
660.379861,-148.041188,-9622.677246,-229.828649
660.380185,-518.144159,-9474.636058,0.000000
660.380509,-518.144159,-9548.656652,-153.219100
660.380833,-148.041188,-9992.780217,-306.438199
660.381157,222.061783,-10066.800811,0.000000
660.381481,370.102971,-10066.800811,-153.219100
660.381806,0.000000,-10436.903782,-229.828649
660.382130,-370.102971,-9622.677246,153.219100
660.382454,-296.082377,-9400.615463,306.438199
660.382778,0.000000,-9622.677246,0.000000
660.383102,0.000000,-9770.718434,-153.219100
660.383426,296.082377,-10066.800811,76.609550
660.383750,222.061783,-10140.821405,-306.438199
660.384074,-296.082377,-9918.759623,-306.438199
660.384398,-592.164754,-9548.656652,-383.047749
660.384722,-592.164754,-9030.512492,-383.047749
660.385046,-370.102971,-9474.636058,153.219100
660.385370,222.061783,-9622.677246,0.000000
660.385694,1110.308913,-10066.800811,0.000000
660.386018,518.144159,-9918.759623,-383.047749
660.386342,0.000000,-9770.718434,0.000000
660.386666,0.000000,-9400.615463,0.000000
660.386990,74.020594,-9104.533087,0.000000
660.387314,-222.061783,-10140.821405,0.000000
660.387638,74.020594,-9770.718434,229.828649
660.387962,592.164754,-9474.636058,-153.219100
660.388286,592.164754,-9918.759623,0.000000
660.388610,0.000000,-9770.718434,-153.219100
660.388934,-222.061783,-9178.553681,0.000000
660.389258,-370.102971,-9178.553681,0.000000
660.389582,-370.102971,-9474.636058,0.000000
660.389906,518.144159,-9474.636058,306.438199
660.390230,666.185348,-9400.615463,229.828649
660.390554,0.000000,-10066.800811,76.609550
660.390878,-296.082377,-9548.656652,76.609550
660.391202,-518.144159,-8882.471304,0.000000
660.391526,-592.164754,-9474.636058,76.609550
660.391850,-370.102971,-9400.615463,0.000000
660.392174,296.082377,-9252.574275,459.657299
660.392498,222.061783,-9622.677246,383.047749
660.392822,0.000000,-9696.697840,0.000000
660.393146,-740.205942,-9696.697840,-229.828649
660.393470,-666.185348,-9326.594869,-229.828649
660.393794,-592.164754,-9696.697840,-306.438199
660.394119,-148.041188,-10066.800811,0.000000
660.394443,370.102971,-9918.759623,-306.438199
660.394767,740.205942,-9918.759623,0.000000
660.395091,444.123565,-10066.800811,-229.828649
660.395415,0.000000,-9474.636058,-229.828649
660.395739,-370.102971,-9474.636058,-306.438199
660.396063,-518.144159,-9696.697840,0.000000
660.396387,0.000000,-10214.842000,0.000000
660.396711,518.144159,-9770.718434,306.438199
660.397035,370.102971,-10066.800811,153.219100
660.397359,-296.082377,-9992.780217,-383.047749
660.397683,-1184.329507,-9474.636058,-766.095498
660.398007,-814.226536,-9474.636058,-383.047749
660.398331,-666.185348,-9770.718434,-306.438199
660.398655,0.000000,-10066.800811,-229.828649
660.398979,740.205942,-9474.636058,0.000000
660.399303,1110.308913,-9918.759623,229.828649
660.399627,518.144159,-9474.636058,229.828649
660.399951,74.020594,-9474.636058,229.828649
660.400275,-444.123565,-9252.574275,-306.438199
660.400599,-222.061783,-9770.718434,-153.219100
660.400923,370.102971,-9770.718434,0.000000
660.401247,666.185348,-9844.739029,0.000000
660.401571,444.123565,-9844.739029,0.000000
660.401895,0.000000,-9622.677246,76.609550
660.402219,-148.041188,-9548.656652,0.000000
660.402543,-148.041188,-9252.574275,-153.219100
660.402867,-666.185348,-9474.636058,0.000000
660.403191,0.000000,-9474.636058,0.000000
660.403515,592.164754,-9400.615463,76.609550
660.403839,370.102971,-9326.594869,0.000000
660.404163,0.000000,-8808.450710,-689.485948
660.404487,0.000000,-9104.533087,0.000000
660.404811,-148.041188,-9104.533087,153.219100
660.405135,0.000000,-9622.677246,0.000000
660.405459,74.020594,-9770.718434,0.000000
660.405783,0.000000,-10066.800811,0.000000
660.406108,-296.082377,-9992.780217,0.000000
660.406432,-370.102971,-9474.636058,-229.828649
660.406756,0.000000,-8660.409521,153.219100
660.407080,-444.123565,-9400.615463,306.438199
660.407404,148.041188,-9770.718434,-229.828649
660.407728,444.123565,-9548.656652,0.000000
660.408052,296.082377,-10066.800811,0.000000
660.408376,-296.082377,-10214.842000,0.000000
660.408700,-592.164754,-9622.677246,-229.828649
660.409024,-962.267725,-9178.553681,0.000000
660.409348,-370.102971,-9844.739029,-383.047749
660.409672,0.000000,-9918.759623,-153.219100
660.409996,296.082377,-9992.780217,0.000000
660.410320,370.102971,-10214.842000,0.000000
660.410644,0.000000,-10140.821405,-229.828649
660.410968,-222.061783,-9474.636058,-612.876398
660.411292,0.000000,-9548.656652,-383.047749
660.411616,-296.082377,-10066.800811,0.000000
660.411940,74.020594,-9770.718434,0.000000
660.412264,592.164754,-10066.800811,-1072.533697
660.412588,592.164754,-10510.924376,-536.266849
660.412912,0.000000,-10066.800811,-459.657299
660.413236,-592.164754,-9474.636058,0.000000
660.413560,-370.102971,-9400.615463,-153.219100
660.413884,0.000000,-9696.697840,-153.219100
660.414208,444.123565,-9474.636058,383.047749
660.414532,1480.411884,-9770.718434,612.876398
660.414856,814.226536,-10066.800811,229.828649
660.415180,296.082377,-9548.656652,153.219100
660.415504,-370.102971,-9252.574275,0.000000
660.415828,-962.267725,-9474.636058,-153.219100
660.416152,-518.144159,-9400.615463,0.000000
660.416476,74.020594,-9474.636058,76.609550
660.416800,444.123565,-9696.697840,-153.219100
660.417124,592.164754,-10066.800811,0.000000
660.417448,148.041188,-9326.594869,0.000000
660.417772,74.020594,-9030.512492,76.609550
660.418096,0.000000,-9104.533087,0.000000
660.418421,-148.041188,-9474.636058,76.609550
660.418745,0.000000,-9400.615463,76.609550
660.419069,222.061783,-9474.636058,459.657299
660.419393,0.000000,-9844.739029,459.657299
660.419717,-148.041188,-9622.677246,0.000000
660.420041,-518.144159,-9474.636058,0.000000
660.420365,-666.185348,-9548.656652,0.000000
660.420689,-666.185348,-9548.656652,-306.438199
660.421013,0.000000,-9622.677246,0.000000
660.421337,444.123565,-9696.697840,-229.828649
660.421661,-296.082377,-9918.759623,153.219100
660.421985,-592.164754,-9252.574275,-536.266849
660.422309,-444.123565,-9178.553681,-153.219100
660.422633,-444.123565,-9844.739029,0.000000
660.422957,0.000000,-10066.800811,0.000000
660.423281,296.082377,-10214.842000,153.219100
660.423605,296.082377,-10214.842000,229.828649
660.423929,-222.061783,-10214.842000,76.609550
660.424253,-814.226536,-9474.636058,-229.828649
660.424577,-888.247130,-9696.697840,-153.219100
660.424901,-444.123565,-9918.759623,-229.828649
660.425225,222.061783,-9992.780217,0.000000
660.425549,814.226536,-9992.780217,-383.047749
660.425873,666.185348,-10436.903782,-306.438199
660.426197,0.000000,-9252.574275,153.219100
660.426521,-222.061783,-9326.594869,0.000000
660.426845,-148.041188,-9696.697840,76.609550
660.427169,-148.041188,-9992.780217,0.000000
660.427493,592.164754,-9918.759623,0.000000
660.427817,1184.329507,-9770.718434,0.000000
660.428141,814.226536,-9770.718434,229.828649
660.428465,-296.082377,-9474.636058,229.828649
660.428789,-592.164754,-9178.553681,0.000000
660.429113,-444.123565,-9326.594869,0.000000
660.429437,-148.041188,-9622.677246,76.609550
660.429761,370.102971,-9696.697840,-153.219100
660.430085,740.205942,-9548.656652,0.000000
660.430409,518.144159,-9622.677246,536.266849
660.430734,74.020594,-9326.594869,153.219100
660.431058,0.000000,-8882.471304,459.657299
660.431382,-370.102971,-9400.615463,153.219100
660.431706,0.000000,-9474.636058,76.609550
660.432030,666.185348,-9474.636058,0.000000
660.432354,518.144159,-9844.739029,76.609550
660.432678,0.000000,-10066.800811,0.000000
660.433002,-296.082377,-8734.430116,-383.047749
660.433326,0.000000,-8808.450710,0.000000
660.433650,-296.082377,-9474.636058,-536.266849
660.433974,0.000000,-9252.574275,-536.266849
660.434298,148.041188,-9622.677246,-383.047749
660.434622,0.000000,-9992.780217,0.000000
660.434946,-444.123565,-9992.780217,0.000000
660.435270,-518.144159,-9474.636058,0.000000
660.435594,-666.185348,-9400.615463,306.438199
660.435918,-444.123565,-9696.697840,-459.657299
660.436242,370.102971,-9844.739029,383.047749
660.436566,0.000000,-9770.718434,0.000000
660.436890,0.000000,-10436.903782,-153.219100
660.437214,-592.164754,-10288.862594,-383.047749
660.437538,-444.123565,-9622.677246,-229.828649
660.437862,-222.061783,-9548.656652,0.000000
660.438186,-222.061783,-9918.759623,0.000000
660.438510,-296.082377,-9474.636058,0.000000
660.438834,888.247130,-9844.739029,-229.828649
660.439158,370.102971,-10288.862594,-383.047749
660.439482,-370.102971,-10066.800811,-229.828649
660.439806,-370.102971,-9622.677246,-306.438199
660.440130,-296.082377,-9696.697840,0.000000
660.440454,0.000000,-10066.800811,0.000000
660.440778,148.041188,-9844.739029,76.609550
660.441102,518.144159,-9770.718434,153.219100
660.441426,296.082377,-9918.759623,0.000000
660.441750,0.000000,-9622.677246,0.000000
660.442074,-148.041188,-9178.553681,0.000000
660.442398,-222.061783,-9326.594869,0.000000
660.442722,-296.082377,-9548.656652,-153.219100
660.443047,296.082377,-9400.615463,-306.438199
660.443371,518.144159,-9474.636058,-153.219100
660.443695,0.000000,-10066.800811,0.000000
660.444019,-370.102971,-9844.739029,-229.828649
660.444343,-370.102971,-9326.594869,0.000000
660.444667,-370.102971,-9474.636058,0.000000
660.444991,0.000000,-9548.656652,0.000000
660.445315,518.144159,-9400.615463,459.657299
660.445639,814.226536,-10214.842000,153.219100
660.445963,222.061783,-9622.677246,459.657299
660.446287,-148.041188,-9178.553681,76.609550
660.446611,-444.123565,-8956.491898,0.000000
660.446935,-592.164754,-9474.636058,0.000000
660.447259,-148.041188,-9622.677246,76.609550
660.447583,74.020594,-9252.574275,383.047749
660.447907,222.061783,-9696.697840,0.000000
660.448231,0.000000,-9548.656652,-306.438199
660.448555,-444.123565,-8882.471304,-153.219100
660.448879,-518.144159,-9178.553681,-153.219100
660.449203,-444.123565,-9770.718434,0.000000
660.449527,0.000000,-9622.677246,0.000000
660.449851,444.123565,-9548.656652,536.266849
660.450175,370.102971,-9548.656652,153.219100
660.450499,-222.061783,-9770.718434,229.828649
660.450823,-518.144159,-9400.615463,-153.219100
660.451147,-296.082377,-9622.677246,0.000000
660.451471,0.000000,-10140.821405,0.000000
660.451795,222.061783,-9918.759623,-229.828649
660.452119,592.164754,-10066.800811,0.000000
660.452443,296.082377,-9992.780217,0.000000
660.452767,-518.144159,-9844.739029,153.219100
660.453091,-740.205942,-9918.759623,-689.485948
660.453415,-518.144159,-9400.615463,-229.828649
660.453739,-444.123565,-9696.697840,-383.047749
660.454063,222.061783,-9548.656652,-153.219100
660.454387,666.185348,-9918.759623,0.000000
660.454711,222.061783,-10362.883188,-459.657299
660.455036,-444.123565,-9400.615463,76.609550
660.455360,-444.123565,-9178.553681,-153.219100
660.455684,-222.061783,-9696.697840,0.000000
660.456008,-296.082377,-9770.718434,0.000000
660.456332,518.144159,-9844.739029,229.828649
660.456656,666.185348,-9918.759623,-383.047749
660.456980,148.041188,-9992.780217,0.000000
660.457304,-222.061783,-9178.553681,76.609550
660.457628,0.000000,-9400.615463,-229.828649
660.457952,74.020594,-9474.636058,-229.828649
660.458276,74.020594,-9474.636058,-229.828649
660.458600,592.164754,-9696.697840,0.000000
660.458924,296.082377,-9844.739029,153.219100
660.459248,0.000000,-9770.718434,0.000000
660.459572,-148.041188,-9252.574275,76.609550
660.459896,-148.041188,-9326.594869,0.000000
660.460220,0.000000,-9622.677246,-383.047749
660.460544,518.144159,-9696.697840,306.438199
660.460868,444.123565,-9992.780217,0.000000
660.461192,0.000000,-9992.780217,0.000000
660.461516,-666.185348,-9548.656652,0.000000
660.461908,-962.267725,-9178.553681,0.000000
660.462233,-370.102971,-9326.594869,-229.828649
660.462557,-370.102971,-9326.594869,-612.876398
660.462881,370.102971,-9770.718434,0.000000
660.463205,592.164754,-9696.697840,459.657299
660.463529,222.061783,-9770.718434,153.219100
660.463853,-148.041188,-9548.656652,0.000000
660.464177,-444.123565,-9252.574275,0.000000
660.464501,-370.102971,-9474.636058,-229.828649
660.464825,-296.082377,-9548.656652,459.657299
660.465149,222.061783,-10066.800811,-153.219100
660.465473,444.123565,-9770.718434,0.000000
660.465798,0.000000,-10140.821405,-383.047749
660.466122,-444.123565,-9918.759623,-153.219100
660.466446,-740.205942,-9178.553681,-229.828649
660.466770,-370.102971,-9622.677246,-536.266849
660.467094,74.020594,-9622.677246,229.828649
660.467418,666.185348,-9844.739029,1149.143247
660.467742,814.226536,-10140.821405,612.876398
660.468066,444.123565,-10140.821405,76.609550
660.468390,-296.082377,-9770.718434,-153.219100
660.468714,-666.185348,-9400.615463,0.000000
660.469038,-592.164754,-9992.780217,-153.219100
660.469362,0.000000,-10362.883188,-153.219100
660.469687,518.144159,-9770.718434,153.219100
660.470011,444.123565,-9696.697840,-459.657299
660.470335,444.123565,-10066.800811,-306.438199
660.470659,148.041188,-9474.636058,-306.438199
660.470983,148.041188,-9326.594869,0.000000
660.471307,0.000000,-9400.615463,-306.438199
660.471631,0.000000,-9770.718434,76.609550
660.471955,370.102971,-9474.636058,0.000000
660.472279,592.164754,-9844.739029,306.438199
660.472603,222.061783,-9844.739029,0.000000
660.472927,0.000000,-9474.636058,0.000000
660.473252,0.000000,-9474.636058,0.000000
660.473576,74.020594,-9770.718434,76.609550
660.473900,296.082377,-9474.636058,76.609550
660.474224,444.123565,-9474.636058,229.828649
660.474548,0.000000,-9918.759623,0.000000
660.474872,-518.144159,-9178.553681,0.000000
660.475196,-296.082377,-8882.471304,-306.438199
660.475520,-370.102971,-9030.512492,-153.219100
660.475844,-592.164754,-9474.636058,0.000000
660.476168,0.000000,-9696.697840,76.609550
660.476492,222.061783,-9474.636058,0.000000
660.476817,74.020594,-9622.677246,459.657299
660.477141,-148.041188,-9622.677246,689.485948
660.477465,-296.082377,-9326.594869,0.000000
660.477789,0.000000,-9622.677246,306.438199
660.478113,-222.061783,-9770.718434,0.000000
660.478437,222.061783,-9844.739029,-153.219100
660.478761,74.020594,-10214.842000,0.000000
660.479085,-296.082377,-10140.821405,-459.657299
660.479409,-666.185348,-9400.615463,0.000000
660.479733,-518.144159,-9178.553681,-383.047749
660.480057,-370.102971,-9474.636058,0.000000
660.480381,-444.123565,-9844.739029,-153.219100
660.480706,444.123565,-9770.718434,-153.219100
660.481030,740.205942,-10066.800811,-153.219100
660.481354,296.082377,-10362.883188,-153.219100
660.481678,-222.061783,-9918.759623,306.438199
660.482002,-222.061783,-9696.697840,229.828649
660.482326,-740.205942,-9918.759623,0.000000
660.482650,-222.061783,-10066.800811,-153.219100
660.482974,518.144159,-9696.697840,-306.438199
660.483298,666.185348,-10288.862594,306.438199
660.483622,444.123565,-9992.780217,0.000000
660.483946,222.061783,-9400.615463,0.000000
660.484271,0.000000,-9326.594869,-153.219100
660.484595,-592.164754,-9770.718434,0.000000
660.484919,518.144159,-9844.739029,-306.438199
660.485243,888.247130,-9770.718434,153.219100
660.485567,444.123565,-9770.718434,306.438199
660.485891,0.000000,-9696.697840,76.609550
660.486215,-296.082377,-9030.512492,0.000000
660.486539,-444.123565,-9252.574275,0.000000
660.486863,-518.144159,-9548.656652,0.000000
660.487187,0.000000,-9474.636058,0.000000
660.487511,814.226536,-9844.739029,0.000000
660.487835,518.144159,-9770.718434,383.047749
660.488160,0.000000,-9548.656652,-229.828649
660.488484,-444.123565,-8956.491898,-76.609550
660.488808,-518.144159,-9178.553681,0.000000
660.489132,-148.041188,-9548.656652,306.438199
660.489456,740.205942,-9622.677246,0.000000
660.489780,740.205942,-9696.697840,76.609550
660.490104,-444.123565,-9918.759623,153.219100
660.490428,-518.144159,-9548.656652,0.000000
660.490752,-666.185348,-9252.574275,-612.876398
660.491076,-740.205942,-9474.636058,-229.828649
660.491400,-444.123565,-9770.718434,0.000000
660.491725,370.102971,-9918.759623,0.000000
660.492049,148.041188,-9918.759623,0.000000
660.492373,-296.082377,-9992.780217,-459.657299
660.492697,-592.164754,-9252.574275,306.438199
660.493021,-740.205942,-9326.594869,0.000000
660.493345,-888.247130,-9548.656652,-153.219100
660.493669,-518.144159,-9844.739029,0.000000
660.493993,296.082377,-9770.718434,0.000000
660.494317,148.041188,-10140.821405,0.000000
660.494641,222.061783,-10066.800811,0.000000
660.494965,-888.247130,-9252.574275,76.609550
660.495289,-962.267725,-9252.574275,0.000000
660.495614,-518.144159,-9696.697840,-153.219100
660.495938,0.000000,-9844.739029,0.000000
660.496262,444.123565,-10066.800811,0.000000
660.496586,370.102971,-10436.903782,-229.828649
660.496910,-148.041188,-10066.800811,0.000000
660.497234,-592.164754,-8808.450710,306.438199
660.497558,-148.041188,-9474.636058,0.000000
660.497882,-370.102971,-9474.636058,153.219100
660.498206,444.123565,-9770.718434,0.000000
660.498530,814.226536,-9548.656652,153.219100
660.498854,666.185348,-10066.800811,0.000000
660.499179,0.000000,-9548.656652,76.609550
660.499503,-296.082377,-8956.491898,0.000000
660.499827,-666.185348,-8734.430116,-383.047749
660.500151,0.000000,-9474.636058,0.000000
660.500475,444.123565,-9844.739029,0.000000
660.500799,740.205942,-10140.821405,0.000000
660.501123,296.082377,-9992.780217,0.000000
660.501447,0.000000,-9474.636058,76.609550
660.501771,-370.102971,-9178.553681,689.485948
660.502095,-444.123565,-9474.636058,-306.438199
660.502419,0.000000,-9770.718434,0.000000
660.502744,962.267725,-9844.739029,-153.219100
660.503068,666.185348,-9844.739029,76.609550
660.503392,148.041188,-10066.800811,76.609550
660.503716,-370.102971,-9474.636058,76.609550
660.504040,148.041188,-9696.697840,-306.438199
660.504364,-370.102971,-9474.636058,0.000000
660.504688,-444.123565,-9770.718434,76.609550
660.505012,222.061783,-10140.821405,459.657299
660.505336,296.082377,-9918.759623,76.609550
660.505660,-222.061783,-9918.759623,0.000000
660.505984,-370.102971,-9400.615463,0.000000
660.506308,-666.185348,-9178.553681,0.000000
660.506633,-370.102971,-9474.636058,-306.438199
660.506957,222.061783,-9696.697840,306.438199
660.507281,740.205942,-9622.677246,383.047749
660.507605,518.144159,-9992.780217,229.828649
660.507929,-148.041188,-9918.759623,0.000000
660.508253,-666.185348,-9474.636058,0.000000
660.508577,-740.205942,-9474.636058,0.000000
660.508901,-370.102971,-9696.697840,-153.219100
660.509225,74.020594,-9992.780217,229.828649
660.509549,592.164754,-9622.677246,153.219100
660.509873,444.123565,-9622.677246,0.000000
660.510198,-222.061783,-9844.739029,0.000000
660.510522,-518.144159,-9474.636058,-153.219100
660.510846,-370.102971,-9400.615463,0.000000
660.511170,-444.123565,-9696.697840,0.000000
660.511494,296.082377,-9992.780217,229.828649
660.511818,444.123565,-9770.718434,153.219100
660.512142,148.041188,-9992.780217,0.000000
660.512466,-370.102971,-9622.677246,-459.657299
660.512790,-740.205942,-9326.594869,-229.828649
660.513114,-666.185348,-9474.636058,0.000000
660.513438,0.000000,-9844.739029,0.000000
660.513762,888.247130,-9844.739029,153.219100
660.514087,592.164754,-9474.636058,229.828649
660.514411,444.123565,-9918.759623,229.828649
660.514735,-222.061783,-9474.636058,459.657299
660.515059,-296.082377,-9030.512492,-229.828649
660.515383,-296.082377,-9252.574275,76.609550
660.515707,0.000000,-9770.718434,0.000000
660.516031,222.061783,-9696.697840,76.609550
660.516355,740.205942,-9844.739029,-536.266849
660.516679,0.000000,-9622.677246,-229.828649
660.517003,-222.061783,-9030.512492,-229.828649
660.517327,-370.102971,-9178.553681,-383.047749
660.517652,-444.123565,-9474.636058,0.000000
660.517976,0.000000,-9696.697840,0.000000
660.518300,518.144159,-9548.656652,306.438199
660.518624,888.247130,-9844.739029,76.609550
660.518948,74.020594,-9844.739029,76.609550
660.519272,0.000000,-9622.677246,-229.828649
660.519596,0.000000,-9326.594869,306.438199
660.519920,-148.041188,-9548.656652,0.000000
660.520244,-148.041188,-9918.759623,0.000000
660.520568,0.000000,-9918.759623,0.000000
660.520892,0.000000,-10140.821405,76.609550
660.521216,-370.102971,-9770.718434,0.000000
660.521541,-370.102971,-9252.574275,0.000000
660.521865,-222.061783,-9252.574275,76.609550
660.522189,74.020594,-9474.636058,-229.828649
660.522513,222.061783,-9696.697840,153.219100
660.522837,444.123565,-10066.800811,-229.828649
660.523161,0.000000,-10510.924376,-383.047749
660.523485,-814.226536,-9770.718434,-459.657299
660.523809,-962.267725,-9400.615463,0.000000
660.524133,-222.061783,-9474.636058,76.609550
660.524457,-444.123565,-10066.800811,0.000000
660.524781,296.082377,-9918.759623,153.219100
660.525106,888.247130,-9696.697840,842.705048
660.525430,148.041188,-9918.759623,-766.095498
660.525754,-148.041188,-9622.677246,0.000000
660.526078,-222.061783,-9474.636058,-229.828649
660.526402,-444.123565,-9696.697840,0.000000
660.526726,-296.082377,-9918.759623,-153.219100
660.527050,0.000000,-9696.697840,0.000000
660.527374,296.082377,-9918.759623,0.000000
660.527698,148.041188,-9844.739029,-536.266849
660.528022,-148.041188,-9918.759623,-229.828649
660.528346,-296.082377,-9252.574275,0.000000
660.528670,0.000000,-9474.636058,-229.828649
660.528995,0.000000,-9622.677246,0.000000
660.529319,888.247130,-9622.677246,153.219100
660.529643,962.267725,-9474.636058,229.828649
660.529967,148.041188,-9548.656652,76.609550
660.530291,0.000000,-9622.677246,153.219100
660.530615,-296.082377,-9104.533087,153.219100
660.530939,-444.123565,-9474.636058,0.000000
660.531263,-222.061783,-9918.759623,0.000000
660.531587,296.082377,-9770.718434,0.000000
660.531911,74.020594,-9992.780217,0.000000
660.532235,-148.041188,-10288.862594,153.219100
660.532560,-370.102971,-8956.491898,-229.828649
660.532884,0.000000,-9104.533087,0.000000
660.533208,-222.061783,-9696.697840,0.000000
660.533532,222.061783,-9696.697840,0.000000
660.533856,666.185348,-9622.677246,76.609550
660.534180,296.082377,-9770.718434,-153.219100
660.534504,-296.082377,-9770.718434,0.000000
660.534828,-740.205942,-9030.512492,76.609550
660.535152,-888.247130,-9474.636058,0.000000
660.535476,-814.226536,-9918.759623,-383.047749
660.535800,-370.102971,-9918.759623,76.609550
660.536125,296.082377,-9770.718434,0.000000
660.536449,222.061783,-9992.780217,536.266849
660.536773,-444.123565,-9474.636058,153.219100
660.537097,-1480.411884,-8660.409521,76.609550
660.537421,-518.144159,-9104.533087,76.609550
660.537745,-222.061783,-9770.718434,0.000000
660.538069,444.123565,-9844.739029,0.000000
660.538393,518.144159,-9992.780217,-153.219100
660.538717,148.041188,-10510.924376,-306.438199
660.539041,-296.082377,-10214.842000,-153.219100
660.539365,-666.185348,-9474.636058,-306.438199
660.539689,-666.185348,-9474.636058,-153.219100
660.540014,0.000000,-10140.821405,-612.876398
660.540338,518.144159,-9844.739029,229.828649
660.540662,592.164754,-9696.697840,153.219100
660.540986,222.061783,-9992.780217,76.609550
660.541310,-222.061783,-9178.553681,153.219100
660.541634,-444.123565,-9326.594869,383.047749
660.541958,-592.164754,-9696.697840,-153.219100
660.542282,-518.144159,-9844.739029,0.000000
660.542606,296.082377,-9770.718434,-153.219100
660.542930,814.226536,-9918.759623,0.000000
660.543254,444.123565,-9844.739029,0.000000
660.543579,148.041188,-9326.594869,-306.438199
660.543903,0.000000,-8734.430116,-306.438199
660.544227,-222.061783,-9474.636058,-919.314598
660.544551,0.000000,-9252.574275,0.000000
660.544875,518.144159,-9770.718434,229.828649
660.545199,222.061783,-9844.739029,-306.438199
660.545523,0.000000,-9844.739029,-153.219100
660.545847,-370.102971,-9400.615463,0.000000
660.546171,-74.020594,-9326.594869,76.609550
660.546495,-296.082377,-9178.553681,0.000000
660.546819,518.144159,-10066.800811,229.828649
660.547143,888.247130,-9622.677246,459.657299
660.547468,666.185348,-10066.800811,76.609550
660.547792,0.000000,-9770.718434,0.000000
660.548116,-518.144159,-9252.574275,-383.047749
660.548440,-518.144159,-9474.636058,-306.438199
660.548764,0.000000,-9622.677246,-306.438199
660.549088,-370.102971,-9622.677246,-536.266849
660.549412,0.000000,-9770.718434,0.000000
660.549736,0.000000,-9918.759623,0.000000
660.550060,-592.164754,-9770.718434,-306.438199
660.550384,-444.123565,-9400.615463,-383.047749
660.550708,-296.082377,-9622.677246,0.000000
660.551033,0.000000,-9992.780217,76.609550
660.551357,592.164754,-9770.718434,689.485948
660.551681,0.000000,-9770.718434,0.000000
660.552005,0.000000,-10140.821405,153.219100
660.552329,-518.144159,-9696.697840,0.000000
660.552653,-518.144159,-9474.636058,-306.438199
660.552977,-592.164754,-9844.739029,-306.438199
660.553301,-296.082377,-9844.739029,-306.438199
660.553625,370.102971,-9474.636058,0.000000
660.553949,222.061783,-9474.636058,-612.876398
660.554273,148.041188,-10214.842000,-153.219100
660.554597,-518.144159,-9326.594869,0.000000
660.554922,-148.041188,-9326.594869,0.000000
660.555246,-296.082377,-9474.636058,-153.219100
660.555570,296.082377,-9918.759623,0.000000
660.555894,592.164754,-10066.800811,229.828649
660.556218,814.226536,-10288.862594,-459.657299
660.556542,0.000000,-9622.677246,-229.828649
660.556866,-222.061783,-9326.594869,0.000000
660.557190,-296.082377,-9252.574275,0.000000
660.557514,-222.061783,-9622.677246,0.000000
660.557838,222.061783,-9622.677246,0.000000
660.558162,1036.288319,-9622.677246,0.000000
660.558487,1258.350101,-10214.842000,536.266849
660.558811,0.000000,-9474.636058,153.219100
660.559135,-444.123565,-9030.512492,0.000000
660.559459,-592.164754,-9030.512492,0.000000
660.559783,-518.144159,-9548.656652,0.000000
660.560107,0.000000,-9770.718434,-153.219100
660.560431,518.144159,-9770.718434,-306.438199
660.560755,666.185348,-9770.718434,153.219100
660.561079,74.020594,-9696.697840,0.000000
660.561403,0.000000,-9178.553681,76.609550
660.561727,-370.102971,-9252.574275,-229.828649
660.562051,-370.102971,-9770.718434,0.000000
660.562375,74.020594,-9844.739029,76.609550
660.562699,296.082377,-10066.800811,0.000000
660.563023,-148.041188,-10214.842000,0.000000
660.563347,-296.082377,-9696.697840,0.000000
660.563671,-592.164754,-8956.491898,306.438199
660.563995,-444.123565,-9474.636058,0.000000
660.564319,-444.123565,-9474.636058,76.609550
660.564643,518.144159,-9622.677246,306.438199
660.564967,592.164754,-9770.718434,-153.219100
660.565291,222.061783,-9770.718434,-153.219100
660.565615,-518.144159,-9474.636058,-153.219100
660.565939,-740.205942,-9474.636058,-383.047749
660.566263,-296.082377,-9992.780217,306.438199
660.566587,-222.061783,-10066.800811,0.000000
660.566911,444.123565,-10066.800811,76.609550
660.567235,222.061783,-10362.883188,0.000000
660.567559,0.000000,-10140.821405,0.000000
660.567883,-222.061783,-9474.636058,0.000000
660.568207,-444.123565,-9252.574275,536.266849
660.568531,0.000000,-9918.759623,306.438199
660.568855,740.205942,-9696.697840,459.657299
660.569179,740.205942,-9474.636058,0.000000
660.569503,444.123565,-9844.739029,0.000000
660.569827,-222.061783,-10140.821405,-153.219100
660.570151,-444.123565,-9548.656652,-229.828649
660.570475,-814.226536,-9252.574275,229.828649
660.570799,-962.267725,-9474.636058,229.828649
660.571123,148.041188,-9548.656652,76.609550
660.571447,962.267725,-9548.656652,306.438199
660.571771,814.226536,-10510.924376,0.000000
660.572095,74.020594,-9844.739029,0.000000
660.572419,-444.123565,-9252.574275,-153.219100
660.572743,-518.144159,-9400.615463,0.000000
660.573067,0.000000,-9622.677246,-306.438199
660.573391,296.082377,-9696.697840,0.000000
660.573715,1036.288319,-9992.780217,153.219100
660.574039,592.164754,-10214.842000,153.219100
660.574363,74.020594,-9548.656652,-306.438199
660.574687,-444.123565,-9252.574275,-153.219100
660.575011,-518.144159,-9474.636058,0.000000
660.575335,-444.123565,-9992.780217,-229.828649
660.575659,0.000000,-9770.718434,229.828649
660.575983,0.000000,-10066.800811,0.000000
660.576307,-296.082377,-10140.821405,-919.314598
660.576631,-148.041188,-9548.656652,-153.219100
660.576955,-444.123565,-9104.533087,0.000000
660.577279,-296.082377,-9548.656652,-153.219100
660.577603,-592.164754,-9770.718434,-153.219100
660.577927,148.041188,-9696.697840,-306.438199
660.578251,222.061783,-10140.821405,0.000000
660.578575,-222.061783,-10214.842000,-306.438199
660.578899,-888.247130,-9548.656652,-842.705048
660.579223,-444.123565,-9030.512492,0.000000
660.579547,-222.061783,-9770.718434,-306.438199
660.579871,74.020594,-9918.759623,-229.828649
660.580195,518.144159,-9844.739029,306.438199
660.580519,518.144159,-10214.842000,153.219100
660.580843,0.000000,-9918.759623,-383.047749
660.581167,-296.082377,-9474.636058,-229.828649
660.581491,-444.123565,-9178.553681,-229.828649
660.581815,-740.205942,-9918.759623,-536.266849
660.582139,0.000000,-9770.718434,-153.219100
660.582463,740.205942,-9770.718434,-459.657299
660.582787,0.000000,-10214.842000,-536.266849
660.583111,-666.185348,-9918.759623,-459.657299
660.583435,-518.144159,-9474.636058,0.000000
660.583759,-74.020594,-9474.636058,0.000000
660.584083,-148.041188,-9474.636058,153.219100
660.584407,444.123565,-9696.697840,383.047749
660.584731,1184.329507,-9548.656652,689.485948
660.585055,962.267725,-9992.780217,229.828649
660.585379,0.000000,-9770.718434,76.609550
660.585703,-370.102971,-9326.594869,0.000000
660.586027,-666.185348,-9548.656652,-153.219100
660.586351,-666.185348,-9178.553681,-459.657299
660.586675,0.000000,-9696.697840,0.000000
660.586999,592.164754,-9326.594869,-153.219100
660.587323,0.000000,-9770.718434,-153.219100
660.587647,0.000000,-9474.636058,-153.219100
660.587971,0.000000,-8882.471304,0.000000
660.588295,0.000000,-9400.615463,-229.828649
660.588619,0.000000,-9918.759623,0.000000
660.588943,370.102971,-9770.718434,0.000000
660.589267,740.205942,-9992.780217,76.609550
660.589591,74.020594,-9992.780217,0.000000
660.589915,-148.041188,-9474.636058,0.000000
660.590239,-518.144159,-9178.553681,229.828649
660.590563,-592.164754,-9326.594869,0.000000
660.590887,-444.123565,-9696.697840,153.219100
660.591211,222.061783,-9474.636058,229.828649
660.591535,370.102971,-9622.677246,153.219100
660.591859,0.000000,-10066.800811,0.000000
660.592183,-592.164754,-8956.491898,0.000000
660.592507,-518.144159,-9030.512492,0.000000
660.592831,-962.267725,-9696.697840,0.000000
660.593155,-592.164754,-9918.759623,-153.219100
660.593479,222.061783,-9770.718434,0.000000
660.593802,296.082377,-10362.883188,0.000000
660.594126,222.061783,-10510.924376,-153.219100
660.594450,0.000000,-9548.656652,0.000000
660.594774,-148.041188,-9474.636058,0.000000
660.595098,-148.041188,-9918.759623,-229.828649
660.595422,0.000000,-9992.780217,0.000000
660.595746,296.082377,-9770.718434,-153.219100
660.596070,296.082377,-10214.842000,-383.047749
660.596394,222.061783,-9844.739029,0.000000
660.596718,-888.247130,-9104.533087,-536.266849
660.597042,-592.164754,-9252.574275,-153.219100
660.597366,-518.144159,-9992.780217,-383.047749
660.597690,0.000000,-9770.718434,-153.219100
660.598014,518.144159,-9918.759623,0.000000
660.598338,222.061783,-10140.821405,76.609550
660.598662,-148.041188,-9696.697840,383.047749
660.598986,0.000000,-9030.512492,0.000000
660.599310,0.000000,-9548.656652,76.609550
660.599634,0.000000,-10066.800811,0.000000
660.599958,444.123565,-9992.780217,0.000000
660.600282,444.123565,-10066.800811,-153.219100
660.600606,0.000000,-10140.821405,-459.657299
660.600930,-444.123565,-9474.636058,-536.266849
660.601254,-518.144159,-9400.615463,-306.438199
660.601578,-444.123565,-9178.553681,0.000000
660.601902,296.082377,-9770.718434,0.000000
660.602226,666.185348,-9474.636058,153.219100
660.602550,740.205942,-9548.656652,0.000000
660.602874,370.102971,-9844.739029,229.828649
660.603198,74.020594,-9622.677246,76.609550
660.603522,-222.061783,-9178.553681,-459.657299
660.603846,0.000000,-9770.718434,-306.438199
660.604170,0.000000,-9844.739029,-383.047749
660.604494,296.082377,-9770.718434,0.000000
660.604818,74.020594,-9770.718434,0.000000
660.605142,-592.164754,-9918.759623,-306.438199
660.605466,-666.185348,-9474.636058,-153.219100
660.605790,-444.123565,-9252.574275,0.000000
660.606114,-370.102971,-9622.677246,0.000000
660.606438,0.000000,-9400.615463,-76.609550
660.606762,592.164754,-10140.821405,229.828649
660.607086,370.102971,-10066.800811,76.609550
660.607410,-222.061783,-9992.780217,-383.047749
660.607734,-518.144159,-9400.615463,-153.219100
660.608058,-444.123565,-9178.553681,0.000000
660.608382,-222.061783,-9770.718434,-766.095498
660.608706,-222.061783,-9770.718434,-612.876398
660.609030,222.061783,-10066.800811,-153.219100
660.609354,518.144159,-10140.821405,0.000000
660.609678,-74.020594,-9622.677246,-306.438199
660.610002,-148.041188,-8882.471304,0.000000
660.610326,-296.082377,-9474.636058,0.000000
660.610650,-148.041188,-9770.718434,0.000000
660.610974,222.061783,-9770.718434,153.219100
660.611298,518.144159,-9770.718434,459.657299
660.611622,296.082377,-10436.903782,0.000000
660.611946,-148.041188,-9696.697840,-153.219100
660.612270,-592.164754,-8660.409521,76.609550
660.612594,-740.205942,-9474.636058,-153.219100
660.612918,-370.102971,-9696.697840,-306.438199
660.613242,518.144159,-9696.697840,0.000000
660.613566,888.247130,-9844.739029,0.000000
660.613890,296.082377,-10214.842000,0.000000
660.614214,0.000000,-9622.677246,459.657299
660.614538,0.000000,-8882.471304,0.000000
660.614862,0.000000,-9474.636058,0.000000
660.615186,0.000000,-9844.739029,0.000000
660.615510,444.123565,-9918.759623,-153.219100
660.615834,888.247130,-10362.883188,0.000000
660.616158,0.000000,-9548.656652,-383.047749
660.616482,-296.082377,-9104.533087,-229.828649
660.616806,0.000000,-8808.450710,229.828649
660.617130,-222.061783,-9474.636058,153.219100
660.617454,222.061783,-9770.718434,229.828649
660.617778,592.164754,-9622.677246,153.219100
660.618102,370.102971,-9844.739029,76.609550
660.618426,-370.102971,-10066.800811,153.219100
660.618750,-592.164754,-9252.574275,-153.219100
660.619074,-222.061783,-9622.677246,-229.828649
660.619398,-444.123565,-9474.636058,-229.828649
660.619722,-444.123565,-9474.636058,-536.266849
660.620046,222.061783,-9622.677246,-383.047749
660.620370,148.041188,-10066.800811,-459.657299
660.620694,-518.144159,-9844.739029,-306.438199
660.621018,-592.164754,-9548.656652,229.828649
660.621342,-370.102971,-9622.677246,229.828649
660.621666,-296.082377,-9770.718434,229.828649
660.621990,148.041188,-9844.739029,536.266849
660.622314,444.123565,-10214.842000,306.438199
660.622638,74.020594,-10288.862594,0.000000
660.622962,-296.082377,-9770.718434,0.000000
660.623286,-444.123565,-9326.594869,0.000000
660.623610,-296.082377,-9030.512492,-153.219100
660.623934,-740.205942,-9474.636058,-766.095498
660.624258,296.082377,-10140.821405,-536.266849
660.624582,370.102971,-9770.718434,-536.266849
660.624906,0.000000,-9844.739029,-536.266849
660.625230,-592.164754,-9770.718434,-383.047749
660.625553,-666.185348,-9400.615463,-153.219100
660.625877,-444.123565,-9622.677246,-229.828649
660.626201,0.000000,-9770.718434,0.000000
660.626525,962.267725,-9992.780217,153.219100
660.626849,1110.308913,-10066.800811,76.609550
660.627173,444.123565,-10214.842000,306.438199
660.627497,0.000000,-9474.636058,0.000000
660.627821,-296.082377,-9104.533087,-229.828649
660.628145,-296.082377,-9252.574275,-153.219100
660.628469,0.000000,-9548.656652,153.219100
660.628793,518.144159,-9400.615463,-459.657299
660.629117,740.205942,-9770.718434,-459.657299
660.629441,74.020594,-9770.718434,-689.485948
660.629765,-444.123565,-9178.553681,-306.438199
660.630089,-370.102971,-9104.533087,0.000000
660.630413,-296.082377,-9548.656652,76.609550
660.630737,222.061783,-9548.656652,-229.828649
660.631061,888.247130,-9696.697840,-536.266849
660.631385,518.144159,-10066.800811,-383.047749
660.631709,444.123565,-9918.759623,76.609550
660.632033,74.020594,-9326.594869,0.000000
660.632357,-296.082377,-9474.636058,0.000000
660.632681,-444.123565,-9696.697840,-383.047749
660.633005,0.000000,-9770.718434,-459.657299
660.633329,740.205942,-9622.677246,0.000000
660.633653,222.061783,-9770.718434,0.000000
660.633977,-518.144159,-9770.718434,-459.657299
660.634301,-666.185348,-9104.533087,-459.657299
660.634625,-296.082377,-9474.636058,0.000000
660.634949,-296.082377,-9548.656652,76.609550
660.635273,296.082377,-9918.759623,383.047749
660.635597,666.185348,-10214.842000,153.219100
660.635921,222.061783,-10140.821405,76.609550
660.636245,-148.041188,-10214.842000,76.609550
660.636569,-1258.350101,-9400.615463,0.000000
660.636893,-962.267725,-9548.656652,-229.828649
660.637217,-444.123565,-9992.780217,-229.828649
660.637541,222.061783,-9918.759623,0.000000
660.637865,666.185348,-9770.718434,0.000000
660.638189,0.000000,-9844.739029,-306.438199
660.638513,-370.102971,-9918.759623,-306.438199
660.638837,-592.164754,-8956.491898,-153.219100
660.639161,-444.123565,-9474.636058,0.000000
660.639485,0.000000,-9622.677246,0.000000
660.639809,666.185348,-9918.759623,76.609550
660.640133,518.144159,-10066.800811,0.000000
660.640457,0.000000,-9844.739029,-306.438199
660.640781,-518.144159,-9474.636058,0.000000
660.641105,-814.226536,-9252.574275,-306.438199
660.641429,-518.144159,-10288.862594,-383.047749
660.641753,-296.082377,-9770.718434,-229.828649
660.642077,370.102971,-9622.677246,-153.219100
660.642401,666.185348,-9918.759623,0.000000
660.642725,148.041188,-9844.739029,0.000000
660.643049,148.041188,-9326.594869,0.000000
660.643373,0.000000,-8956.491898,229.828649
660.643697,0.000000,-9770.718434,76.609550
660.644021,518.144159,-9992.780217,153.219100
660.644345,814.226536,-9844.739029,0.000000
660.644669,444.123565,-10066.800811,0.000000
660.644993,0.000000,-9696.697840,-229.828649
660.645317,-148.041188,-9104.533087,-229.828649
660.645641,-518.144159,-9844.739029,0.000000
660.645965,-592.164754,-9918.759623,-306.438199
660.646289,0.000000,-9252.574275,-306.438199
660.646613,444.123565,-9696.697840,-229.828649
660.646937,296.082377,-9918.759623,0.000000
660.647261,-148.041188,-9474.636058,229.828649
660.647585,0.000000,-9104.533087,459.657299
660.647909,-148.041188,-9400.615463,-76.609550
660.648233,0.000000,-9622.677246,459.657299
660.648557,-148.041188,-9622.677246,536.266849
660.648881,518.144159,-10214.842000,0.000000
660.649205,148.041188,-10214.842000,0.000000
660.649529,-592.164754,-9548.656652,-229.828649
660.649853,-740.205942,-9178.553681,-383.047749
660.650177,-592.164754,-9696.697840,229.828649
660.650501,-296.082377,-9474.636058,-76.609550
660.650825,-296.082377,-9474.636058,-153.219100
660.651149,-148.041188,-9770.718434,-229.828649
660.651473,-296.082377,-10288.862594,0.000000
660.651797,-666.185348,-9548.656652,-229.828649
660.652121,-592.164754,-9178.553681,-306.438199
660.652445,-370.102971,-9770.718434,153.219100
660.652769,74.020594,-9918.759623,0.000000
660.653093,1036.288319,-9918.759623,76.609550
660.653417,814.226536,-9696.697840,-229.828649
660.653741,74.020594,-10066.800811,0.000000
660.654065,-296.082377,-9622.677246,0.000000
660.654389,-740.205942,-9400.615463,0.000000
660.654713,-666.185348,-9844.739029,-153.219100
660.655037,-370.102971,-9696.697840,153.219100
660.655361,0.000000,-9622.677246,76.609550
660.655685,0.000000,-9992.780217,76.609550
660.656009,-222.061783,-9770.718434,0.000000
660.656333,-222.061783,-9030.512492,-306.438199
660.656657,-148.041188,-9400.615463,0.000000
660.656981,-296.082377,-9548.656652,-306.438199
660.657304,444.123565,-9844.739029,153.219100
660.657628,666.185348,-9770.718434,0.000000
660.657952,444.123565,-10066.800811,-383.047749
660.658276,0.000000,-9844.739029,-459.657299
660.658600,-148.041188,-9400.615463,0.000000
660.658924,-148.041188,-9622.677246,0.000000
660.659248,-148.041188,-9696.697840,229.828649
660.659572,370.102971,-9770.718434,0.000000
660.659896,592.164754,-9770.718434,459.657299
660.660220,0.000000,-9844.739029,459.657299
660.660544,-222.061783,-9548.656652,0.000000
660.660868,-148.041188,-9178.553681,76.609550
660.661192,-222.061783,-9400.615463,0.000000
660.661516,0.000000,-9696.697840,0.000000
660.661840,444.123565,-9696.697840,76.609550
660.662164,666.185348,-9770.718434,0.000000
660.662488,296.082377,-10066.800811,-153.219100
660.662812,-222.061783,-9770.718434,0.000000
660.663137,-444.123565,-9400.615463,-306.438199
660.663461,-444.123565,-9696.697840,0.000000
660.663785,0.000000,-9844.739029,-153.219100
660.664109,222.061783,-9770.718434,229.828649
660.664433,222.061783,-9696.697840,383.047749
660.664757,148.041188,-9770.718434,76.609550
660.665081,0.000000,-9252.574275,-383.047749
660.665405,-814.226536,-8956.491898,0.000000
660.665729,-296.082377,-9696.697840,-229.828649
660.666053,-518.144159,-9918.759623,-306.438199
660.666378,0.000000,-9918.759623,0.000000
660.666702,-222.061783,-9770.718434,-153.219100
660.667026,-814.226536,-10140.821405,0.000000
660.667350,-962.267725,-9622.677246,-229.828649
660.667674,-740.205942,-9474.636058,76.609550
660.667998,0.000000,-9770.718434,76.609550
660.668322,148.041188,-9474.636058,459.657299
660.668646,444.123565,-9918.759623,383.047749
660.668970,444.123565,-10140.821405,229.828649
660.669294,0.000000,-10214.842000,0.000000
660.669619,0.000000,-9548.656652,0.000000
660.669943,-518.144159,-9474.636058,0.000000
660.670267,-740.205942,-9548.656652,-612.876398
660.670591,0.000000,-9770.718434,-383.047749
660.670915,296.082377,-9696.697840,-383.047749
660.671239,74.020594,-9918.759623,-229.828649
660.671563,0.000000,-9474.636058,-153.219100
660.671887,0.000000,-9104.533087,76.609550
660.672211,148.041188,-9030.512492,383.047749
660.672535,0.000000,-9326.594869,229.828649
660.672860,370.102971,-9474.636058,0.000000
660.673184,666.185348,-10066.800811,76.609550
660.673508,296.082377,-10066.800811,0.000000
660.673832,-444.123565,-9622.677246,-229.828649
660.674156,-592.164754,-9326.594869,-383.047749
660.674480,-962.267725,-9474.636058,-153.219100
660.674804,-222.061783,-9696.697840,0.000000
660.675128,666.185348,-9400.615463,0.000000
660.675452,814.226536,-9548.656652,-383.047749
660.675776,148.041188,-9992.780217,0.000000
660.676101,0.000000,-9474.636058,0.000000
660.676425,-370.102971,-9178.553681,0.000000
660.676749,-444.123565,-9400.615463,-153.219100
660.677073,0.000000,-9992.780217,-229.828649
660.677397,814.226536,-9548.656652,306.438199
660.677721,740.205942,-9992.780217,153.219100
660.678045,74.020594,-9992.780217,76.609550
660.678369,-444.123565,-9474.636058,0.000000
660.678693,-222.061783,-9400.615463,0.000000
660.679017,0.000000,-9622.677246,0.000000
660.679342,0.000000,-9622.677246,76.609550
660.679666,370.102971,-9622.677246,383.047749
660.679990,592.164754,-10214.842000,0.000000
660.680314,222.061783,-9696.697840,-306.438199
660.680638,-518.144159,-9400.615463,0.000000
660.680962,-962.267725,-9548.656652,0.000000
660.681286,-888.247130,-9696.697840,-229.828649
660.681610,0.000000,-10510.924376,0.000000
660.681934,148.041188,-10214.842000,0.000000
660.682258,518.144159,-10214.842000,153.219100
660.682583,-222.061783,-9992.780217,-306.438199
660.682907,-74.020594,-9400.615463,0.000000
660.683231,-296.082377,-9326.594869,0.000000
660.683555,-296.082377,-10066.800811,0.000000
660.683879,148.041188,-10066.800811,0.000000
660.684203,592.164754,-9918.759623,0.000000
660.684527,222.061783,-10066.800811,-229.828649
660.684851,-370.102971,-9696.697840,0.000000
660.685175,-592.164754,-9178.553681,-229.828649
660.685499,-518.144159,-9474.636058,-229.828649
660.685824,-148.041188,-9622.677246,0.000000
660.686148,592.164754,-9770.718434,76.609550
660.686472,888.247130,-9770.718434,383.047749
660.686796,296.082377,-9844.739029,306.438199
660.687120,-148.041188,-9178.553681,0.000000
660.687444,0.000000,-8734.430116,0.000000
660.687768,0.000000,-9474.636058,0.000000
660.688092,0.000000,-9770.718434,0.000000
660.688416,444.123565,-9474.636058,0.000000
660.688740,666.185348,-9844.739029,-153.219100
660.689065,148.041188,-10140.821405,-306.438199
660.689389,-370.102971,-9474.636058,-919.314598
660.689713,-222.061783,-9326.594869,-229.828649
660.690037,-370.102971,-9178.553681,0.000000
660.690361,296.082377,-9918.759623,0.000000
660.690685,296.082377,-9770.718434,0.000000
660.691009,370.102971,-9992.780217,0.000000
660.691333,0.000000,-9622.677246,842.705048
660.691657,-222.061783,-9326.594869,76.609550
660.691981,-370.102971,-9252.574275,306.438199
660.692306,-370.102971,-9696.697840,612.876398
660.692630,0.000000,-9770.718434,153.219100
660.692954,592.164754,-9918.759623,76.609550
660.693278,370.102971,-9918.759623,0.000000
660.693602,0.000000,-9844.739029,-153.219100
660.693926,-518.144159,-9474.636058,229.828649
660.694250,-148.041188,-9178.553681,-306.438199
660.694574,-222.061783,-9548.656652,0.000000
660.694898,-296.082377,-9548.656652,76.609550
660.695222,222.061783,-9918.759623,-153.219100
660.695547,74.020594,-9992.780217,-76.609550
660.695871,-444.123565,-9622.677246,-153.219100
660.696195,-444.123565,-9400.615463,-459.657299
660.696519,-444.123565,-9400.615463,-153.219100
660.696843,0.000000,-9770.718434,-153.219100
660.697167,222.061783,-9918.759623,153.219100
660.697491,296.082377,-10436.903782,-612.876398
660.697815,-296.082377,-10362.883188,-229.828649
660.698139,-740.205942,-9992.780217,-229.828649
660.698464,-666.185348,-9326.594869,-229.828649
660.698788,-666.185348,-9548.656652,-459.657299
660.699112,0.000000,-9770.718434,459.657299
660.699436,518.144159,-9844.739029,0.000000
660.699760,814.226536,-9770.718434,76.609550
660.700084,444.123565,-9326.594869,0.000000
660.700408,148.041188,-9474.636058,0.000000
660.700732,-296.082377,-9178.553681,-306.438199
660.701056,0.000000,-9844.739029,-229.828649
660.701380,296.082377,-10214.842000,0.000000
660.701705,666.185348,-9992.780217,306.438199
660.702029,666.185348,-9992.780217,0.000000
660.702353,0.000000,-10066.800811,153.219100
660.702677,-296.082377,-9474.636058,0.000000
660.703001,0.000000,-9326.594869,-229.828649
660.703325,-740.205942,-9622.677246,-306.438199
660.703649,0.000000,-9474.636058,-306.438199
660.703973,592.164754,-9548.656652,-153.219100
660.704297,518.144159,-9696.697840,0.000000
660.704621,0.000000,-9696.697840,-536.266849
660.704946,-518.144159,-9178.553681,229.828649
660.705270,-518.144159,-9252.574275,0.000000
660.705594,0.000000,-9992.780217,76.609550
660.705918,444.123565,-9622.677246,306.438199
660.706242,888.247130,-10066.800811,76.609550
660.706566,296.082377,-10436.903782,229.828649
660.706890,-222.061783,-10066.800811,0.000000
660.707214,-1110.308913,-8808.450710,306.438199
660.707538,-592.164754,-9178.553681,-306.438199
660.707862,-518.144159,-9844.739029,0.000000
660.708187,222.061783,-9474.636058,0.000000
660.708511,592.164754,-9696.697840,0.000000
660.708835,74.020594,-9844.739029,-229.828649
660.709159,-444.123565,-9252.574275,0.000000
660.709483,-444.123565,-9178.553681,0.000000
660.709807,-740.205942,-9474.636058,-153.219100
660.710131,-296.082377,-9696.697840,153.219100
660.710455,222.061783,-9918.759623,-153.219100
660.710779,444.123565,-9918.759623,0.000000
660.711103,0.000000,-10066.800811,0.000000
660.711428,-518.144159,-9696.697840,-229.828649
660.711752,-1036.288319,-9178.553681,0.000000
660.712076,-666.185348,-9400.615463,229.828649
660.712400,0.000000,-9548.656652,-306.438199
660.712724,444.123565,-9548.656652,76.609550
660.713048,296.082377,-10066.800811,-229.828649
660.713372,0.000000,-10214.842000,0.000000
660.713696,0.000000,-9696.697840,76.609550
660.714020,0.000000,-9474.636058,0.000000
660.714344,0.000000,-9474.636058,153.219100
660.714669,518.144159,-9696.697840,-459.657299
660.714993,666.185348,-9548.656652,-153.219100
660.715317,592.164754,-9770.718434,-536.266849
660.715641,-148.041188,-9844.739029,-229.828649
660.715965,-148.041188,-9548.656652,-306.438199
660.716289,-74.020594,-9474.636058,-383.047749
660.716613,-148.041188,-9548.656652,-153.219100
660.716937,222.061783,-9844.739029,76.609550
660.717261,518.144159,-9548.656652,153.219100
660.717585,592.164754,-9770.718434,0.000000
660.717910,-296.082377,-9770.718434,0.000000
660.718234,-370.102971,-9252.574275,-229.828649
660.718558,-370.102971,-9326.594869,0.000000
660.718882,0.000000,-9696.697840,0.000000
660.719206,518.144159,-9696.697840,0.000000
660.719530,666.185348,-9696.697840,689.485948
660.719854,0.000000,-9918.759623,0.000000
660.720178,-444.123565,-9548.656652,306.438199
660.720502,-592.164754,-9400.615463,0.000000
660.720826,-740.205942,-9474.636058,0.000000
660.721151,-592.164754,-9770.718434,-153.219100
660.721475,444.123565,-9696.697840,0.000000
660.721799,740.205942,-9548.656652,0.000000
660.722123,74.020594,-9696.697840,153.219100
660.722447,0.000000,-9992.780217,306.438199
660.722771,-592.164754,-9178.553681,153.219100
660.723095,-444.123565,-9400.615463,0.000000
660.723419,-296.082377,-9622.677246,0.000000
660.723743,518.144159,-9918.759623,0.000000
660.724067,814.226536,-9770.718434,459.657299
660.724392,370.102971,-9918.759623,0.000000
660.724716,-296.082377,-9622.677246,0.000000
660.725040,-592.164754,-9326.594869,-153.219100
660.725364,-962.267725,-9844.739029,-459.657299
660.725688,-444.123565,-10066.800811,-459.657299
660.726012,0.000000,-9918.759623,0.000000
660.726336,666.185348,-10066.800811,306.438199
660.726660,0.000000,-9622.677246,-153.219100
660.726984,-444.123565,-9400.615463,76.609550
660.727308,-444.123565,-8956.491898,229.828649
660.727633,-444.123565,-9696.697840,0.000000
660.727957,0.000000,-10066.800811,76.609550
660.728281,666.185348,-9992.780217,0.000000
660.728605,518.144159,-9992.780217,153.219100
660.728929,222.061783,-9770.718434,-229.828649
660.729253,0.000000,-9104.533087,459.657299
660.729577,-444.123565,-9400.615463,-229.828649
660.729901,-370.102971,-9696.697840,0.000000
660.730225,518.144159,-9696.697840,0.000000
660.730549,1036.288319,-9770.718434,0.000000
660.730874,592.164754,-9548.656652,0.000000
660.731198,222.061783,-9400.615463,-153.219100
660.731522,0.000000,-9326.594869,0.000000
660.731846,-296.082377,-9252.574275,0.000000
660.732170,0.000000,-9474.636058,229.828649
660.732494,74.020594,-9770.718434,153.219100
660.732818,666.185348,-9992.780217,0.000000
660.733142,296.082377,-9992.780217,0.000000
660.733466,-222.061783,-9696.697840,0.000000
660.733790,-148.041188,-9474.636058,0.000000
660.734115,-1036.288319,-9622.677246,-229.828649
660.734439,0.000000,-9918.759623,229.828649
660.734763,666.185348,-10066.800811,0.000000
660.735087,518.144159,-9844.739029,0.000000
660.735411,0.000000,-10066.800811,0.000000
660.735735,-296.082377,-9622.677246,0.000000
660.736059,-518.144159,-9104.533087,-306.438199
660.736383,-666.185348,-9474.636058,0.000000
660.736707,-518.144159,-9844.739029,0.000000
660.737031,370.102971,-9992.780217,0.000000
660.737356,666.185348,-9696.697840,612.876398
660.737680,296.082377,-9918.759623,-229.828649
660.738004,-444.123565,-9548.656652,0.000000
660.738328,-296.082377,-9770.718434,0.000000
660.738652,-518.144159,-9548.656652,0.000000
660.738976,-222.061783,-9622.677246,0.000000
660.739300,222.061783,-9918.759623,0.000000
660.739624,370.102971,-10288.862594,-229.828649
660.739948,-370.102971,-10066.800811,-229.828649
660.740272,-518.144159,-9104.533087,0.000000
660.740597,-296.082377,-9400.615463,-76.609550
660.740921,-444.123565,-9696.697840,-229.828649
660.741245,-148.041188,-9844.739029,153.219100
660.741569,444.123565,-9844.739029,0.000000
660.741893,148.041188,-10140.821405,-229.828649
660.742217,-370.102971,-9622.677246,-229.828649
660.742541,-592.164754,-9474.636058,153.219100
660.742865,-740.205942,-9252.574275,-306.438199
660.743189,-518.144159,-9770.718434,-76.609550
660.743513,74.020594,-9400.615463,-153.219100
660.743838,592.164754,-9474.636058,-306.438199
660.744162,962.267725,-10066.800811,0.000000
660.744486,370.102971,-9326.594869,0.000000
660.744810,0.000000,-9400.615463,-153.219100
660.745134,0.000000,-9104.533087,0.000000
660.745458,-296.082377,-9992.780217,-153.219100
660.745782,74.020594,-9918.759623,153.219100
660.746106,444.123565,-9696.697840,229.828649
660.746430,518.144159,-9844.739029,459.657299
660.746754,0.000000,-9622.677246,459.657299
660.747079,0.000000,-9474.636058,229.828649
660.747403,0.000000,-9326.594869,536.266849
660.747727,74.020594,-9622.677246,-383.047749
660.748051,222.061783,-9474.636058,0.000000
660.748375,444.123565,-9992.780217,0.000000
660.748699,0.000000,-9844.739029,-229.828649
660.749023,-296.082377,-9252.574275,-229.828649
660.749347,-370.102971,-9030.512492,229.828649
660.749671,-592.164754,-9474.636058,306.438199
660.749996,74.020594,-9844.739029,229.828649
660.750320,740.205942,-9622.677246,306.438199
660.750644,666.185348,-9844.739029,0.000000
660.750968,222.061783,-9992.780217,76.609550
660.751292,-370.102971,-9178.553681,0.000000
660.751616,-296.082377,-9178.553681,0.000000
660.751940,-1036.288319,-9474.636058,-306.438199
660.752264,-222.061783,-10214.842000,383.047749
660.752588,296.082377,-10140.821405,153.219100
660.752912,74.020594,-10066.800811,0.000000
660.753237,-370.102971,-9918.759623,-229.828649
660.753561,-740.205942,-9252.574275,-229.828649
660.753885,-296.082377,-9178.553681,0.000000
660.754209,0.000000,-9622.677246,-229.828649
660.754533,592.164754,-9622.677246,-306.438199
660.754857,814.226536,-9622.677246,76.609550
660.755181,444.123565,-10510.924376,0.000000
660.755505,-222.061783,-10288.862594,-153.219100
660.755829,-444.123565,-9622.677246,0.000000
660.756153,-370.102971,-9474.636058,-229.828649
660.756478,-444.123565,-10066.800811,-306.438199
660.756802,148.041188,-9770.718434,76.609550
660.757126,814.226536,-9548.656652,0.000000
660.757450,444.123565,-9770.718434,-306.438199
660.757774,-222.061783,-9696.697840,-229.828649
660.758098,-444.123565,-9400.615463,-383.047749
660.758422,-592.164754,-9474.636058,0.000000
660.758746,-370.102971,-9548.656652,-536.266849
660.759070,148.041188,-9400.615463,-842.705048
660.759394,592.164754,-10214.842000,-306.438199
660.759719,222.061783,-10288.862594,76.609550
660.760043,0.000000,-9696.697840,0.000000
660.760367,-148.041188,-9400.615463,-153.219100
660.760691,0.000000,-9622.677246,-229.828649
660.761015,0.000000,-9548.656652,0.000000
660.761339,222.061783,-9178.553681,-306.438199
660.761663,592.164754,-9474.636058,0.000000
660.761987,296.082377,-9992.780217,-383.047749
660.762311,-296.082377,-9548.656652,-229.828649
660.762635,-592.164754,-9326.594869,0.000000
660.762960,-740.205942,-9696.697840,0.000000
660.763284,-222.061783,-9844.739029,76.609550
660.763608,518.144159,-9844.739029,306.438199
660.763932,962.267725,-9992.780217,229.828649
660.764256,74.020594,-9696.697840,0.000000
660.764580,0.000000,-8956.491898,0.000000
660.764904,-296.082377,-9104.533087,76.609550
660.765228,-518.144159,-9400.615463,0.000000
660.765552,0.000000,-10066.800811,0.000000
660.765877,148.041188,-9770.718434,-229.828649
660.766201,222.061783,-9918.759623,0.000000
660.766525,-888.247130,-9918.759623,-306.438199
660.766849,-962.267725,-9030.512492,76.609550
660.767173,-296.082377,-9474.636058,0.000000
660.767497,0.000000,-9548.656652,0.000000
660.767821,592.164754,-9770.718434,153.219100
660.768145,814.226536,-9844.739029,0.000000
660.768469,592.164754,-10066.800811,0.000000
660.768794,0.000000,-9548.656652,153.219100
660.769118,-148.041188,-9474.636058,0.000000
660.769442,-444.123565,-9622.677246,0.000000
660.769766,-370.102971,-10214.842000,-229.828649
660.770090,0.000000,-9844.739029,0.000000
660.770414,148.041188,-10066.800811,-153.219100
660.770738,-518.144159,-9474.636058,-306.438199
660.771062,-444.123565,-9548.656652,-229.828649
660.771386,-444.123565,-8956.491898,-306.438199
660.771711,0.000000,-9030.512492,0.000000
660.772035,222.061783,-9622.677246,-153.219100
660.772359,740.205942,-9770.718434,229.828649
660.772683,814.226536,-10066.800811,76.609550
660.773007,148.041188,-10140.821405,0.000000
660.773331,-222.061783,-9622.677246,306.438199
660.773655,-222.061783,-9770.718434,-229.828649
660.773979,-666.185348,-9770.718434,0.000000
660.774303,0.000000,-9844.739029,-229.828649
660.774628,518.144159,-9770.718434,0.000000
660.774952,370.102971,-10066.800811,0.000000
660.775276,-592.164754,-9844.739029,0.000000
660.775600,-740.205942,-8734.430116,459.657299
660.775924,-370.102971,-8512.368333,459.657299
660.776248,-296.082377,-9474.636058,0.000000
660.776572,370.102971,-9622.677246,0.000000
660.776896,666.185348,-9918.759623,0.000000
660.777220,518.144159,-10214.842000,76.609550
660.777545,0.000000,-10140.821405,0.000000
660.777869,-666.185348,-9770.718434,-536.266849
660.778193,-962.267725,-9400.615463,-383.047749
660.778517,-888.247130,-9844.739029,-383.047749
660.778841,0.000000,-9474.636058,-383.047749
660.779165,592.164754,-9844.739029,-153.219100
660.779489,370.102971,-9992.780217,-306.438199
660.779813,74.020594,-9474.636058,76.609550
660.780137,-148.041188,-8956.491898,76.609550
660.780462,-370.102971,-9030.512492,229.828649
660.780786,-518.144159,-9400.615463,0.000000
660.781110,74.020594,-9622.677246,459.657299
660.781434,666.185348,-9918.759623,-306.438199
660.781758,-148.041188,-10214.842000,-153.219100
660.782082,-518.144159,-9992.780217,-229.828649
660.782406,-962.267725,-9326.594869,-306.438199
660.782730,-814.226536,-9548.656652,-153.219100
660.783054,-444.123565,-9844.739029,0.000000
660.783379,-222.061783,-9474.636058,612.876398
660.783703,592.164754,-9622.677246,153.219100
660.784027,740.205942,-10288.862594,0.000000
660.784351,222.061783,-9548.656652,153.219100
660.784675,-296.082377,-8956.491898,0.000000
660.784999,-222.061783,-9622.677246,-153.219100
660.785323,0.000000,-10066.800811,0.000000
660.785647,740.205942,-9918.759623,229.828649
660.785971,666.185348,-10362.883188,76.609550
660.786296,-296.082377,-10140.821405,-229.828649
660.786620,-222.061783,-9474.636058,-306.438199
660.786944,0.000000,-8956.491898,0.000000
660.787268,-222.061783,-9696.697840,-306.438199
660.787592,0.000000,-9474.636058,-76.609550
660.787916,444.123565,-9474.636058,0.000000
660.788240,666.185348,-9770.718434,0.000000
660.788564,148.041188,-9474.636058,306.438199
660.788888,-666.185348,-9252.574275,-229.828649
660.789213,0.000000,-9104.533087,153.219100
660.789537,-222.061783,-9622.677246,0.000000
660.789861,296.082377,-9770.718434,536.266849
660.790185,666.185348,-9770.718434,-306.438199
660.790509,592.164754,-10140.821405,-229.828649
660.790833,-370.102971,-10066.800811,-229.828649
660.791157,-592.164754,-9474.636058,76.609550
660.791481,-740.205942,-9326.594869,0.000000
660.791805,-740.205942,-9548.656652,76.609550
660.792130,0.000000,-9770.718434,0.000000
660.792454,518.144159,-9770.718434,306.438199
660.792778,0.000000,-9844.739029,0.000000
660.793102,-222.061783,-9844.739029,153.219100
660.793426,-222.061783,-8956.491898,0.000000
660.793750,-370.102971,-9252.574275,0.000000
660.794074,-370.102971,-9622.677246,0.000000
660.794398,74.020594,-9696.697840,-229.828649
660.794722,444.123565,-9918.759623,0.000000
660.795047,0.000000,-10066.800811,-153.219100
660.795371,-444.123565,-9770.718434,-229.828649
660.795695,-740.205942,-9252.574275,-306.438199
660.796019,-666.185348,-9548.656652,0.000000
660.796343,-518.144159,-9548.656652,-306.438199
660.796667,0.000000,-9474.636058,76.609550
660.796991,592.164754,-9918.759623,306.438199
660.797315,0.000000,-9992.780217,-306.438199
660.797639,-370.102971,-9474.636058,153.219100
660.797964,-444.123565,-9400.615463,0.000000
660.798288,-666.185348,-9696.697840,0.000000
660.798612,-148.041188,-9844.739029,0.000000
660.798936,814.226536,-9400.615463,229.828649
660.799260,814.226536,-9992.780217,-229.828649
660.799584,518.144159,-10362.883188,229.828649
660.799908,0.000000,-9474.636058,0.000000
660.800232,-518.144159,-9252.574275,-383.047749
660.800556,-666.185348,-9622.677246,-306.438199
660.800881,148.041188,-9770.718434,-229.828649
660.801205,814.226536,-9474.636058,0.000000
660.801529,1184.329507,-9696.697840,-306.438199
660.801853,740.205942,-9548.656652,536.266849
660.802177,0.000000,-9030.512492,229.828649
660.802501,74.020594,-9252.574275,0.000000
660.802825,0.000000,-9844.739029,0.000000
660.803149,74.020594,-9770.718434,153.219100
660.803473,518.144159,-9770.718434,153.219100
660.803798,518.144159,-10288.862594,306.438199
660.804122,-222.061783,-9992.780217,153.219100
660.804446,-370.102971,-9030.512492,153.219100
660.804770,-370.102971,-9474.636058,0.000000
660.805094,-518.144159,-9844.739029,-153.219100
660.805418,148.041188,-9548.656652,0.000000
660.805742,592.164754,-9696.697840,0.000000
660.806066,296.082377,-9548.656652,-153.219100
660.806390,0.000000,-9326.594869,-536.266849
660.806715,222.061783,-8808.450710,153.219100
660.807039,148.041188,-9252.574275,76.609550
660.807363,444.123565,-10214.842000,153.219100
660.807687,740.205942,-10066.800811,0.000000
660.808011,0.000000,-10140.821405,-153.219100
660.808335,-666.185348,-10214.842000,-153.219100
660.808659,-1184.329507,-9548.656652,229.828649
660.808983,-1036.288319,-9326.594869,-229.828649
660.809308,-740.205942,-9326.594869,536.266849
660.809632,-444.123565,-9474.636058,229.828649
660.809956,222.061783,-9326.594869,153.219100
660.810280,518.144159,-9770.718434,0.000000
660.810604,-222.061783,-10214.842000,0.000000
660.810928,-592.164754,-9844.739029,0.000000
660.811252,-888.247130,-9104.533087,-612.876398
660.811576,-1184.329507,-9474.636058,0.000000
660.811900,-444.123565,-10140.821405,-536.266849
660.812225,0.000000,-9992.780217,-229.828649
660.812549,296.082377,-10140.821405,-306.438199
660.812873,74.020594,-9992.780217,-153.219100
660.813197,0.000000,-9548.656652,-536.266849
660.813521,0.000000,-9400.615463,-153.219100
660.813845,0.000000,-9622.677246,76.609550
660.814169,148.041188,-9622.677246,-766.095498
660.814493,592.164754,-9992.780217,-383.047749
660.814817,444.123565,-9992.780217,76.609550
660.815142,0.000000,-9992.780217,0.000000
660.815466,0.000000,-9326.594869,0.000000
660.815790,0.000000,-9252.574275,76.609550
660.816114,-222.061783,-9548.656652,153.219100
660.816438,74.020594,-9326.594869,153.219100
660.816762,370.102971,-9474.636058,0.000000
660.817086,74.020594,-9770.718434,-153.219100
660.817410,-222.061783,-9548.656652,-459.657299
660.817734,-518.144159,-9104.533087,-306.438199
660.818059,-222.061783,-9400.615463,-153.219100
660.818383,370.102971,-9844.739029,383.047749
660.818707,962.267725,-9770.718434,153.219100
660.819031,814.226536,-10066.800811,383.047749
660.819355,444.123565,-10066.800811,-153.219100
660.819679,0.000000,-9992.780217,76.609550
660.820003,-222.061783,-9252.574275,153.219100
660.820327,-518.144159,-9548.656652,76.609550
660.820651,0.000000,-9918.759623,0.000000
660.820976,370.102971,-9696.697840,153.219100
660.821300,888.247130,-9252.574275,0.000000
660.821624,222.061783,-9326.594869,0.000000
660.821948,0.000000,-9178.553681,0.000000
660.822272,-370.102971,-9178.553681,-383.047749
660.822596,-518.144159,-9400.615463,-229.828649
660.822920,-148.041188,-9622.677246,0.000000
660.823244,740.205942,-9252.574275,153.219100
660.823568,518.144159,-9918.759623,689.485948
660.823893,-148.041188,-9696.697840,-153.219100
660.824217,-592.164754,-9030.512492,459.657299
660.824541,-740.205942,-9252.574275,153.219100
660.824865,-814.226536,-9992.780217,0.000000
660.825189,-370.102971,-9992.780217,0.000000
660.825513,0.000000,-9844.739029,0.000000
660.825837,148.041188,-10140.821405,0.000000
660.826161,-296.082377,-9770.718434,153.219100
660.826485,-740.205942,-9474.636058,-153.219100
660.826810,-666.185348,-9252.574275,-766.095498
660.827134,-296.082377,-9696.697840,-306.438199
660.827458,444.123565,-9474.636058,-153.219100
660.827782,814.226536,-9844.739029,-459.657299
660.828106,370.102971,-10288.862594,-383.047749
660.828430,0.000000,-9918.759623,-306.438199
660.828754,-444.123565,-9252.574275,-229.828649
660.829078,-740.205942,-9400.615463,-536.266849
660.829402,-370.102971,-9622.677246,-459.657299
660.829727,444.123565,-9400.615463,153.219100
660.830051,888.247130,-9696.697840,306.438199
660.830375,518.144159,-9992.780217,0.000000
660.830699,-296.082377,-9844.739029,0.000000
660.831023,-444.123565,-9474.636058,-153.219100
660.831347,-962.267725,-9252.574275,0.000000
660.831671,-148.041188,-9252.574275,-153.219100
660.831995,148.041188,-9178.553681,0.000000
660.832319,518.144159,-9548.656652,-153.219100
660.832644,222.061783,-9918.759623,-76.609550
660.832968,222.061783,-9548.656652,-306.438199
660.833292,0.000000,-9252.574275,-229.828649
660.833616,-222.061783,-9622.677246,0.000000
660.833940,0.000000,-9622.677246,153.219100
660.834264,74.020594,-9252.574275,76.609550
660.834588,296.082377,-9992.780217,0.000000
660.834912,-296.082377,-9992.780217,0.000000
660.835236,-518.144159,-9548.656652,0.000000
660.835561,-444.123565,-9326.594869,0.000000
660.835885,-296.082377,-9474.636058,76.609550
660.836209,0.000000,-9474.636058,153.219100
660.836533,444.123565,-9622.677246,76.609550
660.836857,0.000000,-9770.718434,153.219100
660.837181,370.102971,-9474.636058,0.000000
660.837505,0.000000,-8956.491898,-383.047749
660.837829,-296.082377,-9252.574275,0.000000
660.838153,-296.082377,-9622.677246,-306.438199
660.838478,0.000000,-9770.718434,-229.828649
660.838802,666.185348,-10140.821405,306.438199
660.839126,0.000000,-10214.842000,-459.657299
660.839450,-592.164754,-9992.780217,-76.609550
660.839774,-592.164754,-9252.574275,-306.438199
660.840098,-740.205942,-9252.574275,0.000000
660.840422,-592.164754,-9844.739029,153.219100
660.840746,0.000000,-9992.780217,229.828649
660.841070,1110.308913,-9918.759623,153.219100
660.841395,592.164754,-9844.739029,0.000000
660.841719,148.041188,-9844.739029,-229.828649
660.842043,0.000000,-9474.636058,76.609550
660.842367,-296.082377,-9400.615463,-383.047749
660.842691,-148.041188,-10140.821405,-459.657299
660.843015,148.041188,-10066.800811,-229.828649
660.843339,370.102971,-9992.780217,0.000000
660.843663,296.082377,-10214.842000,306.438199
660.843987,0.000000,-9770.718434,306.438199
660.844312,0.000000,-8808.450710,0.000000
660.844636,-222.061783,-9326.594869,229.828649
660.844960,0.000000,-9770.718434,0.000000
660.845284,518.144159,-9548.656652,76.609550
660.845608,740.205942,-9844.739029,229.828649
660.845932,-74.020594,-9622.677246,0.000000
660.846256,-666.185348,-8808.450710,76.609550
660.846580,0.000000,-9252.574275,-536.266849
660.846904,0.000000,-9622.677246,-306.438199
660.847229,74.020594,-9992.780217,-306.438199
660.847553,740.205942,-9548.656652,0.000000
660.847877,666.185348,-9844.739029,0.000000
660.848201,0.000000,-10066.800811,0.000000
660.848525,-518.144159,-9252.574275,229.828649
660.848849,-518.144159,-9178.553681,76.609550
660.849173,-370.102971,-9548.656652,0.000000
660.849497,0.000000,-9548.656652,-383.047749
660.849821,444.123565,-9696.697840,0.000000
660.850146,296.082377,-9770.718434,76.609550
660.850470,-296.082377,-9992.780217,0.000000
660.850794,0.000000,-9918.759623,0.000000
660.851118,-666.185348,-8808.450710,229.828649
660.851442,-518.144159,-9474.636058,0.000000
660.851766,296.082377,-10066.800811,536.266849
660.852090,1036.288319,-10066.800811,0.000000
660.852414,592.164754,-10288.862594,153.219100
660.852738,-370.102971,-9918.759623,-153.219100
660.853063,-740.205942,-9326.594869,0.000000
660.853387,-666.185348,-9178.553681,-229.828649
660.853711,-370.102971,-9918.759623,-612.876398
660.854035,0.000000,-9474.636058,0.000000
660.854359,296.082377,-10140.821405,-306.438199
660.854683,0.000000,-9992.780217,-229.828649
660.855007,-740.205942,-9770.718434,-306.438199
660.855331,-814.226536,-9252.574275,-306.438199
660.855655,-444.123565,-9696.697840,0.000000
660.855980,0.000000,-9918.759623,0.000000
660.856304,1036.288319,-10288.862594,0.000000
660.856628,1036.288319,-9992.780217,229.828649
660.856952,370.102971,-10214.842000,-306.438199
660.857276,-222.061783,-9918.759623,76.609550
660.857600,-370.102971,-9326.594869,-383.047749
660.857924,-444.123565,-9474.636058,-229.828649
660.858248,74.020594,-9770.718434,-229.828649
660.858572,666.185348,-9548.656652,76.609550
660.858897,1184.329507,-9770.718434,-766.095498
660.859221,296.082377,-9918.759623,0.000000
660.859545,-148.041188,-9400.615463,-459.657299
660.859869,-518.144159,-9178.553681,0.000000
660.860193,-370.102971,-9548.656652,-306.438199
660.860517,0.000000,-9548.656652,-306.438199
660.860841,296.082377,-9474.636058,-153.219100
660.861165,222.061783,-9474.636058,-459.657299
660.861489,444.123565,-10066.800811,-153.219100
660.861814,0.000000,-9622.677246,229.828649
660.862138,-296.082377,-9178.553681,153.219100
660.862462,-296.082377,-9474.636058,0.000000
660.862786,0.000000,-9474.636058,76.609550
660.863110,666.185348,-9696.697840,0.000000
660.863434,370.102971,-9696.697840,0.000000
660.863758,-296.082377,-9770.718434,153.219100
660.864082,-444.123565,-9104.533087,0.000000
660.864406,-666.185348,-9252.574275,-459.657299
660.864730,-814.226536,-9696.697840,-229.828649
660.865054,-296.082377,-9844.739029,0.000000
660.865378,444.123565,-9474.636058,-229.828649
660.865702,296.082377,-9548.656652,153.219100
660.866026,0.000000,-9548.656652,-383.047749
660.866350,-518.144159,-8882.471304,-153.219100
660.866674,-592.164754,-9326.594869,76.609550
660.866998,-518.144159,-9622.677246,76.609550
660.867322,148.041188,-9992.780217,383.047749
660.867646,296.082377,-10140.821405,76.609550
660.867970,0.000000,-9918.759623,153.219100
660.868294,-222.061783,-9474.636058,0.000000
660.868619,-370.102971,-8956.491898,-229.828649
660.868943,-1036.288319,-9548.656652,-76.609550
660.869267,-592.164754,-9770.718434,0.000000
660.869591,74.020594,-9696.697840,-153.219100
660.869915,592.164754,-9992.780217,-153.219100
660.870239,148.041188,-10288.862594,0.000000
660.870563,0.000000,-9844.739029,-383.047749
660.870887,0.000000,-9474.636058,383.047749
660.871211,-592.164754,-9548.656652,-153.219100
660.871535,370.102971,-10066.800811,0.000000
660.871859,592.164754,-10214.842000,-153.219100
660.872183,444.123565,-10066.800811,0.000000
660.872507,0.000000,-9992.780217,-229.828649
660.872831,0.000000,-9326.594869,0.000000
660.873155,0.000000,-9030.512492,306.438199
660.873479,-370.102971,-9104.533087,229.828649
660.873803,296.082377,-9474.636058,459.657299
660.874127,814.226536,-9696.697840,76.609550
660.874451,296.082377,-10066.800811,0.000000
660.874775,-444.123565,-9696.697840,0.000000
660.875099,-814.226536,-8956.491898,0.000000
660.875423,-518.144159,-9104.533087,-306.438199
660.875747,0.000000,-10066.800811,0.000000
660.876071,370.102971,-9992.780217,-459.657299
660.876395,592.164754,-9770.718434,0.000000
660.876719,740.205942,-10066.800811,0.000000
660.877043,-296.082377,-9770.718434,-153.219100
660.877367,-444.123565,-9474.636058,-229.828649
660.877691,-518.144159,-9400.615463,0.000000
660.878015,-296.082377,-9474.636058,229.828649
660.878339,740.205942,-9474.636058,153.219100
660.878663,1184.329507,-9770.718434,536.266849
660.878987,592.164754,-10214.842000,76.609550
660.879311,-296.082377,-9622.677246,153.219100
660.879635,-592.164754,-9252.574275,153.219100
660.879959,-740.205942,-9252.574275,-306.438199
660.880283,-444.123565,-9622.677246,-306.438199
660.880607,74.020594,-9474.636058,0.000000
660.880931,740.205942,-9918.759623,-306.438199
660.881255,592.164754,-10140.821405,-536.266849
660.881579,-666.185348,-9474.636058,-153.219100
660.881903,-962.267725,-9030.512492,-383.047749
660.882227,-592.164754,-9770.718434,-536.266849
660.882551,-296.082377,-9622.677246,-153.219100
660.882875,444.123565,-9918.759623,0.000000
660.883200,814.226536,-10066.800811,0.000000
660.883524,444.123565,-10140.821405,459.657299
660.883848,74.020594,-9844.739029,153.219100
660.884172,-592.164754,-9400.615463,0.000000
660.884496,-740.205942,-9992.780217,0.000000
660.884820,-888.247130,-10066.800811,0.000000
660.885144,222.061783,-9696.697840,76.609550
660.885468,0.000000,-9474.636058,-1302.362347
660.885792,0.000000,-10140.821405,-995.924147
660.886116,-296.082377,-9474.636058,-612.876398
660.886440,-518.144159,-8956.491898,-459.657299
660.886764,-222.061783,-9474.636058,-306.438199
660.887088,370.102971,-9474.636058,-153.219100
660.887412,888.247130,-9622.677246,229.828649
660.887736,888.247130,-9622.677246,229.828649
660.888060,222.061783,-9918.759623,0.000000
660.888384,-370.102971,-8882.471304,0.000000
660.888708,0.000000,-9548.656652,0.000000
660.889032,-148.041188,-9992.780217,0.000000
660.889356,296.082377,-9844.739029,153.219100
660.889680,592.164754,-9918.759623,306.438199
660.890004,0.000000,-9992.780217,0.000000
660.890328,-222.061783,-9918.759623,229.828649
660.890652,-666.185348,-8882.471304,0.000000
660.890976,-370.102971,-9104.533087,0.000000
660.891300,-370.102971,-9474.636058,-229.828649
660.891624,296.082377,-9252.574275,76.609550
660.891948,888.247130,-9622.677246,0.000000
660.892272,518.144159,-9918.759623,-306.438199
660.892596,370.102971,-9918.759623,-383.047749
660.892920,-148.041188,-9178.553681,-383.047749
660.893244,-296.082377,-9770.718434,0.000000
660.893568,-370.102971,-9696.697840,0.000000
660.893892,148.041188,-9770.718434,76.609550
660.894216,370.102971,-9770.718434,76.609550
660.894540,0.000000,-10214.842000,0.000000
660.894864,-592.164754,-9104.533087,76.609550
660.895188,-962.267725,-8808.450710,153.219100
660.895512,-518.144159,-9474.636058,153.219100
660.895836,-666.185348,-9400.615463,-153.219100
660.896160,0.000000,-9696.697840,0.000000
660.896484,370.102971,-10066.800811,0.000000
660.896808,0.000000,-9992.780217,-306.438199
660.897132,-444.123565,-9474.636058,-459.657299
660.897457,-370.102971,-9252.574275,-689.485948
660.897781,-518.144159,-9622.677246,-153.219100
660.898105,-222.061783,-10214.842000,0.000000
660.898429,296.082377,-9992.780217,-306.438199
660.898753,148.041188,-10214.842000,-229.828649
660.899077,-296.082377,-10140.821405,-153.219100
660.899401,-518.144159,-9474.636058,0.000000
660.899725,-518.144159,-9104.533087,76.609550
660.900049,-296.082377,-9474.636058,-153.219100
660.900373,148.041188,-9770.718434,383.047749
660.900697,1110.308913,-9844.739029,0.000000
660.901021,962.267725,-10214.842000,0.000000
660.901345,0.000000,-9770.718434,-229.828649
660.901669,-370.102971,-9400.615463,-229.828649
660.901993,-1110.308913,-9696.697840,0.000000
660.902317,-370.102971,-9622.677246,-612.876398
660.902641,148.041188,-9474.636058,-612.876398
660.902965,592.164754,-9474.636058,-153.219100
660.903289,444.123565,-9918.759623,0.000000
660.903613,-148.041188,-9548.656652,-306.438199
660.903937,-370.102971,-8956.491898,0.000000
660.904261,-296.082377,-9400.615463,306.438199
660.904585,0.000000,-9918.759623,229.828649
660.904909,740.205942,-9770.718434,-306.438199
660.905233,1036.288319,-10214.842000,459.657299
660.905557,518.144159,-9992.780217,153.219100
660.905881,0.000000,-9622.677246,76.609550
660.906205,-370.102971,-9326.594869,0.000000
660.906529,-666.185348,-9622.677246,-229.828649
660.906853,-592.164754,-9548.656652,-306.438199
660.907177,296.082377,-9622.677246,-766.095498
660.907501,296.082377,-9326.594869,-306.438199
660.907825,0.000000,-9400.615463,-383.047749
660.908149,-296.082377,-9030.512492,-153.219100
660.908473,-222.061783,-8956.491898,0.000000
660.908797,-370.102971,-9474.636058,76.609550
660.909121,0.000000,-9918.759623,229.828649
660.909445,444.123565,-9770.718434,536.266849
660.909769,-370.102971,-10140.821405,-153.219100
660.910093,-370.102971,-10140.821405,0.000000
660.910417,-592.164754,-9696.697840,-76.609550
660.910741,-666.185348,-9474.636058,-153.219100
660.911065,-666.185348,-9696.697840,-459.657299
660.911389,0.000000,-9844.739029,-383.047749
660.911713,296.082377,-9622.677246,-536.266849
660.912038,148.041188,-9918.759623,-153.219100
660.912362,-444.123565,-9992.780217,-459.657299
660.912686,0.000000,-9474.636058,0.000000
660.913010,-518.144159,-9474.636058,-229.828649
660.913334,-148.041188,-9918.759623,0.000000
660.913658,518.144159,-10066.800811,229.828649
660.913982,888.247130,-10066.800811,153.219100
660.914306,740.205942,-10066.800811,0.000000
660.914630,0.000000,-9770.718434,-383.047749
660.914954,0.000000,-9400.615463,-153.219100
660.915278,-518.144159,-9548.656652,-459.657299
660.915602,-666.185348,-9844.739029,-306.438199
660.915926,148.041188,-9770.718434,0.000000
660.916250,740.205942,-9770.718434,-153.219100
660.916574,814.226536,-9992.780217,0.000000
660.916898,74.020594,-9474.636058,0.000000
660.917222,0.000000,-9030.512492,306.438199
660.917546,-222.061783,-9178.553681,0.000000
660.917870,148.041188,-9696.697840,0.000000
660.918194,888.247130,-9696.697840,76.609550
660.918518,814.226536,-10066.800811,229.828649
660.918842,74.020594,-10066.800811,0.000000
660.919166,-518.144159,-9474.636058,306.438199
660.919490,-962.267725,-8808.450710,-995.924147
660.919814,-740.205942,-9770.718434,-612.876398
660.920138,-444.123565,-9548.656652,-536.266849
660.920462,148.041188,-9770.718434,0.000000
660.920786,518.144159,-9770.718434,0.000000
660.921110,74.020594,-9918.759623,0.000000
660.921434,0.000000,-9104.533087,0.000000
660.921758,0.000000,-8734.430116,229.828649
660.922082,74.020594,-9474.636058,306.438199
660.922406,0.000000,-9474.636058,0.000000
660.922730,444.123565,-9770.718434,153.219100
660.923054,296.082377,-10214.842000,0.000000
660.923378,-222.061783,-10066.800811,-153.219100
660.923702,-814.226536,-9622.677246,-306.438199
660.924026,-962.267725,-9252.574275,-229.828649
660.924350,-666.185348,-9474.636058,0.000000
660.924674,74.020594,-9770.718434,0.000000
660.924998,222.061783,-9696.697840,-229.828649
660.925322,0.000000,-9844.739029,0.000000
660.925646,-518.144159,-9918.759623,-153.219100
660.925970,-518.144159,-9400.615463,-229.828649
660.926295,0.000000,-9548.656652,0.000000
660.926619,-148.041188,-9400.615463,76.609550
660.926943,740.205942,-10288.862594,229.828649
660.927267,888.247130,-9844.739029,-229.828649
660.927591,148.041188,-10362.883188,-153.219100
660.927915,-296.082377,-10066.800811,-229.828649
660.928239,-592.164754,-9474.636058,-459.657299
660.928563,-740.205942,-9548.656652,-306.438199
660.928887,-296.082377,-9918.759623,-383.047749
660.929211,370.102971,-10066.800811,-306.438199
660.929535,592.164754,-9696.697840,229.828649
660.929859,444.123565,-9622.677246,153.219100
660.930183,-296.082377,-9474.636058,-229.828649
660.930507,-296.082377,-9104.533087,-153.219100
660.930831,-296.082377,-9474.636058,-229.828649
660.931155,296.082377,-9548.656652,-229.828649
660.931479,962.267725,-9844.739029,0.000000
660.931803,1332.370696,-10066.800811,0.000000
660.932127,222.061783,-10288.862594,229.828649
660.932451,-148.041188,-9474.636058,0.000000
660.932775,-666.185348,-9104.533087,-153.219100
660.933099,-666.185348,-9474.636058,-229.828649
660.933423,-148.041188,-9770.718434,0.000000
660.933747,740.205942,-9696.697840,-229.828649
660.934071,1036.288319,-10066.800811,-689.485948
660.934395,814.226536,-10066.800811,-306.438199
660.934719,-370.102971,-9400.615463,0.000000
660.935043,-444.123565,-9326.594869,0.000000
660.935367,-814.226536,-9696.697840,0.000000
660.935691,-222.061783,-9918.759623,0.000000
660.936015,592.164754,-9770.718434,-306.438199
660.936339,370.102971,-10066.800811,-153.219100
660.936663,0.000000,-9622.677246,612.876398
660.936987,-370.102971,-9030.512492,-306.438199
660.937311,-444.123565,-9178.553681,-306.438199
660.937635,-592.164754,-9548.656652,0.000000
660.937959,74.020594,-9844.739029,153.219100
660.938283,444.123565,-9696.697840,0.000000
660.938607,296.082377,-10066.800811,76.609550
660.938931,-296.082377,-9992.780217,-842.705048
660.939255,-518.144159,-9622.677246,-766.095498
660.939579,-814.226536,-9400.615463,-153.219100
660.939903,-444.123565,-10214.842000,0.000000
660.940227,0.000000,-9844.739029,0.000000
660.940551,148.041188,-9696.697840,-153.219100
660.940876,148.041188,-9844.739029,0.000000
660.941200,74.020594,-9548.656652,-689.485948
660.941524,74.020594,-9326.594869,-383.047749
660.941848,0.000000,-9252.574275,0.000000
660.942172,0.000000,-9696.697840,0.000000
660.942496,370.102971,-9918.759623,153.219100
660.942820,296.082377,-10288.862594,76.609550
660.943144,-148.041188,-10362.883188,0.000000
660.943468,-518.144159,-9918.759623,76.609550
660.943792,-666.185348,-9252.574275,0.000000
660.944116,-444.123565,-9252.574275,76.609550
660.944440,0.000000,-9548.656652,76.609550
660.944764,592.164754,-9696.697840,153.219100
660.945088,814.226536,-9696.697840,-229.828649
660.945412,222.061783,-9622.677246,-153.219100
660.945736,0.000000,-9252.574275,-306.438199
660.946060,-296.082377,-9400.615463,0.000000
660.946384,-296.082377,-9696.697840,0.000000
660.946708,296.082377,-9548.656652,0.000000
660.947032,1036.288319,-9696.697840,76.609550
660.947356,518.144159,-9992.780217,153.219100
660.947680,0.000000,-9992.780217,0.000000
660.948004,-370.102971,-9474.636058,306.438199
660.948328,0.000000,-9252.574275,-153.219100
660.948652,-444.123565,-9178.553681,-689.485948
660.948976,74.020594,-9548.656652,-383.047749
660.949300,666.185348,-9844.739029,0.000000
660.949624,222.061783,-9992.780217,-306.438199
660.949948,-740.205942,-9696.697840,0.000000
660.950272,-1036.288319,-9178.553681,-306.438199
660.950596,-1036.288319,-9252.574275,-306.438199
660.950920,-370.102971,-9918.759623,-612.876398
660.951244,222.061783,-9622.677246,383.047749
660.951568,888.247130,-9844.739029,0.000000
660.951892,222.061783,-10214.842000,76.609550
660.952216,-444.123565,-9696.697840,0.000000
660.952540,-518.144159,-9252.574275,0.000000
660.952864,-740.205942,-9474.636058,-229.828649
660.953188,0.000000,-10066.800811,-306.438199
660.953512,0.000000,-9992.780217,0.000000
660.953836,148.041188,-9918.759623,-766.095498
660.954160,0.000000,-9918.759623,-612.876398
660.954484,-296.082377,-9770.718434,-306.438199
660.954808,-296.082377,-9178.553681,-306.438199
660.955133,-370.102971,-9474.636058,0.000000
660.955457,-222.061783,-9474.636058,76.609550
660.955781,296.082377,-9918.759623,0.000000
660.956105,814.226536,-9918.759623,0.000000
660.956429,-296.082377,-9844.739029,153.219100
660.956753,-592.164754,-9844.739029,-383.047749
660.957077,-666.185348,-9474.636058,0.000000
660.957401,-518.144159,-9696.697840,-306.438199
660.957725,-148.041188,-9918.759623,-306.438199
660.958049,370.102971,-9770.718434,76.609550
660.958373,518.144159,-9918.759623,-612.876398
660.958697,296.082377,-9844.739029,0.000000
660.959021,0.000000,-9030.512492,0.000000
660.959345,-370.102971,-8882.471304,-229.828649
660.959669,-444.123565,-9474.636058,-306.438199
660.959993,74.020594,-9622.677246,0.000000
660.960317,888.247130,-9474.636058,0.000000
660.960641,888.247130,-9844.739029,0.000000
660.960965,592.164754,-9992.780217,306.438199
660.961289,0.000000,-8734.430116,-229.828649
660.961613,-148.041188,-9104.533087,0.000000
660.961937,-370.102971,-9400.615463,0.000000
