#time,accel_x,accel_y,accel_z
976.171630,370.102971,-9696.697840,153.219100
976.171954,444.123565,-9474.636058,0.000000
976.172278,296.082377,-9696.697840,76.609550
976.172602,222.061783,-9770.718434,229.828649
976.172926,296.082377,-9844.739029,76.609550
976.173251,148.041188,-9548.656652,383.047749
976.173575,74.020594,-9474.636058,0.000000
976.173899,0.000000,-9696.697840,76.609550
976.174223,0.000000,-9696.697840,229.828649
976.174547,-222.061783,-9696.697840,229.828649
976.174871,0.000000,-9918.759623,229.828649
976.175196,0.000000,-9844.739029,-306.438199
976.175520,0.000000,-9622.677246,-153.219100
976.175844,-148.041188,-9696.697840,0.000000
976.176168,0.000000,-9844.739029,0.000000
976.176492,296.082377,-9770.718434,612.876398
976.176816,0.000000,-9770.718434,0.000000
976.177140,-370.102971,-9622.677246,0.000000
976.177465,0.000000,-9474.636058,76.609550
976.177789,0.000000,-9770.718434,0.000000
976.178113,0.000000,-9770.718434,0.000000
976.178437,0.000000,-9844.739029,0.000000
976.178761,-148.041188,-9696.697840,76.609550
976.179085,0.000000,-9474.636058,76.609550
976.179410,0.000000,-9770.718434,229.828649
976.179734,-370.102971,-9252.574275,0.000000
976.180058,-222.061783,-9622.677246,153.219100
976.180382,-296.082377,-9696.697840,-229.828649
976.180706,-518.144159,-9622.677246,0.000000
976.181030,-222.061783,-9696.697840,0.000000
976.181355,-222.061783,-9696.697840,459.657299
976.181679,-370.102971,-9548.656652,383.047749
976.182003,0.000000,-9548.656652,383.047749
976.182327,0.000000,-9178.553681,153.219100
976.182651,444.123565,-9400.615463,536.266849
976.182975,592.164754,-10214.842000,0.000000
976.183299,444.123565,-10066.800811,-306.438199
976.183624,0.000000,-9992.780217,536.266849
976.183948,-222.061783,-10066.800811,459.657299
976.184272,-444.123565,-9770.718434,-306.438199
976.184596,-1110.308913,-9622.677246,76.609550
976.184920,-1702.473667,-9844.739029,153.219100
976.185244,-1480.411884,-9770.718434,0.000000
976.185569,-1036.288319,-8586.388927,76.609550
976.185893,-592.164754,-8068.244768,919.314598
976.186217,222.061783,-8808.450710,612.876398
976.186541,740.205942,-9548.656652,536.266849
976.186865,-222.061783,-9622.677246,1149.143247
976.187189,-444.123565,-10362.883188,383.047749
976.187514,-1850.514855,-10658.965565,383.047749
976.187838,-2590.720797,-10732.986159,612.876398
976.188162,-2664.741391,-11029.068536,459.657299
976.188486,-2220.617826,-11103.089130,1072.533697
976.188810,-1776.494261,-9992.780217,1455.581446
976.189134,-1702.473667,-9326.594869,995.924147
976.189458,-740.205942,-8956.491898,919.314598
976.189783,0.000000,-8660.409521,1838.629195
976.190107,222.061783,-9474.636058,1608.800546
976.190431,-666.185348,-9622.677246,1302.362347
976.190755,-1924.535449,-9622.677246,1302.362347
976.191079,-2812.782580,-9918.759623,1302.362347
976.191403,-2960.823768,-10584.944971,1378.971896
976.191728,-3330.926739,-9992.780217,1915.238745
976.192052,-3182.885551,-10658.965565,2145.067394
976.192376,-2664.741391,-10362.883188,1991.848295
976.192700,-2146.597232,-9548.656652,1991.848295
976.193024,-1554.432478,-8660.409521,2298.286494
976.193348,-740.205942,-8660.409521,2451.505594
976.193673,-222.061783,-8438.347739,2911.162892
976.193997,-296.082377,-9030.512492,2604.724693
976.194321,-740.205942,-9400.615463,2374.896044
976.194645,-2294.638420,-9548.656652,2221.676944
976.194969,-3404.947333,-10214.842000,2451.505594
976.195293,-4145.153275,-10807.006753,2298.286494
976.195617,-4737.318029,-10732.986159,2604.724693
976.195942,-5329.482782,-10214.842000,3447.429741
976.196266,-5033.400406,-9844.739029,2911.162892
976.196590,-4811.338623,-9474.636058,2834.553343
976.196914,-4811.338623,-8586.388927,3294.210641
976.197238,-3997.112087,-9844.739029,3064.381992
976.197562,-2812.782580,-9992.780217,3677.258390
976.197887,-1110.308913,-9548.656652,4366.744339
976.198211,222.061783,-8882.471304,4903.011187
976.198535,962.267725,-8438.347739,4749.792088
976.198859,1184.329507,-8734.430116,3447.429741
976.199183,740.205942,-8438.347739,3677.258390
976.199507,-148.041188,-8142.265362,3524.039291
976.199831,-1554.432478,-8438.347739,2528.115143
976.200156,-4071.132681,-7179.997637,229.828649
976.200480,-6513.812290,-8290.306550,-536.266849
976.200804,-8142.265362,-11843.295072,995.924147
976.201128,-6365.771101,-12731.542202,766.095498
976.201452,-4441.235652,-10658.965565,1915.238745
976.201776,-3108.864956,-9030.512492,4749.792088
976.202101,-296.082377,-7624.121203,4136.915689
976.202425,2812.782580,-9252.574275,3983.696590
976.202749,3775.050304,-10214.842000,4596.572988
976.203073,4441.235652,-9918.759623,5132.839837
976.203397,4145.153275,-10066.800811,4903.011187
976.203721,1776.494261,-10140.821405,3600.648841
976.204046,-1258.350101,-7179.997637,1915.238745
976.204370,-4589.276840,-7031.956449,-1302.362347
976.204694,-7402.059420,-10732.986159,-2221.676944
976.205018,-7328.038826,-12805.562797,-2604.724693
976.205342,-4515.256246,-11103.089130,-2298.286494
976.205666,-2738.761985,-8808.450710,1302.362347
976.205990,-1554.432478,-8068.244768,1455.581446
976.206315,-1776.494261,-9178.553681,1608.800546
976.206639,-3034.844362,-10140.821405,1302.362347
976.206963,-3182.885551,-10436.903782,1455.581446
976.207287,-1850.514855,-11251.130318,2911.162892
976.207611,1924.535449,-12361.439231,4519.963438
976.207935,5625.565159,-11769.274478,5056.230287
976.208260,5847.626942,-10584.944971,4826.401637
976.208584,2664.741391,-10362.883188,2528.115143
976.208908,-2146.597232,-10288.862594,1225.752797
976.209232,-4737.318029,-9548.656652,-1225.752797
976.209556,-5255.462188,-7328.038826,-2451.505594
976.209880,-5847.626942,-7846.182985,-1685.410096
976.210205,-5329.482782,-10584.944971,-995.924147
976.210529,-3849.070898,-11917.315666,-995.924147
976.210853,-4737.318029,-10658.965565,-1149.143247
976.211177,-6809.894666,-8734.430116,0.000000
976.211501,-6957.935855,-8068.244768,459.657299
976.211825,-5107.421000,-8956.491898,229.828649
976.212149,-1924.535449,-9918.759623,2451.505594
976.212474,1184.329507,-11695.253884,3830.477490
976.212798,2960.823768,-13101.645173,3753.867940
976.213122,2368.659014,-12065.356855,3983.696590
976.213446,518.144159,-10066.800811,4060.306139
976.213770,-222.061783,-9104.533087,3064.381992
976.214094,-888.247130,-9474.636058,1838.629195
976.214419,-1702.473667,-10066.800811,1378.971896
976.214743,-2442.679609,-9474.636058,1225.752797
976.215067,-3775.050304,-8660.409521,612.876398
976.215391,-5033.400406,-7846.182985,1455.581446
976.215715,-4737.318029,-7254.018232,1302.362347
976.216039,-4071.132681,-6439.791695,1149.143247
976.216364,-4737.318029,-6439.791695,1225.752797
976.216688,-5921.647536,-8586.388927,919.314598
976.217012,-6217.729913,-9548.656652,1838.629195
976.217336,-4071.132681,-10214.842000,2528.115143
976.217660,-1332.370696,-9696.697840,3217.601092
976.217984,74.020594,-8734.430116,2681.334243
976.218308,0.000000,-9178.553681,2987.772442
976.218633,-370.102971,-10881.027347,3600.648841
976.218957,518.144159,-12139.377449,3907.087040
976.219281,1480.411884,-11251.130318,3907.087040
976.219605,1184.329507,-9622.677246,3677.258390
976.219929,-962.267725,-8956.491898,2757.943793
976.220253,-3627.009116,-10214.842000,2298.286494
976.220578,-4737.318029,-11029.068536,2451.505594
976.220902,-4293.194464,-9696.697840,1685.410096
976.221226,-4293.194464,-7476.080014,1455.581446
976.221550,-4885.359217,-6735.874072,1532.190996
976.221874,-4663.297435,-8586.388927,2451.505594
976.222198,-3182.885551,-9400.615463,2145.067394
976.222522,-3256.906145,-8882.471304,919.314598
976.222847,-4589.276840,-8068.244768,612.876398
976.223171,-3849.070898,-8882.471304,1915.238745
976.223495,-1110.308913,-10140.821405,2987.772442
976.223819,1628.453072,-10807.006753,3600.648841
976.224143,1110.308913,-10732.986159,3600.648841
976.224467,148.041188,-11695.253884,3753.867940
976.224792,1406.391290,-12731.542202,3140.991542
976.225116,2738.761985,-11991.336260,3064.381992
976.225440,1332.370696,-10510.924376,4519.963438
976.225764,-1480.411884,-11029.068536,4443.353888
976.226088,-2886.803174,-11621.233289,2834.553343
976.226412,-2442.679609,-9104.533087,2145.067394
976.226737,-2146.597232,-6883.915261,2068.457845
976.227061,-4219.173869,-7031.956449,995.924147
976.227385,-5625.565159,-8438.347739,229.828649
976.227709,-5181.441594,-7920.203579,306.438199
976.228033,-3775.050304,-7698.141797,536.266849
976.228357,-3034.844362,-9474.636058,459.657299
976.228681,-3552.988522,-9696.697840,383.047749
976.229006,-2368.659014,-8734.430116,1532.190996
976.229330,-518.144159,-9178.553681,3064.381992
976.229654,2072.576638,-11843.295072,3064.381992
976.229978,2590.720797,-11843.295072,3524.039291
976.230302,1924.535449,-10140.821405,4136.915689
976.230626,888.247130,-10732.986159,3140.991542
976.230951,-518.144159,-10881.027347,2145.067394
976.231275,-1406.391290,-9104.533087,3217.601092
976.231599,-2368.659014,-8808.450710,3830.477490
976.231923,-3923.091493,-10881.027347,1302.362347
976.232247,-4737.318029,-9326.594869,-536.266849
976.232571,-5551.544565,-6217.729913,153.219100
976.232896,-5847.626942,-7550.100608,76.609550
976.233219,-5033.400406,-9252.574275,-995.924147
976.233543,-4589.276840,-7846.182985,0.000000
976.233867,-3108.864956,-8142.265362,1532.190996
976.234191,-1554.432478,-10732.986159,1532.190996
976.234515,-962.267725,-11029.068536,1838.629195
976.234839,-962.267725,-9992.780217,1991.848295
976.235163,-1480.411884,-10288.862594,1378.971896
976.235486,-1480.411884,-10807.006753,1838.629195
976.235810,-296.082377,-10584.944971,2451.505594
976.236134,296.082377,-10510.924376,2145.067394
976.236458,-814.226536,-9474.636058,1608.800546
976.236782,-2812.782580,-9252.574275,1149.143247
976.237106,-4219.173869,-10362.883188,-383.047749
976.237430,-4737.318029,-10658.965565,0.000000
976.237753,-4293.194464,-10214.842000,306.438199
976.238077,-3404.947333,-10066.800811,-306.438199
976.238401,-3330.926739,-9030.512492,459.657299
976.238725,-3108.864956,-8364.327145,1072.533697
976.239049,-2516.700203,-9548.656652,536.266849
976.239373,-1110.308913,-9252.574275,536.266849
976.239697,-1332.370696,-9474.636058,1915.238745
976.240020,0.000000,-10362.883188,1225.752797
976.240344,74.020594,-10214.842000,1991.848295
976.240668,-888.247130,-9474.636058,2451.505594
976.240992,-1184.329507,-9400.615463,1225.752797
976.241316,-296.082377,-9104.533087,-76.609550
976.241640,-296.082377,-9696.697840,229.828649
976.241964,-518.144159,-10955.047942,459.657299
976.242287,0.000000,-11029.068536,459.657299
976.242611,-1258.350101,-10066.800811,995.924147
976.242935,-3404.947333,-9918.759623,612.876398
976.243259,-4219.173869,-10066.800811,612.876398
976.243583,-3552.988522,-9474.636058,1072.533697
976.243907,-1258.350101,-9918.759623,2145.067394
976.244231,222.061783,-9696.697840,2528.115143
976.244554,1036.288319,-9178.553681,2451.505594
976.244878,1480.411884,-8808.450710,3524.039291
976.245202,2368.659014,-8734.430116,2068.457845
976.245526,1850.514855,-7254.018232,383.047749
976.245850,222.061783,-8216.285956,536.266849
976.246174,-296.082377,-11177.109724,536.266849
976.246498,1406.391290,-11621.233289,229.828649
976.246821,1480.411884,-10955.047942,919.314598
976.247145,-296.082377,-9992.780217,229.828649
976.247469,-1628.453072,-10584.944971,0.000000
976.247793,-2294.638420,-11029.068536,306.438199
976.248117,-1332.370696,-9844.739029,-383.047749
976.248441,-1628.453072,-8882.471304,153.219100
976.248765,-888.247130,-8512.368333,1532.190996
976.249088,1406.391290,-8438.347739,1225.752797
976.249412,1776.494261,-9030.512492,1608.800546
976.249736,814.226536,-8660.409521,1991.848295
976.250060,148.041188,-8808.450710,1762.019645
976.250384,-444.123565,-9992.780217,995.924147
976.250708,-1184.329507,-9844.739029,766.095498
976.251032,-1554.432478,-8956.491898,306.438199
976.251355,-2220.617826,-9030.512492,76.609550
976.251679,-1258.350101,-10140.821405,-919.314598
976.252003,1036.288319,-9474.636058,-229.828649
976.252327,2220.617826,-8290.306550,-689.485948
976.252651,1332.370696,-8142.265362,-1378.971896
976.252975,814.226536,-8290.306550,-1149.143247
976.253299,1036.288319,-8512.368333,-1915.238745
976.253622,444.123565,-8808.450710,-1378.971896
976.253946,-814.226536,-9104.533087,-1302.362347
976.254270,-1702.473667,-9918.759623,-383.047749
976.254594,74.020594,-10732.986159,-766.095498
976.254918,-296.082377,-12509.480420,383.047749
976.255242,-1776.494261,-11843.295072,0.000000
976.255566,-2368.659014,-10066.800811,0.000000
976.255889,-1332.370696,-11103.089130,536.266849
976.256213,0.000000,-10807.006753,-612.876398
976.256537,518.144159,-10288.862594,-612.876398
976.256861,148.041188,-10140.821405,-229.828649
976.257185,1332.370696,-9622.677246,-766.095498
976.257509,2738.761985,-10066.800811,-1302.362347
976.257833,2664.741391,-9104.533087,-2374.896044
976.258157,0.000000,-9992.780217,-1991.848295
976.258480,-1184.329507,-11029.068536,-1762.019645
976.258804,-740.205942,-10658.965565,-1302.362347
976.259128,-1184.329507,-10066.800811,-1149.143247
976.259452,-1702.473667,-10436.903782,-612.876398
976.259776,-1628.453072,-11177.109724,0.000000
976.260100,-962.267725,-10214.842000,383.047749
976.260424,222.061783,-9030.512492,306.438199
976.260747,-592.164754,-9400.615463,1302.362347
976.261071,-962.267725,-10066.800811,995.924147
976.261395,0.000000,-9622.677246,1302.362347
976.261719,888.247130,-9030.512492,1302.362347
976.262043,1998.556043,-9178.553681,689.485948
976.262367,2072.576638,-9326.594869,-153.219100
976.262691,2146.597232,-9474.636058,-612.876398
976.263014,888.247130,-9178.553681,-536.266849
976.263338,222.061783,-9326.594869,-1455.581446
976.263662,-592.164754,-10214.842000,-995.924147
976.263986,-1998.556043,-10658.965565,-1455.581446
976.264310,-1850.514855,-9474.636058,-1915.238745
976.264634,-2072.576638,-7846.182985,-1378.971896
976.264958,-1480.411884,-7772.162391,-153.219100
976.265281,0.000000,-8586.388927,919.314598
976.265605,1850.514855,-7772.162391,1608.800546
976.265929,2590.720797,-6957.935855,2221.676944
976.266253,2368.659014,-7920.203579,2451.505594
976.266577,1924.535449,-9326.594869,2145.067394
976.266901,1480.411884,-9326.594869,1072.533697
976.267225,1110.308913,-9030.512492,1072.533697
976.267548,962.267725,-9326.594869,-612.876398
976.267872,740.205942,-9474.636058,-1225.752797
976.268196,0.000000,-10140.821405,-1302.362347
976.268520,-296.082377,-9918.759623,-1225.752797
976.268844,74.020594,-10436.903782,-1608.800546
976.269168,-370.102971,-10732.986159,-2068.457845
976.269492,-592.164754,-10214.842000,-1149.143247
976.269815,-296.082377,-10214.842000,-612.876398
976.270139,-296.082377,-10807.006753,-689.485948
976.270463,-222.061783,-11547.212695,0.000000
976.270787,0.000000,-10288.862594,383.047749
976.271111,1110.308913,-10732.986159,766.095498
976.271435,740.205942,-10955.047942,1072.533697
976.271759,0.000000,-11103.089130,536.266849
976.272082,-296.082377,-10510.924376,459.657299
976.272406,962.267725,-9918.759623,-306.438199
976.272730,1480.411884,-9030.512492,-306.438199
976.273054,1110.308913,-9178.553681,-536.266849
976.273378,518.144159,-9622.677246,-919.314598
976.273702,-666.185348,-10214.842000,-1225.752797
976.274026,-962.267725,-9400.615463,-1378.971896
976.274349,-1184.329507,-9030.512492,-1685.410096
976.274673,-1332.370696,-8956.491898,-689.485948
976.274997,-1628.453072,-9770.718434,-153.219100
976.275321,-1480.411884,-9474.636058,536.266849
976.275645,-1554.432478,-8734.430116,766.095498
976.275969,-1924.535449,-9252.574275,1302.362347
976.276293,-1850.514855,-8882.471304,689.485948
976.276616,-1702.473667,-9474.636058,1838.629195
976.276940,-370.102971,-9622.677246,1225.752797
976.277264,-296.082377,-9400.615463,459.657299
976.277588,-444.123565,-8882.471304,306.438199
976.277912,0.000000,-8808.450710,0.000000
976.278236,-518.144159,-9918.759623,-153.219100
976.278560,-1184.329507,-10658.965565,76.609550
976.278883,-1258.350101,-9622.677246,-383.047749
976.279207,-518.144159,-9252.574275,-995.924147
976.279531,0.000000,-9178.553681,-689.485948
976.279855,222.061783,-9844.739029,459.657299
976.280179,444.123565,-9622.677246,153.219100
976.280503,666.185348,-8956.491898,536.266849
976.280827,740.205942,-8512.368333,0.000000
976.281150,1184.329507,-8956.491898,-766.095498
976.281474,0.000000,-9918.759623,-153.219100
976.281798,-814.226536,-10436.903782,-383.047749
976.282122,-666.185348,-10140.821405,-383.047749
976.282446,148.041188,-9770.718434,-306.438199
976.282770,1406.391290,-10288.862594,-612.876398
976.283094,2738.761985,-10214.842000,1149.143247
976.283417,3478.967927,-10881.027347,919.314598
976.283741,3256.906145,-11473.192101,0.000000
976.284065,1332.370696,-10510.924376,-612.876398
976.284389,-296.082377,-9326.594869,-995.924147
976.284713,-814.226536,-9474.636058,-1608.800546
976.285037,-1036.288319,-10362.883188,-2221.676944
976.285361,-962.267725,-9844.739029,-459.657299
976.285684,148.041188,-9326.594869,0.000000
976.286008,1036.288319,-9326.594869,-1302.362347
976.286332,370.102971,-8142.265362,-1149.143247
976.286656,-518.144159,-8216.285956,-612.876398
976.286980,-592.164754,-9770.718434,-536.266849
976.287304,74.020594,-10214.842000,0.000000
976.287628,1184.329507,-9400.615463,995.924147
976.287952,1776.494261,-8512.368333,306.438199
976.288275,1480.411884,-8586.388927,153.219100
976.288599,814.226536,-9992.780217,-153.219100
976.288923,370.102971,-10214.842000,-306.438199
976.289247,222.061783,-9992.780217,-689.485948
976.289571,-148.041188,-9252.574275,-919.314598
976.289895,-444.123565,-8586.388927,-1072.533697
976.290219,-1184.329507,-9400.615463,-1302.362347
976.290542,-1998.556043,-9992.780217,-1225.752797
976.290866,-1554.432478,-10732.986159,-612.876398
976.291190,-1110.308913,-10362.883188,-995.924147
976.291514,-370.102971,-9548.656652,-383.047749
976.291838,-592.164754,-10214.842000,689.485948
976.292162,-740.205942,-10584.944971,1149.143247
976.292486,-444.123565,-9770.718434,689.485948
976.292809,-518.144159,-9622.677246,306.438199
976.293133,-370.102971,-9474.636058,995.924147
976.293457,-518.144159,-10288.862594,536.266849
976.293781,-296.082377,-9696.697840,76.609550
976.294105,-444.123565,-8808.450710,0.000000
976.294429,-1110.308913,-9178.553681,-153.219100
976.294753,-1776.494261,-10214.842000,-153.219100
976.295076,-2664.741391,-10288.862594,229.828649
976.295400,-2220.617826,-10140.821405,153.219100
976.295724,-962.267725,-10140.821405,689.485948
976.296048,-518.144159,-9770.718434,-536.266849
976.296372,-370.102971,-9474.636058,-383.047749
976.296696,-518.144159,-9622.677246,842.705048
976.297020,0.000000,-10436.903782,229.828649
976.297343,518.144159,-9474.636058,766.095498
976.297667,1480.411884,-9474.636058,1532.190996
976.297991,1554.432478,-9474.636058,229.828649
976.298315,74.020594,-9400.615463,-383.047749
976.298639,-1184.329507,-9474.636058,-229.828649
976.298963,-1258.350101,-9844.739029,842.705048
976.299287,592.164754,-10658.965565,842.705048
976.299610,1628.453072,-9326.594869,76.609550
976.299934,1406.391290,-7105.977043,766.095498
976.300258,1110.308913,-9030.512492,0.000000
976.300582,740.205942,-11103.089130,0.000000
976.300906,1776.494261,-10510.924376,-306.438199
976.301230,2072.576638,-8364.327145,0.000000
976.301554,2072.576638,-7698.141797,306.438199
976.301877,1628.453072,-8660.409521,612.876398
976.302201,1628.453072,-9474.636058,306.438199
976.302525,444.123565,-9178.553681,612.876398
976.302849,0.000000,-9030.512492,-459.657299
976.303173,-444.123565,-8882.471304,-612.876398
976.303497,-518.144159,-8660.409521,-306.438199
976.303821,0.000000,-9252.574275,76.609550
976.304144,592.164754,-9844.739029,76.609550
976.304468,444.123565,-10732.986159,-306.438199
976.304792,296.082377,-11251.130318,-689.485948
976.305116,-296.082377,-9770.718434,-536.266849
976.305440,-148.041188,-10510.924376,-919.314598
976.305764,74.020594,-11103.089130,-1225.752797
976.306088,-74.020594,-11029.068536,-1378.971896
976.306411,-444.123565,-10807.006753,-1532.190996
976.306735,-518.144159,-10807.006753,-1455.581446
976.307059,-296.082377,-10362.883188,-919.314598
976.307383,518.144159,-9474.636058,-766.095498
976.307707,296.082377,-10362.883188,-612.876398
976.308031,-148.041188,-10214.842000,-995.924147
976.308355,-888.247130,-9252.574275,-689.485948
976.308678,-1998.556043,-9474.636058,-612.876398
976.309002,-2146.597232,-9844.739029,0.000000
976.309326,-1776.494261,-9326.594869,0.000000
976.309650,-1110.308913,-8512.368333,383.047749
976.309974,-592.164754,-8808.450710,153.219100
976.310298,-1480.411884,-10066.800811,-1149.143247
976.310622,-2220.617826,-9918.759623,-1302.362347
976.310945,-2072.576638,-9474.636058,-612.876398
976.311269,-962.267725,-9918.759623,-842.705048
976.311593,-1036.288319,-9030.512492,0.000000
976.311917,-1480.411884,-9770.718434,0.000000
976.312241,-1480.411884,-10362.883188,383.047749
976.312565,-666.185348,-10436.903782,229.828649
976.312889,-444.123565,-10140.821405,0.000000
976.313212,0.000000,-8956.491898,76.609550
976.313536,518.144159,-9400.615463,1072.533697
976.313860,740.205942,-10732.986159,229.828649
976.314184,148.041188,-9474.636058,-383.047749
976.314508,-740.205942,-8290.306550,-306.438199
976.314832,-888.247130,-8586.388927,-995.924147
976.315156,-518.144159,-9474.636058,-766.095498
976.315479,-148.041188,-9548.656652,-459.657299
976.315803,-74.020594,-8808.450710,-383.047749
976.316127,296.082377,-9178.553681,-383.047749
976.316451,1332.370696,-9474.636058,-612.876398
976.316775,1554.432478,-9400.615463,919.314598
976.317099,1776.494261,-10584.944971,1149.143247
976.317423,1406.391290,-10881.027347,1072.533697
976.317746,1628.453072,-10362.883188,229.828649
976.318070,2146.597232,-9622.677246,76.609550
976.318394,2072.576638,-9770.718434,459.657299
976.318718,1998.556043,-10584.944971,612.876398
976.319042,1702.473667,-10584.944971,1149.143247
976.319366,1628.453072,-10436.903782,995.924147
976.319690,1184.329507,-10140.821405,0.000000
976.320014,592.164754,-9252.574275,0.000000
976.320337,-148.041188,-9104.533087,76.609550
976.320661,-888.247130,-9400.615463,-229.828649
976.320985,-592.164754,-9104.533087,229.828649
976.321309,0.000000,-8364.327145,0.000000
976.321633,888.247130,-7994.224174,0.000000
976.321957,888.247130,-8734.430116,536.266849
976.322281,1776.494261,-9622.677246,536.266849
976.322604,1998.556043,-8660.409521,536.266849
976.322928,1702.473667,-7328.038826,306.438199
976.323252,740.205942,-7550.100608,-842.705048
976.323576,-592.164754,-9474.636058,-459.657299
976.323900,-1406.391290,-10584.944971,-536.266849
976.324224,-1184.329507,-9844.739029,-766.095498
976.324548,-1554.432478,-8956.491898,-153.219100
976.324871,-1184.329507,-9178.553681,-306.438199
976.325195,-1702.473667,-9696.697840,-383.047749
976.325519,-2146.597232,-10436.903782,-536.266849
976.325843,-2294.638420,-10658.965565,-536.266849
976.326167,-1554.432478,-10140.821405,-153.219100
976.326491,-814.226536,-10066.800811,-536.266849
976.326815,-1702.473667,-9400.615463,0.000000
976.327138,-2072.576638,-9918.759623,383.047749
976.327462,-1850.514855,-11547.212695,-995.924147
976.327786,-1850.514855,-11843.295072,-306.438199
976.328110,-2220.617826,-10140.821405,-1455.581446
976.328434,-2072.576638,-9252.574275,-1072.533697
976.328758,-1480.411884,-11251.130318,-612.876398
976.329082,-592.164754,-12583.501014,0.000000
976.329405,-370.102971,-11325.150913,76.609550
976.329729,-296.082377,-9252.574275,-383.047749
976.330053,0.000000,-8808.450710,-689.485948
976.330377,518.144159,-10140.821405,0.000000
976.330701,1184.329507,-10510.924376,153.219100
976.331025,1480.411884,-9474.636058,383.047749
976.331349,740.205942,-9030.512492,0.000000
976.331672,148.041188,-8956.491898,0.000000
976.331996,-518.144159,-8882.471304,-612.876398
976.332320,-296.082377,-9030.512492,-1072.533697
976.332644,-444.123565,-8882.471304,-383.047749
976.332968,518.144159,-8956.491898,-766.095498
976.333292,1628.453072,-8660.409521,-536.266849
976.333616,1036.288319,-8586.388927,0.000000
976.333939,740.205942,-9326.594869,842.705048
976.334263,1110.308913,-10066.800811,842.705048
976.334587,1628.453072,-10288.862594,459.657299
976.334911,1110.308913,-9030.512492,0.000000
976.335235,740.205942,-7920.203579,536.266849
976.335559,296.082377,-9992.780217,459.657299
976.335883,370.102971,-11177.109724,1378.971896
976.336206,518.144159,-9992.780217,383.047749
976.336530,0.000000,-8068.244768,-689.485948
976.336854,-370.102971,-8142.265362,-459.657299
976.337178,592.164754,-10362.883188,689.485948
976.337502,2072.576638,-10732.986159,0.000000
976.337826,2146.597232,-9030.512492,536.266849
976.338149,592.164754,-8216.285956,306.438199
976.338473,740.205942,-8734.430116,0.000000
976.338797,518.144159,-10436.903782,0.000000
976.339121,1036.288319,-10066.800811,0.000000
976.339445,296.082377,-8882.471304,612.876398
976.339769,518.144159,-9622.677246,-689.485948
976.340093,814.226536,-9770.718434,-536.266849
976.340416,148.041188,-9918.759623,459.657299
976.340740,-518.144159,-10955.047942,0.000000
976.341064,-1258.350101,-10955.047942,-1072.533697
976.341388,-1850.514855,-10362.883188,-1072.533697
976.341712,-1036.288319,-9474.636058,-919.314598
976.342036,-370.102971,-9770.718434,-306.438199
976.342360,-740.205942,-11029.068536,-229.828649
976.342683,-814.226536,-9992.780217,-229.828649
976.343007,-296.082377,-10140.821405,-383.047749
976.343331,444.123565,-10140.821405,153.219100
976.343655,370.102971,-10066.800811,459.657299
976.343979,-444.123565,-9844.739029,459.657299
976.344303,-740.205942,-10066.800811,0.000000
976.344626,-1110.308913,-10510.924376,306.438199
976.344950,-1332.370696,-9918.759623,-689.485948
976.345274,-962.267725,-9030.512492,0.000000
976.345598,-740.205942,-9770.718434,0.000000
976.345922,-666.185348,-10140.821405,-459.657299
976.346246,0.000000,-9622.677246,0.000000
976.346570,-592.164754,-9030.512492,0.000000
976.346893,-814.226536,-9104.533087,-383.047749
976.347217,-370.102971,-10362.883188,536.266849
976.347541,0.000000,-10658.965565,459.657299
976.347865,-962.267725,-9844.739029,306.438199
976.348189,-1110.308913,-9400.615463,-229.828649
976.348513,-1406.391290,-9252.574275,-459.657299
976.348837,-2220.617826,-10214.842000,-383.047749
976.349160,-2442.679609,-10066.800811,-459.657299
976.349484,-592.164754,-9474.636058,536.266849
976.349808,518.144159,-8586.388927,-153.219100
976.350132,592.164754,-7550.100608,-689.485948
976.350456,444.123565,-8216.285956,0.000000
976.350780,296.082377,-9696.697840,0.000000
976.351103,370.102971,-9844.739029,-383.047749
976.351427,814.226536,-8290.306550,612.876398
976.351751,888.247130,-8586.388927,995.924147
976.352075,740.205942,-9400.615463,-229.828649
976.352399,-296.082377,-9696.697840,-306.438199
976.352723,0.000000,-9770.718434,536.266849
976.353047,1184.329507,-9918.759623,153.219100
976.353370,1850.514855,-9770.718434,-306.438199
976.353694,1628.453072,-8438.347739,153.219100
976.354018,1554.432478,-8216.285956,612.876398
976.354342,1850.514855,-10214.842000,-229.828649
976.354666,1110.308913,-10510.924376,-766.095498
976.354990,740.205942,-9474.636058,-383.047749
976.355314,296.082377,-8660.409521,-612.876398
976.355637,222.061783,-9400.615463,-1455.581446
976.355961,444.123565,-10288.862594,-766.095498
976.356285,1480.411884,-10066.800811,-229.828649
976.356609,1702.473667,-9992.780217,-842.705048
976.356933,1332.370696,-9548.656652,-995.924147
976.357257,1332.370696,-9252.574275,153.219100
976.357581,1702.473667,-10214.842000,-76.609550
976.357904,1702.473667,-10288.862594,-612.876398
976.358228,1036.288319,-9178.553681,-459.657299
976.358552,74.020594,-9030.512492,-1378.971896
976.358876,-296.082377,-9178.553681,-2145.067394
976.359200,-962.267725,-10881.027347,-766.095498
976.359524,-148.041188,-11251.130318,-383.047749
976.359847,740.205942,-10732.986159,-612.876398
976.360171,0.000000,-10214.842000,-536.266849
976.360495,-888.247130,-10955.047942,306.438199
976.360819,-740.205942,-11399.171507,-229.828649
976.361143,-888.247130,-11991.336260,-153.219100
976.361467,-1406.391290,-11177.109724,383.047749
976.361791,-1480.411884,-10436.903782,0.000000
976.362114,-1776.494261,-10510.924376,0.000000
976.362438,-2368.659014,-10584.944971,-153.219100
976.362762,-2220.617826,-9178.553681,-536.266849
976.363086,-1776.494261,-9252.574275,-383.047749
976.363410,-1258.350101,-9030.512492,-536.266849
976.363734,-666.185348,-8808.450710,0.000000
976.364058,-962.267725,-8216.285956,-153.219100
976.364381,-1258.350101,-8660.409521,-229.828649
976.364705,-1184.329507,-9178.553681,-229.828649
976.365029,-740.205942,-9474.636058,0.000000
976.365353,0.000000,-8956.491898,612.876398
976.365677,296.082377,-9030.512492,1685.410096
976.366001,-370.102971,-9326.594869,689.485948
976.366324,74.020594,-8808.450710,1455.581446
976.366648,1184.329507,-9400.615463,842.705048
976.366972,1628.453072,-8882.471304,612.876398
976.367296,1258.350101,-8290.306550,1072.533697
976.367620,740.205942,-9400.615463,919.314598
976.367944,0.000000,-9992.780217,536.266849
976.368268,-296.082377,-9252.574275,-229.828649
976.368591,-962.267725,-8438.347739,-536.266849
976.368915,-1258.350101,-9548.656652,-229.828649
976.369239,-1924.535449,-10658.965565,-383.047749
976.369563,-1702.473667,-9992.780217,229.828649
976.369887,-1184.329507,-9326.594869,383.047749
976.370211,-370.102971,-9326.594869,0.000000
976.370535,-222.061783,-9030.512492,0.000000
976.370858,-444.123565,-9844.739029,1149.143247
976.371182,592.164754,-9696.697840,383.047749
976.371506,740.205942,-9252.574275,459.657299
976.371830,1702.473667,-8882.471304,612.876398
976.372154,2516.700203,-8586.388927,459.657299
976.372478,2368.659014,-9696.697840,995.924147
976.372801,2146.597232,-10140.821405,1608.800546
976.373125,2960.823768,-9770.718434,229.828649
976.373449,3330.926739,-10584.944971,-459.657299
976.373773,2368.659014,-11029.068536,459.657299
976.374097,2516.700203,-11029.068536,0.000000
976.374421,2072.576638,-10732.986159,0.000000
976.374745,1184.329507,-10140.821405,0.000000
976.375068,444.123565,-9844.739029,153.219100
976.375392,0.000000,-10066.800811,0.000000
976.375716,-1258.350101,-9992.780217,153.219100
976.376040,-1850.514855,-9844.739029,0.000000
976.376364,-2368.659014,-9474.636058,-459.657299
976.376688,-2960.823768,-9992.780217,-459.657299
976.377012,-2368.659014,-10288.862594,-153.219100
976.377335,-814.226536,-9696.697840,0.000000
976.377659,0.000000,-10658.965565,689.485948
976.377983,74.020594,-10214.842000,76.609550
976.378307,0.000000,-10140.821405,459.657299
976.378631,444.123565,-10140.821405,0.000000
976.378955,740.205942,-10140.821405,0.000000
976.379279,74.020594,-10584.944971,306.438199
976.379602,-592.164754,-9844.739029,229.828649
976.379926,-740.205942,-9474.636058,0.000000
976.380250,-666.185348,-9104.533087,-306.438199
976.380574,-296.082377,-8438.347739,306.438199
976.380898,-740.205942,-9178.553681,0.000000
976.381222,-1036.288319,-9252.574275,-919.314598
976.381545,-1184.329507,-8364.327145,-459.657299
976.381869,-666.185348,-8438.347739,-919.314598
976.382193,-444.123565,-8290.306550,-842.705048
976.382517,-1554.432478,-9030.512492,-153.219100
976.382841,-2664.741391,-9696.697840,-536.266849
976.383165,-1850.514855,-9474.636058,-689.485948
976.383489,-888.247130,-9326.594869,-1685.410096
976.383812,444.123565,-9252.574275,-842.705048
976.384136,592.164754,-9770.718434,-459.657299
976.384460,-222.061783,-10436.903782,-766.095498
976.384784,-296.082377,-9770.718434,0.000000
976.385108,592.164754,-9474.636058,-536.266849
976.385432,1332.370696,-9178.553681,-459.657299
976.385756,814.226536,-10288.862594,-766.095498
976.386079,-222.061783,-10140.821405,-612.876398
976.386403,0.000000,-9474.636058,-229.828649
976.386727,592.164754,-9918.759623,0.000000
976.387051,1110.308913,-9622.677246,-383.047749
976.387375,1406.391290,-8216.285956,-766.095498
976.387699,1702.473667,-8586.388927,-689.485948
976.388022,1850.514855,-9548.656652,-919.314598
976.388346,2072.576638,-9622.677246,-612.876398
976.388670,1850.514855,-9844.739029,0.000000
976.388994,1850.514855,-9770.718434,-153.219100
976.389318,1258.350101,-9770.718434,-153.219100
976.389642,1036.288319,-9622.677246,-689.485948
976.389966,814.226536,-10362.883188,-306.438199
976.390289,518.144159,-10955.047942,-766.095498
976.390613,444.123565,-10066.800811,-383.047749
976.390937,-592.164754,-9696.697840,-229.828649
976.391261,-1332.370696,-10436.903782,-919.314598
976.391585,-888.247130,-10214.842000,-766.095498
976.391909,-148.041188,-10214.842000,-306.438199
976.392233,222.061783,-10436.903782,306.438199
976.392556,0.000000,-10658.965565,689.485948
976.392880,-296.082377,-10510.924376,306.438199
976.393204,74.020594,-9622.677246,536.266849
976.393528,222.061783,-10732.986159,689.485948
976.393852,0.000000,-11103.089130,919.314598
976.394176,-592.164754,-10955.047942,995.924147
976.394499,-1110.308913,-9474.636058,153.219100
976.394823,-1628.453072,-8512.368333,0.000000
976.395147,-1702.473667,-9030.512492,153.219100
976.395471,-1628.453072,-9030.512492,-766.095498
976.395795,-1776.494261,-9178.553681,689.485948
976.396119,-1850.514855,-8882.471304,1149.143247
976.396443,-1628.453072,-9178.553681,689.485948
976.396766,-1406.391290,-9326.594869,1302.362347
976.397090,-518.144159,-9474.636058,459.657299
976.397414,74.020594,-9178.553681,1378.971896
976.397738,0.000000,-9770.718434,1225.752797
976.398062,-592.164754,-9474.636058,1302.362347
976.398386,-814.226536,-9474.636058,842.705048
976.398710,-222.061783,-8512.368333,689.485948
976.399033,444.123565,-9474.636058,842.705048
976.399357,-296.082377,-9992.780217,459.657299
976.399681,-962.267725,-9030.512492,306.438199
976.400005,-1258.350101,-7920.203579,766.095498
976.400329,-222.061783,-9030.512492,229.828649
976.400653,0.000000,-9474.636058,459.657299
976.400976,-148.041188,-9252.574275,1302.362347
976.401300,-666.185348,-9918.759623,536.266849
976.401624,0.000000,-9400.615463,612.876398
976.401948,1110.308913,-8808.450710,689.485948
976.402272,1036.288319,-8364.327145,612.876398
976.402596,740.205942,-9400.615463,536.266849
976.402920,0.000000,-9844.739029,1225.752797
976.403243,74.020594,-9474.636058,612.876398
976.403567,962.267725,-9178.553681,0.000000
976.403891,1036.288319,-9474.636058,229.828649
976.404215,1406.391290,-10066.800811,842.705048
976.404539,1480.411884,-10955.047942,689.485948
976.404863,1110.308913,-10510.924376,459.657299
976.405187,148.041188,-9400.615463,306.438199
976.405510,222.061783,-9400.615463,-153.219100
976.405834,370.102971,-10584.944971,76.609550
976.406158,296.082377,-10140.821405,-229.828649
976.406482,0.000000,-8586.388927,-153.219100
976.406806,-222.061783,-8290.306550,-612.876398
976.407130,-222.061783,-9178.553681,-1378.971896
976.407454,222.061783,-9252.574275,-1378.971896
976.407777,-370.102971,-9030.512492,0.000000
976.408101,-1258.350101,-8956.491898,-766.095498
976.408425,-1110.308913,-9178.553681,-1685.410096
976.408749,-1110.308913,-8882.471304,-1072.533697
976.409073,0.000000,-9622.677246,153.219100
976.409397,518.144159,-11473.192101,76.609550
976.409720,370.102971,-11251.130318,-459.657299
976.410044,74.020594,-9844.739029,536.266849
976.410368,1480.411884,-10510.924376,306.438199
976.410692,1998.556043,-11621.233289,0.000000
976.411016,1110.308913,-11251.130318,612.876398
976.411340,-518.144159,-10881.027347,0.000000
976.411664,-1776.494261,-11325.150913,-995.924147
976.411987,-2220.617826,-9918.759623,-1685.410096
976.412311,-1998.556043,-9474.636058,-612.876398
976.412635,-2072.576638,-9992.780217,-842.705048
976.412959,-2368.659014,-9992.780217,-1378.971896
976.413283,-2664.741391,-9696.697840,-1378.971896
976.413607,-1480.411884,-9474.636058,-689.485948
976.413931,222.061783,-10140.821405,-459.657299
976.414254,814.226536,-10658.965565,0.000000
976.414578,222.061783,-10362.883188,536.266849
976.414902,74.020594,-9770.718434,0.000000
976.415226,1406.391290,-9400.615463,229.828649
976.415550,1554.432478,-9622.677246,306.438199
976.415874,2294.638420,-9252.574275,0.000000
976.416197,1332.370696,-9104.533087,153.219100
976.416521,296.082377,-9178.553681,0.000000
976.416845,148.041188,-9030.512492,536.266849
976.417169,888.247130,-8216.285956,0.000000
976.417493,1184.329507,-8142.265362,0.000000
976.417817,74.020594,-9474.636058,1149.143247
976.418141,-296.082377,-9400.615463,612.876398
976.418464,-148.041188,-7920.203579,766.095498
976.418788,-518.144159,-7846.182985,306.438199
976.419112,-1628.453072,-8438.347739,-459.657299
976.419436,-1332.370696,-8734.430116,-612.876398
976.419760,-1258.350101,-8808.450710,0.000000
976.420084,0.000000,-9178.553681,536.266849
976.420408,1332.370696,-9178.553681,612.876398
976.420731,2146.597232,-8660.409521,153.219100
976.421055,1702.473667,-8882.471304,689.485948
976.421379,814.226536,-10436.903782,459.657299
976.421703,814.226536,-10066.800811,-383.047749
976.422027,814.226536,-9474.636058,153.219100
976.422351,222.061783,-8956.491898,-153.219100
976.422674,0.000000,-8660.409521,-612.876398
976.422998,-444.123565,-9548.656652,153.219100
976.423322,-148.041188,-10214.842000,229.828649
976.423646,222.061783,-9844.739029,-459.657299
976.423970,296.082377,-9030.512492,-612.876398
976.424294,74.020594,-8216.285956,-536.266849
976.424618,0.000000,-9622.677246,-459.657299
976.424941,74.020594,-10288.862594,-306.438199
976.425265,-592.164754,-9622.677246,-1149.143247
976.425589,-1702.473667,-10732.986159,-1685.410096
976.425913,-1110.308913,-10510.924376,-1608.800546
976.426237,74.020594,-11103.089130,-612.876398
976.426561,666.185348,-12583.501014,-766.095498
976.426885,666.185348,-10658.965565,-766.095498
976.427208,592.164754,-10881.027347,-995.924147
976.427532,-444.123565,-10732.986159,-1149.143247
976.427856,-296.082377,-11621.233289,0.000000
976.428180,0.000000,-12657.521608,383.047749
976.428504,0.000000,-11843.295072,153.219100
976.428828,-740.205942,-10214.842000,-1072.533697
976.429151,-1702.473667,-8956.491898,-1225.752797
976.429475,-2516.700203,-10066.800811,-383.047749
976.429799,-1628.453072,-12287.418637,229.828649
976.430123,-370.102971,-10881.027347,-229.828649
976.430447,-296.082377,-8882.471304,0.000000
976.430771,0.000000,-9030.512492,-306.438199
976.431095,962.267725,-10066.800811,229.828649
976.431418,1480.411884,-10732.986159,1072.533697
976.431742,1554.432478,-10140.821405,1149.143247
976.432066,1110.308913,-9030.512492,1149.143247
976.432390,222.061783,-9252.574275,1149.143247
976.432714,222.061783,-9770.718434,1608.800546
976.433038,518.144159,-10288.862594,1685.410096
976.433362,0.000000,-9770.718434,1378.971896
976.433685,-296.082377,-9178.553681,1378.971896
976.434009,-518.144159,-9400.615463,1915.238745
976.434333,0.000000,-8364.327145,2298.286494
976.434657,-222.061783,-7994.224174,2221.676944
976.434981,-1554.432478,-8068.244768,1991.848295
976.435305,-2442.679609,-7772.162391,1149.143247
976.435629,-2442.679609,-7254.018232,766.095498
976.435953,-1998.556043,-7105.977043,1532.190996
976.436277,-1628.453072,-7179.997637,1685.410096
976.436601,-1850.514855,-8438.347739,1455.581446
976.436925,-1480.411884,-7994.224174,1225.752797
976.437249,0.000000,-7550.100608,1838.629195
976.437573,1998.556043,-7772.162391,2528.115143
976.437897,2368.659014,-7402.059420,2145.067394
976.438221,1184.329507,-8068.244768,2451.505594
976.438545,518.144159,-8808.450710,1225.752797
976.438869,518.144159,-8882.471304,1149.143247
976.439193,1036.288319,-8956.491898,995.924147
976.439517,740.205942,-8734.430116,383.047749
976.439841,0.000000,-9178.553681,-383.047749
976.440165,0.000000,-9474.636058,0.000000
976.440489,666.185348,-9474.636058,306.438199
976.440813,1850.514855,-10140.821405,-766.095498
976.441137,1110.308913,-9326.594869,-1149.143247
976.441461,296.082377,-9622.677246,-1225.752797
976.441785,592.164754,-11325.150913,-1608.800546
976.442109,1332.370696,-11769.274478,-1838.629195
976.442433,1850.514855,-11695.253884,-842.705048
976.442757,1554.432478,-11547.212695,-153.219100
976.443081,962.267725,-12139.377449,-1685.410096
976.443405,-370.102971,-11917.315666,-2298.286494
976.443729,-1258.350101,-11769.274478,-1378.971896
976.444053,-222.061783,-12583.501014,-1991.848295
976.444377,0.000000,-12657.521608,-1762.019645
976.444701,-666.185348,-11917.315666,-1225.752797
976.445025,-370.102971,-11621.233289,-1149.143247
976.445349,148.041188,-11399.171507,-1455.581446
976.445673,518.144159,-11843.295072,-2221.676944
976.445997,222.061783,-10807.006753,-1685.410096
976.446321,-444.123565,-10881.027347,-1608.800546
976.446645,-1184.329507,-11029.068536,-1915.238745
976.446969,-814.226536,-10288.862594,-1838.629195
976.447293,-222.061783,-9548.656652,-2221.676944
976.447617,-518.144159,-9770.718434,-1915.238745
976.447941,-1332.370696,-9918.759623,-2451.505594
976.448265,-1628.453072,-9474.636058,-1455.581446
976.448589,-1406.391290,-9030.512492,-1532.190996
976.448913,-1702.473667,-9030.512492,-1915.238745
976.449237,-1628.453072,-8216.285956,-1915.238745
976.449561,-1480.411884,-8734.430116,-919.314598
976.449885,-1702.473667,-9622.677246,-153.219100
976.450209,-740.205942,-9030.512492,0.000000
976.450533,-370.102971,-7254.018232,919.314598
976.450857,1480.411884,-7994.224174,842.705048
976.451181,1850.514855,-8142.265362,459.657299
976.451505,2146.597232,-8142.265362,1149.143247
976.451829,962.267725,-7624.121203,995.924147
976.452153,74.020594,-7254.018232,0.000000
976.452477,148.041188,-7179.997637,459.657299
976.452801,-296.082377,-6957.935855,76.609550
976.453125,-592.164754,-7920.203579,-536.266849
976.453449,-592.164754,-8142.265362,-153.219100
976.453773,-222.061783,-8364.327145,0.000000
976.454097,0.000000,-8586.388927,306.438199
976.454421,1110.308913,-7920.203579,76.609550
976.454745,1998.556043,-8216.285956,1302.362347
976.455069,1554.432478,-9844.739029,1149.143247
976.455393,1554.432478,-10362.883188,1072.533697
976.455717,1776.494261,-10214.842000,1072.533697
976.456041,2294.638420,-11029.068536,1685.410096
976.456365,2368.659014,-11473.192101,842.705048
976.456689,1480.411884,-11621.233289,306.438199
976.457013,444.123565,-11177.109724,76.609550
976.457337,444.123565,-11547.212695,-612.876398
976.457661,370.102971,-11325.150913,-1072.533697
976.457985,0.000000,-10807.006753,-1302.362347
976.458309,-814.226536,-10658.965565,-1225.752797
976.458633,-888.247130,-11029.068536,-1991.848295
976.458957,-592.164754,-10955.047942,-995.924147
976.459281,-222.061783,-10955.047942,-612.876398
976.459605,222.061783,-10362.883188,229.828649
976.459928,-370.102971,-10066.800811,-153.219100
976.460252,-814.226536,-10214.842000,842.705048
976.460576,-370.102971,-10436.903782,1455.581446
976.460900,888.247130,-11251.130318,1838.629195
976.461224,1480.411884,-10436.903782,2068.457845
976.461548,444.123565,-9548.656652,1455.581446
976.461872,-962.267725,-9548.656652,0.000000
976.462196,-1628.453072,-9326.594869,0.000000
976.462520,-666.185348,-10066.800811,0.000000
976.462844,-740.205942,-9696.697840,-153.219100
976.463168,-1480.411884,-9622.677246,-153.219100
976.463492,-2220.617826,-9770.718434,-229.828649
976.463816,-1110.308913,-9770.718434,229.828649
976.464140,-296.082377,-10214.842000,842.705048
976.464464,0.000000,-10288.862594,1532.190996
976.464788,0.000000,-9178.553681,1302.362347
976.465112,0.000000,-9326.594869,2298.286494
976.465436,888.247130,-9844.739029,3370.820191
976.465760,740.205942,-10362.883188,3294.210641
976.466084,74.020594,-10066.800811,3064.381992
976.466408,-814.226536,-8216.285956,2681.334243
976.466732,-1924.535449,-7550.100608,1072.533697
976.467056,-2368.659014,-7476.080014,0.000000
976.467380,-2664.741391,-7772.162391,1072.533697
976.467704,-1998.556043,-8216.285956,0.000000
976.468028,-1184.329507,-7328.038826,0.000000
976.468352,-1924.535449,-7031.956449,229.828649
976.468676,-2072.576638,-8142.265362,383.047749
976.469000,-888.247130,-8734.430116,689.485948
976.469324,740.205942,-8364.327145,1149.143247
976.469648,1406.391290,-7624.121203,1762.019645
976.469972,740.205942,-8512.368333,1685.410096
976.470296,296.082377,-9178.553681,1838.629195
976.470620,592.164754,-9178.553681,2068.457845
976.470944,1332.370696,-9474.636058,1838.629195
976.471268,962.267725,-9992.780217,1532.190996
976.471592,148.041188,-9474.636058,689.485948
976.471916,-666.185348,-8808.450710,-306.438199
976.472240,-888.247130,-8068.244768,-1685.410096
976.472564,-1258.350101,-9474.636058,-1455.581446
976.472888,0.000000,-10288.862594,-1762.019645
976.473212,1184.329507,-9770.718434,-1225.752797
976.473536,1776.494261,-9474.636058,-1225.752797
976.473860,2368.659014,-9622.677246,-1455.581446
976.474184,2220.617826,-10510.924376,-2221.676944
976.474508,1776.494261,-11251.130318,-1762.019645
976.474832,2368.659014,-11325.150913,-612.876398
976.475156,2886.803174,-11473.192101,-1072.533697
976.475480,3034.844362,-11103.089130,-612.876398
976.475804,1776.494261,-10510.924376,-1378.971896
976.476128,1406.391290,-10732.986159,-2528.115143
976.476452,296.082377,-11251.130318,-2068.457845
976.476776,-592.164754,-11991.336260,-2451.505594
976.477100,-370.102971,-10881.027347,-2528.115143
976.477424,-296.082377,-9918.759623,-2374.896044
976.477748,0.000000,-9844.739029,-2451.505594
976.478072,740.205942,-10584.944971,-2298.286494
976.478396,-740.205942,-10881.027347,-2528.115143
976.478720,-1480.411884,-11621.233289,-2451.505594
976.479044,-1036.288319,-11325.150913,-1532.190996
976.479368,222.061783,-10584.944971,-2221.676944
976.479692,0.000000,-9474.636058,-1838.629195
976.480016,-666.185348,-10362.883188,-1149.143247
976.480340,-1850.514855,-11251.130318,-1225.752797
976.480664,-1480.411884,-11399.171507,-1532.190996
976.480988,-2072.576638,-9918.759623,-1455.581446
976.481312,-2072.576638,-8734.430116,-1608.800546
976.481636,-1554.432478,-8438.347739,-1378.971896
976.481960,-1258.350101,-9400.615463,-1302.362347
976.482284,-1184.329507,-10140.821405,-766.095498
976.482608,-296.082377,-9992.780217,-766.095498
976.482932,666.185348,-8586.388927,-153.219100
976.483256,1110.308913,-7624.121203,-383.047749
976.483580,148.041188,-8216.285956,-229.828649
976.483904,-592.164754,-8142.265362,153.219100
976.484228,-518.144159,-8512.368333,459.657299
976.484552,-444.123565,-8364.327145,766.095498
976.484876,148.041188,-7698.141797,2145.067394
976.485200,0.000000,-8142.265362,2604.724693
976.485524,-814.226536,-8660.409521,1225.752797
976.485848,-1628.453072,-8956.491898,1378.971896
976.486172,-1628.453072,-8438.347739,689.485948
976.486496,-1554.432478,-8808.450710,306.438199
976.486820,-1924.535449,-9622.677246,1378.971896
976.487144,0.000000,-10436.903782,2451.505594
976.487468,1850.514855,-9770.718434,2298.286494
976.487792,1924.535449,-9326.594869,1455.581446
976.488116,962.267725,-9252.574275,1072.533697
976.488440,814.226536,-10140.821405,1685.410096
976.488763,1332.370696,-11177.109724,1838.629195
976.489087,1184.329507,-9696.697840,1072.533697
976.489411,666.185348,-8808.450710,612.876398
976.489735,0.000000,-8586.388927,-153.219100
976.490059,-222.061783,-9400.615463,0.000000
976.490383,0.000000,-10214.842000,995.924147
976.490707,592.164754,-9252.574275,536.266849
976.491031,1184.329507,-8734.430116,689.485948
976.491355,1406.391290,-9104.533087,153.219100
976.491679,888.247130,-9474.636058,689.485948
976.492003,518.144159,-10658.965565,919.314598
976.492327,0.000000,-10584.944971,459.657299
976.492651,-296.082377,-9844.739029,612.876398
976.492975,444.123565,-9844.739029,689.485948
976.493299,1184.329507,-9474.636058,842.705048
976.493623,1480.411884,-10955.047942,995.924147
976.493947,1480.411884,-11547.212695,536.266849
976.494271,592.164754,-10066.800811,0.000000
976.494595,0.000000,-8882.471304,-995.924147
976.494919,-888.247130,-8660.409521,-995.924147
976.495243,-1480.411884,-9770.718434,-766.095498
976.495567,-2294.638420,-10807.006753,-919.314598
976.495891,-2220.617826,-10436.903782,-536.266849
976.496215,-888.247130,-10140.821405,-383.047749
976.496539,296.082377,-9474.636058,766.095498
976.496863,518.144159,-10066.800811,1532.190996
976.497187,370.102971,-11029.068536,1225.752797
976.497511,296.082377,-10658.965565,1302.362347
976.497835,592.164754,-10658.965565,1378.971896
976.498159,814.226536,-10807.006753,1455.581446
976.498483,518.144159,-9844.739029,995.924147
976.498807,-666.185348,-9844.739029,0.000000
976.499131,-1998.556043,-9696.697840,-1072.533697
976.499455,-2368.659014,-10214.842000,-1225.752797
976.499779,-2220.617826,-10140.821405,-2221.676944
976.500103,-2146.597232,-8364.327145,-1608.800546
976.500427,-2812.782580,-9178.553681,-766.095498
976.500751,-2664.741391,-10362.883188,-153.219100
976.501075,-1258.350101,-10066.800811,76.609550
976.501399,0.000000,-9178.553681,76.609550
976.501723,0.000000,-8290.306550,766.095498
976.502047,444.123565,-9844.739029,1378.971896
976.502371,518.144159,-10288.862594,1685.410096
976.502695,888.247130,-9548.656652,1915.238745
976.503019,740.205942,-8956.491898,1455.581446
976.503343,148.041188,-9178.553681,536.266849
976.503667,-370.102971,-9696.697840,0.000000
976.503991,-296.082377,-8512.368333,-153.219100
976.504315,148.041188,-7772.162391,-153.219100
976.504639,-148.041188,-8068.244768,-919.314598
976.504963,814.226536,-7772.162391,-1608.800546
976.505287,1036.288319,-8734.430116,-612.876398
976.505611,1036.288319,-9030.512492,-842.705048
976.505935,296.082377,-7846.182985,-1608.800546
976.506259,-518.144159,-8290.306550,-1608.800546
976.506583,0.000000,-9474.636058,-919.314598
976.506907,1258.350101,-9400.615463,-1149.143247
976.507231,1628.453072,-9400.615463,-1149.143247
976.507555,1036.288319,-9178.553681,-995.924147
976.507879,1628.453072,-9992.780217,-1455.581446
976.508203,2886.803174,-10881.027347,-1762.019645
976.508527,2664.741391,-10881.027347,-1378.971896
976.508851,2072.576638,-10955.047942,-1685.410096
976.509175,370.102971,-11029.068536,-2681.334243
976.509499,-1036.288319,-12287.418637,-2757.943793
976.509823,0.000000,-11991.336260,-1762.019645
976.510147,888.247130,-10436.903782,-2298.286494
976.510471,296.082377,-10955.047942,-1991.848295
976.510795,-518.144159,-11621.233289,-2221.676944
976.511119,-296.082377,-11325.150913,-2374.896044
976.511443,296.082377,-10732.986159,-1838.629195
976.511767,-148.041188,-10140.821405,-1915.238745
976.512091,-296.082377,-9696.697840,-1838.629195
976.512415,-222.061783,-9474.636058,-1378.971896
976.512739,-592.164754,-10362.883188,-1225.752797
976.513063,-1036.288319,-10881.027347,-1685.410096
976.513387,-740.205942,-9474.636058,-1838.629195
976.513711,-370.102971,-9696.697840,-383.047749
976.514035,222.061783,-10807.006753,-76.609550
976.514359,740.205942,-9992.780217,919.314598
976.514683,592.164754,-9252.574275,76.609550
976.515007,444.123565,-9474.636058,689.485948
976.515331,518.144159,-10214.842000,842.705048
976.515655,296.082377,-10214.842000,689.485948
976.515979,-444.123565,-9326.594869,1685.410096
976.516303,-1036.288319,-8290.306550,1072.533697
976.516627,-1554.432478,-8438.347739,0.000000
976.516951,-1998.556043,-8734.430116,612.876398
976.517275,-2960.823768,-9548.656652,229.828649
976.517598,-3182.885551,-8512.368333,383.047749
976.517922,-2590.720797,-7772.162391,842.705048
976.518246,-1110.308913,-8734.430116,995.924147
976.518570,296.082377,-8660.409521,1762.019645
976.518894,1184.329507,-9326.594869,2298.286494
976.519218,1480.411884,-8660.409521,1915.238745
976.519542,1036.288319,-8586.388927,3064.381992
976.519866,1036.288319,-9474.636058,3677.258390
976.520190,962.267725,-9400.615463,2834.553343
976.520514,592.164754,-9252.574275,2374.896044
976.520838,-296.082377,-8808.450710,2068.457845
976.521162,-1258.350101,-8734.430116,1302.362347
976.521486,-1776.494261,-8734.430116,689.485948
976.521810,-1110.308913,-8438.347739,1149.143247
976.522134,-962.267725,-8660.409521,766.095498
976.522458,-962.267725,-9474.636058,766.095498
976.522782,-666.185348,-9252.574275,919.314598
976.523106,-444.123565,-9326.594869,383.047749
976.523430,592.164754,-9474.636058,229.828649
976.523754,962.267725,-9622.677246,229.828649
976.524078,740.205942,-10658.965565,1072.533697
976.524402,1332.370696,-10288.862594,1149.143247
976.524726,2590.720797,-11029.068536,1378.971896
976.525050,2960.823768,-10732.986159,1378.971896
976.525374,2516.700203,-10288.862594,153.219100
976.525698,1480.411884,-10436.903782,-612.876398
976.526022,0.000000,-10510.924376,-536.266849
976.526346,-296.082377,-10807.006753,-689.485948
976.526670,0.000000,-10140.821405,-1532.190996
976.526994,-518.144159,-8734.430116,-1685.410096
976.527318,-1110.308913,-8882.471304,-1685.410096
976.527642,-814.226536,-10807.006753,-1608.800546
976.527966,-814.226536,-10584.944971,-1149.143247
976.528290,-740.205942,-10066.800811,-1149.143247
976.528614,-888.247130,-9844.739029,-689.485948
976.528938,-296.082377,-10658.965565,306.438199
976.529262,1036.288319,-11769.274478,0.000000
976.529586,444.123565,-10362.883188,306.438199
976.529910,370.102971,-10436.903782,229.828649
976.530234,444.123565,-10807.006753,0.000000
976.530558,0.000000,-11473.192101,76.609550
976.530882,-296.082377,-10881.027347,0.000000
976.531206,0.000000,-9178.553681,-766.095498
976.531530,-296.082377,-8586.388927,-1302.362347
976.531854,-962.267725,-9030.512492,-1838.629195
976.532178,-1036.288319,-9178.553681,-1532.190996
976.532502,-814.226536,-9030.512492,-766.095498
976.532826,-1110.308913,-8808.450710,-689.485948
976.533150,-1258.350101,-8586.388927,-1149.143247
976.533474,-1480.411884,-7994.224174,-1225.752797
976.533798,-1480.411884,-8068.244768,-919.314598
976.534122,-1332.370696,-8882.471304,-689.485948
976.534446,-1036.288319,-9474.636058,0.000000
976.534770,0.000000,-9770.718434,1072.533697
976.535094,1850.514855,-9918.759623,842.705048
976.535418,2368.659014,-9030.512492,995.924147
976.535742,1628.453072,-8956.491898,919.314598
976.536066,444.123565,-10214.842000,76.609550
976.536390,-222.061783,-10658.965565,-536.266849
976.536714,-962.267725,-10214.842000,-919.314598
976.537038,-1036.288319,-8660.409521,-1378.971896
976.537362,-1406.391290,-9548.656652,-1608.800546
976.537686,-1258.350101,-10288.862594,-1302.362347
976.538010,-666.185348,-9548.656652,-1455.581446
976.538334,296.082377,-9474.636058,-1149.143247
976.538658,740.205942,-9030.512492,-689.485948
976.538982,1332.370696,-9104.533087,-459.657299
976.539306,1628.453072,-9548.656652,-229.828649
976.539630,1998.556043,-9844.739029,383.047749
976.539954,1628.453072,-9770.718434,-919.314598
976.540278,1036.288319,-9696.697840,-536.266849
976.540602,814.226536,-10288.862594,-306.438199
976.540926,1110.308913,-11029.068536,-689.485948
976.541250,1776.494261,-10288.862594,-612.876398
976.541574,2368.659014,-9992.780217,-1149.143247
976.541898,1332.370696,-9770.718434,-2221.676944
976.542222,666.185348,-9696.697840,-1762.019645
976.542547,-296.082377,-10214.842000,-1838.629195
976.542871,-666.185348,-10732.986159,-1302.362347
976.543195,-148.041188,-10955.047942,-995.924147
976.543519,518.144159,-10436.903782,-1072.533697
976.543843,222.061783,-9918.759623,-1455.581446
976.544167,-888.247130,-10214.842000,-1378.971896
976.544491,-1332.370696,-9918.759623,-306.438199
976.544815,-1110.308913,-9474.636058,-919.314598
976.545139,-1628.453072,-9474.636058,-459.657299
976.545463,-1628.453072,-9030.512492,-306.438199
976.545787,-666.185348,-9548.656652,76.609550
976.546111,444.123565,-9918.759623,689.485948
976.546435,666.185348,-9474.636058,2068.457845
976.546759,1332.370696,-8734.430116,1225.752797
976.547083,518.144159,-8586.388927,76.609550
976.547407,-888.247130,-8882.471304,306.438199
976.547731,-1110.308913,-9770.718434,383.047749
976.548055,-962.267725,-9622.677246,536.266849
976.548379,-814.226536,-8882.471304,612.876398
976.548703,-518.144159,-8438.347739,1685.410096
976.549027,-740.205942,-8438.347739,1225.752797
976.549351,-740.205942,-9252.574275,995.924147
976.549675,-1924.535449,-9030.512492,766.095498
976.549999,-2812.782580,-8808.450710,383.047749
976.550323,-2368.659014,-8734.430116,153.219100
976.550647,-1628.453072,-9104.533087,919.314598
976.550971,-1554.432478,-9992.780217,2145.067394
976.551295,-1332.370696,-9918.759623,1915.238745
976.551619,-518.144159,-10066.800811,1915.238745
976.551943,370.102971,-10066.800811,1378.971896
976.552267,740.205942,-9844.739029,1302.362347
976.552591,1110.308913,-9696.697840,766.095498
976.552915,1036.288319,-10140.821405,1072.533697
976.553239,962.267725,-10436.903782,766.095498
976.553563,1110.308913,-9696.697840,766.095498
976.553887,962.267725,-9474.636058,1225.752797
976.554211,518.144159,-9770.718434,-306.438199
976.554535,444.123565,-9622.677246,-229.828649
976.554859,370.102971,-9474.636058,-459.657299
976.555183,74.020594,-10510.924376,-919.314598
976.555507,296.082377,-10955.047942,459.657299
976.555831,1332.370696,-10807.006753,842.705048
976.556155,1406.391290,-10584.944971,306.438199
976.556479,370.102971,-10066.800811,76.609550
976.556804,592.164754,-9474.636058,0.000000
976.557128,1554.432478,-10584.944971,766.095498
976.557452,2220.617826,-10881.027347,229.828649
976.557776,1554.432478,-9696.697840,0.000000
976.558100,592.164754,-8734.430116,306.438199
976.558424,0.000000,-9474.636058,-306.438199
976.558748,222.061783,-10362.883188,-1455.581446
976.559072,-740.205942,-8364.327145,-919.314598
976.559396,-370.102971,-9104.533087,-995.924147
976.559720,-370.102971,-9844.739029,-919.314598
976.560044,0.000000,-9696.697840,-1302.362347
976.560368,-296.082377,-8142.265362,-1302.362347
976.560692,0.000000,-7624.121203,-919.314598
976.561016,370.102971,-9770.718434,-153.219100
976.561340,-518.144159,-9474.636058,0.000000
976.561664,-888.247130,-8734.430116,153.219100
976.561988,-740.205942,-8660.409521,0.000000
976.562312,74.020594,-9622.677246,76.609550
976.562636,296.082377,-10362.883188,-306.438199
976.562960,-666.185348,-9400.615463,-459.657299
976.563284,-1258.350101,-9030.512492,0.000000
976.563608,-1110.308913,-9622.677246,-612.876398
976.563932,-1332.370696,-9326.594869,-1225.752797
976.564256,-2664.741391,-9030.512492,-1838.629195
976.564580,-2812.782580,-9622.677246,-2451.505594
976.564904,-2220.617826,-9622.677246,-1762.019645
976.565228,-592.164754,-9992.780217,-536.266849
976.565552,370.102971,-9992.780217,-229.828649
976.565876,-148.041188,-9622.677246,-536.266849
976.566200,-1110.308913,-9326.594869,-1532.190996
976.566524,-1036.288319,-9770.718434,-1915.238745
976.566848,-74.020594,-11325.150913,-306.438199
976.567172,1184.329507,-11547.212695,0.000000
976.567496,1258.350101,-10732.986159,766.095498
976.567820,666.185348,-10658.965565,306.438199
976.568144,444.123565,-10955.047942,-153.219100
976.568468,740.205942,-11621.233289,-229.828649
976.568792,1036.288319,-11769.274478,-689.485948
976.569116,740.205942,-10214.842000,-689.485948
976.569440,1110.308913,-10510.924376,-383.047749
976.569764,1332.370696,-10436.903782,-153.219100
976.570088,740.205942,-10288.862594,-153.219100
976.570412,296.082377,-10658.965565,153.219100
976.570736,74.020594,-10214.842000,-383.047749
976.571061,0.000000,-9622.677246,-612.876398
976.571385,0.000000,-9030.512492,76.609550
976.571709,518.144159,-9474.636058,919.314598
976.572033,1480.411884,-9474.636058,612.876398
976.572357,740.205942,-8956.491898,459.657299
976.572681,-222.061783,-8808.450710,229.828649
976.573005,-444.123565,-9178.553681,0.000000
976.573329,370.102971,-8586.388927,536.266849
976.573653,1184.329507,-8290.306550,0.000000
976.573977,814.226536,-8068.244768,1455.581446
976.574301,740.205942,-7698.141797,0.000000
976.574625,296.082377,-7698.141797,-536.266849
976.574949,0.000000,-8216.285956,-153.219100
976.575273,592.164754,-8660.409521,-306.438199
976.575597,592.164754,-9030.512492,306.438199
976.575921,-444.123565,-9178.553681,766.095498
976.576245,-888.247130,-8364.327145,-306.438199
976.576569,-1036.288319,-8216.285956,-612.876398
976.576893,-1184.329507,-9104.533087,689.485948
976.577217,-666.185348,-10214.842000,-153.219100
976.577541,-296.082377,-9104.533087,0.000000
976.577865,-740.205942,-8660.409521,459.657299
976.578189,-888.247130,-9252.574275,383.047749
976.578513,222.061783,-10140.821405,-306.438199
976.578837,-222.061783,-10140.821405,-766.095498
976.579161,-1036.288319,-10288.862594,-612.876398
976.579485,-1036.288319,-9992.780217,-842.705048
976.579809,-814.226536,-10658.965565,-766.095498
976.580133,-888.247130,-10955.047942,-229.828649
976.580457,-666.185348,-10732.986159,-1072.533697
976.580781,-444.123565,-9622.677246,-1378.971896
976.581105,-1258.350101,-10288.862594,-612.876398
976.581429,-1702.473667,-10955.047942,-612.876398
976.581753,-962.267725,-10732.986159,-306.438199
976.582077,-518.144159,-10584.944971,0.000000
976.582401,222.061783,-10510.924376,-153.219100
976.582725,444.123565,-10881.027347,-306.438199
976.583049,0.000000,-10881.027347,-306.438199
976.583373,0.000000,-11399.171507,306.438199
976.583697,814.226536,-11695.253884,1149.143247
976.584021,666.185348,-11177.109724,0.000000
976.584345,0.000000,-10066.800811,-306.438199
976.584669,-962.267725,-10214.842000,-612.876398
976.584993,-740.205942,-10658.965565,-689.485948
976.585318,74.020594,-10140.821405,-76.609550
976.585642,814.226536,-9992.780217,612.876398
976.585966,1628.453072,-9326.594869,1149.143247
976.586290,1406.391290,-8660.409521,459.657299
976.586614,740.205942,-8586.388927,536.266849
976.586938,-740.205942,-9104.533087,153.219100
976.587262,-962.267725,-9918.759623,-306.438199
976.587586,-666.185348,-9030.512492,459.657299
976.587910,-666.185348,-8216.285956,842.705048
976.588234,0.000000,-7994.224174,459.657299
976.588558,148.041188,-8586.388927,919.314598
976.588882,1332.370696,-9030.512492,1225.752797
976.589206,1628.453072,-8586.388927,1302.362347
976.589530,1036.288319,-8512.368333,1378.971896
976.589854,962.267725,-8586.388927,995.924147
976.590178,888.247130,-8290.306550,1149.143247
976.590502,1036.288319,-8660.409521,1149.143247
976.590826,814.226536,-8512.368333,383.047749
976.591150,296.082377,-8068.244768,0.000000
976.591474,-888.247130,-8290.306550,0.000000
976.591798,-148.041188,-8808.450710,-383.047749
976.592122,814.226536,-9770.718434,-766.095498
976.592446,1258.350101,-9474.636058,-766.095498
976.592770,1184.329507,-9252.574275,0.000000
976.593094,814.226536,-10066.800811,0.000000
976.593418,962.267725,-10362.883188,-383.047749
976.593742,0.000000,-9474.636058,306.438199
976.594066,-148.041188,-9548.656652,0.000000
976.594390,0.000000,-9622.677246,-306.438199
976.594714,-1036.288319,-10362.883188,-689.485948
976.595038,-1702.473667,-10140.821405,-612.876398
976.595362,-1406.391290,-9844.739029,-689.485948
976.595686,-296.082377,-10362.883188,-919.314598
976.596010,222.061783,-11251.130318,0.000000
976.596334,0.000000,-11473.192101,-229.828649
976.596658,-148.041188,-11473.192101,-842.705048
976.596982,-592.164754,-10658.965565,-1225.752797
976.597306,-1184.329507,-10955.047942,-1838.629195
976.597630,-1554.432478,-10955.047942,-1532.190996
976.597954,-1184.329507,-10732.986159,-1302.362347
976.598278,-814.226536,-11325.150913,-1378.971896
976.598602,-370.102971,-10732.986159,-383.047749
976.598926,0.000000,-10955.047942,153.219100
976.599251,444.123565,-10955.047942,0.000000
976.599575,444.123565,-10288.862594,-459.657299
976.599899,-666.185348,-9992.780217,-153.219100
976.600223,-592.164754,-10066.800811,0.000000
976.600547,-592.164754,-10214.842000,153.219100
976.600871,-888.247130,-9548.656652,-842.705048
976.601195,-1776.494261,-7994.224174,-153.219100
976.601519,-2368.659014,-8882.471304,-842.705048
976.601843,-1628.453072,-9474.636058,-1072.533697
976.602167,0.000000,-8808.450710,-612.876398
976.602491,1480.411884,-7624.121203,0.000000
976.602815,1776.494261,-7698.141797,536.266849
976.603139,1406.391290,-9474.636058,1149.143247
976.603463,592.164754,-9622.677246,995.924147
976.603787,0.000000,-8734.430116,1072.533697
976.604111,-666.185348,-8586.388927,306.438199
976.604435,-370.102971,-8438.347739,306.438199
976.604759,0.000000,-8882.471304,229.828649
976.605083,74.020594,-8660.409521,536.266849
976.605407,74.020594,-7846.182985,383.047749
976.605731,0.000000,-7624.121203,0.000000
976.606055,1628.453072,-7772.162391,612.876398
976.606379,1036.288319,-9326.594869,229.828649
976.606703,370.102971,-9622.677246,306.438199
976.607027,666.185348,-8512.368333,-383.047749
976.607351,962.267725,-8660.409521,-689.485948
976.607675,888.247130,-9326.594869,-995.924147
976.607999,1258.350101,-10140.821405,-1225.752797
976.608323,1110.308913,-10584.944971,-306.438199
976.608647,370.102971,-9844.739029,-842.705048
976.608971,222.061783,-9770.718434,-766.095498
976.609295,962.267725,-10288.862594,-689.485948
976.609619,1184.329507,-11251.130318,0.000000
976.609943,1332.370696,-11695.253884,-153.219100
976.610267,74.020594,-10436.903782,-766.095498
976.610591,-962.267725,-10510.924376,-612.876398
976.610915,0.000000,-11103.089130,-1455.581446
976.611239,518.144159,-10510.924376,-766.095498
976.611563,0.000000,-10510.924376,-612.876398
976.611887,-370.102971,-10881.027347,-536.266849
976.612211,0.000000,-10955.047942,-536.266849
976.612535,740.205942,-10955.047942,-536.266849
976.612859,0.000000,-9992.780217,-689.485948
976.613183,74.020594,-10288.862594,-612.876398
976.613508,74.020594,-10658.965565,-229.828649
976.613832,962.267725,-11399.171507,153.219100
976.614156,740.205942,-10066.800811,-229.828649
976.614480,-296.082377,-9178.553681,0.000000
976.614804,-1850.514855,-9400.615463,0.000000
976.615128,-2220.617826,-10732.986159,-536.266849
976.615452,-1776.494261,-9400.615463,-229.828649
976.615776,-1924.535449,-8586.388927,0.000000
976.616100,-1554.432478,-8882.471304,766.095498
976.616424,-666.185348,-9400.615463,1072.533697
976.616748,296.082377,-9622.677246,1149.143247
976.617072,0.000000,-9622.677246,1455.581446
976.617396,0.000000,-8734.430116,306.438199
976.617720,-296.082377,-8142.265362,-459.657299
976.618044,-1036.288319,-7698.141797,0.000000
976.618368,-1554.432478,-9104.533087,-306.438199
976.618692,-2220.617826,-9474.636058,0.000000
976.619016,-2516.700203,-9252.574275,-383.047749
976.619340,-1998.556043,-8512.368333,-229.828649
976.619664,-1332.370696,-8142.265362,0.000000
976.619988,0.000000,-8808.450710,229.828649
976.620312,0.000000,-9030.512492,1302.362347
976.620636,888.247130,-9474.636058,1915.238745
976.620960,1110.308913,-9844.739029,995.924147
976.621284,1628.453072,-9178.553681,1302.362347
976.621608,1850.514855,-9104.533087,1072.533697
976.621932,1628.453072,-9326.594869,1072.533697
976.622256,1480.411884,-9474.636058,536.266849
976.622580,592.164754,-9252.574275,153.219100
976.622904,296.082377,-9030.512492,229.828649
976.623228,1110.308913,-9474.636058,-306.438199
976.623552,1406.391290,-9696.697840,-842.705048
976.623876,592.164754,-9326.594869,-459.657299
976.624200,0.000000,-9844.739029,0.000000
976.624524,74.020594,-10214.842000,0.000000
976.624848,-592.164754,-9474.636058,0.000000
976.625172,-888.247130,-9474.636058,-153.219100
976.625496,-222.061783,-10436.903782,0.000000
976.625820,1628.453072,-10510.924376,76.609550
976.626144,2442.679609,-10955.047942,842.705048
976.626468,1924.535449,-10362.883188,612.876398
976.626792,962.267725,-10436.903782,0.000000
976.627116,1036.288319,-10955.047942,0.000000
976.627440,1036.288319,-10658.965565,-536.266849
976.627765,1702.473667,-10955.047942,-536.266849
976.628089,1332.370696,-10658.965565,229.828649
976.628413,0.000000,-11103.089130,0.000000
976.628737,-296.082377,-11103.089130,-229.828649
976.629061,-296.082377,-9622.677246,-766.095498
976.629385,-888.247130,-9104.533087,-1838.629195
976.629709,-1258.350101,-9178.553681,-2068.457845
976.630033,-1554.432478,-9326.594869,-1302.362347
976.630357,-1036.288319,-9918.759623,383.047749
976.630681,-962.267725,-9844.739029,536.266849
976.631005,-1406.391290,-8660.409521,-689.485948
976.631329,-2368.659014,-8290.306550,-1149.143247
976.631653,-2590.720797,-9474.636058,-689.485948
976.631977,-1850.514855,-10436.903782,-612.876398
976.632301,-962.267725,-9548.656652,842.705048
976.632625,-148.041188,-9622.677246,536.266849
976.632949,1332.370696,-9696.697840,1072.533697
976.633273,1924.535449,-9770.718434,306.438199
976.633597,1184.329507,-9696.697840,383.047749
976.633921,444.123565,-10436.903782,229.828649
976.634245,74.020594,-10066.800811,-612.876398
976.634569,296.082377,-8956.491898,-153.219100
976.634893,-296.082377,-8660.409521,383.047749
976.635217,-1406.391290,-9474.636058,-995.924147
976.635541,-2590.720797,-9400.615463,-919.314598
976.635865,-2072.576638,-9400.615463,0.000000
976.636189,-592.164754,-9622.677246,0.000000
976.636513,518.144159,-8586.388927,229.828649
976.636837,814.226536,-7698.141797,1685.410096
976.637161,740.205942,-9252.574275,1455.581446
976.637485,0.000000,-9252.574275,536.266849
976.637809,0.000000,-8956.491898,229.828649
976.638133,222.061783,-8586.388927,766.095498
976.638457,740.205942,-9400.615463,306.438199
976.638781,296.082377,-9548.656652,612.876398
976.639105,296.082377,-9178.553681,383.047749
976.639429,222.061783,-9252.574275,229.828649
976.639753,148.041188,-9474.636058,-383.047749
976.640077,-740.205942,-9104.533087,-459.657299
976.640401,-1628.453072,-9400.615463,-536.266849
976.640725,-962.267725,-9918.759623,-153.219100
976.641049,148.041188,-10732.986159,0.000000
976.641373,888.247130,-10436.903782,153.219100
976.641697,518.144159,-9844.739029,459.657299
976.642021,370.102971,-10362.883188,76.609550
976.642345,0.000000,-9992.780217,-766.095498
976.642669,296.082377,-9474.636058,0.000000
976.642992,222.061783,-10510.924376,229.828649
976.643316,74.020594,-11325.150913,-306.438199
976.643640,-370.102971,-9992.780217,-1302.362347
976.643964,-1036.288319,-8438.347739,-919.314598
976.644288,-444.123565,-9696.697840,-153.219100
976.644612,1406.391290,-11251.130318,-383.047749
976.644936,1332.370696,-10510.924376,229.828649
976.645260,444.123565,-9474.636058,229.828649
976.645584,-148.041188,-9326.594869,-229.828649
976.645908,0.000000,-9844.739029,-766.095498
976.646232,444.123565,-10658.965565,0.000000
976.646556,1184.329507,-10510.924376,612.876398
976.646880,1332.370696,-10955.047942,-306.438199
976.647204,518.144159,-10140.821405,76.609550
976.647528,-148.041188,-9474.636058,76.609550
976.647852,444.123565,-10066.800811,-842.705048
976.648176,-296.082377,-9400.615463,-842.705048
976.648500,-1776.494261,-9252.574275,-229.828649
976.648824,-1702.473667,-9622.677246,-229.828649
976.649148,-1036.288319,-9474.636058,-153.219100
976.649472,-444.123565,-9252.574275,536.266849
976.649796,592.164754,-8660.409521,0.000000
976.650120,148.041188,-8882.471304,-383.047749
976.650444,74.020594,-9992.780217,76.609550
976.650768,-370.102971,-9696.697840,229.828649
976.651092,-444.123565,-9474.636058,306.438199
976.651416,0.000000,-9326.594869,536.266849
976.651740,148.041188,-9992.780217,-689.485948
976.652064,444.123565,-10732.986159,-1072.533697
976.652388,296.082377,-9474.636058,-689.485948
976.652712,444.123565,-9548.656652,306.438199
976.653036,0.000000,-9844.739029,229.828649
976.653360,-148.041188,-9400.615463,-153.219100
976.653684,-888.247130,-9252.574275,689.485948
976.654008,-444.123565,-9030.512492,0.000000
976.654332,148.041188,-9474.636058,0.000000
976.654656,0.000000,-9770.718434,306.438199
976.654980,-592.164754,-9622.677246,1532.190996
976.655304,-370.102971,-9918.759623,995.924147
976.655628,-740.205942,-9252.574275,306.438199
976.655952,-1332.370696,-7846.182985,0.000000
976.656276,-814.226536,-7994.224174,-459.657299
976.656600,-518.144159,-9030.512492,0.000000
976.656924,0.000000,-9252.574275,459.657299
976.657248,148.041188,-9104.533087,153.219100
976.657572,592.164754,-8808.450710,536.266849
976.657896,1480.411884,-9770.718434,229.828649
976.658220,1850.514855,-9844.739029,0.000000
976.658544,1332.370696,-9548.656652,-306.438199
976.658868,296.082377,-9696.697840,-306.438199
976.659192,444.123565,-10288.862594,-306.438199
976.659515,1554.432478,-10955.047942,612.876398
976.659839,1776.494261,-10066.800811,0.000000
976.660163,1036.288319,-9548.656652,459.657299
976.660487,-592.164754,-10436.903782,-536.266849
976.660811,-1628.453072,-10584.944971,-919.314598
976.661135,-1628.453072,-10362.883188,-153.219100
976.661459,-1332.370696,-9918.759623,0.000000
976.661783,-962.267725,-9104.533087,0.000000
976.662107,-1184.329507,-9992.780217,-995.924147
976.662431,-1776.494261,-10288.862594,-306.438199
976.662755,-962.267725,-10066.800811,-689.485948
976.663079,0.000000,-9178.553681,-1072.533697
976.663403,148.041188,-8216.285956,-919.314598
976.663727,666.185348,-9474.636058,-919.314598
976.664051,296.082377,-9992.780217,-766.095498
976.664375,-444.123565,-9696.697840,-1225.752797
976.664699,-1110.308913,-10436.903782,-1072.533697
976.665023,-148.041188,-10881.027347,-229.828649
976.665347,1924.535449,-11103.089130,0.000000
976.665671,3256.906145,-10140.821405,766.095498
976.665995,3478.967927,-9104.533087,1149.143247
976.666319,1924.535449,-10140.821405,689.485948
976.666643,148.041188,-11103.089130,-612.876398
976.666967,-1110.308913,-9844.739029,-153.219100
976.667291,-1776.494261,-9252.574275,0.000000
976.667615,-1258.350101,-10066.800811,-153.219100
976.667939,-1554.432478,-10214.842000,-919.314598
976.668263,-2220.617826,-8882.471304,-919.314598
976.668587,-2812.782580,-8882.471304,-1455.581446
976.668911,-2664.741391,-9622.677246,-689.485948
976.669235,-1480.411884,-9474.636058,76.609550
976.669559,592.164754,-9326.594869,766.095498
976.669883,1702.473667,-8808.450710,766.095498
976.670207,1776.494261,-8808.450710,1225.752797
976.670531,1406.391290,-9696.697840,1378.971896
976.670855,1554.432478,-10214.842000,995.924147
976.671179,1554.432478,-9178.553681,1225.752797
976.671503,1628.453072,-7846.182985,919.314598
976.671827,1258.350101,-9326.594869,995.924147
976.672151,1702.473667,-9696.697840,0.000000
976.672475,74.020594,-8290.306550,-153.219100
976.672799,-1702.473667,-9252.574275,612.876398
976.673123,-1184.329507,-9326.594869,-229.828649
976.673447,74.020594,-8586.388927,-153.219100
976.673771,-888.247130,-7994.224174,0.000000
976.674095,-1406.391290,-8290.306550,-306.438199
976.674419,-888.247130,-9622.677246,0.000000
976.674743,-222.061783,-9696.697840,612.876398
976.675067,-222.061783,-9548.656652,689.485948
976.675391,-592.164754,-9696.697840,995.924147
976.675715,0.000000,-9696.697840,0.000000
976.676038,296.082377,-10436.903782,306.438199
976.676362,518.144159,-10362.883188,-1072.533697
976.676686,592.164754,-9252.574275,-153.219100
976.677010,0.000000,-10658.965565,-306.438199
976.677334,-370.102971,-11251.130318,-919.314598
976.677658,0.000000,-10658.965565,76.609550
976.677982,888.247130,-11103.089130,459.657299
976.678306,666.185348,-11103.089130,229.828649
976.678630,666.185348,-10066.800811,0.000000
976.678954,518.144159,-9030.512492,-459.657299
976.679278,666.185348,-9548.656652,459.657299
976.679602,814.226536,-10584.944971,383.047749
976.679926,1036.288319,-10140.821405,459.657299
976.680250,444.123565,-9030.512492,0.000000
976.680574,-592.164754,-8882.471304,-1225.752797
976.680898,-1924.535449,-9178.553681,-689.485948
976.681222,-2072.576638,-9992.780217,-459.657299
976.681546,-740.205942,-10288.862594,-612.876398
976.681870,-1036.288319,-8882.471304,-612.876398
976.682194,-1702.473667,-8734.430116,-766.095498
976.682518,-1480.411884,-9252.574275,-842.705048
976.682842,-666.185348,-10584.944971,153.219100
976.683166,518.144159,-10214.842000,612.876398
976.683490,1184.329507,-9622.677246,383.047749
976.683814,222.061783,-9770.718434,153.219100
976.684138,962.267725,-9770.718434,-229.828649
976.684462,1332.370696,-9992.780217,-306.438199
976.684786,592.164754,-10510.924376,-766.095498
976.685110,-1036.288319,-9992.780217,-1149.143247
976.685434,-1628.453072,-10214.842000,-1532.190996
976.685758,-1850.514855,-9770.718434,-2451.505594
976.686082,-888.247130,-9104.533087,-1532.190996
976.686406,-296.082377,-9474.636058,-459.657299
976.686730,814.226536,-10362.883188,-229.828649
976.687054,1776.494261,-9918.759623,612.876398
976.687378,1850.514855,-9400.615463,1072.533697
976.687702,1850.514855,-9400.615463,995.924147
976.688026,1258.350101,-10510.924376,1225.752797
976.688350,814.226536,-9474.636058,689.485948
976.688674,814.226536,-9178.553681,995.924147
976.688998,-888.247130,-8734.430116,0.000000
976.689322,-888.247130,-9178.553681,-383.047749
976.689646,-444.123565,-9252.574275,0.000000
976.689970,814.226536,-9252.574275,0.000000
976.690294,1184.329507,-9326.594869,842.705048
976.690618,222.061783,-8956.491898,919.314598
976.690942,-148.041188,-8586.388927,459.657299
976.691266,-222.061783,-8808.450710,-153.219100
976.691590,-518.144159,-9770.718434,0.000000
976.691914,-222.061783,-10362.883188,153.219100
976.692238,0.000000,-10066.800811,612.876398
976.692561,148.041188,-9548.656652,1149.143247
976.692885,962.267725,-8956.491898,306.438199
976.693209,814.226536,-8734.430116,0.000000
976.693533,888.247130,-9474.636058,-306.438199
976.693857,592.164754,-10214.842000,-153.219100
976.694181,-148.041188,-10066.800811,0.000000
976.694505,-814.226536,-9992.780217,459.657299
976.694829,-370.102971,-10214.842000,612.876398
976.695153,592.164754,-9918.759623,0.000000
976.695477,0.000000,-8660.409521,-536.266849
976.695801,-962.267725,-9548.656652,0.000000
976.696125,-296.082377,-10658.965565,383.047749
976.696449,296.082377,-10955.047942,306.438199
976.696773,222.061783,-9696.697840,612.876398
976.697097,0.000000,-9326.594869,153.219100
976.697421,-1258.350101,-9622.677246,-536.266849
976.697745,-1702.473667,-10214.842000,0.000000
976.698069,-1628.453072,-10807.006753,0.000000
976.698393,-2368.659014,-9770.718434,-842.705048
976.698717,-3256.906145,-9474.636058,-306.438199
976.699041,-2886.803174,-9918.759623,-919.314598
976.699365,-2294.638420,-10658.965565,-536.266849
976.699689,-1480.411884,-9918.759623,0.000000
976.700013,-666.185348,-9474.636058,-76.609550
976.700337,592.164754,-9622.677246,842.705048
976.700661,1628.453072,-9918.759623,1225.752797
976.700985,2368.659014,-10436.903782,1302.362347
976.701309,2516.700203,-9400.615463,536.266849
976.701633,2960.823768,-8956.491898,0.000000
976.701957,2590.720797,-10288.862594,689.485948
976.702281,1850.514855,-10732.986159,995.924147
976.702605,1332.370696,-10214.842000,76.609550
976.702929,0.000000,-7920.203579,76.609550
976.703253,-1924.535449,-7328.038826,-1072.533697
976.703577,-1924.535449,-8660.409521,-995.924147
976.703901,-1554.432478,-8438.347739,-766.095498
976.704225,-814.226536,-8290.306550,-229.828649
976.704549,-592.164754,-8216.285956,689.485948
976.704873,0.000000,-8586.388927,842.705048
976.705197,-148.041188,-9326.594869,612.876398
976.705521,-370.102971,-9474.636058,459.657299
976.705845,0.000000,-9918.759623,306.438199
976.706169,-296.082377,-10214.842000,459.657299
976.706493,148.041188,-10510.924376,383.047749
976.706817,148.041188,-10140.821405,842.705048
976.707141,740.205942,-9844.739029,536.266849
976.707465,1480.411884,-9992.780217,76.609550
976.707789,1406.391290,-9844.739029,0.000000
976.708113,296.082377,-9474.636058,0.000000
976.708437,296.082377,-9548.656652,229.828649
976.708761,518.144159,-9770.718434,459.657299
976.709084,740.205942,-9474.636058,306.438199
976.709408,444.123565,-9104.533087,-229.828649
976.709732,0.000000,-8882.471304,153.219100
976.710056,74.020594,-9104.533087,306.438199
976.710380,888.247130,-9844.739029,459.657299
976.710704,518.144159,-9252.574275,536.266849
976.711028,-444.123565,-8290.306550,-459.657299
976.711352,-740.205942,-8956.491898,-536.266849
976.711676,-148.041188,-10140.821405,-306.438199
976.712000,0.000000,-9844.739029,-919.314598
976.712324,-444.123565,-9474.636058,-689.485948
976.712648,-592.164754,-10066.800811,-229.828649
976.712972,0.000000,-11177.109724,-995.924147
976.713296,222.061783,-10881.027347,-229.828649
976.713620,666.185348,-11029.068536,76.609550
976.713944,296.082377,-11473.192101,153.219100
976.714268,74.020594,-11325.150913,-689.485948
976.714592,-222.061783,-10066.800811,0.000000
976.714916,0.000000,-10362.883188,229.828649
976.715240,814.226536,-11029.068536,-919.314598
976.715564,0.000000,-9844.739029,0.000000
976.715888,-1702.473667,-9474.636058,-383.047749
976.716212,-2368.659014,-9178.553681,-1225.752797
976.716536,-2072.576638,-9104.533087,-995.924147
976.716860,-888.247130,-9178.553681,-383.047749
976.717184,-148.041188,-9030.512492,-612.876398
976.717508,0.000000,-9178.553681,0.000000
976.717832,444.123565,-8808.450710,0.000000
976.718156,740.205942,-8882.471304,-229.828649
976.718480,592.164754,-8956.491898,-229.828649
976.718804,296.082377,-8882.471304,0.000000
976.719128,-518.144159,-10140.821405,0.000000
976.719452,-444.123565,-9992.780217,-612.876398
976.719776,-444.123565,-9252.574275,-153.219100
976.720100,74.020594,-9844.739029,0.000000
976.720424,962.267725,-9844.739029,0.000000
976.720748,1110.308913,-9770.718434,306.438199
976.721072,592.164754,-9770.718434,766.095498
976.721396,296.082377,-10066.800811,612.876398
976.721720,0.000000,-10066.800811,229.828649
976.722044,-666.185348,-8586.388927,536.266849
976.722368,-296.082377,-8586.388927,-306.438199
976.722692,-296.082377,-9770.718434,0.000000
976.723016,-222.061783,-9030.512492,229.828649
976.723340,0.000000,-9622.677246,612.876398
976.723664,444.123565,-10066.800811,76.609550
976.723988,370.102971,-9400.615463,0.000000
976.724312,0.000000,-8734.430116,0.000000
976.724636,148.041188,-9474.636058,153.219100
976.724960,740.205942,-9844.739029,919.314598
976.725284,1332.370696,-10584.944971,766.095498
976.725608,1184.329507,-9474.636058,1072.533697
976.725931,1776.494261,-9696.697840,229.828649
976.726255,1110.308913,-9326.594869,0.000000
976.726579,0.000000,-9326.594869,306.438199
976.726903,-888.247130,-9992.780217,-842.705048
976.727227,-962.267725,-9844.739029,-383.047749
976.727551,-814.226536,-9918.759623,0.000000
976.727875,-740.205942,-9622.677246,-459.657299
976.728199,-1184.329507,-9474.636058,-689.485948
976.728523,-1776.494261,-9770.718434,-536.266849
976.728847,-1036.288319,-9844.739029,-689.485948
976.729171,0.000000,-10362.883188,689.485948
976.729495,0.000000,-10732.986159,459.657299
976.729819,-148.041188,-9696.697840,76.609550
976.730143,-222.061783,-9992.780217,612.876398
976.730467,222.061783,-10510.924376,153.219100
976.730791,-222.061783,-10436.903782,153.219100
976.731115,-1036.288319,-10214.842000,0.000000
976.731439,-962.267725,-9252.574275,0.000000
976.731763,-296.082377,-10436.903782,76.609550
976.732087,-444.123565,-9696.697840,-306.438199
976.732411,-888.247130,-8808.450710,0.000000
976.732735,-1554.432478,-9918.759623,-383.047749
976.733059,-1480.411884,-10066.800811,-842.705048
976.733383,-518.144159,-9030.512492,0.000000
976.733707,444.123565,-8808.450710,153.219100
976.734031,1036.288319,-8956.491898,689.485948
976.734355,814.226536,-9622.677246,153.219100
976.734679,-296.082377,-9030.512492,459.657299
976.735003,-1036.288319,-8586.388927,-153.219100
976.735329,-518.144159,-9474.636058,-536.266849
976.735654,0.000000,-9696.697840,-153.219100
976.735978,0.000000,-9992.780217,-459.657299
976.736302,-370.102971,-9844.739029,-383.047749
976.736626,370.102971,-9622.677246,0.000000
976.736950,1110.308913,-10214.842000,459.657299
976.737274,1258.350101,-10066.800811,76.609550
976.737598,222.061783,-9844.739029,0.000000
976.737922,-222.061783,-10436.903782,-1149.143247
976.738246,-518.144159,-9696.697840,-842.705048
976.738570,-444.123565,-10066.800811,-1072.533697
976.738894,0.000000,-9844.739029,-766.095498
976.739218,148.041188,-9992.780217,842.705048
976.739542,888.247130,-10288.862594,306.438199
976.739867,1702.473667,-9178.553681,536.266849
976.740191,2664.741391,-9326.594869,842.705048
976.740515,2590.720797,-9696.697840,76.609550
976.740839,1702.473667,-9252.574275,153.219100
976.741163,592.164754,-9548.656652,459.657299
976.741487,0.000000,-9918.759623,842.705048
976.741811,74.020594,-10066.800811,-76.609550
976.742135,-444.123565,-8956.491898,-995.924147
976.742459,-148.041188,-8734.430116,-689.485948
976.742783,-592.164754,-9252.574275,-842.705048
976.743107,-222.061783,-9474.636058,-306.438199
976.743431,-296.082377,-9030.512492,536.266849
976.743755,-296.082377,-8882.471304,76.609550
976.744080,-148.041188,-8734.430116,0.000000
976.744404,0.000000,-8808.450710,-153.219100
976.744728,370.102971,-9622.677246,-153.219100
976.745052,1554.432478,-9770.718434,536.266849
976.745376,962.267725,-9918.759623,-153.219100
976.745700,74.020594,-9474.636058,383.047749
976.746024,-666.185348,-9696.697840,383.047749
976.746348,-1036.288319,-10732.986159,-229.828649
976.746672,-1776.494261,-10584.944971,-306.438199
976.746996,-1776.494261,-10066.800811,153.219100
976.747320,-1332.370696,-10658.965565,919.314598
976.747644,-1184.329507,-10881.027347,995.924147
976.747968,-1258.350101,-10584.944971,229.828649
976.748293,-1998.556043,-9400.615463,153.219100
976.748617,-2072.576638,-9622.677246,-459.657299
976.748941,-1480.411884,-10510.924376,0.000000
976.749265,-962.267725,-9844.739029,0.000000
976.749589,-888.247130,-8882.471304,-689.485948
976.749913,0.000000,-8290.306550,-1072.533697
976.750237,0.000000,-9178.553681,-919.314598
976.750561,962.267725,-10436.903782,-459.657299
976.750885,1110.308913,-10066.800811,153.219100
976.751209,518.144159,-9770.718434,153.219100
976.751533,666.185348,-9474.636058,0.000000
976.751857,296.082377,-9252.574275,-229.828649
976.752181,-296.082377,-9992.780217,-1608.800546
976.752506,-148.041188,-9326.594869,-153.219100
976.752830,0.000000,-9992.780217,-383.047749
976.753154,74.020594,-10658.965565,76.609550
976.753478,666.185348,-10066.800811,689.485948
976.753802,370.102971,-9474.636058,-153.219100
976.754126,296.082377,-8808.450710,-383.047749
976.754450,-962.267725,-9474.636058,-536.266849
976.754774,-888.247130,-11251.130318,0.000000
976.755098,-518.144159,-10510.924376,76.609550
976.755422,0.000000,-9548.656652,0.000000
976.755746,370.102971,-8586.388927,0.000000
976.756070,444.123565,-9030.512492,-306.438199
976.756395,444.123565,-9844.739029,-536.266849
976.756719,370.102971,-9178.553681,-459.657299
976.757043,1258.350101,-9548.656652,766.095498
976.757367,1184.329507,-9622.677246,1378.971896
976.757691,814.226536,-9252.574275,1685.410096
976.758015,888.247130,-8808.450710,842.705048
976.758339,814.226536,-8068.244768,536.266849
976.758663,370.102971,-7772.162391,153.219100
976.758987,0.000000,-8734.430116,383.047749
976.759311,-148.041188,-7846.182985,536.266849
976.759635,-370.102971,-7624.121203,0.000000
976.759959,-296.082377,-8216.285956,0.000000
976.760283,222.061783,-9474.636058,-306.438199
976.760608,1110.308913,-10140.821405,306.438199
976.760932,2146.597232,-9918.759623,383.047749
976.761256,1924.535449,-9474.636058,-536.266849
976.761580,296.082377,-9770.718434,-919.314598
976.761904,-370.102971,-10436.903782,-306.438199
976.762228,-592.164754,-12361.439231,0.000000
976.762552,-222.061783,-11843.295072,-536.266849
976.762876,-1110.308913,-10658.965565,0.000000
976.763200,-1332.370696,-11103.089130,76.609550
976.763524,-444.123565,-11177.109724,0.000000
976.763848,-222.061783,-11621.233289,-153.219100
976.764172,-1628.453072,-10436.903782,76.609550
976.764496,-1184.329507,-10066.800811,0.000000
976.764821,-1406.391290,-10362.883188,-919.314598
976.765145,-1628.453072,-9770.718434,-306.438199
976.765469,-1998.556043,-8734.430116,-1149.143247
976.765793,-1850.514855,-8956.491898,-1838.629195
976.766117,-1776.494261,-9844.739029,-1302.362347
976.766441,-740.205942,-9992.780217,-842.705048
976.766765,74.020594,-9622.677246,153.219100
976.767089,74.020594,-8734.430116,-153.219100
976.767413,1480.411884,-8956.491898,153.219100
976.767737,2368.659014,-9770.718434,536.266849
976.768061,2072.576638,-10881.027347,0.000000
976.768385,888.247130,-10214.842000,766.095498
976.768709,0.000000,-9474.636058,766.095498
976.769034,-222.061783,-9252.574275,-229.828649
976.769358,-666.185348,-8734.430116,-919.314598
976.769682,-1850.514855,-9696.697840,-1302.362347
976.770006,-2886.803174,-10732.986159,-766.095498
976.770330,-2146.597232,-9992.780217,-995.924147
976.770654,-962.267725,-9178.553681,-536.266849
976.770978,74.020594,-8438.347739,995.924147
976.771302,1258.350101,-8808.450710,306.438199
976.771626,1776.494261,-9252.574275,612.876398
976.771950,1036.288319,-9326.594869,1225.752797
976.772274,1258.350101,-10140.821405,766.095498
976.772598,1258.350101,-9548.656652,766.095498
976.772922,518.144159,-7846.182985,536.266849
976.773247,148.041188,-7254.018232,0.000000
976.773571,592.164754,-7846.182985,306.438199
976.773895,962.267725,-8808.450710,0.000000
976.774219,1036.288319,-9030.512492,689.485948
976.774543,1480.411884,-8586.388927,766.095498
976.774867,1406.391290,-8142.265362,153.219100
976.775191,296.082377,-8142.265362,-153.219100
976.775515,-592.164754,-9326.594869,153.219100
976.775839,-370.102971,-10436.903782,-612.876398
976.776163,222.061783,-9326.594869,-612.876398
976.776487,-444.123565,-9030.512492,229.828649
976.776811,0.000000,-9696.697840,0.000000
976.777135,962.267725,-10214.842000,-612.876398
976.777460,962.267725,-10288.862594,0.000000
976.777784,962.267725,-10436.903782,-229.828649
976.778108,-296.082377,-10955.047942,-1072.533697
976.778432,-1332.370696,-11177.109724,-842.705048
976.778756,-1258.350101,-10881.027347,-995.924147
976.779080,0.000000,-11103.089130,-1225.752797
976.779404,1850.514855,-10436.903782,-1608.800546
976.779728,2146.597232,-10140.821405,-1149.143247
976.780052,1702.473667,-10436.903782,-919.314598
976.780376,814.226536,-10214.842000,-1149.143247
976.780700,0.000000,-10584.944971,-229.828649
976.781024,444.123565,-11103.089130,0.000000
976.781348,1036.288319,-10288.862594,229.828649
976.781673,962.267725,-9844.739029,-689.485948
976.781997,-222.061783,-9104.533087,-459.657299
976.782321,-518.144159,-9252.574275,-1225.752797
976.782645,-370.102971,-9474.636058,-2068.457845
976.782969,-592.164754,-9178.553681,-1225.752797
976.783293,-666.185348,-9326.594869,-2145.067394
976.783617,74.020594,-9178.553681,-2987.772442
976.783941,1258.350101,-9400.615463,-3140.991542
976.784265,1702.473667,-9992.780217,-2528.115143
976.784589,1184.329507,-10288.862594,-1532.190996
976.784913,962.267725,-10955.047942,-919.314598
976.785237,2072.576638,-10881.027347,-689.485948
976.785561,3034.844362,-10584.944971,-306.438199
976.785886,3552.988522,-10140.821405,-536.266849
976.786210,3923.091493,-9474.636058,-842.705048
976.786534,3478.967927,-8512.368333,-1072.533697
976.786858,1628.453072,-8438.347739,-2374.896044
976.787182,1036.288319,-8660.409521,-1991.848295
976.787506,1332.370696,-8882.471304,-2834.553343
976.787830,1554.432478,-7772.162391,-3447.429741
976.788154,1258.350101,-7254.018232,-3294.210641
976.788478,814.226536,-8660.409521,-3600.648841
976.788802,0.000000,-9474.636058,-3370.820191
976.789126,666.185348,-9326.594869,-3447.429741
976.789450,2294.638420,-9104.533087,-2757.943793
976.789775,4145.153275,-9696.697840,-1991.848295
976.790099,5033.400406,-9696.697840,-2221.676944
976.790423,4737.318029,-9104.533087,-1302.362347
976.790747,4663.297435,-10066.800811,-1455.581446
976.791071,4145.153275,-10214.842000,-995.924147
976.791395,4811.338623,-10140.821405,-229.828649
976.791719,4219.173869,-10140.821405,-306.438199
976.792043,3330.926739,-9844.739029,-1302.362347
976.792367,2072.576638,-9622.677246,-1838.629195
976.792691,740.205942,-10214.842000,-2451.505594
976.793015,296.082377,-9918.759623,-2911.162892
976.793339,666.185348,-9178.553681,-3064.381992
976.793663,518.144159,-8882.471304,-3830.477490
976.793988,148.041188,-8586.388927,-4443.353888
976.794312,-148.041188,-7920.203579,-3677.258390
976.794636,148.041188,-9474.636058,-4596.572988
976.794960,592.164754,-9770.718434,-4290.134789
976.795284,2516.700203,-8512.368333,-2528.115143
976.795608,4737.318029,-9474.636058,-842.705048
976.795932,6439.791695,-11917.315666,0.000000
976.796256,6883.915261,-11843.295072,536.266849
976.796580,5033.400406,-10881.027347,1225.752797
976.796904,3552.988522,-11843.295072,-153.219100
976.797228,2442.679609,-11473.192101,-1378.971896
976.797552,1332.370696,-10140.821405,-1378.971896
976.797876,0.000000,-10140.821405,-2681.334243
976.798201,-888.247130,-9770.718434,-4290.134789
976.798525,-2146.597232,-8290.306550,-4979.620737
976.798849,-2886.803174,-8660.409521,-5132.839837
976.799173,-3034.844362,-7402.059420,-5822.325785
976.799497,-2146.597232,-7550.100608,-5209.449386
976.799821,-666.185348,-8512.368333,-3753.867940
976.800145,2072.576638,-9178.553681,-2374.896044
976.800469,4737.318029,-9992.780217,-1225.752797
976.800793,5995.668130,-11103.089130,842.705048
976.801117,6587.832884,-11473.192101,995.924147
976.801441,6587.832884,-11029.068536,1149.143247
976.801765,5329.482782,-11843.295072,1302.362347
976.802089,3775.050304,-11621.233289,306.438199
976.802414,2442.679609,-9622.677246,-1302.362347
976.802738,-148.041188,-9104.533087,-2681.334243
976.803062,-2220.617826,-9844.739029,-3753.867940
976.803386,-2886.803174,-8438.347739,-4903.011187
976.803710,-3923.091493,-7254.018232,-4979.620737
976.804034,-4293.194464,-8364.327145,-4749.792088
976.804358,-3034.844362,-9548.656652,-4366.744339
976.804682,-444.123565,-9030.512492,-3217.601092
976.805006,1776.494261,-9252.574275,-1838.629195
976.805330,3627.009116,-10362.883188,-995.924147
976.805654,5995.668130,-11177.109724,153.219100
976.805978,7550.100608,-11547.212695,842.705048
976.806302,7328.038826,-10510.924376,1225.752797
976.806627,5995.668130,-11325.150913,383.047749
976.806951,5255.462188,-11399.171507,-383.047749
976.807275,4367.215058,-10510.924376,-1455.581446
976.807599,1924.535449,-9178.553681,-2681.334243
976.807923,444.123565,-8734.430116,-3447.429741
976.808247,1036.288319,-8808.450710,-3064.381992
976.808571,1850.514855,-8142.265362,-2911.162892
976.808895,1554.432478,-6957.935855,-3447.429741
976.809219,222.061783,-6661.853478,-3370.820191
976.809543,0.000000,-8068.244768,-2681.334243
976.809867,2146.597232,-9474.636058,-1608.800546
976.810191,4145.153275,-9400.615463,-766.095498
976.810515,4885.359217,-9622.677246,-459.657299
976.810840,4367.215058,-10436.903782,0.000000
976.811164,4663.297435,-11029.068536,0.000000
976.811488,5551.544565,-10214.842000,306.438199
976.811812,5329.482782,-10066.800811,-689.485948
976.812136,3182.885551,-10510.924376,-1915.238745
976.812460,666.185348,-10362.883188,-2451.505594
976.812784,-518.144159,-9400.615463,-2987.772442
976.813108,0.000000,-8734.430116,-3217.601092
976.813432,444.123565,-8438.347739,-3447.429741
976.813756,666.185348,-7550.100608,-3447.429741
976.814080,814.226536,-7402.059420,-3064.381992
976.814404,1628.453072,-7994.224174,-2757.943793
976.814728,2368.659014,-8438.347739,-1685.410096
976.815053,2886.803174,-9252.574275,-842.705048
976.815377,3849.070898,-9548.656652,-536.266849
976.815701,5107.421000,-9992.780217,-919.314598
976.816025,4663.297435,-10066.800811,-995.924147
976.816349,2294.638420,-10732.986159,-1378.971896
976.816673,0.000000,-11473.192101,-2451.505594
976.816997,-888.247130,-10584.944971,-2528.115143
976.817321,74.020594,-9400.615463,-2911.162892
976.817645,740.205942,-9548.656652,-2987.772442
976.817969,0.000000,-10732.986159,-3907.087040
976.818293,-666.185348,-11399.171507,-4136.915689
976.818617,-1480.411884,-10584.944971,-3907.087040
976.818941,-148.041188,-9622.677246,-3447.429741
976.819266,1924.535449,-9622.677246,-2604.724693
976.819590,3552.988522,-10436.903782,-2528.115143
976.819914,3627.009116,-11325.150913,-3064.381992
976.820238,3108.864956,-11843.295072,-3217.601092
976.820562,2516.700203,-12065.356855,-2528.115143
976.820886,2146.597232,-11621.233289,-2834.553343
976.821210,1184.329507,-10584.944971,-2451.505594
976.821534,518.144159,-10288.862594,-3294.210641
976.821858,740.205942,-9474.636058,-2604.724693
976.822182,2516.700203,-9918.759623,-2604.724693
976.822506,3997.112087,-10140.821405,-2068.457845
976.822830,4071.132681,-9770.718434,-1532.190996
976.823154,3404.947333,-8364.327145,-919.314598
976.823479,1850.514855,-7772.162391,-1991.848295
976.823803,74.020594,-7994.224174,-2681.334243
976.824127,-740.205942,-7994.224174,-3294.210641
976.824451,0.000000,-8660.409521,-3677.258390
976.824775,1480.411884,-8734.430116,-3140.991542
976.825099,3701.029710,-8512.368333,-2451.505594
976.825423,5107.421000,-8734.430116,-2451.505594
976.825747,4737.318029,-8882.471304,-2528.115143
976.826071,3330.926739,-8586.388927,-2757.943793
976.826395,2664.741391,-8808.450710,-2145.067394
976.826719,2664.741391,-9252.574275,-1915.238745
976.827043,2738.761985,-9548.656652,-1455.581446
976.827368,3256.906145,-9548.656652,0.000000
976.827692,3478.967927,-9844.739029,0.000000
976.828016,3701.029710,-9474.636058,0.000000
976.828340,3330.926739,-8956.491898,306.438199
976.828664,2368.659014,-8438.347739,0.000000
976.828988,1998.556043,-8438.347739,-842.705048
976.829312,1258.350101,-8882.471304,-1762.019645
976.829636,370.102971,-9030.512492,-2298.286494
976.829960,-666.185348,-8882.471304,-3830.477490
976.830284,-1332.370696,-9030.512492,-4443.353888
976.830608,-1110.308913,-9252.574275,-4519.963438
976.830932,0.000000,-9326.594869,-3907.087040
976.831256,1776.494261,-9474.636058,-2451.505594
976.831581,3404.947333,-10436.903782,-1378.971896
976.831905,4737.318029,-11473.192101,-306.438199
976.832229,4663.297435,-11843.295072,229.828649
976.832553,4589.276840,-11917.315666,1225.752797
976.832877,4145.153275,-11843.295072,1378.971896
976.833201,3627.009116,-12139.377449,1378.971896
976.833525,2516.700203,-11695.253884,0.000000
976.833849,1332.370696,-11029.068536,-229.828649
976.834173,-814.226536,-10066.800811,-2221.676944
976.834497,-2072.576638,-9918.759623,-3524.039291
976.834821,-3330.926739,-9474.636058,-5209.449386
976.835145,-4293.194464,-8956.491898,-6128.763984
976.835469,-4071.132681,-8216.285956,-6128.763984
976.835794,-2294.638420,-7920.203579,-5439.278036
976.836118,1184.329507,-8142.265362,-3753.867940
976.836442,3997.112087,-8512.368333,-2145.067394
976.836766,6217.729913,-9548.656652,-383.047749
976.837090,7846.182985,-9696.697840,995.924147
976.837414,8290.306550,-11029.068536,1532.190996
976.837738,7698.141797,-11473.192101,1302.362347
976.838062,6735.874072,-11251.130318,1149.143247
976.838386,4737.318029,-11251.130318,306.438199
976.838710,2442.679609,-10955.047942,-2068.457845
976.839034,-962.267725,-10140.821405,-3677.258390
976.839358,-3997.112087,-9622.677246,-4596.572988
976.839682,-5033.400406,-8660.409521,-4749.792088
976.840006,-4515.256246,-7402.059420,-4903.011187
976.840330,-3701.029710,-6439.791695,-3677.258390
976.840654,-2294.638420,-6069.688724,-1991.848295
976.840978,592.164754,-7920.203579,-995.924147
976.841302,2220.617826,-9622.677246,229.828649
976.841627,3775.050304,-9696.697840,1455.581446
976.841951,4737.318029,-10214.842000,1608.800546
976.842275,3478.967927,-11325.150913,459.657299
976.842599,2590.720797,-10732.986159,-842.705048
976.842923,2072.576638,-11029.068536,-995.924147
976.843247,1628.453072,-12657.521608,-1532.190996
976.843571,814.226536,-12139.377449,-3064.381992
976.843895,296.082377,-9548.656652,-4519.963438
976.844219,0.000000,-7698.141797,-3447.429741
976.844543,518.144159,-7994.224174,-3600.648841
976.844867,1480.411884,-7698.141797,-3524.039291
976.845191,2886.803174,-6069.688724,-2221.676944
976.845515,4515.256246,-6365.771101,-1225.752797
976.845839,5921.647536,-7254.018232,-1072.533697
976.846163,6957.935855,-7920.203579,-612.876398
976.846487,7105.977043,-9030.512492,153.219100
976.846811,6439.791695,-9918.759623,-766.095498
976.847136,3923.091493,-11177.109724,-2681.334243
976.847460,2368.659014,-10807.006753,-2987.772442
976.847784,2442.679609,-10658.965565,-3600.648841
976.848108,3478.967927,-11769.274478,-3907.087040
976.848432,3478.967927,-11473.192101,-4136.915689
976.848756,2738.761985,-9548.656652,-4443.353888
976.849080,2664.741391,-9178.553681,-4519.963438
976.849404,2368.659014,-9400.615463,-4136.915689
976.849728,2664.741391,-9474.636058,-3524.039291
976.850052,2886.803174,-8956.491898,-2451.505594
976.850376,3478.967927,-9770.718434,-1991.848295
976.850700,3923.091493,-10140.821405,-2068.457845
976.851024,4589.276840,-10288.862594,-2374.896044
976.851348,4663.297435,-10658.965565,-1991.848295
976.851672,3330.926739,-10807.006753,-2834.553343
976.851996,2146.597232,-10955.047942,-3753.867940
976.852320,962.267725,-9992.780217,-4366.744339
976.852645,74.020594,-9844.739029,-5286.058936
976.852969,-1184.329507,-9918.759623,-6128.763984
976.853293,-2220.617826,-9474.636058,-6741.640382
976.853617,-2516.700203,-9104.533087,-6511.811733
976.853941,-2294.638420,-9178.553681,-5362.668486
976.854265,-518.144159,-9400.615463,-4136.915689
976.854589,2146.597232,-10066.800811,-2451.505594
976.854913,4589.276840,-10955.047942,-1225.752797
976.855237,5773.606348,-11769.274478,-766.095498
976.855561,5921.647536,-12361.439231,-459.657299
976.855885,4663.297435,-12213.398043,-229.828649
976.856209,2294.638420,-11991.336260,-1915.238745
976.856533,-962.267725,-11177.109724,-3677.258390
976.856857,-4441.235652,-10658.965565,-4979.620737
976.857181,-5107.421000,-9918.759623,-5669.106685
976.857505,-4145.153275,-9474.636058,-5439.278036
976.857829,-1850.514855,-8734.430116,-4366.744339
976.858153,1036.288319,-8142.265362,-3753.867940
976.858478,2664.741391,-7920.203579,-2374.896044
976.858802,3108.864956,-7772.162391,-1532.190996
976.859126,2664.741391,-8512.368333,-1225.752797
976.859450,3034.844362,-8808.450710,-153.219100
976.859774,4367.215058,-9252.574275,842.705048
976.860098,6439.791695,-10214.842000,1762.019645
976.860422,7846.182985,-10510.924376,1838.629195
976.860746,7402.059420,-9770.718434,842.705048
976.861070,5181.441594,-10214.842000,0.000000
976.861394,1332.370696,-9474.636058,-1302.362347
976.861718,-1184.329507,-8660.409521,-1991.848295
976.862042,-1554.432478,-7698.141797,-2145.067394
976.862366,-518.144159,-7476.080014,-1838.629195
976.862690,814.226536,-7624.121203,-1685.410096
976.863014,1036.288319,-8068.244768,-1532.190996
976.863338,814.226536,-8142.265362,-995.924147
976.863662,962.267725,-7920.203579,229.828649
976.863987,2072.576638,-8068.244768,1378.971896
976.864311,3701.029710,-8438.347739,1685.410096
976.864635,4959.379811,-9474.636058,1838.629195
976.864959,5107.421000,-10732.986159,1608.800546
976.865283,5181.441594,-11695.253884,1302.362347
976.865607,4441.235652,-10955.047942,995.924147
976.865931,3256.906145,-9474.636058,-229.828649
976.866255,2960.823768,-8438.347739,-612.876398
976.866579,2220.617826,-9030.512492,-1762.019645
976.866903,148.041188,-9474.636058,-2911.162892
976.867227,-1480.411884,-9622.677246,-3753.867940
976.867551,-1776.494261,-9474.636058,-3447.429741
976.867875,148.041188,-9178.553681,-2451.505594
976.868199,2886.803174,-9030.512492,-1685.410096
976.868523,4515.256246,-9104.533087,-919.314598
976.868847,3997.112087,-9770.718434,-689.485948
976.869171,3627.009116,-10955.047942,-1532.190996
976.869496,4293.194464,-11695.253884,-1072.533697
976.869820,4515.256246,-12139.377449,-919.314598
976.870144,3256.906145,-11843.295072,-1072.533697
976.870468,740.205942,-11621.233289,-2221.676944
976.870792,-740.205942,-11251.130318,-3064.381992
976.871116,-148.041188,-10881.027347,-4136.915689
976.871440,148.041188,-10288.862594,-4060.306139
976.871764,296.082377,-9474.636058,-4519.963438
976.872088,814.226536,-8734.430116,-4290.134789
976.872412,1776.494261,-9474.636058,-4366.744339
976.872736,2442.679609,-9844.739029,-4366.744339
976.873060,2220.617826,-9548.656652,-4366.744339
976.873384,1924.535449,-9770.718434,-3830.477490
976.873708,2812.782580,-10214.842000,-2681.334243
976.874032,4293.194464,-10362.883188,-2604.724693
976.874356,4737.318029,-10732.986159,-2834.553343
976.874680,4367.215058,-10584.944971,-2451.505594
976.875004,3404.947333,-10510.924376,-2451.505594
976.875329,2738.761985,-10732.986159,-2528.115143
976.875653,1628.453072,-9696.697840,-3064.381992
976.875977,-370.102971,-8586.388927,-2987.772442
976.876301,-1554.432478,-8586.388927,-3447.429741
976.876625,-740.205942,-9252.574275,-3907.087040
976.876949,518.144159,-8364.327145,-2987.772442
976.877273,592.164754,-7476.080014,-2987.772442
976.877597,444.123565,-8586.388927,-3677.258390
976.877921,1480.411884,-9696.697840,-2834.553343
976.878245,2590.720797,-8586.388927,-3447.429741
976.878569,1998.556043,-8216.285956,-3294.210641
976.878893,1036.288319,-9992.780217,-2681.334243
976.879217,1850.514855,-11695.253884,-3217.601092
976.879541,3256.906145,-9918.759623,-2451.505594
976.879865,3997.112087,-8956.491898,-1915.238745
976.880189,4367.215058,-10362.883188,-2451.505594
976.880513,4293.194464,-11621.233289,-2221.676944
976.880838,3182.885551,-10658.965565,-1838.629195
976.881162,2294.638420,-9474.636058,-1685.410096
976.881486,1924.535449,-9252.574275,-1608.800546
976.881810,2738.761985,-10510.924376,-1302.362347
976.882134,3256.906145,-9696.697840,-459.657299
976.882458,2812.782580,-9400.615463,-1149.143247
976.882782,2220.617826,-9178.553681,-2221.676944
976.883106,1406.391290,-9252.574275,-2604.724693
976.883430,370.102971,-9178.553681,-2604.724693
976.883754,814.226536,-9178.553681,-3217.601092
976.884078,2146.597232,-9474.636058,-2451.505594
976.884402,2886.803174,-10066.800811,-2834.553343
976.884726,3034.844362,-10214.842000,-3753.867940
976.885050,2220.617826,-10510.924376,-3217.601092
976.885374,1998.556043,-11177.109724,-2451.505594
976.885698,2590.720797,-10955.047942,-2068.457845
976.886022,3256.906145,-10140.821405,-1149.143247
976.886347,3256.906145,-10658.965565,536.266849
976.886671,4219.173869,-11621.233289,-229.828649
976.886995,4367.215058,-11177.109724,229.828649
976.887319,3182.885551,-10658.965565,842.705048
976.887643,2442.679609,-10288.862594,-536.266849
976.887967,2664.741391,-8734.430116,-1915.238745
976.888291,1554.432478,-7624.121203,-1991.848295
976.888615,0.000000,-8290.306550,-2757.943793
976.888939,-74.020594,-8438.347739,-4903.011187
976.889263,-2368.659014,-7994.224174,-4903.011187
976.889587,-4589.276840,-9104.533087,-4366.744339
976.889911,-4441.235652,-8808.450710,-5132.839837
976.890235,-1702.473667,-8068.244768,-3753.867940
976.890559,296.082377,-8734.430116,-2528.115143
976.890883,2812.782580,-8882.471304,-1532.190996
976.891207,5477.523971,-9622.677246,1225.752797
976.891531,6291.750507,-11917.315666,2834.553343
976.891855,8142.265362,-12583.501014,3830.477490
976.892180,7179.997637,-11325.150913,3753.867940
976.892504,3627.009116,-11103.089130,2374.896044
976.892828,1036.288319,-10362.883188,-766.095498
976.893152,-1554.432478,-9622.677246,-1685.410096
976.893476,-2960.823768,-9030.512492,-2068.457845
976.893800,-2072.576638,-8734.430116,-3753.867940
976.894124,-2738.761985,-7550.100608,-4749.792088
976.894448,-3108.864956,-6587.832884,-4443.353888
976.894772,-4515.256246,-7994.224174,-4519.963438
976.895096,-4367.215058,-9326.594869,-3830.477490
976.895420,-2664.741391,-8586.388927,-1762.019645
976.895744,444.123565,-9548.656652,766.095498
976.896068,3552.988522,-10214.842000,2145.067394
976.896392,5847.626942,-11103.089130,3983.696590
976.896716,6661.853478,-11769.274478,3983.696590
976.897040,6069.688724,-11695.253884,3294.210641
976.897364,3552.988522,-11029.068536,2374.896044
976.897689,1184.329507,-10807.006753,1225.752797
976.898013,1110.308913,-9178.553681,76.609550
976.898337,666.185348,-9474.636058,229.828649
976.898661,-814.226536,-9696.697840,-1455.581446
976.898985,-2072.576638,-7698.141797,-1915.238745
976.899309,-2442.679609,-7179.997637,-2068.457845
976.899633,-2812.782580,-8438.347739,-2451.505594
976.899957,-3330.926739,-8882.471304,-2298.286494
976.900281,-3330.926739,-8734.430116,-1149.143247
976.900605,-1332.370696,-8586.388927,-1762.019645
976.900929,1332.370696,-9770.718434,229.828649
976.901253,4293.194464,-10881.027347,2221.676944
976.901577,7031.956449,-10955.047942,2681.334243
976.901901,6069.688724,-11251.130318,2681.334243
976.902225,4737.318029,-9696.697840,2298.286494
976.902549,4145.153275,-9178.553681,1225.752797
976.902873,1924.535449,-10436.903782,0.000000
976.903198,-888.247130,-9770.718434,-995.924147
976.903522,-3701.029710,-9548.656652,-306.438199
976.903846,-4515.256246,-10658.965565,-1838.629195
976.904170,-5255.462188,-9622.677246,-2834.553343
976.904494,-5403.503377,-8290.306550,-2374.896044
976.904818,-4811.338623,-8216.285956,-2528.115143
976.905142,-3330.926739,-8586.388927,-2374.896044
976.905466,-1924.535449,-9474.636058,-689.485948
976.905790,444.123565,-9326.594869,842.705048
976.906114,2664.741391,-10066.800811,995.924147
976.906438,3330.926739,-9844.739029,229.828649
976.906762,2072.576638,-8734.430116,-919.314598
976.907086,-444.123565,-10584.944971,-1455.581446
976.907410,-444.123565,-11399.171507,-1685.410096
976.907734,296.082377,-10807.006753,-1072.533697
976.908058,444.123565,-10510.924376,0.000000
976.908382,296.082377,-10881.027347,-459.657299
976.908706,-370.102971,-11843.295072,-1072.533697
976.909031,-370.102971,-10658.965565,-1225.752797
976.909355,518.144159,-8956.491898,-995.924147
976.909679,1258.350101,-9104.533087,-842.705048
976.910003,666.185348,-8586.388927,0.000000
976.910327,888.247130,-9326.594869,229.828649
976.910651,740.205942,-9326.594869,-612.876398
976.910975,0.000000,-8216.285956,-1685.410096
976.911299,-1850.514855,-8808.450710,-2068.457845
976.911623,-2886.803174,-9548.656652,-1532.190996
976.911947,-1406.391290,-9474.636058,-1149.143247
976.912271,0.000000,-10066.800811,-153.219100
976.912595,0.000000,-10584.944971,306.438199
976.912919,0.000000,-10732.986159,-306.438199
976.913243,-296.082377,-10436.903782,842.705048
976.913567,-296.082377,-9844.739029,1072.533697
976.913891,0.000000,-10066.800811,689.485948
976.914215,-296.082377,-9844.739029,1455.581446
976.914540,740.205942,-8956.491898,1532.190996
976.914864,1850.514855,-9400.615463,612.876398
976.915188,1850.514855,-9178.553681,612.876398
976.915512,518.144159,-8512.368333,459.657299
976.915836,-592.164754,-8142.265362,-766.095498
976.916160,-1480.411884,-7994.224174,-1838.629195
976.916484,-1628.453072,-8438.347739,-612.876398
976.916808,-814.226536,-9030.512492,-153.219100
976.917132,74.020594,-9992.780217,383.047749
976.917456,0.000000,-10066.800811,995.924147
976.917780,-296.082377,-8586.388927,995.924147
976.918104,0.000000,-8808.450710,766.095498
976.918428,370.102971,-9030.512492,919.314598
976.918752,666.185348,-8586.388927,1302.362347
976.919076,1184.329507,-8882.471304,-306.438199
976.919400,1110.308913,-8734.430116,766.095498
976.919724,1628.453072,-9918.759623,1072.533697
976.920048,1776.494261,-10288.862594,689.485948
976.920373,666.185348,-10214.842000,383.047749
976.920697,-2442.679609,-11325.150913,-383.047749
976.921021,-4737.318029,-10732.986159,-1762.019645
976.921345,-3775.050304,-10214.842000,-2451.505594
976.921669,-2960.823768,-9992.780217,-1149.143247
976.921993,-1258.350101,-11547.212695,536.266849
976.922317,888.247130,-12213.398043,842.705048
976.922641,3108.864956,-11103.089130,1608.800546
976.922965,3701.029710,-10584.944971,1608.800546
976.923289,2220.617826,-10732.986159,0.000000
976.923613,0.000000,-10362.883188,0.000000
976.923937,-2442.679609,-10066.800811,-536.266849
976.924261,-1554.432478,-10288.862594,-153.219100
976.924585,74.020594,-9474.636058,76.609550
976.924909,814.226536,-9844.739029,459.657299
976.925233,1184.329507,-9622.677246,-306.438199
976.925557,814.226536,-9474.636058,-842.705048
976.925882,592.164754,-8290.306550,-1685.410096
976.926206,222.061783,-7476.080014,-766.095498
976.926530,0.000000,-9104.533087,0.000000
976.926854,444.123565,-9474.636058,536.266849
976.927178,0.000000,-8512.368333,0.000000
976.927502,-592.164754,-8882.471304,-306.438199
976.927826,222.061783,-9400.615463,-689.485948
976.928150,814.226536,-9696.697840,0.000000
976.928474,444.123565,-8882.471304,229.828649
976.928798,296.082377,-9326.594869,306.438199
976.929122,148.041188,-11103.089130,919.314598
976.929446,-370.102971,-10436.903782,306.438199
976.929770,-518.144159,-9770.718434,0.000000
976.930094,-740.205942,-9770.718434,0.000000
976.930418,-518.144159,-9770.718434,229.828649
976.930742,-1036.288319,-9622.677246,229.828649
976.931066,-1184.329507,-8956.491898,536.266849
976.931391,-1702.473667,-7698.141797,-1072.533697
976.931715,-2072.576638,-7105.977043,-2451.505594
976.932039,-2146.597232,-7254.018232,-1225.752797
976.932363,-1628.453072,-9400.615463,-766.095498
976.932687,-222.061783,-9474.636058,-1225.752797
976.933011,740.205942,-7920.203579,-306.438199
976.933335,1776.494261,-8660.409521,536.266849
976.933659,2590.720797,-11177.109724,153.219100
976.933983,2294.638420,-10584.944971,76.609550
976.934307,1332.370696,-9918.759623,919.314598
976.934631,1258.350101,-9844.739029,383.047749
976.934955,1480.411884,-11547.212695,0.000000
976.935279,1480.411884,-11621.233289,689.485948
976.935603,1332.370696,-10807.006753,383.047749
976.935927,1036.288319,-11251.130318,-995.924147
976.936251,0.000000,-10214.842000,-689.485948
976.936575,-1406.391290,-10584.944971,-1455.581446
976.936899,-1480.411884,-10732.986159,-1302.362347
976.937223,-2368.659014,-9918.759623,-2068.457845
976.937547,-3478.967927,-9696.697840,-1915.238745
976.937871,-3552.988522,-10955.047942,-1532.190996
976.938196,-2072.576638,-11621.233289,-1072.533697
976.938520,-814.226536,-11399.171507,689.485948
976.938844,-296.082377,-10066.800811,1149.143247
976.939168,-888.247130,-9844.739029,-153.219100
976.939492,-1184.329507,-9918.759623,-383.047749
976.939816,-148.041188,-10066.800811,229.828649
976.940140,1480.411884,-10214.842000,383.047749
976.940464,2516.700203,-9474.636058,689.485948
976.940788,1480.411884,-9474.636058,1302.362347
976.941112,370.102971,-8734.430116,-153.219100
976.941436,148.041188,-7476.080014,-689.485948
976.941760,-296.082377,-7476.080014,-1149.143247
976.942084,0.000000,-8882.471304,-536.266849
976.942408,592.164754,-9548.656652,383.047749
976.942732,1924.535449,-9178.553681,536.266849
976.943056,2072.576638,-7920.203579,1455.581446
976.943380,1036.288319,-8808.450710,689.485948
976.943704,666.185348,-9622.677246,459.657299
976.944028,0.000000,-10214.842000,229.828649
976.944352,-1110.308913,-9622.677246,-229.828649
976.944676,-1480.411884,-8956.491898,612.876398
976.945000,-1036.288319,-9474.636058,689.485948
976.945324,0.000000,-10214.842000,153.219100
976.945648,666.185348,-10066.800811,995.924147
976.945972,74.020594,-10140.821405,842.705048
976.946296,296.082377,-9474.636058,0.000000
976.946620,-444.123565,-9252.574275,76.609550
976.946944,-592.164754,-9622.677246,306.438199
976.947268,0.000000,-9548.656652,0.000000
976.947592,-370.102971,-10140.821405,-612.876398
976.947916,-222.061783,-9474.636058,306.438199
976.948240,962.267725,-9030.512492,0.000000
976.948564,1480.411884,-9400.615463,229.828649
976.948888,1554.432478,-9178.553681,383.047749
976.949212,888.247130,-9918.759623,536.266849
976.949536,518.144159,-9474.636058,0.000000
976.949860,0.000000,-8586.388927,383.047749
976.950185,-222.061783,-10214.842000,766.095498
976.950509,-592.164754,-9918.759623,536.266849
976.950833,-592.164754,-9622.677246,689.485948
976.951157,-1258.350101,-9104.533087,0.000000
976.951481,-1258.350101,-8660.409521,-229.828649
976.951805,-296.082377,-9548.656652,-229.828649
976.952129,74.020594,-9696.697840,153.219100
976.952453,296.082377,-9770.718434,612.876398
976.952777,296.082377,-9326.594869,0.000000
976.953101,592.164754,-8586.388927,76.609550
976.953425,0.000000,-10288.862594,153.219100
976.953749,592.164754,-10881.027347,306.438199
976.954073,0.000000,-10288.862594,0.000000
976.954397,-1332.370696,-10288.862594,76.609550
976.954721,-1924.535449,-9622.677246,-689.485948
976.955045,-1628.453072,-9326.594869,-229.828649
976.955369,-888.247130,-9474.636058,306.438199
976.955693,-296.082377,-9548.656652,-536.266849
976.956017,74.020594,-9770.718434,-229.828649
976.956341,0.000000,-9474.636058,306.438199
976.956665,444.123565,-9770.718434,459.657299
976.956989,148.041188,-10658.965565,-229.828649
976.957313,-1110.308913,-9992.780217,-612.876398
976.957637,-2590.720797,-10288.862594,-1532.190996
976.957961,-2442.679609,-10362.883188,-1838.629195
976.958285,-1036.288319,-10140.821405,-1378.971896
976.958609,518.144159,-10140.821405,-995.924147
976.958933,2146.597232,-10066.800811,0.000000
976.959257,2738.761985,-10436.903782,0.000000
976.959581,2072.576638,-10066.800811,153.219100
976.959905,1406.391290,-8956.491898,-612.876398
976.960229,666.185348,-9326.594869,-1149.143247
976.960553,518.144159,-10288.862594,-842.705048
976.960877,814.226536,-10881.027347,-306.438199
976.961201,148.041188,-11029.068536,-383.047749
976.961525,444.123565,-9622.677246,0.000000
976.961849,888.247130,-9178.553681,-306.438199
976.962173,592.164754,-9696.697840,0.000000
976.962498,148.041188,-9178.553681,-153.219100
976.962822,-296.082377,-9030.512492,-1302.362347
976.963146,-444.123565,-8734.430116,-842.705048
976.963470,0.000000,-8956.491898,-383.047749
976.963794,-222.061783,-9770.718434,76.609550
976.964118,-148.041188,-9178.553681,153.219100
976.964442,-888.247130,-8882.471304,0.000000
976.964766,-1184.329507,-8586.388927,-229.828649
976.965090,-296.082377,-8956.491898,306.438199
976.965414,222.061783,-9622.677246,0.000000
976.965738,444.123565,-8956.491898,0.000000
976.966062,222.061783,-8512.368333,306.438199
976.966386,518.144159,-8808.450710,995.924147
976.966710,1110.308913,-9252.574275,766.095498
976.967034,1258.350101,-9326.594869,383.047749
976.967358,666.185348,-8808.450710,459.657299
976.967682,-370.102971,-8956.491898,-383.047749
976.968006,-962.267725,-9400.615463,-842.705048
976.968330,-740.205942,-8660.409521,153.219100
976.968654,370.102971,-9770.718434,766.095498
976.968978,1258.350101,-10214.842000,459.657299
976.969302,518.144159,-9622.677246,842.705048
976.969626,296.082377,-9326.594869,383.047749
976.969950,592.164754,-9474.636058,-229.828649
976.970274,222.061783,-9992.780217,842.705048
976.970598,-888.247130,-10140.821405,383.047749
976.970922,-1702.473667,-10140.821405,0.000000
976.971246,-2220.617826,-10955.047942,153.219100
976.971570,-2072.576638,-10658.965565,229.828649
976.971894,-1332.370696,-10807.006753,306.438199
976.972218,-962.267725,-11177.109724,536.266849
976.972542,-148.041188,-9622.677246,306.438199
976.972866,518.144159,-10362.883188,153.219100
976.973190,814.226536,-9622.677246,-229.828649
976.973514,74.020594,-9770.718434,153.219100
976.973838,-370.102971,-10732.986159,0.000000
976.974162,-1480.411884,-10658.965565,-842.705048
976.974487,-1850.514855,-10140.821405,-1608.800546
976.974811,-1776.494261,-9104.533087,-2068.457845
976.975135,-370.102971,-9030.512492,-1685.410096
976.975459,962.267725,-9918.759623,-1532.190996
976.975783,1406.391290,-10214.842000,153.219100
976.976107,1628.453072,-11029.068536,1149.143247
976.976431,1924.535449,-10362.883188,612.876398
976.976755,1702.473667,-9104.533087,383.047749
976.977079,1332.370696,-8882.471304,-383.047749
976.977403,814.226536,-9622.677246,-536.266849
976.977727,-370.102971,-10362.883188,-612.876398
976.978051,-1110.308913,-9992.780217,-306.438199
976.978375,-1332.370696,-8956.491898,153.219100
976.978699,-1110.308913,-8438.347739,-766.095498
976.979023,-1406.391290,-8364.327145,-1302.362347
976.979347,-1850.514855,-8586.388927,-1762.019645
976.979671,-1036.288319,-8734.430116,-1762.019645
976.979995,0.000000,-9030.512492,-842.705048
976.980319,1332.370696,-9030.512492,306.438199
976.980643,2294.638420,-9770.718434,1302.362347
976.980967,1480.411884,-9696.697840,919.314598
976.981291,-296.082377,-9622.677246,0.000000
976.981615,-592.164754,-9770.718434,383.047749
976.981939,1184.329507,-10140.821405,1072.533697
976.982263,2442.679609,-10214.842000,1532.190996
976.982587,2294.638420,-9178.553681,2145.067394
976.982911,1554.432478,-8586.388927,1532.190996
976.983235,814.226536,-8660.409521,76.609550
976.983559,-296.082377,-8660.409521,-612.876398
976.983883,-592.164754,-9474.636058,-229.828649
976.984207,-518.144159,-10066.800811,0.000000
976.984531,-888.247130,-9548.656652,-229.828649
976.984855,-1184.329507,-8882.471304,536.266849
976.985179,-740.205942,-8956.491898,76.609550
976.985503,0.000000,-9400.615463,0.000000
976.985827,0.000000,-9622.677246,1225.752797
976.986151,148.041188,-10214.842000,1685.410096
976.986475,666.185348,-10436.903782,1685.410096
