#time,accel_x,accel_y,accel_z
602.510810,-444.123565,-9696.697840,766.095498
602.511134,0.000000,-9622.677246,0.000000
602.511458,-148.041188,-9770.718434,-153.219100
602.511783,-296.082377,-9844.739029,0.000000
602.512107,-296.082377,-9474.636058,229.828649
602.512431,-222.061783,-9252.574275,0.000000
602.512756,0.000000,-9696.697840,383.047749
602.513080,0.000000,-9622.677246,0.000000
602.513404,0.000000,-9548.656652,-229.828649
602.513728,0.000000,-9474.636058,76.609550
602.514053,-222.061783,-9474.636058,0.000000
602.514377,-148.041188,-9622.677246,0.000000
602.514701,-222.061783,-9548.656652,76.609550
602.515026,148.041188,-9326.594869,0.000000
602.515350,148.041188,-9770.718434,-153.219100
602.515674,148.041188,-9622.677246,-76.609550
602.515999,-148.041188,-9696.697840,-153.219100
602.516323,-148.041188,-9918.759623,-229.828649
602.516647,0.000000,-9918.759623,0.000000
602.516971,296.082377,-10066.800811,-153.219100
602.517296,-222.061783,-9326.594869,76.609550
602.517620,74.020594,-9400.615463,153.219100
602.517944,222.061783,-9548.656652,536.266849
602.518269,148.041188,-9622.677246,0.000000
602.518593,74.020594,-9918.759623,-306.438199
602.518917,74.020594,-9548.656652,-229.828649
602.519241,296.082377,-9548.656652,0.000000
602.519566,444.123565,-9918.759623,-536.266849
602.519890,444.123565,-9548.656652,229.828649
602.520214,296.082377,-10214.842000,0.000000
602.520539,0.000000,-9622.677246,-229.828649
602.520863,0.000000,-9548.656652,0.000000
602.521187,0.000000,-9622.677246,0.000000
602.521511,74.020594,-9474.636058,0.000000
602.521836,888.247130,-9474.636058,0.000000
602.522160,666.185348,-9770.718434,0.000000
602.522484,888.247130,-9770.718434,842.705048
602.522809,296.082377,-9622.677246,229.828649
602.523133,-370.102971,-10066.800811,229.828649
602.523457,-1110.308913,-9474.636058,-229.828649
602.523781,-1184.329507,-9252.574275,0.000000
602.524106,-518.144159,-9696.697840,306.438199
602.524430,740.205942,-9696.697840,459.657299
602.524754,1110.308913,-9622.677246,1225.752797
602.525079,666.185348,-8956.491898,459.657299
602.525403,222.061783,-9474.636058,153.219100
602.525727,444.123565,-9548.656652,0.000000
602.526051,444.123565,-9622.677246,-383.047749
602.526376,-296.082377,-9992.780217,0.000000
602.526700,-888.247130,-10214.842000,-306.438199
602.527024,-666.185348,-9918.759623,229.828649
602.527349,-370.102971,-9770.718434,229.828649
602.527673,518.144159,-9770.718434,612.876398
602.527997,1554.432478,-9696.697840,1302.362347
602.528322,2220.617826,-9770.718434,1685.410096
602.528646,2368.659014,-9696.697840,1685.410096
602.528970,2072.576638,-9696.697840,1225.752797
602.529294,2146.597232,-9326.594869,766.095498
602.529619,1406.391290,-9252.574275,229.828649
602.529943,444.123565,-9770.718434,-153.219100
602.530267,0.000000,-10066.800811,-153.219100
602.530592,-148.041188,-10066.800811,-153.219100
602.530916,444.123565,-9548.656652,383.047749
602.531240,1480.411884,-9548.656652,1149.143247
602.531564,2812.782580,-9474.636058,1915.238745
602.531889,4589.276840,-9474.636058,2451.505594
602.532213,4959.379811,-9474.636058,2528.115143
602.532537,4811.338623,-9844.739029,3064.381992
602.532862,4589.276840,-10288.862594,2528.115143
602.533186,3849.070898,-10436.903782,2068.457845
602.533510,2516.700203,-10066.800811,1455.581446
602.533834,1554.432478,-10436.903782,1072.533697
602.534159,888.247130,-10584.944971,689.485948
602.534483,1110.308913,-9992.780217,1149.143247
602.534807,1776.494261,-9474.636058,2298.286494
602.535132,3552.988522,-9252.574275,3140.991542
602.535456,4811.338623,-9326.594869,3677.258390
602.535780,5107.421000,-8956.491898,4290.134789
602.536104,5107.421000,-9622.677246,4749.792088
602.536429,4515.256246,-10362.883188,4519.963438
602.536753,2738.761985,-9918.759623,4213.525239
602.537077,962.267725,-9178.553681,3370.820191
602.537402,-148.041188,-9178.553681,2681.334243
602.537726,-1628.453072,-9178.553681,2221.676944
602.538050,-1628.453072,-8142.265362,2298.286494
602.538374,-740.205942,-7254.018232,2221.676944
602.538699,0.000000,-6809.894666,2145.067394
602.539023,814.226536,-6513.812290,2451.505594
602.539347,2072.576638,-6217.729913,2987.772442
602.539672,3404.947333,-6735.874072,3524.039291
602.539996,4367.215058,-8142.265362,3983.696590
602.540320,4589.276840,-9326.594869,4749.792088
602.540645,4441.235652,-10732.986159,4673.182538
602.540969,3552.988522,-11917.315666,4136.915689
602.541293,1702.473667,-12805.562797,3753.867940
602.541617,-296.082377,-12805.562797,2528.115143
602.541942,-2220.617826,-12139.377449,1915.238745
602.542266,-2442.679609,-11103.089130,1685.410096
602.542590,-1480.411884,-9474.636058,842.705048
602.542915,518.144159,-8068.244768,1302.362347
602.543239,1776.494261,-7476.080014,1455.581446
602.543563,2960.823768,-7550.100608,1225.752797
602.543887,3775.050304,-7772.162391,1378.971896
602.544212,4145.153275,-8660.409521,1685.410096
602.544536,3478.967927,-9844.739029,2068.457845
602.544860,2368.659014,-11621.233289,2834.553343
602.545185,814.226536,-12361.439231,3140.991542
602.545509,-222.061783,-12139.377449,1838.629195
602.545833,0.000000,-11843.295072,1608.800546
602.546157,666.185348,-10955.047942,842.705048
602.546482,1776.494261,-10362.883188,1072.533697
602.546806,2368.659014,-9252.574275,229.828649
602.547130,2664.741391,-8586.388927,229.828649
602.547455,2590.720797,-8216.285956,306.438199
602.547779,2368.659014,-8142.265362,-229.828649
602.548103,1554.432478,-7772.162391,-153.219100
602.548427,2146.597232,-7994.224174,-229.828649
602.548752,3997.112087,-9326.594869,612.876398
602.549076,5847.626942,-11325.150913,1532.190996
602.549400,6513.812290,-12287.418637,2145.067394
602.549725,5477.523971,-12583.501014,2068.457845
602.550049,2960.823768,-12287.418637,1378.971896
602.550373,518.144159,-11695.253884,919.314598
602.550698,-1480.411884,-10658.965565,383.047749
602.551022,-740.205942,-9548.656652,536.266849
602.551346,814.226536,-8290.306550,842.705048
602.551670,2368.659014,-7846.182985,919.314598
602.551995,2442.679609,-7031.956449,459.657299
602.552319,1776.494261,-5921.647536,0.000000
602.552643,962.267725,-5995.668130,-459.657299
602.552968,2368.659014,-7031.956449,306.438199
602.553292,3404.947333,-8068.244768,1455.581446
602.553616,4811.338623,-10288.862594,2451.505594
602.553940,4441.235652,-11621.233289,2451.505594
602.554265,2812.782580,-11177.109724,1838.629195
602.554589,1036.288319,-10584.944971,1685.410096
602.554913,74.020594,-10362.883188,1915.238745
602.555238,962.267725,-11473.192101,1991.848295
602.555562,814.226536,-11621.233289,2528.115143
602.555886,222.061783,-10658.965565,2298.286494
602.556210,-222.061783,-9548.656652,766.095498
602.556535,444.123565,-8216.285956,536.266849
602.556859,2220.617826,-7846.182985,919.314598
602.557183,3256.906145,-8956.491898,1302.362347
602.557508,2960.823768,-10584.944971,1838.629195
602.557832,1332.370696,-9548.656652,1532.190996
602.558156,74.020594,-9696.697840,1072.533697
602.558480,-296.082377,-9474.636058,1762.019645
602.558805,2072.576638,-11177.109724,2834.553343
602.559129,3552.988522,-11695.253884,3294.210641
602.559453,3701.029710,-10881.027347,3677.258390
602.559778,3108.864956,-9474.636058,3600.648841
602.560102,2960.823768,-9474.636058,3447.429741
602.560426,2368.659014,-10362.883188,3370.820191
602.560750,962.267725,-10140.821405,2987.772442
602.561075,148.041188,-9548.656652,2528.115143
602.561399,0.000000,-8290.306550,1685.410096
602.561723,814.226536,-8290.306550,2068.457845
602.562048,2294.638420,-8956.491898,2451.505594
602.562372,3330.926739,-9030.512492,2221.676944
602.562696,3256.906145,-7846.182985,2298.286494
602.563021,3627.009116,-8068.244768,2604.724693
602.563345,3997.112087,-9252.574275,4136.915689
602.563669,3997.112087,-10584.944971,3830.477490
602.563993,3552.988522,-10807.006753,4136.915689
602.564318,3108.864956,-10658.965565,4290.134789
602.564642,3256.906145,-10807.006753,4136.915689
602.564966,3478.967927,-10955.047942,4366.744339
602.565291,3478.967927,-10214.842000,4136.915689
602.565615,3256.906145,-9400.615463,3370.820191
602.565939,2664.741391,-9178.553681,2221.676944
602.566263,0.000000,-8660.409521,1302.362347
602.566588,-1776.494261,-8512.368333,842.705048
602.566912,-888.247130,-8068.244768,842.705048
602.567236,1628.453072,-7698.141797,995.924147
602.567561,3552.988522,-7772.162391,2374.896044
602.567885,4737.318029,-9104.533087,3064.381992
602.568209,5255.462188,-9622.677246,3753.867940
602.568533,5255.462188,-9400.615463,3294.210641
602.568858,4367.215058,-9104.533087,3600.648841
602.569182,3330.926739,-10658.965565,4060.306139
602.569506,2960.823768,-12361.439231,4443.353888
602.569831,3330.926739,-10807.006753,4290.134789
602.570155,2812.782580,-9178.553681,2987.772442
602.570479,962.267725,-9844.739029,2451.505594
602.570803,-962.267725,-11103.089130,1072.533697
602.571128,-2146.597232,-9474.636058,-919.314598
602.571452,-3627.009116,-6809.894666,-1378.971896
602.571776,-4515.256246,-7254.018232,-1072.533697
602.572101,-1924.535449,-8512.368333,-766.095498
602.572425,1850.514855,-8734.430116,76.609550
602.572749,4959.379811,-8142.265362,1532.190996
602.573073,6957.935855,-8216.285956,2451.505594
602.573398,5995.668130,-9918.759623,1762.019645
602.573722,4959.379811,-11325.150913,2604.724693
602.574046,4663.297435,-9770.718434,2911.162892
602.574370,3775.050304,-9992.780217,2528.115143
602.574695,2146.597232,-11917.315666,1455.581446
602.575019,0.000000,-13175.665768,536.266849
602.575343,0.000000,-11695.253884,1072.533697
602.575667,148.041188,-10658.965565,229.828649
602.575992,-296.082377,-10658.965565,-1455.581446
602.576316,-1184.329507,-9030.512492,-1838.629195
602.576640,-1332.370696,-8142.265362,-1685.410096
602.576965,-740.205942,-9104.533087,-1762.019645
602.577289,666.185348,-9992.780217,-2221.676944
602.577613,2368.659014,-9252.574275,-459.657299
602.577937,3997.112087,-9918.759623,766.095498
602.578262,6143.709319,-10584.944971,1762.019645
602.578586,6291.750507,-9474.636058,2374.896044
602.578910,4737.318029,-10140.821405,2451.505594
602.579234,1702.473667,-12213.398043,2374.896044
602.579559,148.041188,-12657.521608,2528.115143
602.579883,-1036.288319,-10732.986159,2528.115143
602.580207,-1628.453072,-9992.780217,2145.067394
602.580531,-666.185348,-9844.739029,689.485948
602.580856,1036.288319,-9104.533087,-536.266849
602.581180,1628.453072,-7402.059420,-536.266849
602.581504,148.041188,-6439.791695,-1608.800546
602.581828,-1036.288319,-6883.915261,-1838.629195
602.582153,0.000000,-7105.977043,-1225.752797
602.582477,2590.720797,-8290.306550,0.000000
602.582801,3775.050304,-8660.409521,1915.238745
602.583125,3701.029710,-9400.615463,1302.362347
602.583450,2886.803174,-9696.697840,2757.943793
602.583774,3997.112087,-9696.697840,3677.258390
602.584098,5255.462188,-10436.903782,4136.915689
602.584422,3478.967927,-11177.109724,4213.525239
602.584747,370.102971,-10881.027347,2528.115143
602.585071,-2072.576638,-10955.047942,1532.190996
602.585395,-2516.700203,-9548.656652,0.000000
602.585719,-1702.473667,-8364.327145,-766.095498
602.586044,-1258.350101,-9252.574275,-1378.971896
602.586368,-962.267725,-9474.636058,-1149.143247
602.586692,-740.205942,-8660.409521,-1685.410096
602.587017,-814.226536,-9770.718434,-153.219100
602.587341,-740.205942,-10066.800811,536.266849
602.587665,1332.370696,-9696.697840,536.266849
602.587989,3034.844362,-10214.842000,2068.457845
602.588314,4737.318029,-9696.697840,3064.381992
602.588638,4441.235652,-11029.068536,2834.553343
602.588962,2442.679609,-11843.295072,2604.724693
602.589286,740.205942,-10584.944971,2681.334243
602.589611,-1036.288319,-9696.697840,2068.457845
602.589935,-3034.844362,-8734.430116,536.266849
602.590259,-4663.297435,-9104.533087,-459.657299
602.590583,-4515.256246,-9696.697840,-459.657299
602.590908,-1850.514855,-8586.388927,-842.705048
602.591232,1036.288319,-8808.450710,-536.266849
602.591556,2220.617826,-8734.430116,306.438199
602.591880,3108.864956,-8734.430116,1072.533697
602.592205,3034.844362,-9622.677246,0.000000
602.592529,2886.803174,-10214.842000,536.266849
602.592853,518.144159,-11843.295072,1455.581446
602.593177,-740.205942,-12213.398043,76.609550
602.593502,-1480.411884,-10584.944971,383.047749
602.593826,-1850.514855,-9992.780217,536.266849
602.594150,-740.205942,-9992.780217,689.485948
602.594474,444.123565,-10214.842000,1072.533697
602.594799,1110.308913,-10732.986159,1762.019645
602.595123,1628.453072,-7846.182985,1225.752797
602.595447,1998.556043,-6957.935855,536.266849
602.595771,1480.411884,-8068.244768,76.609550
602.596096,1332.370696,-8586.388927,536.266849
602.596420,1480.411884,-9474.636058,306.438199
602.596744,222.061783,-8882.471304,0.000000
602.597069,-2072.576638,-8142.265362,-1072.533697
602.597393,-3849.070898,-8290.306550,-1455.581446
602.597717,-4293.194464,-9178.553681,-2221.676944
602.598041,-3701.029710,-10214.842000,-1072.533697
602.598366,-2442.679609,-10140.821405,-995.924147
602.598690,-1554.432478,-9474.636058,153.219100
602.599014,-518.144159,-7846.182985,919.314598
602.599338,2368.659014,-7698.141797,76.609550
602.599663,3330.926739,-8808.450710,766.095498
602.599987,3404.947333,-10214.842000,153.219100
602.600311,2442.679609,-9548.656652,-383.047749
602.600635,962.267725,-9474.636058,-612.876398
602.600960,148.041188,-10066.800811,-995.924147
602.601284,0.000000,-11473.192101,-1532.190996
602.601608,-444.123565,-11917.315666,-2374.896044
602.601932,-1702.473667,-11621.233289,-2987.772442
602.602257,-1850.514855,-10807.006753,-2451.505594
602.602581,-1554.432478,-9844.739029,-2757.943793
602.602905,-1036.288319,-9844.739029,-1838.629195
602.603229,-592.164754,-9770.718434,-1608.800546
602.603554,0.000000,-9622.677246,-1915.238745
602.603878,-444.123565,-10288.862594,-1378.971896
602.604202,-444.123565,-10214.842000,-689.485948
602.604526,592.164754,-9400.615463,-459.657299
602.604851,1998.556043,-10288.862594,-612.876398
602.605175,2220.617826,-10881.027347,-536.266849
602.605499,888.247130,-11399.171507,-612.876398
602.605823,-740.205942,-11103.089130,-2145.067394
602.606148,-1110.308913,-10214.842000,-2221.676944
602.606472,-1184.329507,-11695.253884,-1762.019645
602.606796,-518.144159,-12361.439231,-1762.019645
602.607121,-296.082377,-10881.027347,-766.095498
602.607445,-1406.391290,-10436.903782,-383.047749
602.607769,-1554.432478,-9992.780217,536.266849
602.608093,-888.247130,-10955.047942,612.876398
602.608418,-666.185348,-10658.965565,689.485948
602.608742,-148.041188,-8660.409521,153.219100
602.609066,370.102971,-7105.977043,-689.485948
602.609390,888.247130,-6883.915261,0.000000
602.609715,1554.432478,-8586.388927,383.047749
602.610039,1850.514855,-9400.615463,612.876398
602.610363,1110.308913,-8068.244768,919.314598
602.610687,-962.267725,-7550.100608,0.000000
602.611012,-1924.535449,-7031.956449,-306.438199
602.611336,-962.267725,-7328.038826,0.000000
602.611660,-592.164754,-9178.553681,766.095498
602.611984,-740.205942,-8882.471304,1225.752797
602.612309,-592.164754,-9252.574275,1225.752797
602.612633,-444.123565,-8882.471304,1532.190996
602.612957,0.000000,-8512.368333,1302.362347
602.613281,370.102971,-9030.512492,459.657299
602.613606,-592.164754,-9622.677246,0.000000
602.613930,-2072.576638,-9844.739029,0.000000
602.614254,-2220.617826,-10658.965565,-76.609550
602.614578,-370.102971,-10436.903782,689.485948
602.614903,1258.350101,-11251.130318,919.314598
602.615227,1406.391290,-11621.233289,842.705048
602.615551,1110.308913,-10881.027347,-229.828649
602.615875,444.123565,-10436.903782,0.000000
602.616200,444.123565,-10362.883188,76.609550
602.616524,1184.329507,-10658.965565,1455.581446
602.616848,1776.494261,-10658.965565,1378.971896
602.617173,1258.350101,-9474.636058,1225.752797
602.617497,222.061783,-9030.512492,383.047749
602.617821,0.000000,-9252.574275,0.000000
602.618145,518.144159,-9622.677246,383.047749
602.618470,962.267725,-10214.842000,842.705048
602.618794,222.061783,-8882.471304,153.219100
602.619118,148.041188,-8734.430116,-459.657299
602.619442,592.164754,-8882.471304,-153.219100
602.619767,2442.679609,-9992.780217,0.000000
602.620091,3108.864956,-11029.068536,229.828649
602.620415,1480.411884,-10140.821405,536.266849
602.620739,370.102971,-10140.821405,0.000000
602.621064,74.020594,-10807.006753,383.047749
602.621388,814.226536,-10732.986159,766.095498
602.621712,0.000000,-10807.006753,766.095498
602.622036,-1480.411884,-10288.862594,1072.533697
602.622361,-2812.782580,-9326.594869,459.657299
602.622685,-2368.659014,-9178.553681,153.219100
602.623009,-1184.329507,-8512.368333,0.000000
602.623333,-888.247130,-8512.368333,383.047749
602.623658,-592.164754,-8512.368333,0.000000
602.623982,-666.185348,-7328.038826,-919.314598
602.624306,-888.247130,-6957.935855,0.000000
602.624630,0.000000,-7698.141797,0.000000
602.624955,740.205942,-9104.533087,0.000000
602.625279,148.041188,-9696.697840,-229.828649
602.625603,-296.082377,-8882.471304,-229.828649
602.625927,74.020594,-8734.430116,153.219100
602.626252,592.164754,-9474.636058,459.657299
602.626576,1628.453072,-10732.986159,1149.143247
602.626900,1850.514855,-11103.089130,766.095498
602.627225,1036.288319,-9770.718434,0.000000
602.627549,-370.102971,-9548.656652,-153.219100
602.627873,-518.144159,-9992.780217,-766.095498
602.628197,0.000000,-9844.739029,-842.705048
602.628522,-296.082377,-10066.800811,-1149.143247
602.628846,-814.226536,-10288.862594,-612.876398
602.629170,-1850.514855,-10362.883188,-1838.629195
602.629494,-1628.453072,-10658.965565,-1838.629195
602.629819,-1184.329507,-10362.883188,-995.924147
602.630143,-592.164754,-10510.924376,-1072.533697
602.630467,-666.185348,-9844.739029,-1149.143247
602.630791,-888.247130,-9548.656652,-612.876398
602.631116,-1184.329507,-9770.718434,-995.924147
602.631440,-222.061783,-9252.574275,-919.314598
602.631764,370.102971,-9918.759623,-383.047749
602.632088,370.102971,-10362.883188,-459.657299
602.632413,74.020594,-10066.800811,-1072.533697
602.632737,-296.082377,-10288.862594,-1149.143247
602.633061,444.123565,-10214.842000,-1225.752797
602.633385,814.226536,-10510.924376,-995.924147
602.633710,1332.370696,-10807.006753,-995.924147
602.634034,1332.370696,-9696.697840,-612.876398
602.634358,1184.329507,-9474.636058,-1455.581446
602.634682,1258.350101,-9474.636058,-995.924147
602.635007,1406.391290,-10584.944971,-459.657299
602.635331,1406.391290,-10881.027347,-306.438199
602.635655,296.082377,-9252.574275,-153.219100
602.635979,-1184.329507,-8512.368333,-229.828649
602.636304,-1184.329507,-9104.533087,0.000000
602.636628,-962.267725,-9548.656652,229.828649
602.636952,-592.164754,-9992.780217,383.047749
602.637277,-962.267725,-9326.594869,0.000000
602.637601,-1628.453072,-9104.533087,-689.485948
602.637925,-592.164754,-8808.450710,-306.438199
602.638249,1628.453072,-8808.450710,76.609550
602.638574,2220.617826,-9104.533087,0.000000
602.638898,1184.329507,-9326.594869,766.095498
602.639222,-148.041188,-9622.677246,612.876398
602.639546,-148.041188,-10214.842000,1225.752797
602.639871,1036.288319,-10140.821405,1149.143247
602.640195,1480.411884,-9474.636058,1685.410096
602.640519,444.123565,-8956.491898,1915.238745
602.640843,370.102971,-9400.615463,1378.971896
602.641168,-296.082377,-9474.636058,1532.190996
602.641492,-814.226536,-8364.327145,536.266849
602.641816,-1406.391290,-8586.388927,536.266849
602.642140,-1850.514855,-9252.574275,0.000000
602.642465,-1184.329507,-9104.533087,766.095498
602.642789,-518.144159,-9400.615463,2298.286494
602.643113,222.061783,-9548.656652,1302.362347
602.643437,444.123565,-9474.636058,766.095498
602.643762,-592.164754,-8882.471304,0.000000
602.644086,-962.267725,-8734.430116,-153.219100
602.644410,-1480.411884,-9622.677246,-306.438199
602.644734,-962.267725,-9548.656652,536.266849
602.645059,592.164754,-9770.718434,1455.581446
602.645383,814.226536,-10362.883188,1838.629195
602.645707,666.185348,-9622.677246,612.876398
602.646031,-296.082377,-8660.409521,153.219100
602.646356,-888.247130,-9844.739029,-536.266849
602.646680,74.020594,-10807.006753,76.609550
602.647004,296.082377,-11399.171507,995.924147
602.647329,-740.205942,-9918.759623,1149.143247
602.647653,-1480.411884,-9474.636058,0.000000
602.647977,-1110.308913,-10214.842000,-459.657299
602.648301,-666.185348,-9696.697840,-459.657299
602.648626,370.102971,-10214.842000,-76.609550
602.648950,370.102971,-9992.780217,0.000000
602.649274,444.123565,-9252.574275,153.219100
602.649598,740.205942,-9474.636058,-153.219100
602.649923,370.102971,-9992.780217,0.000000
602.650247,296.082377,-10658.965565,-459.657299
602.650571,666.185348,-11473.192101,-536.266849
602.650895,888.247130,-10955.047942,459.657299
602.651220,1332.370696,-10214.842000,842.705048
602.651544,1924.535449,-9178.553681,76.609550
602.651868,1776.494261,-8882.471304,-306.438199
602.652192,1258.350101,-9622.677246,-1378.971896
602.652517,1184.329507,-9474.636058,-1455.581446
602.652841,444.123565,-9326.594869,-459.657299
602.653165,814.226536,-9474.636058,-459.657299
602.653489,1628.453072,-8882.471304,-229.828649
602.653814,74.020594,-8956.491898,-689.485948
602.654138,-1480.411884,-9252.574275,-1302.362347
602.654462,-1850.514855,-10140.821405,-1455.581446
602.654786,-962.267725,-10436.903782,-536.266849
602.655111,222.061783,-9252.574275,-153.219100
602.655435,518.144159,-9252.574275,536.266849
602.655759,0.000000,-8956.491898,0.000000
602.656083,-518.144159,-9252.574275,-1149.143247
602.656408,-1332.370696,-9844.739029,-612.876398
602.656732,-518.144159,-9770.718434,-153.219100
602.657056,370.102971,-9696.697840,76.609550
602.657381,0.000000,-9178.553681,689.485948
602.657705,-1184.329507,-9474.636058,612.876398
602.658029,-2442.679609,-9622.677246,-383.047749
602.658353,-1554.432478,-9844.739029,-842.705048
602.658678,-666.185348,-10436.903782,0.000000
602.659002,0.000000,-9844.739029,0.000000
602.659326,0.000000,-8808.450710,-689.485948
602.659650,-1332.370696,-9178.553681,-1149.143247
602.659975,-1776.494261,-9178.553681,-1225.752797
602.660299,-814.226536,-10584.944971,-919.314598
602.660623,-740.205942,-10658.965565,-153.219100
602.660947,-1036.288319,-9474.636058,0.000000
602.661272,-148.041188,-9548.656652,0.000000
602.661596,1480.411884,-9474.636058,229.828649
602.661920,2294.638420,-10955.047942,612.876398
602.662244,888.247130,-11325.150913,689.485948
602.662569,-740.205942,-9400.615463,-306.438199
602.662893,-1628.453072,-9326.594869,-689.485948
602.663217,-1258.350101,-9770.718434,-919.314598
602.663541,444.123565,-10066.800811,-689.485948
602.663866,-296.082377,-11325.150913,0.000000
602.664190,-1480.411884,-11325.150913,-536.266849
602.664514,-2146.597232,-9992.780217,-1225.752797
602.664838,-2072.576638,-8808.450710,-1685.410096
602.665163,-1332.370696,-8808.450710,-689.485948
602.665487,592.164754,-10510.924376,-612.876398
602.665811,1406.391290,-9844.739029,-536.266849
602.666136,2072.576638,-9326.594869,1302.362347
602.666460,3256.906145,-9548.656652,842.705048
602.666784,4071.132681,-9474.636058,383.047749
602.667108,3478.967927,-9844.739029,842.705048
602.667433,2368.659014,-9770.718434,306.438199
602.667757,1110.308913,-9918.759623,0.000000
602.668081,-888.247130,-9770.718434,153.219100
602.668405,-592.164754,-9104.533087,229.828649
602.668730,222.061783,-9474.636058,306.438199
602.669054,814.226536,-9844.739029,-383.047749
602.669378,74.020594,-8438.347739,-306.438199
602.669702,-148.041188,-8882.471304,0.000000
602.670027,-444.123565,-9252.574275,536.266849
602.670351,1184.329507,-9918.759623,995.924147
602.670675,740.205942,-9918.759623,1685.410096
602.670999,-814.226536,-9474.636058,919.314598
602.671324,-1406.391290,-10584.944971,1072.533697
602.671648,-222.061783,-10584.944971,1072.533697
602.671972,1184.329507,-10140.821405,1915.238745
602.672296,1406.391290,-10362.883188,2145.067394
602.672621,0.000000,-8364.327145,766.095498
602.672945,-1702.473667,-7994.224174,0.000000
602.673269,-2516.700203,-8068.244768,0.000000
602.673593,-2072.576638,-8438.347739,0.000000
602.673917,-1628.453072,-8808.450710,306.438199
602.674241,-1036.288319,-8216.285956,689.485948
602.674565,-888.247130,-7402.059420,1072.533697
602.674889,-888.247130,-8364.327145,459.657299
602.675213,-518.144159,-9104.533087,536.266849
602.675537,-148.041188,-9992.780217,1762.019645
602.675861,222.061783,-10066.800811,1149.143247
602.676186,888.247130,-9622.677246,1225.752797
602.676510,1110.308913,-9326.594869,1455.581446
602.676834,1036.288319,-9770.718434,1149.143247
602.677158,370.102971,-11325.150913,995.924147
602.677482,-222.061783,-11399.171507,689.485948
602.677806,-666.185348,-11621.233289,0.000000
602.678130,-740.205942,-11325.150913,-689.485948
602.678454,-666.185348,-10066.800811,-842.705048
602.678778,-962.267725,-9844.739029,-995.924147
602.679102,-1184.329507,-10732.986159,-1302.362347
602.679426,-888.247130,-10510.924376,-1225.752797
602.679750,-296.082377,-10955.047942,-919.314598
602.680074,1110.308913,-9548.656652,229.828649
602.680398,2220.617826,-9252.574275,229.828649
602.680722,2442.679609,-9474.636058,0.000000
602.681046,1036.288319,-8956.491898,-612.876398
602.681370,-740.205942,-9474.636058,-1072.533697
602.681694,-1480.411884,-9622.677246,-612.876398
602.682019,74.020594,-9474.636058,0.000000
602.682343,962.267725,-9252.574275,919.314598
602.682667,1406.391290,-8142.265362,153.219100
602.682991,518.144159,-8068.244768,-1685.410096
602.683315,148.041188,-8512.368333,-2068.457845
602.683639,296.082377,-9326.594869,-1838.629195
602.683963,148.041188,-10436.903782,-1378.971896
602.684287,222.061783,-9696.697840,-612.876398
602.684611,148.041188,-8956.491898,-995.924147
602.684935,222.061783,-10214.842000,-842.705048
602.685259,740.205942,-10732.986159,-612.876398
602.685583,1258.350101,-11547.212695,-383.047749
602.685907,518.144159,-10658.965565,0.000000
602.686231,74.020594,-10214.842000,76.609550
602.686555,444.123565,-10214.842000,76.609550
602.686879,1036.288319,-10288.862594,-612.876398
602.687203,1036.288319,-9992.780217,0.000000
602.687528,-148.041188,-9844.739029,-689.485948
602.687852,-1776.494261,-9844.739029,-995.924147
602.688176,-2960.823768,-10362.883188,-229.828649
602.688500,-2368.659014,-9696.697840,-689.485948
602.688824,-1110.308913,-8438.347739,-919.314598
602.689148,-962.267725,-8734.430116,-919.314598
602.689472,-1406.391290,-9252.574275,-153.219100
602.689796,-962.267725,-9548.656652,0.000000
602.690120,0.000000,-9474.636058,1149.143247
602.690444,740.205942,-9104.533087,1225.752797
602.690768,888.247130,-8512.368333,689.485948
602.691092,666.185348,-7994.224174,306.438199
602.691416,-592.164754,-8956.491898,536.266849
602.691740,-296.082377,-9992.780217,459.657299
602.692064,74.020594,-9622.677246,229.828649
602.692388,-740.205942,-10955.047942,612.876398
602.692712,-1480.411884,-10807.006753,229.828649
602.693037,-1628.453072,-10362.883188,0.000000
602.693361,-1998.556043,-10584.944971,-612.876398
602.693685,-1480.411884,-10510.924376,0.000000
602.694009,0.000000,-11547.212695,0.000000
602.694333,1628.453072,-11029.068536,383.047749
602.694657,2368.659014,-9770.718434,1149.143247
602.694981,2146.597232,-9696.697840,153.219100
602.695305,1036.288319,-9992.780217,229.828649
602.695629,148.041188,-10881.027347,306.438199
602.695953,-666.185348,-10881.027347,995.924147
602.696277,-370.102971,-9992.780217,1225.752797
602.696601,0.000000,-9474.636058,766.095498
602.696925,222.061783,-8734.430116,536.266849
602.697249,222.061783,-9696.697840,612.876398
602.697573,0.000000,-9178.553681,0.000000
602.697897,-1258.350101,-8586.388927,0.000000
602.698221,-2886.803174,-9326.594869,0.000000
602.698546,-3256.906145,-8734.430116,-995.924147
602.698870,-2072.576638,-7550.100608,-1225.752797
602.699194,-666.185348,-8586.388927,-459.657299
602.699518,814.226536,-8882.471304,-383.047749
602.699842,1554.432478,-9326.594869,0.000000
602.700166,1110.308913,-8956.491898,229.828649
602.700490,1702.473667,-8956.491898,383.047749
602.700814,2368.659014,-10362.883188,459.657299
602.701138,2294.638420,-10214.842000,76.609550
602.701462,2072.576638,-10436.903782,0.000000
602.701786,888.247130,-10362.883188,0.000000
602.702110,1406.391290,-9474.636058,153.219100
602.702434,1480.411884,-10584.944971,1072.533697
602.702758,1332.370696,-11251.130318,536.266849
602.703082,518.144159,-9622.677246,-612.876398
602.703406,-1258.350101,-9400.615463,-1072.533697
602.703730,-1110.308913,-9696.697840,-766.095498
602.704055,296.082377,-9918.759623,-612.876398
602.704379,444.123565,-9696.697840,-229.828649
602.704703,-814.226536,-8512.368333,0.000000
602.705027,-740.205942,-8438.347739,-766.095498
602.705351,148.041188,-8660.409521,-919.314598
602.705675,592.164754,-9474.636058,459.657299
602.705999,296.082377,-10436.903782,1225.752797
602.706323,0.000000,-9844.739029,919.314598
602.706647,-1480.411884,-10066.800811,1378.971896
602.706971,-962.267725,-8882.471304,1225.752797
602.707295,296.082377,-8956.491898,995.924147
602.707619,518.144159,-9918.759623,612.876398
602.707943,592.164754,-9252.574275,76.609550
602.708267,0.000000,-8586.388927,-153.219100
602.708591,-518.144159,-9030.512492,-306.438199
602.708915,-814.226536,-8586.388927,-459.657299
602.709239,-1702.473667,-9844.739029,-306.438199
602.709564,-1850.514855,-9770.718434,-766.095498
602.709888,-1924.535449,-9474.636058,-383.047749
602.710212,-1110.308913,-9770.718434,-383.047749
602.710536,0.000000,-9844.739029,76.609550
602.710860,888.247130,-10140.821405,536.266849
602.711184,1036.288319,-10066.800811,689.485948
602.711508,0.000000,-10214.842000,995.924147
602.711832,-518.144159,-11029.068536,383.047749
602.712156,-518.144159,-9474.636058,-536.266849
602.712480,-518.144159,-9992.780217,306.438199
602.712804,-666.185348,-11917.315666,0.000000
602.713128,-1184.329507,-11769.274478,-229.828649
602.713452,-2146.597232,-10584.944971,-536.266849
602.713776,-1850.514855,-10807.006753,-459.657299
602.714100,-666.185348,-11029.068536,-612.876398
602.714424,-148.041188,-10288.862594,-1608.800546
602.714748,-296.082377,-9474.636058,-689.485948
602.715073,-666.185348,-9770.718434,-1378.971896
602.715397,296.082377,-9474.636058,-995.924147
602.715721,1184.329507,-9178.553681,153.219100
602.716045,1554.432478,-9400.615463,459.657299
602.716369,888.247130,-9252.574275,-229.828649
602.716693,0.000000,-8142.265362,-689.485948
602.717017,0.000000,-8512.368333,-536.266849
602.717341,1258.350101,-9474.636058,153.219100
602.717665,1850.514855,-9622.677246,536.266849
602.717989,962.267725,-9252.574275,76.609550
602.718313,-518.144159,-8808.450710,-459.657299
602.718637,-1184.329507,-8364.327145,-1225.752797
602.718961,-592.164754,-7994.224174,-1225.752797
602.719285,-222.061783,-8956.491898,-919.314598
602.719609,-1332.370696,-9844.739029,-995.924147
602.719933,-1850.514855,-9178.553681,-1225.752797
602.720257,-740.205942,-8734.430116,-1149.143247
602.720582,1036.288319,-8882.471304,-842.705048
602.720906,1850.514855,-9992.780217,-459.657299
602.721230,1480.411884,-10955.047942,-153.219100
602.721554,592.164754,-9918.759623,0.000000
602.721878,-444.123565,-10066.800811,-153.219100
602.722202,0.000000,-9770.718434,0.000000
602.722526,1332.370696,-10214.842000,536.266849
602.722850,1924.535449,-10955.047942,-229.828649
602.723174,1480.411884,-10288.862594,306.438199
602.723498,740.205942,-9252.574275,459.657299
602.723822,0.000000,-9844.739029,153.219100
602.724146,-888.247130,-10066.800811,153.219100
602.724470,-1628.453072,-10214.842000,229.828649
602.724794,-1184.329507,-9104.533087,-306.438199
602.725118,-962.267725,-9548.656652,76.609550
602.725442,-370.102971,-10214.842000,229.828649
602.725766,814.226536,-9992.780217,919.314598
602.726090,1036.288319,-10214.842000,689.485948
602.726415,888.247130,-9548.656652,536.266849
602.726739,222.061783,-9770.718434,306.438199
602.727063,0.000000,-10436.903782,0.000000
602.727387,74.020594,-10658.965565,1378.971896
602.727711,296.082377,-11473.192101,2145.067394
602.728035,444.123565,-11325.150913,1302.362347
602.728359,74.020594,-9252.574275,1455.581446
602.728683,0.000000,-8734.430116,919.314598
602.729007,370.102971,-9400.615463,995.924147
602.729331,888.247130,-10214.842000,842.705048
602.729655,0.000000,-9770.718434,1072.533697
602.729979,-1776.494261,-9178.553681,995.924147
602.730303,-2368.659014,-9548.656652,0.000000
602.730627,-1850.514855,-8512.368333,0.000000
602.730951,-1480.411884,-8808.450710,-306.438199
602.731275,-1332.370696,-9696.697840,995.924147
602.731599,-888.247130,-10362.883188,1149.143247
602.731924,-148.041188,-9622.677246,1225.752797
602.732248,814.226536,-8216.285956,1149.143247
602.732572,1554.432478,-7846.182985,1302.362347
602.732896,1924.535449,-9474.636058,1072.533697
602.733220,1036.288319,-8956.491898,1378.971896
602.733544,740.205942,-8216.285956,1455.581446
602.733868,370.102971,-7846.182985,536.266849
602.734192,296.082377,-8068.244768,536.266849
602.734516,518.144159,-8512.368333,-229.828649
602.734840,0.000000,-8660.409521,-1302.362347
602.735164,-1554.432478,-8364.327145,-1762.019645
602.735488,-1628.453072,-7994.224174,-1915.238745
602.735812,-740.205942,-8216.285956,-1378.971896
602.736136,-222.061783,-10140.821405,-1225.752797
602.736460,0.000000,-9770.718434,-995.924147
602.736784,370.102971,-9400.615463,-995.924147
602.737108,222.061783,-10584.944971,-1455.581446
602.737433,962.267725,-10658.965565,-766.095498
602.737757,2146.597232,-11251.130318,459.657299
602.738081,2220.617826,-12065.356855,459.657299
602.738405,1258.350101,-12657.521608,-536.266849
602.738729,296.082377,-11769.274478,-995.924147
602.739053,888.247130,-10510.924376,-1149.143247
602.739377,1332.370696,-11177.109724,-1532.190996
602.739701,1110.308913,-11621.233289,-1149.143247
602.740025,1036.288319,-10214.842000,-383.047749
602.740349,222.061783,-9474.636058,-459.657299
602.740673,-666.185348,-9400.615463,-1302.362347
602.740997,-1258.350101,-9400.615463,-383.047749
602.741321,-1850.514855,-9918.759623,-766.095498
602.741645,-1998.556043,-9918.759623,-689.485948
602.741969,-2590.720797,-9178.553681,-612.876398
602.742293,-2294.638420,-7920.203579,-153.219100
602.742617,-296.082377,-7846.182985,76.609550
602.742942,0.000000,-9030.512492,76.609550
602.743266,-740.205942,-9104.533087,0.000000
602.743590,-1628.453072,-9178.553681,0.000000
602.743914,-1554.432478,-9104.533087,-536.266849
602.744238,-888.247130,-9474.636058,0.000000
602.744562,-444.123565,-10214.842000,306.438199
602.744886,148.041188,-9992.780217,0.000000
602.745210,-518.144159,-10510.924376,689.485948
602.745534,-1332.370696,-11177.109724,459.657299
602.745858,-296.082377,-9918.759623,995.924147
602.746182,814.226536,-10436.903782,766.095498
602.746506,962.267725,-10732.986159,842.705048
602.746830,1258.350101,-10214.842000,1072.533697
602.747154,518.144159,-9474.636058,76.609550
602.747478,518.144159,-8734.430116,766.095498
602.747802,74.020594,-8956.491898,1072.533697
602.748126,592.164754,-9326.594869,766.095498
602.748451,0.000000,-8808.450710,76.609550
602.748775,-1406.391290,-8734.430116,-383.047749
602.749099,-1776.494261,-8290.306550,0.000000
602.749423,-148.041188,-9104.533087,306.438199
602.749747,444.123565,-9104.533087,612.876398
602.750071,222.061783,-7994.224174,153.219100
602.750395,-444.123565,-8068.244768,-612.876398
602.750719,0.000000,-7550.100608,-1378.971896
602.751043,1110.308913,-7994.224174,-612.876398
602.751367,1258.350101,-9252.574275,0.000000
602.751691,370.102971,-9918.759623,0.000000
602.752015,-518.144159,-11251.130318,153.219100
602.752339,-444.123565,-10807.006753,-612.876398
602.752663,740.205942,-10140.821405,-383.047749
602.752987,1850.514855,-11843.295072,-229.828649
602.753311,1258.350101,-12287.418637,0.000000
602.753635,370.102971,-12361.439231,-383.047749
602.753960,-370.102971,-11695.253884,-459.657299
602.754284,-444.123565,-11029.068536,0.000000
602.754608,-148.041188,-11843.295072,-153.219100
602.754932,-1258.350101,-11547.212695,-536.266849
602.755256,-1554.432478,-10140.821405,-919.314598
602.755580,-2294.638420,-9104.533087,-1455.581446
602.755904,-1332.370696,-8734.430116,-1072.533697
602.756228,-666.185348,-9474.636058,-612.876398
602.756552,74.020594,-8882.471304,-536.266849
602.756876,518.144159,-7476.080014,-842.705048
602.757200,74.020594,-7550.100608,0.000000
602.757524,814.226536,-7846.182985,229.828649
602.757848,1332.370696,-7550.100608,689.485948
602.758172,740.205942,-8734.430116,842.705048
602.758496,74.020594,-9030.512492,766.095498
602.758820,-518.144159,-8734.430116,76.609550
602.759144,-296.082377,-8586.388927,842.705048
602.759469,740.205942,-9992.780217,1455.581446
602.759793,1406.391290,-11325.150913,1225.752797
602.760117,666.185348,-10214.842000,1532.190996
602.760441,-740.205942,-9844.739029,153.219100
602.760765,-296.082377,-10436.903782,536.266849
602.761089,1258.350101,-10214.842000,76.609550
602.761413,1258.350101,-9548.656652,-229.828649
602.761737,-222.061783,-9474.636058,76.609550
602.762061,-1850.514855,-9844.739029,-842.705048
602.762385,-2146.597232,-9918.759623,-919.314598
602.762709,-1554.432478,-9696.697840,-229.828649
602.763033,-1036.288319,-9474.636058,459.657299
602.763357,-148.041188,-10140.821405,536.266849
602.763681,0.000000,-9474.636058,383.047749
602.764005,-222.061783,-8438.347739,229.828649
602.764329,222.061783,-7846.182985,612.876398
602.764653,740.205942,-9178.553681,306.438199
602.764978,1480.411884,-10510.924376,766.095498
602.765302,518.144159,-9770.718434,229.828649
602.765626,-888.247130,-10214.842000,0.000000
602.765950,-1554.432478,-10066.800811,-612.876398
602.766274,-1258.350101,-10066.800811,-1532.190996
602.766598,-814.226536,-10214.842000,-689.485948
602.766922,740.205942,-9918.759623,-995.924147
602.767246,1998.556043,-10214.842000,-766.095498
602.767570,1554.432478,-10436.903782,-766.095498
602.767894,888.247130,-10288.862594,-612.876398
602.768218,0.000000,-10807.006753,-766.095498
602.768542,-1258.350101,-11177.109724,-612.876398
602.768866,-1480.411884,-10732.986159,-229.828649
602.769190,-962.267725,-10362.883188,76.609550
602.769514,222.061783,-9844.739029,-612.876398
602.769838,1702.473667,-10140.821405,306.438199
602.770162,1850.514855,-10288.862594,1072.533697
602.770486,1776.494261,-10066.800811,229.828649
602.770811,1850.514855,-9474.636058,-459.657299
602.771135,2368.659014,-8068.244768,-459.657299
602.771459,2886.803174,-9400.615463,766.095498
602.771783,2368.659014,-10362.883188,-229.828649
602.772107,1110.308913,-9400.615463,-919.314598
602.772431,-1110.308913,-8364.327145,-995.924147
602.772755,-1480.411884,-8290.306550,-1072.533697
602.773079,-1036.288319,-9326.594869,-766.095498
602.773403,-1332.370696,-9400.615463,459.657299
602.773727,-1036.288319,-8364.327145,229.828649
602.774051,-1554.432478,-8142.265362,-229.828649
602.774375,-2294.638420,-8290.306550,-536.266849
602.774700,-1332.370696,-8734.430116,689.485948
602.775024,-666.185348,-9252.574275,766.095498
602.775348,-740.205942,-8660.409521,-229.828649
602.775672,-1924.535449,-8808.450710,0.000000
602.775996,-1628.453072,-9844.739029,-536.266849
602.776320,-814.226536,-10362.883188,-306.438199
602.776644,0.000000,-10881.027347,0.000000
602.776968,-444.123565,-10732.986159,153.219100
602.777292,0.000000,-10732.986159,383.047749
602.777617,1332.370696,-10288.862594,76.609550
602.777941,2146.597232,-9696.697840,536.266849
602.778265,1406.391290,-10288.862594,306.438199
602.778589,296.082377,-10584.944971,612.876398
602.778913,-592.164754,-9844.739029,0.000000
602.779237,-962.267725,-9474.636058,-383.047749
602.779561,-1332.370696,-8956.491898,-536.266849
602.779885,-1036.288319,-9400.615463,0.000000
602.780210,-888.247130,-9918.759623,-612.876398
602.780534,-962.267725,-9178.553681,-995.924147
602.780858,-1480.411884,-8956.491898,-612.876398
602.781182,-1332.370696,-9178.553681,0.000000
602.781506,-518.144159,-9992.780217,0.000000
602.781830,-222.061783,-9474.636058,-689.485948
602.782154,-962.267725,-10140.821405,-536.266849
602.782478,-1480.411884,-10658.965565,-612.876398
602.782803,-148.041188,-11103.089130,-153.219100
602.783127,888.247130,-11621.233289,1072.533697
602.783451,2146.597232,-10881.027347,1072.533697
602.783775,2220.617826,-10362.883188,536.266849
602.784099,888.247130,-10436.903782,0.000000
602.784423,1110.308913,-10436.903782,0.000000
602.784747,1628.453072,-10066.800811,153.219100
602.785071,1924.535449,-10288.862594,229.828649
602.785396,1702.473667,-9844.739029,536.266849
602.785720,1406.391290,-9178.553681,-919.314598
602.786044,148.041188,-8660.409521,-766.095498
602.786368,-740.205942,-9252.574275,-766.095498
602.786692,-370.102971,-10288.862594,-842.705048
602.787016,296.082377,-9844.739029,306.438199
602.787340,518.144159,-9030.512492,153.219100
602.787664,296.082377,-7994.224174,-612.876398
602.787989,444.123565,-8216.285956,-76.609550
602.788313,962.267725,-9622.677246,0.000000
602.788637,814.226536,-10807.006753,153.219100
602.788961,0.000000,-9474.636058,536.266849
602.789285,0.000000,-9252.574275,459.657299
602.789609,0.000000,-8956.491898,153.219100
602.789933,0.000000,-9548.656652,-306.438199
602.790257,-740.205942,-10066.800811,-153.219100
602.790582,-1628.453072,-9622.677246,-383.047749
602.790906,-1628.453072,-9252.574275,0.000000
602.791230,-1184.329507,-8734.430116,229.828649
602.791554,-518.144159,-7846.182985,76.609550
602.791878,-888.247130,-8438.347739,306.438199
602.792202,-1480.411884,-8808.450710,-306.438199
602.792526,-2146.597232,-8734.430116,-306.438199
602.792850,-1406.391290,-8142.265362,459.657299
602.793175,222.061783,-8808.450710,689.485948
602.793499,814.226536,-9770.718434,919.314598
602.793823,0.000000,-9696.697840,306.438199
602.794147,-666.185348,-9400.615463,842.705048
602.794471,-1184.329507,-9770.718434,383.047749
602.794795,-592.164754,-10436.903782,229.828649
602.795119,0.000000,-11103.089130,842.705048
602.795443,666.185348,-11103.089130,612.876398
602.795768,-296.082377,-10510.924376,153.219100
602.796092,-740.205942,-9918.759623,153.219100
602.796416,-370.102971,-9474.636058,76.609550
602.796740,-296.082377,-10881.027347,0.000000
602.797064,-962.267725,-11029.068536,153.219100
602.797388,-1332.370696,-10807.006753,0.000000
602.797712,-1110.308913,-10436.903782,-612.876398
602.798036,-148.041188,-10288.862594,-153.219100
602.798361,0.000000,-10362.883188,76.609550
602.798685,592.164754,-10140.821405,-766.095498
602.799009,518.144159,-10214.842000,-689.485948
602.799333,-370.102971,-9918.759623,-536.266849
602.799657,-444.123565,-9918.759623,-383.047749
602.799981,-148.041188,-10362.883188,-306.438199
602.800305,296.082377,-10510.924376,76.609550
602.800629,888.247130,-9252.574275,76.609550
602.800953,1184.329507,-8364.327145,-306.438199
602.801278,1036.288319,-8290.306550,0.000000
602.801602,1184.329507,-9326.594869,-459.657299
602.801926,888.247130,-9696.697840,76.609550
602.802250,962.267725,-9844.739029,0.000000
602.802574,0.000000,-9844.739029,-306.438199
602.802898,-666.185348,-8660.409521,-995.924147
602.803222,0.000000,-7846.182985,-995.924147
602.803546,-444.123565,-9770.718434,-612.876398
602.803871,1110.308913,-10288.862594,-536.266849
602.804195,888.247130,-8956.491898,-766.095498
602.804519,666.185348,-9252.574275,383.047749
602.804843,1480.411884,-10288.862594,1225.752797
602.805167,2220.617826,-10510.924376,612.876398
602.805491,1850.514855,-9770.718434,995.924147
602.805815,518.144159,-9326.594869,0.000000
602.806139,0.000000,-9474.636058,-1072.533697
602.806464,888.247130,-7994.224174,-842.705048
602.806788,1258.350101,-8956.491898,459.657299
602.807112,1332.370696,-9992.780217,689.485948
602.807436,222.061783,-9696.697840,-689.485948
602.807760,-1554.432478,-9474.636058,-1149.143247
602.808084,-2220.617826,-8586.388927,-1149.143247
602.808408,-1332.370696,-9770.718434,-306.438199
602.808732,-370.102971,-10140.821405,153.219100
602.809057,0.000000,-9844.739029,536.266849
602.809381,-814.226536,-9178.553681,229.828649
602.809705,-592.164754,-9030.512492,-536.266849
602.810029,-370.102971,-9400.615463,0.000000
602.810353,-370.102971,-10214.842000,459.657299
602.810677,-1036.288319,-9696.697840,306.438199
602.811001,-1480.411884,-9548.656652,-383.047749
602.811325,-2146.597232,-9474.636058,-919.314598
602.811650,-1998.556043,-9622.677246,-766.095498
602.811974,-740.205942,-11251.130318,-536.266849
602.812298,-148.041188,-10658.965565,0.000000
602.812622,-666.185348,-10288.862594,383.047749
602.812946,-814.226536,-10066.800811,0.000000
602.813270,0.000000,-9474.636058,459.657299
602.813594,74.020594,-9696.697840,76.609550
602.813918,-296.082377,-9918.759623,-383.047749
602.814243,-370.102971,-10140.821405,0.000000
602.814567,74.020594,-9252.574275,536.266849
602.814891,666.185348,-9326.594869,842.705048
602.815215,740.205942,-10214.842000,766.095498
602.815539,74.020594,-10214.842000,0.000000
602.815863,-1406.391290,-9622.677246,-536.266849
602.816187,-2294.638420,-9252.574275,-612.876398
602.816511,-1258.350101,-8956.491898,76.609550
602.816836,518.144159,-9400.615463,76.609550
602.817160,1036.288319,-8956.491898,0.000000
602.817484,740.205942,-8364.327145,-689.485948
602.817808,-222.061783,-8808.450710,-842.705048
602.818132,0.000000,-8882.471304,-689.485948
602.818456,1184.329507,-9770.718434,229.828649
602.818780,1702.473667,-10436.903782,76.609550
602.819104,1258.350101,-9770.718434,-383.047749
602.819429,0.000000,-10362.883188,-536.266849
602.819753,0.000000,-10658.965565,-536.266849
602.820077,1776.494261,-10510.924376,-459.657299
602.820401,2294.638420,-11399.171507,153.219100
602.820725,1776.494261,-10140.821405,0.000000
602.821049,1332.370696,-9770.718434,0.000000
602.821373,888.247130,-10214.842000,-1072.533697
602.821697,1110.308913,-10881.027347,-766.095498
602.822022,1110.308913,-11399.171507,-459.657299
602.822346,444.123565,-10066.800811,-842.705048
602.822670,-666.185348,-9400.615463,-689.485948
602.822994,-1258.350101,-9252.574275,-995.924147
602.823318,296.082377,-9844.739029,-229.828649
602.823642,1406.391290,-10584.944971,-229.828649
602.823966,666.185348,-9770.718434,0.000000
602.824290,222.061783,-7846.182985,76.609550
602.824614,-814.226536,-8364.327145,0.000000
602.824939,-1036.288319,-9104.533087,-153.219100
602.825263,-814.226536,-9696.697840,612.876398
602.825587,-296.082377,-9696.697840,842.705048
602.825911,0.000000,-9326.594869,459.657299
602.826235,-1036.288319,-9030.512492,383.047749
602.826559,-2146.597232,-7624.121203,-459.657299
602.826883,-1036.288319,-7920.203579,-153.219100
602.827207,-370.102971,-9400.615463,229.828649
602.827532,148.041188,-9548.656652,995.924147
602.827856,0.000000,-9030.512492,612.876398
602.828180,-1406.391290,-8290.306550,612.876398
602.828504,-1702.473667,-8364.327145,76.609550
602.828828,-1628.453072,-10066.800811,306.438199
602.829152,-1776.494261,-11103.089130,612.876398
602.829476,-2516.700203,-10881.027347,612.876398
602.829800,-2886.803174,-9622.677246,459.657299
602.830125,-1332.370696,-8808.450710,766.095498
602.830449,-296.082377,-10362.883188,689.485948
602.830773,74.020594,-10658.965565,919.314598
602.831097,222.061783,-9326.594869,229.828649
602.831421,-148.041188,-8956.491898,153.219100
602.831745,74.020594,-8808.450710,-383.047749
602.832069,296.082377,-9622.677246,-229.828649
602.832393,-222.061783,-11103.089130,-306.438199
602.832718,-962.267725,-10807.006753,-459.657299
602.833042,-962.267725,-10214.842000,-1072.533697
602.833366,-444.123565,-9474.636058,-306.438199
602.833690,370.102971,-9992.780217,0.000000
602.834014,592.164754,-10584.944971,153.219100
602.834338,1184.329507,-9696.697840,536.266849
602.834662,1332.370696,-9474.636058,153.219100
602.834986,1332.370696,-8660.409521,-766.095498
602.835311,1628.453072,-8808.450710,-306.438199
602.835635,2516.700203,-10807.006753,536.266849
602.835959,2590.720797,-11251.130318,0.000000
602.836283,1702.473667,-11029.068536,-536.266849
602.836607,-296.082377,-9474.636058,-1149.143247
602.836931,-444.123565,-9178.553681,-1378.971896
602.837255,962.267725,-10881.027347,-1608.800546
602.837579,1702.473667,-10732.986159,-1532.190996
602.837904,1776.494261,-10362.883188,-459.657299
602.838228,1332.370696,-10066.800811,-919.314598
602.838552,1628.453072,-9474.636058,-1149.143247
602.838876,1184.329507,-9622.677246,-153.219100
602.839200,518.144159,-10066.800811,-229.828649
602.839524,74.020594,-10807.006753,229.828649
602.839848,-222.061783,-11399.171507,383.047749
602.840172,0.000000,-9474.636058,153.219100
602.840497,0.000000,-7994.224174,-229.828649
602.840821,0.000000,-8882.471304,0.000000
602.841145,0.000000,-8956.491898,-1072.533697
602.841469,-592.164754,-9178.553681,-766.095498
602.841793,-1702.473667,-7624.121203,-536.266849
602.842117,-1184.329507,-7772.162391,76.609550
602.842441,-1036.288319,-9326.594869,459.657299
602.842765,-1554.432478,-9252.574275,-306.438199
602.843090,-2516.700203,-7920.203579,-306.438199
602.843414,-2664.741391,-7105.977043,-1225.752797
602.843738,-1184.329507,-9104.533087,-306.438199
602.844062,-74.020594,-10584.944971,766.095498
602.844386,74.020594,-10436.903782,1608.800546
602.844710,222.061783,-9252.574275,995.924147
602.845034,296.082377,-9252.574275,0.000000
602.845358,370.102971,-9548.656652,-536.266849
602.845683,0.000000,-10955.047942,-306.438199
602.846007,-592.164754,-11399.171507,0.000000
602.846331,-1628.453072,-11103.089130,459.657299
602.846655,-2146.597232,-11103.089130,459.657299
602.846979,-1850.514855,-10584.944971,-153.219100
602.847303,-2220.617826,-10955.047942,-689.485948
602.847627,-2294.638420,-10732.986159,-612.876398
602.847951,-1184.329507,-9696.697840,-536.266849
602.848275,0.000000,-9474.636058,-306.438199
602.848600,370.102971,-8808.450710,842.705048
602.848924,962.267725,-9548.656652,766.095498
602.849248,444.123565,-9918.759623,306.438199
602.849572,-148.041188,-9548.656652,459.657299
602.849896,-888.247130,-9918.759623,-306.438199
602.850220,-370.102971,-9104.533087,689.485948
602.850544,888.247130,-8882.471304,153.219100
602.850868,2146.597232,-9770.718434,1072.533697
602.851193,2294.638420,-9178.553681,459.657299
602.851517,2294.638420,-9178.553681,0.000000
602.851841,2072.576638,-8808.450710,-383.047749
602.852165,2072.576638,-8882.471304,-153.219100
602.852489,2294.638420,-8956.491898,0.000000
602.852813,2072.576638,-9622.677246,229.828649
602.853137,222.061783,-10510.924376,383.047749
602.853461,-296.082377,-9548.656652,0.000000
602.853786,74.020594,-8808.450710,0.000000
602.854110,74.020594,-9918.759623,0.000000
602.854434,0.000000,-10510.924376,0.000000
602.854758,-592.164754,-10214.842000,-689.485948
602.855082,-370.102971,-9104.533087,76.609550
602.855406,888.247130,-9252.574275,0.000000
602.855730,1480.411884,-10732.986159,0.000000
602.856054,666.185348,-10214.842000,-153.219100
602.856379,-222.061783,-9104.533087,-612.876398
602.856703,-888.247130,-10214.842000,-1455.581446
602.857027,-518.144159,-10436.903782,-1149.143247
602.857351,296.082377,-10140.821405,-306.438199
602.857675,740.205942,-10436.903782,76.609550
602.857999,1036.288319,-9474.636058,-459.657299
602.858323,592.164754,-8660.409521,-536.266849
602.858647,222.061783,-9030.512492,-459.657299
602.858972,74.020594,-9918.759623,-153.219100
602.859296,-370.102971,-9548.656652,0.000000
602.859620,-1332.370696,-8512.368333,-383.047749
602.859944,-2146.597232,-8512.368333,153.219100
602.860268,-1850.514855,-8586.388927,-229.828649
602.860592,-1332.370696,-8882.471304,153.219100
602.860916,-2146.597232,-9992.780217,-229.828649
602.861240,-2368.659014,-9992.780217,-306.438199
602.861565,-2146.597232,-9104.533087,-536.266849
602.861889,-1036.288319,-9992.780217,153.219100
602.862213,-444.123565,-10214.842000,153.219100
602.862537,-370.102971,-10066.800811,-612.876398
602.862861,-666.185348,-10140.821405,919.314598
602.863185,-444.123565,-11251.130318,383.047749
602.863509,296.082377,-10510.924376,-306.438199
602.863833,666.185348,-9326.594869,383.047749
602.864158,814.226536,-9400.615463,536.266849
602.864482,592.164754,-9992.780217,536.266849
602.864806,74.020594,-9548.656652,0.000000
602.865130,-1258.350101,-8734.430116,-153.219100
602.865454,-888.247130,-8586.388927,-459.657299
602.865778,0.000000,-9622.677246,-766.095498
602.866102,0.000000,-9400.615463,-306.438199
602.866426,-444.123565,-8808.450710,-76.609550
602.866751,-1406.391290,-9474.636058,-842.705048
602.867075,-1258.350101,-8956.491898,-459.657299
602.867399,-296.082377,-9474.636058,229.828649
602.867723,0.000000,-10436.903782,383.047749
602.868047,592.164754,-9992.780217,383.047749
602.868371,592.164754,-9844.739029,76.609550
602.868695,1332.370696,-10510.924376,919.314598
602.869019,2442.679609,-10658.965565,383.047749
602.869344,2516.700203,-10510.924376,229.828649
602.869668,1036.288319,-9992.780217,-306.438199
602.869992,0.000000,-10436.903782,-919.314598
602.870316,0.000000,-10510.924376,-995.924147
602.870640,518.144159,-10807.006753,-612.876398
602.870964,370.102971,-10881.027347,-536.266849
602.871288,444.123565,-9622.677246,-919.314598
602.871612,296.082377,-9696.697840,-919.314598
602.871936,666.185348,-9474.636058,-536.266849
602.872261,1554.432478,-9474.636058,383.047749
602.872585,2368.659014,-9844.739029,76.609550
602.872909,1406.391290,-9474.636058,0.000000
602.873233,518.144159,-9030.512492,-612.876398
602.873557,296.082377,-8882.471304,153.219100
602.873881,740.205942,-9030.512492,536.266849
602.874205,1036.288319,-10510.924376,459.657299
602.874530,0.000000,-10510.924376,1072.533697
602.874854,-592.164754,-9400.615463,306.438199
602.875178,-1184.329507,-9104.533087,-383.047749
602.875502,-1554.432478,-8216.285956,-842.705048
602.875826,-1628.453072,-8586.388927,-1455.581446
602.876150,-1702.473667,-9030.512492,-306.438199
602.876475,-592.164754,-8660.409521,0.000000
602.876799,-222.061783,-8438.347739,0.000000
602.877123,-148.041188,-8216.285956,76.609550
602.877447,444.123565,-8586.388927,306.438199
602.877771,962.267725,-9844.739029,612.876398
602.878095,518.144159,-9918.759623,612.876398
602.878420,-444.123565,-9326.594869,995.924147
602.878744,0.000000,-9844.739029,1455.581446
602.879068,370.102971,-10807.006753,1915.238745
602.879392,888.247130,-11029.068536,842.705048
602.879716,-222.061783,-9844.739029,536.266849
602.880040,-1258.350101,-9696.697840,-306.438199
602.880365,-1480.411884,-9770.718434,-689.485948
602.880689,-1480.411884,-9474.636058,-995.924147
602.881013,-2072.576638,-9918.759623,-306.438199
602.881337,-2368.659014,-9400.615463,-229.828649
602.881661,-1998.556043,-9548.656652,-919.314598
602.881985,-1184.329507,-10066.800811,-459.657299
602.882310,592.164754,-10658.965565,306.438199
602.882634,1110.308913,-11177.109724,689.485948
602.882958,0.000000,-9696.697840,612.876398
602.883282,-1036.288319,-8956.491898,459.657299
602.883606,-2220.617826,-9474.636058,153.219100
602.883930,-962.267725,-9918.759623,0.000000
602.884255,444.123565,-10362.883188,306.438199
602.884579,1036.288319,-9844.739029,383.047749
602.884903,814.226536,-9326.594869,612.876398
602.885227,0.000000,-9696.697840,153.219100
602.885551,-222.061783,-8882.471304,-766.095498
602.885875,-444.123565,-8142.265362,-1149.143247
602.886200,-370.102971,-8586.388927,-1302.362347
602.886524,222.061783,-9548.656652,-842.705048
602.886848,518.144159,-10732.986159,0.000000
602.887172,1332.370696,-9844.739029,0.000000
602.887496,1924.535449,-9474.636058,-459.657299
602.887820,1036.288319,-9918.759623,-766.095498
602.888145,296.082377,-10140.821405,-1072.533697
602.888469,0.000000,-11103.089130,-1149.143247
602.888793,0.000000,-10288.862594,-919.314598
602.889117,1332.370696,-10658.965565,0.000000
602.889441,2812.782580,-11917.315666,-153.219100
602.889765,2368.659014,-10214.842000,-153.219100
602.890090,1480.411884,-9622.677246,-383.047749
602.890414,518.144159,-9992.780217,-689.485948
602.890738,444.123565,-9844.739029,-1072.533697
602.891062,296.082377,-10584.944971,-1072.533697
602.891386,222.061783,-9770.718434,-766.095498
602.891710,-518.144159,-8734.430116,-1455.581446
602.892035,-1480.411884,-8586.388927,-1378.971896
602.892359,-1554.432478,-9178.553681,-842.705048
602.892683,-1258.350101,-9770.718434,-612.876398
602.893007,-370.102971,-9252.574275,-229.828649
602.893331,0.000000,-7994.224174,306.438199
602.893656,370.102971,-8512.368333,0.000000
602.893980,1036.288319,-9474.636058,76.609550
602.894304,1258.350101,-10584.944971,229.828649
602.894628,666.185348,-11029.068536,842.705048
602.894952,0.000000,-10140.821405,459.657299
602.895276,-296.082377,-9622.677246,459.657299
602.895601,-592.164754,-10066.800811,153.219100
602.895925,-222.061783,-11029.068536,153.219100
602.896249,-518.144159,-10362.883188,-153.219100
602.896573,-1332.370696,-9326.594869,-306.438199
602.896897,-2812.782580,-9474.636058,-229.828649
602.897221,-2960.823768,-9326.594869,0.000000
602.897546,-2294.638420,-8142.265362,536.266849
602.897870,-1258.350101,-9918.759623,919.314598
602.898194,-222.061783,-9622.677246,1455.581446
602.898518,-148.041188,-8216.285956,76.609550
602.898842,-814.226536,-7624.121203,383.047749
602.899166,0.000000,-8660.409521,1378.971896
602.899491,1332.370696,-10510.924376,1149.143247
602.899815,1258.350101,-9918.759623,1532.190996
602.900139,74.020594,-8956.491898,1072.533697
602.900463,-222.061783,-8660.409521,612.876398
602.900787,666.185348,-8734.430116,-383.047749
602.901111,518.144159,-9844.739029,766.095498
602.901436,148.041188,-10066.800811,612.876398
602.901760,-222.061783,-9474.636058,-383.047749
602.902084,-1036.288319,-9030.512492,-306.438199
602.902408,-148.041188,-8956.491898,-229.828649
602.902732,0.000000,-9992.780217,689.485948
602.903056,-370.102971,-11473.192101,459.657299
602.903381,-592.164754,-10658.965565,-306.438199
602.903705,-1628.453072,-10066.800811,0.000000
602.904029,-444.123565,-9474.636058,-612.876398
602.904353,1332.370696,-9696.697840,-306.438199
602.904677,2146.597232,-10955.047942,229.828649
602.905001,2072.576638,-9844.739029,-306.438199
602.905326,2590.720797,-10214.842000,-459.657299
602.905650,1406.391290,-10584.944971,-383.047749
602.905974,1406.391290,-10732.986159,76.609550
602.906298,1406.391290,-11399.171507,0.000000
602.906622,740.205942,-10732.986159,-689.485948
602.906946,-148.041188,-9918.759623,-1532.190996
602.907271,-740.205942,-9918.759623,-1149.143247
602.907595,740.205942,-9696.697840,0.000000
602.907919,1628.453072,-10955.047942,306.438199
602.908243,666.185348,-9918.759623,76.609550
602.908567,-592.164754,-8586.388927,-995.924147
602.908891,-1258.350101,-8586.388927,-1072.533697
602.909216,-592.164754,-9252.574275,-459.657299
602.909540,444.123565,-9992.780217,229.828649
602.909864,0.000000,-9252.574275,-612.876398
602.910188,-1776.494261,-7846.182985,-229.828649
602.910512,-1998.556043,-7772.162391,-1072.533697
602.910836,-1036.288319,-7698.141797,-842.705048
602.911161,444.123565,-9104.533087,0.000000
602.911485,962.267725,-9770.718434,1072.533697
602.911809,740.205942,-8882.471304,919.314598
602.912133,148.041188,-8364.327145,689.485948
602.912457,-592.164754,-8216.285956,0.000000
602.912781,-740.205942,-9252.574275,0.000000
602.913106,-1702.473667,-11029.068536,-229.828649
602.913430,-2146.597232,-10955.047942,383.047749
602.913754,-1554.432478,-10214.842000,383.047749
602.914078,-1036.288319,-9178.553681,229.828649
602.914402,-148.041188,-9474.636058,689.485948
602.914726,148.041188,-10214.842000,0.000000
602.915051,0.000000,-10140.821405,-612.876398
602.915375,-592.164754,-9400.615463,-1302.362347
602.915699,-518.144159,-9178.553681,-612.876398
602.916023,518.144159,-9400.615463,-612.876398
602.916347,370.102971,-10658.965565,0.000000
602.916671,-296.082377,-10658.965565,0.000000
602.916996,-962.267725,-10658.965565,76.609550
602.917320,-1184.329507,-10214.842000,383.047749
602.917644,74.020594,-9770.718434,229.828649
602.917968,74.020594,-10140.821405,536.266849
602.918292,0.000000,-9252.574275,-229.828649
602.918616,148.041188,-8660.409521,-766.095498
602.918941,148.041188,-8586.388927,-1302.362347
602.919265,296.082377,-8586.388927,-1072.533697
602.919589,888.247130,-9030.512492,-766.095498
602.919913,1258.350101,-9474.636058,0.000000
602.920237,1480.411884,-9918.759623,-612.876398
602.920561,962.267725,-10362.883188,-1072.533697
602.920886,222.061783,-11029.068536,-229.828649
602.921210,888.247130,-12139.377449,0.000000
602.921534,1258.350101,-12065.356855,0.000000
602.921858,1924.535449,-10584.944971,919.314598
602.922182,1776.494261,-10288.862594,229.828649
602.922506,1184.329507,-9918.759623,-306.438199
602.922831,148.041188,-10214.842000,-459.657299
602.923155,-444.123565,-10658.965565,-459.657299
602.923479,-740.205942,-9696.697840,-1302.362347
602.923803,-1184.329507,-9178.553681,-689.485948
602.924127,-1776.494261,-8586.388927,-1225.752797
602.924452,-1924.535449,-8956.491898,-1225.752797
602.924776,-1332.370696,-9844.739029,-919.314598
602.925100,0.000000,-10214.842000,-153.219100
602.925424,1406.391290,-9474.636058,-229.828649
602.925748,1480.411884,-8734.430116,536.266849
602.926072,592.164754,-8068.244768,1532.190996
602.926397,222.061783,-8734.430116,919.314598
602.926721,-592.164754,-10214.842000,842.705048
602.927045,-1480.411884,-10214.842000,459.657299
602.927369,-1850.514855,-9104.533087,459.657299
602.927693,-1332.370696,-8142.265362,229.828649
602.928017,-148.041188,-9104.533087,306.438199
602.928342,-148.041188,-10214.842000,306.438199
602.928666,-888.247130,-10288.862594,0.000000
602.928990,-1702.473667,-9400.615463,383.047749
602.929314,-1480.411884,-8290.306550,76.609550
602.929638,-592.164754,-8882.471304,0.000000
602.929962,-1036.288319,-10436.903782,306.438199
602.930287,-1480.411884,-10140.821405,0.000000
602.930611,-1110.308913,-9622.677246,0.000000
602.930935,-888.247130,-9030.512492,536.266849
602.931259,-222.061783,-9474.636058,306.438199
602.931583,0.000000,-10510.924376,1378.971896
602.931907,888.247130,-9844.739029,1455.581446
602.932232,1776.494261,-9178.553681,459.657299
602.932556,1110.308913,-8586.388927,842.705048
602.932880,740.205942,-8438.347739,1072.533697
602.933204,740.205942,-9622.677246,842.705048
602.933528,-222.061783,-8882.471304,0.000000
602.933852,-1406.391290,-8808.450710,0.000000
602.934177,-2516.700203,-10066.800811,-229.828649
602.934501,-740.205942,-10362.883188,-1225.752797
602.934825,740.205942,-9474.636058,-459.657299
602.935149,888.247130,-8956.491898,689.485948
602.935473,1776.494261,-9696.697840,-383.047749
602.935797,1480.411884,-9992.780217,-229.828649
602.936122,3034.844362,-9992.780217,766.095498
602.936446,3775.050304,-10881.027347,1072.533697
602.936770,3108.864956,-10214.842000,76.609550
602.937094,666.185348,-9992.780217,153.219100
602.937418,-740.205942,-11473.192101,229.828649
602.937742,296.082377,-9992.780217,-1149.143247
602.938067,296.082377,-9992.780217,0.000000
602.938391,-1036.288319,-11547.212695,76.609550
602.938715,-1036.288319,-9474.636058,-1378.971896
602.939039,-1110.308913,-9252.574275,-1302.362347
602.939363,-1480.411884,-9400.615463,-1302.362347
602.939687,-962.267725,-9770.718434,-1302.362347
602.940012,370.102971,-9992.780217,-1072.533697
602.940336,888.247130,-9770.718434,-689.485948
602.940660,1406.391290,-9918.759623,-459.657299
602.940984,1628.453072,-10362.883188,-153.219100
602.941308,1776.494261,-10584.944971,612.876398
602.941632,888.247130,-11325.150913,689.485948
602.941957,0.000000,-11029.068536,459.657299
602.942281,-592.164754,-10288.862594,76.609550
602.942605,-962.267725,-9474.636058,-689.485948
602.942929,-1184.329507,-7920.203579,-306.438199
602.943253,-1406.391290,-8290.306550,-383.047749
602.943577,-2368.659014,-8512.368333,-1302.362347
602.943902,-3997.112087,-7550.100608,-1915.238745
602.944226,-3997.112087,-7476.080014,-1302.362347
602.944550,-2220.617826,-7476.080014,-995.924147
602.944874,-1332.370696,-8734.430116,-306.438199
602.945198,-1628.453072,-8364.327145,459.657299
602.945522,-444.123565,-8956.491898,0.000000
602.945847,888.247130,-9178.553681,229.828649
602.946171,1850.514855,-9770.718434,1225.752797
602.946495,2590.720797,-10584.944971,1915.238745
602.946819,1924.535449,-11029.068536,1991.848295
602.947143,1332.370696,-10140.821405,1455.581446
602.947467,444.123565,-10881.027347,383.047749
602.947792,-888.247130,-11325.150913,-1225.752797
602.948116,-444.123565,-11843.295072,-842.705048
602.948440,962.267725,-11769.274478,-459.657299
602.948764,888.247130,-10362.883188,0.000000
602.949088,-296.082377,-8882.471304,-229.828649
602.949412,-1332.370696,-9030.512492,153.219100
602.949737,-1110.308913,-9918.759623,0.000000
602.950061,-592.164754,-10140.821405,-612.876398
602.950385,-1554.432478,-8734.430116,0.000000
602.950709,-2516.700203,-8068.244768,766.095498
602.951033,-1924.535449,-9622.677246,306.438199
602.951357,-1702.473667,-9030.512492,153.219100
602.951682,-1036.288319,-8734.430116,919.314598
602.952006,-370.102971,-9326.594869,612.876398
602.952330,1110.308913,-9474.636058,229.828649
602.952654,2220.617826,-8882.471304,919.314598
602.952978,2368.659014,-8216.285956,383.047749
602.953302,2368.659014,-9992.780217,229.828649
602.953627,1110.308913,-10881.027347,-229.828649
602.953951,1184.329507,-10732.986159,-306.438199
602.954275,1850.514855,-10584.944971,0.000000
602.954599,2294.638420,-10066.800811,76.609550
602.954923,1776.494261,-10362.883188,995.924147
602.955248,740.205942,-11843.295072,76.609550
602.955572,-296.082377,-11399.171507,-306.438199
602.955896,-1184.329507,-10066.800811,-995.924147
602.956220,-1628.453072,-9400.615463,-612.876398
602.956544,-370.102971,-9918.759623,-306.438199
602.956868,592.164754,-10881.027347,0.000000
602.957193,740.205942,-10362.883188,766.095498
602.957517,0.000000,-9474.636058,153.219100
602.957841,-962.267725,-9178.553681,0.000000
602.958165,-1258.350101,-9030.512492,-76.609550
602.958489,-370.102971,-9844.739029,76.609550
602.958813,0.000000,-9696.697840,612.876398
602.959138,666.185348,-9770.718434,0.000000
602.959462,444.123565,-9030.512492,766.095498
602.959786,1184.329507,-8512.368333,919.314598
602.960110,666.185348,-8660.409521,1685.410096
602.960434,814.226536,-8290.306550,766.095498
602.960758,0.000000,-7179.997637,459.657299
602.961083,-814.226536,-7179.997637,76.609550
602.961407,0.000000,-7476.080014,-383.047749
602.961731,518.144159,-8438.347739,-383.047749
602.962055,296.082377,-8438.347739,229.828649
602.962379,-148.041188,-8734.430116,1072.533697
602.962703,-74.020594,-9474.636058,919.314598
602.963028,-1036.288319,-9474.636058,0.000000
602.963352,-1406.391290,-9696.697840,-229.828649
602.963676,-666.185348,-10436.903782,-459.657299
602.964000,222.061783,-11251.130318,0.000000
602.964324,370.102971,-11251.130318,153.219100
602.964648,0.000000,-10140.821405,0.000000
602.964973,-518.144159,-10436.903782,383.047749
602.965297,-814.226536,-11843.295072,76.609550
602.965621,-962.267725,-11769.274478,-766.095498
602.965945,-1776.494261,-10732.986159,-383.047749
602.966269,-1850.514855,-10140.821405,-612.876398
602.966593,-1480.411884,-10362.883188,-995.924147
602.966918,-1110.308913,-10436.903782,-306.438199
602.967242,-370.102971,-9918.759623,229.828649
602.967566,-740.205942,-10140.821405,153.219100
602.967890,-1332.370696,-9696.697840,-153.219100
602.968214,-740.205942,-8290.306550,-766.095498
602.968538,-296.082377,-8068.244768,-229.828649
602.968863,-148.041188,-9326.594869,-842.705048
602.969187,-370.102971,-9400.615463,-689.485948
602.969511,-666.185348,-8438.347739,0.000000
602.969835,740.205942,-8586.388927,-153.219100
602.970159,2220.617826,-9400.615463,-229.828649
602.970483,1480.411884,-9326.594869,-689.485948
602.970808,1258.350101,-9400.615463,-383.047749
602.971132,1628.453072,-10436.903782,-536.266849
602.971456,2294.638420,-10881.027347,-459.657299
602.971780,1850.514855,-10955.047942,-153.219100
602.972104,666.185348,-10584.944971,459.657299
602.972428,666.185348,-10584.944971,-919.314598
602.972753,888.247130,-10881.027347,-536.266849
602.973077,518.144159,-10955.047942,-306.438199
602.973401,-370.102971,-10362.883188,-842.705048
602.973725,-1258.350101,-9770.718434,-842.705048
602.974049,-1258.350101,-9844.739029,-1302.362347
602.974373,-814.226536,-9770.718434,-689.485948
602.974697,-592.164754,-9474.636058,-383.047749
602.975022,0.000000,-8808.450710,-459.657299
602.975346,-592.164754,-9030.512492,-459.657299
602.975670,-962.267725,-8586.388927,-306.438199
602.975994,-1036.288319,-8438.347739,0.000000
602.976318,-370.102971,-8882.471304,306.438199
602.976642,1332.370696,-8438.347739,536.266849
602.976966,1480.411884,-8364.327145,459.657299
602.977290,1110.308913,-7920.203579,1225.752797
602.977614,962.267725,-8586.388927,1838.629195
602.977938,1110.308913,-9844.739029,1225.752797
602.978262,814.226536,-9030.512492,536.266849
602.978586,-888.247130,-8290.306550,76.609550
602.978910,-1110.308913,-9030.512492,-383.047749
602.979234,-962.267725,-9918.759623,0.000000
602.979558,-666.185348,-10214.842000,229.828649
602.979882,-740.205942,-9548.656652,306.438199
602.980206,-1184.329507,-10140.821405,76.609550
602.980530,-1110.308913,-10732.986159,0.000000
602.980854,-1110.308913,-10955.047942,842.705048
602.981178,-1332.370696,-11325.150913,383.047749
602.981502,-888.247130,-10510.924376,153.219100
602.981826,-518.144159,-10658.965565,919.314598
602.982150,592.164754,-11103.089130,689.485948
602.982474,1406.391290,-10584.944971,919.314598
602.982798,740.205942,-9770.718434,612.876398
602.983123,0.000000,-10140.821405,459.657299
602.983447,74.020594,-10807.006753,306.438199
602.983771,-518.144159,-9918.759623,-153.219100
602.984095,-1258.350101,-9030.512492,459.657299
602.984419,-1184.329507,-9178.553681,153.219100
602.984743,-1110.308913,-9104.533087,-229.828649
602.985067,-148.041188,-8660.409521,-306.438199
602.985391,1480.411884,-9548.656652,459.657299
602.985715,2590.720797,-9992.780217,536.266849
602.986039,2886.803174,-8438.347739,-306.438199
602.986363,1776.494261,-7698.141797,766.095498
602.986687,1406.391290,-8808.450710,1149.143247
602.987011,1628.453072,-10732.986159,612.876398
602.987335,518.144159,-10584.944971,1149.143247
602.987659,-370.102971,-9622.677246,995.924147
602.987983,-444.123565,-9104.533087,0.000000
602.988307,370.102971,-9474.636058,0.000000
602.988631,518.144159,-10510.924376,766.095498
602.988955,74.020594,-10955.047942,153.219100
602.989279,-1554.432478,-9918.759623,0.000000
602.989603,-1480.411884,-9622.677246,0.000000
602.989927,-1184.329507,-9696.697840,-689.485948
602.990251,-962.267725,-10807.006753,-612.876398
602.990575,-592.164754,-10658.965565,-383.047749
602.990899,-444.123565,-10140.821405,0.000000
602.991224,-370.102971,-9844.739029,0.000000
602.991548,74.020594,-8882.471304,229.828649
602.991872,1332.370696,-8586.388927,766.095498
602.992196,1480.411884,-9326.594869,766.095498
602.992520,1184.329507,-9326.594869,919.314598
602.992844,222.061783,-8956.491898,459.657299
602.993168,-296.082377,-8068.244768,-229.828649
602.993492,-444.123565,-7105.977043,0.000000
602.993816,-518.144159,-8364.327145,0.000000
602.994140,-592.164754,-9474.636058,1225.752797
602.994464,-2072.576638,-10140.821405,153.219100
602.994788,-2590.720797,-9474.636058,459.657299
602.995112,-1258.350101,-7846.182985,536.266849
602.995436,592.164754,-8882.471304,76.609550
602.995760,1036.288319,-9770.718434,0.000000
602.996084,666.185348,-9622.677246,-459.657299
602.996408,-444.123565,-9252.574275,-919.314598
602.996732,-740.205942,-8586.388927,-459.657299
602.997056,222.061783,-11029.068536,459.657299
602.997380,0.000000,-11991.336260,0.000000
602.997704,148.041188,-10584.944971,0.000000
602.998028,-888.247130,-10214.842000,0.000000
602.998352,-740.205942,-10288.862594,-536.266849
602.998676,296.082377,-10807.006753,-306.438199
602.999000,0.000000,-10881.027347,459.657299
602.999325,148.041188,-9548.656652,-229.828649
602.999649,148.041188,-8956.491898,-2528.115143
602.999973,0.000000,-8660.409521,-919.314598
603.000297,222.061783,-9844.739029,-766.095498
603.000621,0.000000,-10881.027347,-1225.752797
603.000945,-740.205942,-10140.821405,-1149.143247
603.001269,-1036.288319,-10658.965565,-1149.143247
603.001593,-518.144159,-11103.089130,-1455.581446
603.001917,222.061783,-10584.944971,-1378.971896
603.002241,-148.041188,-10584.944971,-459.657299
603.002565,-148.041188,-10658.965565,-536.266849
603.002889,296.082377,-10807.006753,-612.876398
603.003213,0.000000,-10140.821405,0.000000
603.003537,370.102971,-8660.409521,-536.266849
603.003861,296.082377,-9548.656652,-689.485948
603.004185,222.061783,-10362.883188,-1302.362347
603.004509,222.061783,-9400.615463,-229.828649
603.004833,-592.164754,-8586.388927,-306.438199
603.005157,0.000000,-7994.224174,0.000000
603.005481,-296.082377,-9030.512492,0.000000
603.005805,74.020594,-9474.636058,0.000000
603.006129,1184.329507,-9030.512492,-153.219100
603.006453,1554.432478,-9104.533087,-153.219100
603.006777,2294.638420,-9178.553681,459.657299
603.007101,2368.659014,-9326.594869,1149.143247
603.007426,1480.411884,-9918.759623,842.705048
603.007750,592.164754,-8956.491898,0.000000
603.008074,-740.205942,-9474.636058,76.609550
603.008398,-518.144159,-9474.636058,229.828649
603.008722,888.247130,-9548.656652,1072.533697
603.009046,296.082377,-9030.512492,1149.143247
603.009370,-518.144159,-7105.977043,459.657299
603.009694,-1924.535449,-8068.244768,76.609550
603.010018,-1702.473667,-9548.656652,-306.438199
603.010342,-1110.308913,-9992.780217,689.485948
603.010666,-962.267725,-9918.759623,1072.533697
603.010990,-1924.535449,-8882.471304,766.095498
603.011314,-2442.679609,-8586.388927,76.609550
603.011638,-2146.597232,-9474.636058,76.609550
603.011962,-148.041188,-9104.533087,766.095498
603.012286,222.061783,-9770.718434,995.924147
603.012610,592.164754,-9992.780217,766.095498
603.012934,888.247130,-9178.553681,842.705048
603.013258,444.123565,-9030.512492,229.828649
603.013582,0.000000,-8808.450710,-536.266849
603.013906,-592.164754,-9770.718434,0.000000
603.014230,-1184.329507,-10288.862594,-689.485948
603.014554,-962.267725,-10658.965565,-459.657299
603.014878,-444.123565,-10955.047942,153.219100
603.015202,888.247130,-10807.006753,919.314598
603.015527,1406.391290,-11029.068536,766.095498
603.015851,518.144159,-10881.027347,-153.219100
603.016175,370.102971,-9992.780217,0.000000
603.016499,74.020594,-9844.739029,-383.047749
603.016823,888.247130,-9844.739029,0.000000
603.017147,1332.370696,-9474.636058,153.219100
603.017471,444.123565,-9474.636058,0.000000
603.017795,-592.164754,-9474.636058,-612.876398
603.018119,-1480.411884,-9622.677246,-689.485948
603.018443,-1110.308913,-10140.821405,-153.219100
603.018767,-962.267725,-9474.636058,-919.314598
603.019091,-814.226536,-9030.512492,0.000000
603.019415,222.061783,-9030.512492,-153.219100
603.019739,1406.391290,-8586.388927,0.000000
603.020063,1702.473667,-9104.533087,-766.095498
603.020387,1480.411884,-8956.491898,-459.657299
603.020711,1406.391290,-9474.636058,842.705048
603.021035,2960.823768,-10214.842000,766.095498
603.021359,2812.782580,-10140.821405,459.657299
603.021683,2220.617826,-10066.800811,536.266849
603.022007,888.247130,-9400.615463,-842.705048
603.022331,74.020594,-10881.027347,-919.314598
603.022655,0.000000,-10362.883188,-383.047749
603.022979,-296.082377,-9622.677246,0.000000
603.023303,-1110.308913,-9548.656652,-536.266849
603.023628,-592.164754,-9252.574275,-153.219100
603.023952,888.247130,-10066.800811,459.657299
603.024276,1110.308913,-10807.006753,229.828649
603.024600,0.000000,-9548.656652,-306.438199
603.024924,-888.247130,-9178.553681,-383.047749
603.025248,-1332.370696,-9030.512492,-612.876398
603.025572,-1036.288319,-9474.636058,-459.657299
603.025896,-888.247130,-9918.759623,383.047749
603.026220,-518.144159,-9548.656652,612.876398
603.026544,74.020594,-8660.409521,-459.657299
603.026868,-370.102971,-7772.162391,0.000000
603.027192,-592.164754,-7328.038826,229.828649
603.027516,-444.123565,-9474.636058,0.000000
603.027840,-666.185348,-10362.883188,229.828649
603.028164,-1110.308913,-10066.800811,229.828649
603.028488,-1850.514855,-8586.388927,229.828649
603.028812,-1776.494261,-8586.388927,842.705048
603.029136,-1554.432478,-11177.109724,1072.533697
603.029460,-1110.308913,-11547.212695,536.266849
603.029784,-1258.350101,-10658.965565,919.314598
603.030108,-962.267725,-9548.656652,-76.609550
603.030432,0.000000,-8808.450710,-153.219100
603.030756,444.123565,-9474.636058,-536.266849
603.031080,148.041188,-10214.842000,-1149.143247
603.031404,-740.205942,-9400.615463,-1302.362347
603.031729,-2442.679609,-9030.512492,-1072.533697
603.032053,-1554.432478,-9178.553681,-1072.533697
603.032377,-666.185348,-10214.842000,-842.705048
603.032701,-148.041188,-10140.821405,0.000000
603.033025,148.041188,-9178.553681,-689.485948
603.033349,148.041188,-9326.594869,-383.047749
603.033673,962.267725,-9992.780217,76.609550
603.033997,2220.617826,-10288.862594,459.657299
603.034321,2220.617826,-9844.739029,306.438199
603.034645,1628.453072,-9474.636058,76.609550
603.034969,0.000000,-10140.821405,0.000000
603.035293,-592.164754,-10436.903782,-1608.800546
603.035617,0.000000,-9770.718434,-1455.581446
603.035941,-222.061783,-9622.677246,-1225.752797
603.036265,518.144159,-9474.636058,-1072.533697
603.036589,0.000000,-9474.636058,-1608.800546
603.036913,148.041188,-9400.615463,-612.876398
603.037237,666.185348,-9252.574275,-919.314598
603.037561,1480.411884,-9474.636058,-1072.533697
603.037885,1628.453072,-9400.615463,-229.828649
603.038209,1480.411884,-9400.615463,306.438199
603.038533,1702.473667,-9992.780217,229.828649
603.038857,2146.597232,-9844.739029,229.828649
603.039181,1036.288319,-9400.615463,306.438199
603.039505,1110.308913,-10066.800811,153.219100
603.039830,1332.370696,-10214.842000,383.047749
603.040154,1628.453072,-10288.862594,766.095498
603.040478,1628.453072,-9474.636058,689.485948
603.040802,740.205942,-9400.615463,76.609550
603.041126,518.144159,-9474.636058,-383.047749
603.041450,-296.082377,-9548.656652,229.828649
603.041774,-296.082377,-9770.718434,0.000000
603.042098,0.000000,-8586.388927,76.609550
603.042422,-370.102971,-8882.471304,995.924147
603.042746,-1110.308913,-10362.883188,459.657299
603.043070,-1998.556043,-9918.759623,153.219100
603.043394,-3404.947333,-8956.491898,229.828649
603.043718,-3256.906145,-8290.306550,383.047749
603.044042,-2220.617826,-8956.491898,1378.971896
603.044366,-1406.391290,-9548.656652,1608.800546
603.044690,-888.247130,-8660.409521,1762.019645
603.045014,-444.123565,-8882.471304,1685.410096
603.045338,296.082377,-8808.450710,1378.971896
603.045662,296.082377,-8586.388927,766.095498
603.045986,-222.061783,-9326.594869,0.000000
603.046310,-592.164754,-9474.636058,153.219100
603.046634,148.041188,-10732.986159,689.485948
603.046958,-518.144159,-10214.842000,0.000000
603.047282,-148.041188,-9844.739029,0.000000
603.047606,-148.041188,-10362.883188,153.219100
603.047931,0.000000,-10658.965565,-306.438199
603.048255,-370.102971,-10288.862594,-306.438199
603.048579,-1184.329507,-10066.800811,-383.047749
603.048903,-1480.411884,-9178.553681,-689.485948
603.049227,-1332.370696,-9770.718434,-536.266849
603.049551,-888.247130,-11103.089130,383.047749
603.049875,-444.123565,-10066.800811,612.876398
603.050199,-296.082377,-8956.491898,-306.438199
603.050523,-296.082377,-8956.491898,0.000000
603.050847,814.226536,-9696.697840,76.609550
603.051171,2590.720797,-9770.718434,-689.485948
603.051495,2442.679609,-8956.491898,-1225.752797
603.051819,1702.473667,-9178.553681,-1072.533697
603.052143,1332.370696,-9622.677246,-1378.971896
603.052467,1036.288319,-10436.903782,-1532.190996
603.052791,370.102971,-10584.944971,-995.924147
603.053115,222.061783,-10436.903782,-689.485948
603.053439,0.000000,-9992.780217,-919.314598
603.053763,518.144159,-10066.800811,0.000000
603.054087,1184.329507,-9770.718434,153.219100
603.054411,1628.453072,-9400.615463,383.047749
603.054735,1258.350101,-9696.697840,-383.047749
603.055059,-370.102971,-10288.862594,-536.266849
603.055383,-962.267725,-10066.800811,-1149.143247
603.055707,740.205942,-9400.615463,-766.095498
603.056032,1850.514855,-10066.800811,-383.047749
603.056356,1924.535449,-10288.862594,76.609550
603.056680,666.185348,-10288.862594,-766.095498
603.057004,0.000000,-10362.883188,-1149.143247
603.057328,296.082377,-10140.821405,-995.924147
603.057652,518.144159,-10732.986159,76.609550
603.057976,74.020594,-10955.047942,0.000000
603.058300,-518.144159,-9030.512492,-383.047749
603.058624,-888.247130,-8290.306550,0.000000
603.058948,-666.185348,-8364.327145,0.000000
603.059272,-222.061783,-9104.533087,-689.485948
603.059596,-148.041188,-9474.636058,689.485948
603.059920,1258.350101,-9030.512492,1302.362347
603.060244,1406.391290,-9030.512492,612.876398
603.060568,74.020594,-8290.306550,-153.219100
603.060892,-1110.308913,-8956.491898,766.095498
603.061216,-1184.329507,-10362.883188,0.000000
603.061540,-592.164754,-10288.862594,-306.438199
603.061864,-962.267725,-9326.594869,536.266849
603.062188,-1184.329507,-8956.491898,459.657299
603.062512,0.000000,-9178.553681,76.609550
603.062836,592.164754,-10288.862594,689.485948
603.063160,296.082377,-10066.800811,919.314598
603.063484,-1184.329507,-9770.718434,0.000000
603.063808,-1332.370696,-9326.594869,76.609550
603.064133,-1332.370696,-8142.265362,536.266849
603.064457,-518.144159,-9696.697840,842.705048
603.064781,-518.144159,-10066.800811,383.047749
603.065105,-1702.473667,-9474.636058,229.828649
603.065429,-1924.535449,-8586.388927,0.000000
603.065753,-296.082377,-7846.182985,-383.047749
603.066077,1184.329507,-9104.533087,536.266849
603.066401,666.185348,-10436.903782,536.266849
603.066725,0.000000,-9474.636058,0.000000
603.067049,-1110.308913,-9252.574275,-536.266849
603.067373,-1776.494261,-9918.759623,-995.924147
603.067697,-1628.453072,-10732.986159,0.000000
603.068021,-370.102971,-10510.924376,0.000000
603.068345,-370.102971,-9992.780217,-919.314598
603.068669,-1184.329507,-10288.862594,0.000000
603.068993,-962.267725,-9474.636058,-306.438199
603.069317,0.000000,-10214.842000,0.000000
603.069641,74.020594,-11251.130318,0.000000
603.069965,444.123565,-10066.800811,-306.438199
603.070289,222.061783,-8586.388927,0.000000
603.070613,1480.411884,-8586.388927,-383.047749
603.070937,1480.411884,-9696.697840,0.000000
603.071261,888.247130,-10807.006753,-536.266849
603.071585,74.020594,-10066.800811,-1149.143247
603.071909,-518.144159,-10584.944971,-919.314598
603.072234,740.205942,-10140.821405,-612.876398
603.072558,2294.638420,-8956.491898,-536.266849
603.072882,2368.659014,-8808.450710,0.000000
603.073206,888.247130,-9030.512492,-919.314598
603.073530,444.123565,-9326.594869,-1149.143247
603.073854,888.247130,-9252.574275,-842.705048
603.074178,1480.411884,-9030.512492,-612.876398
603.074502,888.247130,-9918.759623,153.219100
603.074826,1332.370696,-9992.780217,-536.266849
603.075150,1110.308913,-10510.924376,153.219100
603.075474,740.205942,-11399.171507,919.314598
603.075798,1036.288319,-10584.944971,-229.828649
603.076122,296.082377,-9622.677246,0.000000
603.076446,74.020594,-9326.594869,-383.047749
603.076771,0.000000,-9548.656652,0.000000
603.077095,-222.061783,-9844.739029,-995.924147
603.077419,-1776.494261,-9548.656652,-612.876398
603.077743,-2368.659014,-9474.636058,76.609550
603.078067,-1628.453072,-9252.574275,-306.438199
603.078391,-1332.370696,-9030.512492,-383.047749
603.078715,-2072.576638,-9696.697840,0.000000
603.079039,-1110.308913,-9252.574275,-536.266849
603.079364,-148.041188,-8882.471304,153.219100
603.079688,296.082377,-10066.800811,383.047749
603.080012,666.185348,-9474.636058,536.266849
603.080336,592.164754,-9252.574275,689.485948
603.080660,518.144159,-9474.636058,459.657299
603.080984,1332.370696,-9770.718434,459.657299
603.081308,592.164754,-9844.739029,766.095498
603.081632,-666.185348,-9474.636058,536.266849
603.081957,-1998.556043,-9400.615463,0.000000
603.082281,-2368.659014,-8956.491898,-995.924147
603.082605,-1850.514855,-8808.450710,-459.657299
603.082929,-1258.350101,-9696.697840,0.000000
603.083253,-666.185348,-9474.636058,0.000000
603.083577,-222.061783,-9178.553681,0.000000
603.083901,-1110.308913,-9178.553681,-766.095498
603.084225,-1702.473667,-9400.615463,-306.438199
603.084550,-1036.288319,-10955.047942,-153.219100
603.084874,-592.164754,-11621.233289,0.000000
603.085198,-518.144159,-10214.842000,612.876398
603.085522,-814.226536,-10436.903782,1072.533697
603.085846,-370.102971,-11399.171507,612.876398
603.086170,370.102971,-10732.986159,612.876398
603.086494,74.020594,-9918.759623,0.000000
603.086819,296.082377,-8216.285956,-1149.143247
603.087143,370.102971,-8142.265362,-1762.019645
603.087467,222.061783,-8586.388927,-1225.752797
603.087791,1332.370696,-9030.512492,-153.219100
603.088115,1480.411884,-10140.821405,-153.219100
603.088439,962.267725,-10881.027347,153.219100
603.088763,-148.041188,-9992.780217,-842.705048
603.089087,-444.123565,-9696.697840,-1378.971896
603.089412,1036.288319,-9252.574275,-689.485948
603.089736,1998.556043,-10807.006753,-229.828649
603.090060,2886.803174,-10584.944971,459.657299
603.090384,2590.720797,-9992.780217,1149.143247
603.090708,2368.659014,-10214.842000,306.438199
603.091032,2072.576638,-10066.800811,0.000000
603.091356,1332.370696,-9696.697840,0.000000
603.091680,962.267725,-10288.862594,76.609550
603.092005,0.000000,-10807.006753,-842.705048
603.092329,-1406.391290,-10066.800811,-766.095498
603.092653,-1406.391290,-8956.491898,-689.485948
603.092977,-740.205942,-10288.862594,-306.438199
603.093301,0.000000,-10807.006753,-383.047749
603.093625,-444.123565,-9918.759623,0.000000
603.093949,-814.226536,-9030.512492,76.609550
603.094273,-1036.288319,-8216.285956,-459.657299
603.094598,-962.267725,-8808.450710,0.000000
603.094922,-444.123565,-9104.533087,0.000000
603.095246,0.000000,-9030.512492,536.266849
603.095570,74.020594,-9252.574275,1225.752797
603.095894,1036.288319,-8586.388927,919.314598
603.096218,1628.453072,-7846.182985,0.000000
603.096542,888.247130,-8882.471304,766.095498
603.096866,-592.164754,-9326.594869,153.219100
603.097191,-518.144159,-9844.739029,0.000000
603.097515,-444.123565,-9252.574275,76.609550
603.097839,-444.123565,-8660.409521,0.000000
603.098163,-1406.391290,-9104.533087,-383.047749
603.098487,-2368.659014,-9400.615463,-1915.238745
603.098811,-2368.659014,-10214.842000,-459.657299
603.099135,-2072.576638,-10214.842000,-306.438199
603.099459,-1258.350101,-9918.759623,0.000000
603.099784,-962.267725,-10510.924376,76.609550
603.100108,-740.205942,-9770.718434,-229.828649
603.100432,222.061783,-9474.636058,0.000000
603.100756,444.123565,-9918.759623,459.657299
603.101080,444.123565,-9252.574275,766.095498
603.101404,222.061783,-9548.656652,536.266849
603.101728,-666.185348,-9844.739029,229.828649
603.102052,-814.226536,-9992.780217,306.438199
603.102377,-1406.391290,-10436.903782,-229.828649
603.102701,-1702.473667,-8956.491898,-1072.533697
603.103025,-1702.473667,-7550.100608,-1532.190996
603.103349,-666.185348,-9030.512492,-995.924147
603.103673,888.247130,-9770.718434,-459.657299
603.103997,2220.617826,-9474.636058,383.047749
603.104321,1998.556043,-9104.533087,0.000000
603.104645,1924.535449,-9030.512492,-383.047749
603.104970,2146.597232,-9844.739029,-383.047749
603.105294,2664.741391,-9992.780217,0.000000
603.105618,2368.659014,-10807.006753,995.924147
603.105942,1924.535449,-10881.027347,153.219100
603.106266,1998.556043,-10214.842000,76.609550
603.106590,1702.473667,-10881.027347,995.924147
603.106914,1110.308913,-11103.089130,383.047749
603.107238,-518.144159,-10436.903782,-689.485948
603.107563,-1702.473667,-9844.739029,-1225.752797
603.107887,-1406.391290,-9622.677246,-383.047749
603.108211,296.082377,-10362.883188,-459.657299
603.108535,1184.329507,-10214.842000,-1149.143247
603.108859,370.102971,-9326.594869,0.000000
603.109183,-222.061783,-10436.903782,-306.438199
603.109507,-370.102971,-10732.986159,-306.438199
603.109831,-518.144159,-10658.965565,383.047749
603.110156,0.000000,-9548.656652,-383.047749
603.110480,518.144159,-9178.553681,0.000000
603.110804,592.164754,-9844.739029,459.657299
603.111128,1332.370696,-9326.594869,612.876398
603.111452,1850.514855,-9252.574275,1455.581446
603.111776,814.226536,-9474.636058,1149.143247
603.112100,-1110.308913,-8660.409521,-383.047749
603.112424,-3034.844362,-7846.182985,-919.314598
603.112749,-3182.885551,-8438.347739,-536.266849
603.113073,-2590.720797,-9548.656652,0.000000
603.113397,-2072.576638,-9918.759623,153.219100
603.113721,-1850.514855,-8216.285956,383.047749
603.114045,-1702.473667,-7402.059420,-153.219100
603.114369,-1406.391290,-8142.265362,-689.485948
603.114693,-1036.288319,-9400.615463,-306.438199
603.115017,-888.247130,-10140.821405,306.438199
603.115342,-518.144159,-9770.718434,0.000000
603.115666,-1110.308913,-9548.656652,0.000000
603.115990,-1036.288319,-10066.800811,-612.876398
603.116314,0.000000,-9474.636058,153.219100
603.116638,1036.288319,-10436.903782,76.609550
603.116962,1110.308913,-11325.150913,229.828649
603.117286,74.020594,-10066.800811,-153.219100
603.117610,-518.144159,-9474.636058,383.047749
603.117935,-296.082377,-8808.450710,-383.047749
603.118259,-370.102971,-9178.553681,-766.095498
603.118583,-1110.308913,-9178.553681,-1608.800546
603.118907,-1554.432478,-8660.409521,-1225.752797
603.119231,-962.267725,-9104.533087,-995.924147
603.119555,-740.205942,-8290.306550,-1302.362347
603.119879,-1184.329507,-8808.450710,-766.095498
603.120203,-2516.700203,-10288.862594,-1149.143247
603.120528,-1110.308913,-10732.986159,-1685.410096
603.120852,-1036.288319,-9178.553681,-919.314598
603.121176,444.123565,-9622.677246,-536.266849
603.121500,1110.308913,-9992.780217,-306.438199
603.121824,2220.617826,-10436.903782,-383.047749
603.122148,2664.741391,-9992.780217,-995.924147
603.122472,2072.576638,-10066.800811,-1225.752797
603.122796,888.247130,-10658.965565,-1532.190996
603.123121,740.205942,-11251.130318,-995.924147
603.123445,-444.123565,-11621.233289,-842.705048
603.123769,-962.267725,-10881.027347,-1991.848295
603.124093,-1776.494261,-10140.821405,-2374.896044
603.124417,-1998.556043,-10658.965565,-2604.724693
603.124741,-592.164754,-10362.883188,-2374.896044
603.125065,0.000000,-9992.780217,-1149.143247
603.125389,-444.123565,-9622.677246,-1072.533697
603.125714,-592.164754,-9252.574275,-995.924147
603.126038,-1406.391290,-9622.677246,-1532.190996
603.126362,-1628.453072,-9622.677246,-1608.800546
603.126686,-1776.494261,-9844.739029,-1302.362347
603.127010,-2146.597232,-11029.068536,-1225.752797
603.127334,-2664.741391,-10510.924376,-1149.143247
603.127658,-3701.029710,-10510.924376,-1302.362347
603.127983,-4737.318029,-10510.924376,-2068.457845
603.128307,-4737.318029,-9918.759623,-2145.067394
603.128631,-4515.256246,-9918.759623,-1991.848295
603.128955,-3775.050304,-9104.533087,-2145.067394
603.129279,-2960.823768,-8290.306550,-1608.800546
603.129603,-2368.659014,-8438.347739,-1455.581446
603.129927,-1776.494261,-7920.203579,-1762.019645
603.130251,-1036.288319,-7698.141797,-995.924147
603.130576,-1036.288319,-9252.574275,-1225.752797
603.130900,-2220.617826,-9178.553681,-1762.019645
603.131224,-3478.967927,-8734.430116,-1915.238745
603.131548,-4293.194464,-8882.471304,-2068.457845
603.131872,-4737.318029,-9178.553681,-2604.724693
603.132196,-3923.091493,-9400.615463,-2068.457845
603.132520,-3478.967927,-9918.759623,-2145.067394
603.132844,-2886.803174,-9770.718434,-1838.629195
603.133169,-2738.761985,-9844.739029,-1991.848295
603.133493,-3256.906145,-9622.677246,-1991.848295
603.133817,-2590.720797,-10140.821405,-2068.457845
603.134141,-1036.288319,-9918.759623,-2068.457845
603.134465,592.164754,-9696.697840,-1532.190996
603.134789,1850.514855,-10066.800811,-1838.629195
603.135113,444.123565,-9918.759623,-2068.457845
603.135437,-1184.329507,-9474.636058,-3370.820191
603.135762,-3627.009116,-9992.780217,-3907.087040
603.136086,-4811.338623,-10881.027347,-4366.744339
603.136410,-4367.215058,-10658.965565,-4903.011187
603.136734,-3997.112087,-9918.759623,-3907.087040
603.137058,-3404.947333,-10807.006753,-2528.115143
603.137382,-2516.700203,-10584.944971,-2604.724693
603.137706,-2220.617826,-9696.697840,-2451.505594
603.138030,-2146.597232,-8882.471304,-1608.800546
603.138355,-1184.329507,-9400.615463,-1378.971896
603.138679,370.102971,-10510.924376,-1685.410096
603.139003,814.226536,-10807.006753,-689.485948
603.139327,0.000000,-10066.800811,-766.095498
603.139651,-888.247130,-9548.656652,-2757.943793
603.139975,-2072.576638,-9326.594869,-3524.039291
603.140299,-3108.864956,-9696.697840,-3447.429741
603.140623,-2516.700203,-9844.739029,-3983.696590
603.140948,-1998.556043,-9252.574275,-3447.429741
603.141272,-2368.659014,-9104.533087,-2911.162892
603.141596,-2368.659014,-9474.636058,-2528.115143
603.141920,-2442.679609,-9326.594869,-3064.381992
603.142244,-3404.947333,-8660.409521,-2757.943793
603.142568,-2960.823768,-9548.656652,-2068.457845
603.142892,-2072.576638,-10807.006753,-1685.410096
603.143216,-962.267725,-10510.924376,-1378.971896
603.143541,-592.164754,-9770.718434,-1072.533697
603.143865,592.164754,-10214.842000,-612.876398
603.144189,1702.473667,-11769.274478,-842.705048
603.144513,1480.411884,-11325.150913,-1762.019645
603.144837,148.041188,-9548.656652,-1991.848295
603.145161,740.205942,-9326.594869,-2374.896044
603.145485,148.041188,-10066.800811,-2528.115143
603.145809,0.000000,-10510.924376,-2298.286494
603.146134,-1480.411884,-9474.636058,-1838.629195
603.146458,-2146.597232,-9104.533087,-2068.457845
603.146782,-2368.659014,-9104.533087,-1915.238745
603.147106,-3997.112087,-8438.347739,-2451.505594
603.147430,-6143.709319,-8512.368333,-2834.553343
603.147754,-7550.100608,-9918.759623,-2681.334243
603.148078,-6587.832884,-10584.944971,-2451.505594
603.148402,-4811.338623,-9400.615463,-2221.676944
603.148727,-4367.215058,-8956.491898,-1378.971896
603.149051,-3478.967927,-9622.677246,-1225.752797
603.149375,-1406.391290,-9992.780217,-919.314598
603.149699,962.267725,-9844.739029,-306.438199
603.150023,1036.288319,-9178.553681,-536.266849
603.150347,-296.082377,-10881.027347,-383.047749
603.150671,-1406.391290,-11843.295072,-383.047749
603.150995,-1554.432478,-11103.089130,-842.705048
603.151320,-2442.679609,-9622.677246,-1378.971896
603.151644,-4293.194464,-9548.656652,-1991.848295
603.151968,-6513.812290,-10658.965565,-2911.162892
603.152292,-6217.729913,-9326.594869,-2528.115143
603.152616,-5033.400406,-7476.080014,-2451.505594
603.152940,-5033.400406,-7550.100608,-2757.943793
603.153264,-5921.647536,-8586.388927,-2834.553343
603.153588,-6439.791695,-9178.553681,-2604.724693
603.153913,-5921.647536,-7920.203579,-2451.505594
603.154237,-4293.194464,-7846.182985,-1455.581446
603.154561,-1776.494261,-9252.574275,-1302.362347
603.154885,592.164754,-10066.800811,-536.266849
603.155209,1924.535449,-9844.739029,-153.219100
603.155533,1924.535449,-9252.574275,-612.876398
603.155857,148.041188,-10140.821405,-766.095498
603.156181,-962.267725,-10807.006753,-1225.752797
603.156506,-740.205942,-10066.800811,-995.924147
603.156830,296.082377,-9474.636058,-1149.143247
603.157154,-740.205942,-9400.615463,-1608.800546
603.157478,-3627.009116,-10140.821405,-2681.334243
603.157802,-5477.523971,-10510.924376,-2681.334243
603.158126,-5625.565159,-7994.224174,-5056.230287
603.158450,-4811.338623,-8068.244768,-5515.887586
603.158774,-4293.194464,-12213.398043,-2834.553343
603.159099,-1110.308913,-13915.871710,-3370.820191
603.159423,1406.391290,-11695.253884,-3447.429741
603.159747,592.164754,-9252.574275,-1685.410096
603.160071,1332.370696,-8660.409521,-2528.115143
603.160395,2960.823768,-9622.677246,-2604.724693
603.160719,4441.235652,-8808.450710,-1225.752797
603.161043,5107.421000,-8734.430116,0.000000
603.161367,4441.235652,-11029.068536,-1455.581446
603.161692,370.102971,-12361.439231,-1608.800546
603.162016,-3552.988522,-11843.295072,-1378.971896
603.162340,-5403.503377,-10066.800811,-2987.772442
603.162664,-7031.956449,-9030.512492,-4596.572988
603.162988,-7624.121203,-10584.944971,-3447.429741
603.163312,-4663.297435,-9844.739029,-3370.820191
603.163636,-740.205942,-8956.491898,-2451.505594
603.163960,222.061783,-8364.327145,-2451.505594
603.164285,-888.247130,-8068.244768,-2451.505594
603.164609,-1702.473667,-8956.491898,-2528.115143
603.164933,-2368.659014,-10214.842000,-2604.724693
603.165257,-3182.885551,-10584.944971,-2221.676944
603.165581,-3330.926739,-10955.047942,-1915.238745
603.165905,-2146.597232,-10955.047942,-1915.238745
603.166229,-592.164754,-11177.109724,-1378.971896
603.166553,-666.185348,-10732.986159,-1225.752797
603.166878,-740.205942,-9622.677246,-995.924147
603.167202,-2294.638420,-9918.759623,-2145.067394
603.167526,-4145.153275,-9622.677246,-2451.505594
603.167850,-5551.544565,-8734.430116,-2681.334243
603.168174,-6291.750507,-8512.368333,-3370.820191
603.168498,-7105.977043,-8586.388927,-3064.381992
603.168822,-6365.771101,-8808.450710,-3064.381992
603.169147,-4663.297435,-8660.409521,-2834.553343
603.169471,-2368.659014,-8142.265362,-2451.505594
603.169795,-1332.370696,-7624.121203,-2374.896044
603.170119,-444.123565,-8290.306550,-2145.067394
603.170443,-222.061783,-8956.491898,-1685.410096
603.170767,-296.082377,-10436.903782,-1532.190996
603.171091,-666.185348,-10658.965565,-995.924147
603.171415,-592.164754,-10140.821405,-1072.533697
603.171740,-1332.370696,-10140.821405,-689.485948
603.172064,-2886.803174,-10732.986159,-1378.971896
603.172388,-4515.256246,-11843.295072,-1455.581446
603.172712,-5625.565159,-11399.171507,-1762.019645
603.173036,-5773.606348,-10955.047942,-2221.676944
603.173360,-5255.462188,-10066.800811,-2681.334243
603.173684,-3997.112087,-9326.594869,-2757.943793
603.174008,-2294.638420,-8438.347739,-2604.724693
603.174333,-370.102971,-7698.141797,-2987.772442
603.174657,1036.288319,-8438.347739,-2604.724693
603.174981,1036.288319,-8364.327145,-2911.162892
603.175305,1184.329507,-8216.285956,-1991.848295
603.175629,444.123565,-9326.594869,-2374.896044
603.175953,-1480.411884,-10732.986159,-2451.505594
603.176277,-2960.823768,-11843.295072,-2987.772442
603.176601,-3701.029710,-11843.295072,-3217.601092
603.176925,-3034.844362,-11769.274478,-2374.896044
603.177250,-2294.638420,-11769.274478,-1608.800546
603.177574,-1702.473667,-10732.986159,-459.657299
603.177898,-1036.288319,-9918.759623,-383.047749
603.178222,-592.164754,-8956.491898,-536.266849
603.178546,74.020594,-8660.409521,-1072.533697
603.178870,518.144159,-8660.409521,-1302.362347
603.179194,1258.350101,-8586.388927,-1302.362347
603.179518,1628.453072,-9178.553681,-842.705048
603.179842,1184.329507,-9844.739029,-842.705048
603.180167,-296.082377,-10066.800811,-1149.143247
603.180491,-2146.597232,-11103.089130,-2145.067394
603.180815,-4219.173869,-11991.336260,-2451.505594
603.181139,-5403.503377,-11917.315666,-2757.943793
603.181463,-5403.503377,-11399.171507,-2068.457845
603.181787,-4737.318029,-10214.842000,-1072.533697
603.182111,-3775.050304,-8882.471304,-995.924147
603.182435,-1924.535449,-7624.121203,-383.047749
603.182760,-666.185348,-7698.141797,-229.828649
603.183084,-222.061783,-7994.224174,76.609550
603.183408,740.205942,-8882.471304,383.047749
603.183732,1332.370696,-8956.491898,459.657299
603.184056,1628.453072,-8512.368333,0.000000
603.184380,1258.350101,-9104.533087,-306.438199
603.184704,-444.123565,-9030.512492,-919.314598
603.185028,-2146.597232,-9474.636058,-2374.896044
603.185352,-3552.988522,-9770.718434,-2451.505594
603.185677,-5181.441594,-9844.739029,-2604.724693
603.186001,-6365.771101,-9918.759623,-2911.162892
603.186325,-7105.977043,-9548.656652,-2834.553343
603.186649,-7105.977043,-8956.491898,-3140.991542
603.186973,-6143.709319,-9030.512492,-3524.039291
603.187297,-4737.318029,-9474.636058,-2221.676944
603.187621,-2886.803174,-10214.842000,-1608.800546
603.187945,-962.267725,-10140.821405,-842.705048
603.188269,592.164754,-10214.842000,-689.485948
603.188594,1258.350101,-10510.924376,-1072.533697
603.188918,1110.308913,-10584.944971,-1532.190996
603.189242,148.041188,-10362.883188,-1838.629195
603.189566,0.000000,-10955.047942,-2374.896044
603.189890,-1332.370696,-10658.965565,-3677.258390
603.190214,-2886.803174,-10362.883188,-4060.306139
603.190538,-4885.359217,-9696.697840,-4673.182538
603.190862,-6365.771101,-9474.636058,-5286.058936
603.191186,-7402.059420,-9104.533087,-5362.668486
603.191511,-6809.894666,-8142.265362,-5515.887586
603.191835,-5107.421000,-7846.182985,-4749.792088
603.192159,-2590.720797,-8216.285956,-3600.648841
603.192483,-444.123565,-8586.388927,-3294.210641
603.192807,444.123565,-9326.594869,-2451.505594
603.193131,518.144159,-10510.924376,-2145.067394
603.193455,74.020594,-11621.233289,-1608.800546
603.193779,-444.123565,-12361.439231,-1991.848295
603.194103,-1924.535449,-11991.336260,-1915.238745
603.194428,-2368.659014,-13027.624579,-2145.067394
603.194752,-3849.070898,-13471.748144,-3140.991542
603.195076,-3256.906145,-12657.521608,-3677.258390
603.195400,-2294.638420,-10140.821405,-4060.306139
603.195724,-1480.411884,-8512.368333,-4290.134789
603.196048,-1332.370696,-7994.224174,-3830.477490
603.196372,-1702.473667,-7920.203579,-3983.696590
603.196696,-2442.679609,-8216.285956,-3447.429741
603.197020,-3923.091493,-8290.306550,-3447.429741
603.197345,-5551.544565,-7920.203579,-3753.867940
603.197669,-5181.441594,-7550.100608,-3524.039291
603.197993,-4293.194464,-7698.141797,-2451.505594
603.198317,-2664.741391,-9104.533087,-1762.019645
603.198641,-222.061783,-9844.739029,-766.095498
603.198965,1184.329507,-10732.986159,842.705048
603.199289,1258.350101,-11473.192101,76.609550
603.199613,592.164754,-11103.089130,-766.095498
603.199938,-592.164754,-11029.068536,-1532.190996
603.200262,-1480.411884,-10955.047942,-1915.238745
603.200586,-518.144159,-9992.780217,-2451.505594
603.200910,814.226536,-8734.430116,-1991.848295
603.201234,1332.370696,-8068.244768,-1302.362347
603.201558,1258.350101,-8216.285956,-1608.800546
603.201882,-1332.370696,-8660.409521,-2451.505594
603.202206,-5181.441594,-7920.203579,-2911.162892
603.202530,-7254.018232,-7402.059420,-3524.039291
603.202855,-7698.141797,-7920.203579,-3370.820191
603.203179,-5995.668130,-9252.574275,-2451.505594
603.203503,-3849.070898,-9918.759623,-766.095498
603.203827,-2590.720797,-11621.233289,383.047749
603.204151,-2368.659014,-12657.521608,153.219100
603.204475,-2516.700203,-11991.336260,0.000000
603.204799,-1184.329507,-10658.965565,-153.219100
603.205123,888.247130,-9918.759623,-306.438199
603.205447,2516.700203,-10362.883188,-153.219100
603.205772,3034.844362,-10584.944971,-229.828649
603.206096,2960.823768,-9770.718434,-612.876398
603.206420,1628.453072,-8660.409521,-1608.800546
603.206744,740.205942,-7624.121203,-1762.019645
603.207068,-1332.370696,-8142.265362,-2145.067394
603.207392,-4515.256246,-9178.553681,-3217.601092
603.207716,-8512.368333,-10658.965565,-3600.648841
603.208040,-10732.986159,-11251.130318,-3677.258390
603.208364,-9326.594869,-9992.780217,-3600.648841
603.208689,-6735.874072,-9178.553681,-2757.943793
603.209013,-5551.544565,-9326.594869,-1685.410096
603.209337,-4737.318029,-10510.924376,-995.924147
603.209661,-4071.132681,-10955.047942,-919.314598
603.209985,-2664.741391,-11103.089130,0.000000
603.210309,222.061783,-11621.233289,919.314598
603.210633,4145.153275,-11843.295072,766.095498
603.210957,7402.059420,-9622.677246,766.095498
603.211281,7179.997637,-7994.224174,76.609550
603.211606,5181.441594,-8956.491898,-306.438199
603.211930,1776.494261,-10584.944971,-1225.752797
603.212254,-1702.473667,-10881.027347,-2068.457845
603.212578,-4885.359217,-9178.553681,-2221.676944
603.212902,-7550.100608,-7994.224174,-3140.991542
603.213226,-8512.368333,-7476.080014,-5056.230287
603.213550,-9622.677246,-7698.141797,-3983.696590
603.213874,-9918.759623,-8142.265362,-4519.963438
603.214199,-8216.285956,-6883.915261,-4213.525239
603.214523,-5921.647536,-7550.100608,-1685.410096
603.214847,-3034.844362,-7846.182985,-1149.143247
603.215171,-888.247130,-6735.874072,-1302.362347
603.215495,518.144159,-8438.347739,0.000000
603.215819,2442.679609,-11473.192101,689.485948
603.216143,7402.059420,-12361.439231,1302.362347
603.216467,10140.821405,-10288.862594,919.314598
603.216791,8068.244768,-9548.656652,1072.533697
603.217116,4367.215058,-11843.295072,-689.485948
603.217440,0.000000,-13693.809927,-1762.019645
603.217764,-4367.215058,-12065.356855,-3600.648841
603.218088,-9104.533087,-10066.800811,-5132.839837
603.218412,-12657.521608,-10214.842000,-5362.668486
603.218736,-11991.336260,-10584.944971,-6281.983084
603.219060,-9104.533087,-7698.141797,-6588.421283
603.219384,-8290.306550,-5329.482782,-5286.058936
603.219708,-7179.997637,-6957.935855,-4979.620737
603.220033,-5107.421000,-9622.677246,-4366.744339
603.220357,-2368.659014,-9104.533087,-3447.429741
603.220681,1480.411884,-7254.018232,-1762.019645
603.221005,4145.153275,-11325.150913,153.219100
603.221329,4515.256246,-14656.077652,-306.438199
603.221653,4219.173869,-14137.933492,-612.876398
603.221977,4071.132681,-11991.336260,-153.219100
603.222301,3552.988522,-12657.521608,-995.924147
603.222625,1332.370696,-14063.912898,-2145.067394
603.222950,-1924.535449,-12657.521608,-3370.820191
603.223274,-4959.379811,-10436.903782,-4443.353888
603.223598,-5551.544565,-10214.842000,-4749.792088
603.223922,-6957.935855,-9326.594869,-4903.011187
603.224246,-7254.018232,-7624.121203,-4903.011187
603.224570,-6587.832884,-5329.482782,-4979.620737
603.224894,-5181.441594,-5181.441594,-5515.887586
603.225218,-3849.070898,-7179.997637,-4596.572988
603.225542,-3034.844362,-8438.347739,-2298.286494
603.225867,-2368.659014,-8808.450710,-1915.238745
603.226191,-1406.391290,-9844.739029,-2221.676944
603.226515,-962.267725,-10362.883188,-2145.067394
603.226839,-296.082377,-10807.006753,-1302.362347
603.227163,888.247130,-11843.295072,-766.095498
603.227487,1776.494261,-13027.624579,-383.047749
603.227811,2220.617826,-12213.398043,-1302.362347
603.228135,962.267725,-11103.089130,-995.924147
603.228459,-814.226536,-9548.656652,-1225.752797
603.228784,-444.123565,-9474.636058,-1838.629195
603.229108,-592.164754,-8142.265362,-2451.505594
603.229432,-1036.288319,-5921.647536,-3064.381992
603.229756,-2590.720797,-5699.585753,-3294.210641
603.230080,-4737.318029,-8068.244768,-2604.724693
603.230404,-5329.482782,-8882.471304,-2987.772442
603.230728,-7179.997637,-8142.265362,-2604.724693
603.231052,-7105.977043,-8882.471304,-2604.724693
603.231377,-6217.729913,-9622.677246,-2681.334243
603.231701,-4737.318029,-10436.903782,-1532.190996
603.232025,-3552.988522,-12213.398043,-689.485948
603.232349,-2294.638420,-12213.398043,-306.438199
603.232673,222.061783,-11251.130318,-306.438199
603.232997,2664.741391,-10436.903782,1915.238745
603.233321,5181.441594,-11103.089130,1378.971896
603.233645,5773.606348,-10584.944971,1838.629195
603.233969,4219.173869,-10288.862594,1149.143247
603.234294,2220.617826,-9696.697840,-766.095498
603.234618,0.000000,-11029.068536,-995.924147
603.234942,-740.205942,-12731.542202,-766.095498
603.235266,-2368.659014,-11325.150913,-2374.896044
603.235590,-4959.379811,-9474.636058,-1302.362347
603.235914,-6735.874072,-9326.594869,-689.485948
603.236238,-6291.750507,-8956.491898,-2068.457845
603.236562,-4293.194464,-8660.409521,-1685.410096
603.236886,-2442.679609,-8216.285956,0.000000
603.237211,-296.082377,-7920.203579,766.095498
603.237535,1110.308913,-7846.182985,459.657299
603.237859,1406.391290,-8290.306550,2145.067394
603.238183,2294.638420,-9548.656652,3447.429741
603.238507,3404.947333,-11547.212695,2834.553343
603.238831,2738.761985,-11547.212695,2681.334243
603.239155,1184.329507,-10066.800811,2604.724693
603.239479,148.041188,-9474.636058,919.314598
603.239803,-888.247130,-9104.533087,-153.219100
603.240128,-2220.617826,-9548.656652,0.000000
603.240452,-3552.988522,-10510.924376,0.000000
603.240776,-3701.029710,-10362.883188,-1072.533697
603.241100,-4885.359217,-10066.800811,-689.485948
603.241424,-5847.626942,-7698.141797,-1378.971896
603.241748,-4885.359217,-5699.585753,-1915.238745
603.242072,-3330.926739,-6957.935855,-1915.238745
603.242396,-1184.329507,-8882.471304,-229.828649
603.242720,666.185348,-9104.533087,153.219100
603.243045,1776.494261,-7772.162391,919.314598
603.243369,3627.009116,-6735.874072,1455.581446
603.243693,5033.400406,-8438.347739,1532.190996
603.244017,6513.812290,-9104.533087,919.314598
603.244341,6957.935855,-9104.533087,842.705048
603.244665,6365.771101,-9918.759623,1685.410096
603.244989,6291.750507,-10658.965565,1072.533697
603.245313,4885.359217,-10732.986159,229.828649
603.245637,1406.391290,-10214.842000,-1149.143247
603.245962,-1480.411884,-10066.800811,-1915.238745
603.246286,-3627.009116,-11695.253884,-3677.258390
603.246610,-4885.359217,-11251.130318,-3830.477490
603.246934,-4885.359217,-9918.759623,-2911.162892
603.247258,-3404.947333,-9252.574275,-3217.601092
603.247582,-1628.453072,-7994.224174,-2987.772442
603.247906,-888.247130,-9622.677246,-1991.848295
603.248230,-296.082377,-10658.965565,-1455.581446
603.248555,740.205942,-10955.047942,-842.705048
603.248879,1406.391290,-10362.883188,0.000000
603.249203,2664.741391,-11177.109724,1072.533697
603.249527,2664.741391,-13249.686362,1532.190996
603.249851,2442.679609,-13841.851115,383.047749
603.250175,1036.288319,-11473.192101,306.438199
603.250499,-1184.329507,-10584.944971,-1838.629195
603.250823,-2960.823768,-10362.883188,-2911.162892
603.251147,-3997.112087,-9844.739029,-3217.601092
603.251472,-3923.091493,-9474.636058,-3907.087040
603.251796,-3108.864956,-8882.471304,-2528.115143
603.252120,-2812.782580,-9104.533087,-1608.800546
603.252444,-2146.597232,-9178.553681,-1455.581446
603.252768,-1332.370696,-8438.347739,-1072.533697
603.253092,148.041188,-8142.265362,-612.876398
603.253416,1258.350101,-8586.388927,842.705048
603.253740,2146.597232,-9992.780217,1532.190996
603.254064,2516.700203,-11103.089130,2145.067394
603.254389,2886.803174,-10807.006753,3294.210641
603.254713,2072.576638,-11103.089130,2145.067394
603.255037,-296.082377,-9992.780217,919.314598
603.255361,-2886.803174,-8660.409521,229.828649
603.255685,-4441.235652,-8512.368333,-842.705048
603.256009,-4515.256246,-8956.491898,-1225.752797
603.256333,-4145.153275,-9030.512492,-383.047749
603.256657,-2368.659014,-8216.285956,-383.047749
603.256981,-1480.411884,-7624.121203,229.828649
603.257306,-1110.308913,-8142.265362,153.219100
603.257630,-444.123565,-8068.244768,536.266849
603.257954,740.205942,-8586.388927,1455.581446
603.258278,2664.741391,-9326.594869,1532.190996
603.258602,3108.864956,-9474.636058,2221.676944
603.258926,3182.885551,-9770.718434,1455.581446
603.259250,2442.679609,-9474.636058,1072.533697
603.259574,1554.432478,-9474.636058,1608.800546
603.259898,666.185348,-10362.883188,919.314598
603.260223,222.061783,-10362.883188,612.876398
603.260547,296.082377,-10066.800811,1378.971896
603.260871,1406.391290,-9474.636058,612.876398
603.261195,2220.617826,-9770.718434,766.095498
603.261519,1850.514855,-9770.718434,766.095498
603.261843,1332.370696,-9474.636058,383.047749
603.262167,962.267725,-9474.636058,842.705048
603.262491,814.226536,-9992.780217,229.828649
603.262816,444.123565,-10214.842000,995.924147
603.263140,-444.123565,-9844.739029,0.000000
603.263464,370.102971,-9770.718434,-383.047749
603.263788,1554.432478,-9622.677246,0.000000
603.264112,2146.597232,-10584.944971,766.095498
603.264436,1776.494261,-10510.924376,536.266849
603.264760,0.000000,-10658.965565,995.924147
603.265084,-888.247130,-9548.656652,689.485948
603.265408,0.000000,-8956.491898,229.828649
603.265733,-370.102971,-9844.739029,76.609550
603.266057,-518.144159,-9622.677246,842.705048
603.266381,-962.267725,-9844.739029,919.314598
603.266705,-1850.514855,-9770.718434,153.219100
603.267029,-2368.659014,-8660.409521,-919.314598
603.267353,-2220.617826,-8586.388927,-383.047749
603.267677,-222.061783,-9252.574275,-383.047749
603.268001,666.185348,-9548.656652,-229.828649
603.268325,-148.041188,-9326.594869,-229.828649
603.268650,-592.164754,-8290.306550,-689.485948
603.268974,74.020594,-9326.594869,-612.876398
603.269298,1258.350101,-10584.944971,-766.095498
603.269622,1332.370696,-10214.842000,0.000000
603.269946,740.205942,-10214.842000,76.609550
603.270270,-296.082377,-9770.718434,459.657299
603.270594,-1184.329507,-10214.842000,153.219100
603.270918,-1406.391290,-10658.965565,-612.876398
603.271242,-2146.597232,-9696.697840,-306.438199
603.271567,-2664.741391,-9770.718434,-689.485948
603.271891,-1998.556043,-9030.512492,-995.924147
603.272215,-518.144159,-8586.388927,0.000000
603.272539,296.082377,-8438.347739,-842.705048
603.272863,148.041188,-7920.203579,-1532.190996
603.273187,-444.123565,-8586.388927,-1225.752797
603.273511,-740.205942,-9918.759623,-1915.238745
603.273835,0.000000,-10732.986159,-842.705048
603.274159,148.041188,-11695.253884,-459.657299
603.274484,0.000000,-10955.047942,229.828649
603.274808,148.041188,-11251.130318,0.000000
603.275132,-1036.288319,-11325.150913,-229.828649
603.275456,-1184.329507,-10584.944971,-766.095498
603.275780,-888.247130,-9622.677246,-1149.143247
603.276104,-740.205942,-9844.739029,-306.438199
603.276428,-222.061783,-10214.842000,-306.438199
603.276752,0.000000,-9474.636058,-689.485948
603.277076,370.102971,-8364.327145,153.219100
603.277401,1036.288319,-8660.409521,-459.657299
603.277725,1406.391290,-9770.718434,-842.705048
603.278049,1702.473667,-9400.615463,-383.047749
603.278373,1184.329507,-9918.759623,-612.876398
603.278697,1554.432478,-10510.924376,0.000000
603.279021,2294.638420,-10807.006753,76.609550
603.279345,2220.617826,-10436.903782,306.438199
603.279669,1480.411884,-9030.512492,459.657299
603.279993,222.061783,-8512.368333,0.000000
603.280317,148.041188,-8808.450710,-383.047749
603.280641,962.267725,-8068.244768,612.876398
603.280966,1554.432478,-8882.471304,383.047749
603.281290,518.144159,-9104.533087,689.485948
603.281614,-1110.308913,-9104.533087,229.828649
603.281938,-1850.514855,-8882.471304,-153.219100
603.282262,-1628.453072,-9474.636058,0.000000
603.282586,-1184.329507,-10510.924376,76.609550
603.282910,-296.082377,-10436.903782,-153.219100
603.283234,-222.061783,-10362.883188,-153.219100
603.283558,-814.226536,-9474.636058,-766.095498
603.283882,-888.247130,-9030.512492,-612.876398
603.284207,-888.247130,-10140.821405,-459.657299
603.284531,-370.102971,-10584.944971,-306.438199
603.284855,0.000000,-9474.636058,383.047749
603.285179,-296.082377,-9178.553681,306.438199
603.285503,-222.061783,-9252.574275,0.000000
603.285827,740.205942,-9992.780217,766.095498
603.286151,1480.411884,-9770.718434,612.876398
603.286475,1628.453072,-9474.636058,306.438199
603.286799,1406.391290,-9400.615463,0.000000
603.287123,814.226536,-9326.594869,-153.219100
603.287447,1036.288319,-9918.759623,153.219100
603.287772,-222.061783,-10214.842000,76.609550
603.288096,-1258.350101,-10362.883188,-383.047749
603.288420,-2516.700203,-10288.862594,-842.705048
603.288744,-2960.823768,-9474.636058,-1532.190996
603.289068,-2812.782580,-9400.615463,-1225.752797
603.289392,-2220.617826,-9474.636058,-459.657299
603.289716,-444.123565,-9474.636058,153.219100
603.290040,-148.041188,-10510.924376,995.924147
603.290364,-1702.473667,-9548.656652,76.609550
603.290688,-1776.494261,-9400.615463,536.266849
603.291013,-1406.391290,-10140.821405,766.095498
603.291337,-518.144159,-10510.924376,612.876398
603.291661,-370.102971,-10436.903782,842.705048
603.291985,-592.164754,-10288.862594,383.047749
603.292309,0.000000,-9844.739029,689.485948
603.292633,1850.514855,-10066.800811,766.095498
603.292957,2664.741391,-9548.656652,229.828649
603.293281,2220.617826,-9326.594869,229.828649
603.293605,1554.432478,-9030.512492,0.000000
603.293929,1036.288319,-8660.409521,0.000000
603.294253,148.041188,-8882.471304,229.828649
603.294578,-148.041188,-8512.368333,-229.828649
603.294902,-444.123565,-8882.471304,0.000000
603.295226,-592.164754,-8734.430116,306.438199
603.295550,518.144159,-8290.306550,383.047749
603.295874,1036.288319,-9104.533087,1072.533697
603.296198,1480.411884,-10066.800811,1378.971896
603.296522,2368.659014,-9844.739029,1149.143247
603.296846,2072.576638,-8882.471304,1149.143247
603.297170,2294.638420,-9326.594869,919.314598
603.297494,3552.988522,-9474.636058,1378.971896
603.297819,2368.659014,-10436.903782,536.266849
603.298143,592.164754,-10732.986159,-229.828649
603.298467,-1258.350101,-10066.800811,-306.438199
603.298791,-2072.576638,-9844.739029,-1378.971896
603.299115,-1998.556043,-9474.636058,-1302.362347
603.299439,-1776.494261,-9844.739029,-536.266849
603.299763,-1628.453072,-9474.636058,-612.876398
603.300087,-1850.514855,-9992.780217,-689.485948
603.300411,-2072.576638,-9770.718434,-766.095498
603.300735,-1776.494261,-8364.327145,-1532.190996
603.301060,-518.144159,-8660.409521,-1072.533697
603.301384,148.041188,-9474.636058,-383.047749
603.301708,962.267725,-10584.944971,612.876398
603.302032,1184.329507,-10436.903782,306.438199
603.302356,1776.494261,-9622.677246,153.219100
603.302680,1406.391290,-10436.903782,0.000000
603.303004,1554.432478,-10584.944971,-612.876398
603.303328,1184.329507,-10584.944971,-612.876398
603.303652,74.020594,-11251.130318,-612.876398
603.303976,-666.185348,-9844.739029,-1991.848295
603.304300,-1332.370696,-9474.636058,-1991.848295
603.304625,-1776.494261,-10214.842000,-1991.848295
603.304949,-1924.535449,-10584.944971,-1455.581446
603.305273,-2442.679609,-10807.006753,-1225.752797
603.305597,-2664.741391,-9400.615463,-1378.971896
603.305921,-1924.535449,-9548.656652,-919.314598
603.306245,-1332.370696,-10955.047942,-383.047749
603.306569,-962.267725,-9844.739029,0.000000
603.306893,-592.164754,-9548.656652,76.609550
603.307217,-222.061783,-9030.512492,-153.219100
603.307541,1258.350101,-10066.800811,0.000000
603.307866,1110.308913,-10214.842000,-383.047749
603.308190,740.205942,-9696.697840,1072.533697
603.308514,0.000000,-11103.089130,1225.752797
603.308838,-814.226536,-10658.965565,-689.485948
603.309162,-3034.844362,-8808.450710,-1149.143247
603.309486,-3256.906145,-8364.327145,0.000000
603.309810,-1036.288319,-9252.574275,0.000000
603.310134,518.144159,-9474.636058,0.000000
603.310458,962.267725,-7624.121203,842.705048
603.310782,1628.453072,-6439.791695,612.876398
603.311106,2294.638420,-8290.306550,536.266849
603.311431,2590.720797,-8882.471304,612.876398
603.311755,2368.659014,-8808.450710,842.705048
603.312079,1480.411884,-9548.656652,995.924147
603.312403,1184.329507,-10214.842000,919.314598
603.312727,592.164754,-10807.006753,1149.143247
603.313051,666.185348,-10436.903782,842.705048
603.313375,444.123565,-9622.677246,459.657299
603.313699,370.102971,-9622.677246,459.657299
603.314023,962.267725,-9400.615463,612.876398
603.314347,1036.288319,-8512.368333,459.657299
603.314672,444.123565,-8808.450710,76.609550
603.314996,-1332.370696,-9474.636058,-153.219100
603.315320,-2072.576638,-9992.780217,-612.876398
603.315644,-1924.535449,-10066.800811,-306.438199
603.315968,-592.164754,-9474.636058,0.000000
603.316292,0.000000,-9622.677246,536.266849
603.316616,888.247130,-9548.656652,842.705048
603.316940,1110.308913,-9918.759623,459.657299
603.317264,592.164754,-9696.697840,-229.828649
603.317588,666.185348,-8734.430116,-612.876398
603.317912,1184.329507,-9770.718434,306.438199
603.318237,2146.597232,-11399.171507,306.438199
603.318561,2368.659014,-11177.109724,0.000000
603.318885,0.000000,-10140.821405,153.219100
603.319209,-888.247130,-10214.842000,0.000000
603.319533,-666.185348,-10807.006753,-536.266849
603.319857,-814.226536,-10955.047942,-919.314598
603.320181,-592.164754,-9844.739029,-306.438199
603.320505,0.000000,-10288.862594,-689.485948
603.320829,0.000000,-9992.780217,-306.438199
603.321153,0.000000,-10362.883188,459.657299
603.321478,-222.061783,-10436.903782,536.266849
603.321802,-1702.473667,-9252.574275,-153.219100
603.322126,-3552.988522,-9252.574275,-689.485948
603.322450,-3108.864956,-9474.636058,-459.657299
603.322774,-1554.432478,-9696.697840,153.219100
603.323098,-518.144159,-10066.800811,842.705048
603.323422,-962.267725,-9030.512492,536.266849
603.323746,-1628.453072,-8586.388927,0.000000
603.324070,-1628.453072,-7772.162391,76.609550
603.324394,-666.185348,-7476.080014,0.000000
603.324718,148.041188,-8660.409521,689.485948
603.325043,518.144159,-8586.388927,459.657299
603.325367,74.020594,-8142.265362,153.219100
