#time,accel_x,accel_y,accel_z
1013.773120,74.020594,-9548.656652,76.609550
1013.773444,444.123565,-9844.739029,-306.438199
1013.773768,222.061783,-9622.677246,76.609550
1013.774091,74.020594,-9918.759623,-229.828649
1013.774415,74.020594,-9548.656652,-459.657299
1013.774739,-222.061783,-9548.656652,-229.828649
1013.775063,0.000000,-9992.780217,0.000000
1013.775386,0.000000,-9474.636058,0.000000
1013.775710,148.041188,-9548.656652,229.828649
1013.776034,74.020594,-9474.636058,536.266849
1013.776358,296.082377,-9622.677246,76.609550
1013.776681,148.041188,-9622.677246,153.219100
1013.777005,222.061783,-9844.739029,0.000000
1013.777329,0.000000,-9548.656652,0.000000
1013.777653,-148.041188,-9252.574275,0.000000
1013.777976,148.041188,-9622.677246,0.000000
1013.778300,74.020594,-9622.677246,-612.876398
1013.778624,-296.082377,-9326.594869,-306.438199
1013.778948,-518.144159,-9400.615463,-229.828649
1013.779271,-222.061783,-9770.718434,-306.438199
1013.779595,74.020594,-10140.821405,0.000000
1013.779919,74.020594,-9844.739029,-153.219100
1013.780243,0.000000,-9474.636058,0.000000
1013.780566,-148.041188,-9548.656652,0.000000
1013.780890,0.000000,-9918.759623,306.438199
1013.781214,0.000000,-9844.739029,0.000000
1013.781538,-592.164754,-9622.677246,-306.438199
1013.781861,-592.164754,-9844.739029,-153.219100
1013.782185,-148.041188,-9918.759623,153.219100
1013.782509,222.061783,-9696.697840,459.657299
1013.782833,148.041188,-9178.553681,153.219100
1013.783157,-148.041188,-9548.656652,0.000000
1013.783480,-222.061783,-9918.759623,-306.438199
1013.783804,-370.102971,-10066.800811,0.000000
1013.784128,-296.082377,-10140.821405,306.438199
1013.784452,0.000000,-10066.800811,536.266849
1013.784775,-296.082377,-10214.842000,0.000000
1013.785099,-1036.288319,-9252.574275,153.219100
1013.785423,-1924.535449,-9548.656652,-612.876398
1013.785747,-1702.473667,-9548.656652,0.000000
1013.786070,-1258.350101,-8660.409521,229.828649
1013.786394,-666.185348,-8438.347739,919.314598
1013.786718,370.102971,-8956.491898,536.266849
1013.787042,518.144159,-9474.636058,229.828649
1013.787365,74.020594,-9844.739029,306.438199
1013.787689,-1110.308913,-10214.842000,76.609550
1013.788013,-2368.659014,-10510.924376,459.657299
1013.788337,-2960.823768,-10584.944971,536.266849
1013.788660,-2738.761985,-10436.903782,383.047749
1013.788984,-2516.700203,-10658.965565,766.095498
1013.789308,-2368.659014,-10066.800811,536.266849
1013.789632,-1480.411884,-9178.553681,842.705048
1013.789955,-148.041188,-8364.327145,1072.533697
1013.790279,666.185348,-8142.265362,1532.190996
1013.790603,814.226536,-9030.512492,2145.067394
1013.790927,0.000000,-9474.636058,1608.800546
1013.791250,-1258.350101,-9918.759623,1149.143247
1013.791574,-2590.720797,-10362.883188,995.924147
1013.791898,-2738.761985,-10807.006753,919.314598
1013.792222,-2590.720797,-11029.068536,1225.752797
1013.792545,-3182.885551,-10807.006753,1838.629195
1013.792869,-2664.741391,-10658.965565,1455.581446
1013.793193,-1776.494261,-9770.718434,1838.629195
1013.793517,-1258.350101,-8956.491898,1685.410096
1013.793840,-444.123565,-8734.430116,2145.067394
1013.794164,296.082377,-8956.491898,2451.505594
1013.794488,148.041188,-9474.636058,2757.943793
1013.794812,-444.123565,-9548.656652,3217.601092
1013.795135,-1332.370696,-10140.821405,2987.772442
1013.795459,-3034.844362,-9992.780217,2451.505594
1013.795783,-4071.132681,-10807.006753,2451.505594
1013.796107,-5033.400406,-11029.068536,2681.334243
1013.796430,-5699.585753,-10807.006753,2987.772442
1013.796754,-5625.565159,-10436.903782,3677.258390
1013.797078,-5033.400406,-9104.533087,2911.162892
1013.797402,-5033.400406,-8882.471304,2834.553343
1013.797726,-4589.276840,-9252.574275,3064.381992
1013.798049,-2664.741391,-10140.821405,3677.258390
1013.798373,-1184.329507,-9178.553681,4519.963438
1013.798697,148.041188,-8660.409521,4979.620737
1013.799021,888.247130,-8586.388927,4596.572988
1013.799344,592.164754,-8142.265362,4136.915689
1013.799668,0.000000,-7920.203579,4060.306139
1013.799992,-1110.308913,-8660.409521,3217.601092
1013.800316,-2812.782580,-9030.512492,2757.943793
1013.800639,-3997.112087,-8586.388927,2374.896044
1013.800963,-5107.421000,-8216.285956,1915.238745
1013.801287,-6883.915261,-8586.388927,919.314598
1013.801611,-7402.059420,-9918.759623,1072.533697
1013.801934,-6439.791695,-10732.986159,2145.067394
1013.802258,-3552.988522,-10066.800811,3294.210641
1013.802582,-370.102971,-8660.409521,4290.134789
1013.802906,1924.535449,-8438.347739,5132.839837
1013.803229,3478.967927,-9622.677246,5132.839837
1013.803553,3627.009116,-10362.883188,4366.744339
1013.803877,2442.679609,-10066.800811,4213.525239
1013.804201,814.226536,-9474.636058,3140.991542
1013.804524,-1184.329507,-8586.388927,1378.971896
1013.804848,-3478.967927,-7031.956449,-919.314598
1013.805172,-5847.626942,-8290.306550,-1608.800546
1013.805496,-6217.729913,-11029.068536,-1225.752797
1013.805819,-4515.256246,-11399.171507,-1915.238745
1013.806143,-3478.967927,-9844.739029,-306.438199
1013.806467,-2738.761985,-8586.388927,919.314598
1013.806791,-1850.514855,-9030.512492,995.924147
1013.807114,-2294.638420,-9844.739029,1762.019645
1013.807438,-2590.720797,-10584.944971,1608.800546
1013.807762,-666.185348,-11399.171507,3064.381992
1013.808086,2220.617826,-12583.501014,3677.258390
1013.808409,4959.379811,-11843.295072,4136.915689
1013.808733,5847.626942,-10288.862594,3907.087040
1013.809057,3849.070898,-9622.677246,2374.896044
1013.809381,-962.267725,-9770.718434,-153.219100
1013.809704,-4811.338623,-8734.430116,-3753.867940
1013.810028,-7402.059420,-7846.182985,-3907.087040
1013.810352,-6661.853478,-10362.883188,-2068.457845
1013.810676,-3478.967927,-11917.315666,-2451.505594
1013.810999,-2960.823768,-11251.130318,-1302.362347
1013.811323,-4885.359217,-9474.636058,0.000000
1013.811647,-5551.544565,-8734.430116,-995.924147
1013.811971,-5551.544565,-9104.533087,-306.438199
1013.812294,-4219.173869,-9252.574275,229.828649
1013.812618,-1332.370696,-9622.677246,2757.943793
1013.812942,2294.638420,-13175.665768,3447.429741
1013.813266,3256.906145,-13989.892304,3677.258390
1013.813590,1480.411884,-11769.274478,3907.087040
1013.813913,-518.144159,-9400.615463,2757.943793
1013.814237,-2220.617826,-9400.615463,1149.143247
1013.814561,-2368.659014,-9474.636058,229.828649
1013.814885,-1554.432478,-8512.368333,1302.362347
1013.815208,-1184.329507,-8216.285956,1378.971896
1013.815532,-2960.823768,-8956.491898,153.219100
1013.815856,-5181.441594,-8290.306550,536.266849
1013.816180,-5033.400406,-7772.162391,995.924147
1013.816503,-3849.070898,-7476.080014,995.924147
1013.816827,-4293.194464,-7920.203579,2068.457845
1013.817151,-5625.565159,-9252.574275,1608.800546
1013.817475,-6217.729913,-9696.697840,2451.505594
1013.817798,-4293.194464,-10658.965565,2374.896044
1013.818122,-2072.576638,-9770.718434,3064.381992
1013.818446,-592.164754,-8290.306550,3294.210641
1013.818770,-814.226536,-8882.471304,3140.991542
1013.819093,-1480.411884,-10807.006753,3907.087040
1013.819417,-518.144159,-11547.212695,4136.915689
1013.819741,888.247130,-10807.006753,4749.792088
1013.820065,1036.288319,-9548.656652,4136.915689
1013.820388,-1480.411884,-9252.574275,3140.991542
1013.820712,-3849.070898,-9474.636058,3217.601092
1013.821036,-4293.194464,-10510.924376,3524.039291
1013.821360,-3627.009116,-10362.883188,3140.991542
1013.821683,-4071.132681,-8068.244768,2681.334243
1013.822007,-4515.256246,-6883.915261,2911.162892
1013.822331,-4219.173869,-8068.244768,3677.258390
1013.822655,-2886.803174,-9622.677246,3140.991542
1013.822978,-3034.844362,-8660.409521,2221.676944
1013.823302,-4219.173869,-7624.121203,1762.019645
1013.823626,-3849.070898,-8956.491898,2451.505594
1013.823950,-1036.288319,-11103.089130,3830.477490
1013.824273,1406.391290,-11177.109724,4136.915689
1013.824597,740.205942,-10288.862594,4596.572988
1013.824921,0.000000,-11103.089130,4136.915689
1013.825245,518.144159,-11991.336260,3677.258390
1013.825568,962.267725,-11325.150913,3294.210641
1013.825892,-370.102971,-9770.718434,4290.134789
1013.826216,-2812.782580,-10584.944971,3524.039291
1013.826540,-4145.153275,-10584.944971,2145.067394
1013.826863,-2368.659014,-9400.615463,2451.505594
1013.827187,-1406.391290,-8216.285956,2681.334243
1013.827511,-2442.679609,-8956.491898,2298.286494
1013.827835,-3997.112087,-9326.594869,842.705048
1013.828159,-3701.029710,-7846.182985,1225.752797
1013.828482,-2368.659014,-7846.182985,1455.581446
1013.828806,-1924.535449,-9474.636058,1455.581446
1013.829130,-2368.659014,-9548.656652,1608.800546
1013.829454,-1998.556043,-8364.327145,2451.505594
1013.829777,-592.164754,-9030.512492,2681.334243
1013.830101,222.061783,-10436.903782,2145.067394
1013.830425,0.000000,-10436.903782,2451.505594
1013.830749,-370.102971,-10214.842000,3447.429741
1013.831072,-296.082377,-11029.068536,2681.334243
1013.831396,-740.205942,-10510.924376,1838.629195
1013.831720,-1406.391290,-7698.141797,2451.505594
1013.832044,-2368.659014,-8068.244768,2451.505594
1013.832367,-3775.050304,-9918.759623,-229.828649
1013.832691,-4441.235652,-9252.574275,-612.876398
1013.833015,-3923.091493,-8290.306550,1302.362347
1013.833339,-3552.988522,-9770.718434,766.095498
1013.833662,-3478.967927,-9770.718434,-536.266849
1013.833986,-3478.967927,-7698.141797,1225.752797
1013.834310,-1924.535449,-8882.471304,1915.238745
1013.834634,-592.164754,-11769.274478,689.485948
1013.834957,-1258.350101,-10732.986159,1225.752797
1013.835281,-1554.432478,-9918.759623,2068.457845
1013.835605,-1702.473667,-10584.944971,612.876398
1013.835928,-1554.432478,-10362.883188,536.266849
1013.836252,-1628.453072,-9548.656652,1149.143247
1013.836576,-1406.391290,-10214.842000,383.047749
1013.836900,-2664.741391,-11103.089130,-842.705048
1013.837223,-3849.070898,-10807.006753,153.219100
1013.837547,-3256.906145,-11177.109724,0.000000
1013.837871,-2590.720797,-11177.109724,153.219100
1013.838195,-2738.761985,-10881.027347,383.047749
1013.838518,-2960.823768,-9770.718434,-306.438199
1013.838842,-2368.659014,-9770.718434,459.657299
1013.839166,-3256.906145,-11621.233289,1532.190996
1013.839490,-2368.659014,-11547.212695,919.314598
1013.839813,-1702.473667,-9104.533087,1915.238745
1013.840137,-2146.597232,-9622.677246,2451.505594
1013.840461,-962.267725,-10362.883188,1838.629195
1013.840785,-1036.288319,-9474.636058,1915.238745
1013.841108,-2812.782580,-9474.636058,2451.505594
1013.841432,-2368.659014,-9030.512492,1378.971896
1013.841756,-1036.288319,-8364.327145,1838.629195
1013.842079,-1110.308913,-8142.265362,2451.505594
1013.842403,-2220.617826,-8512.368333,1455.581446
1013.842727,-3552.988522,-9104.533087,919.314598
1013.843051,-4071.132681,-9326.594869,1149.143247
1013.843374,-4885.359217,-10658.965565,1685.410096
1013.843698,-4293.194464,-10584.944971,2068.457845
1013.844022,-2664.741391,-8364.327145,2834.553343
1013.844346,-1036.288319,-9474.636058,3370.820191
1013.844669,-1036.288319,-10955.047942,3524.039291
1013.844993,-740.205942,-9992.780217,3600.648841
1013.845317,-370.102971,-10288.862594,4826.401637
1013.845641,814.226536,-10140.821405,4979.620737
1013.845964,1702.473667,-9178.553681,4290.134789
1013.846288,1110.308913,-9104.533087,4136.915689
1013.846612,-592.164754,-8142.265362,2604.724693
1013.846935,-2738.761985,-7624.121203,1149.143247
1013.847259,-3701.029710,-8660.409521,919.314598
1013.847583,-4219.173869,-9992.780217,1532.190996
1013.847907,-3997.112087,-10066.800811,1608.800546
1013.848230,-4885.359217,-8438.347739,1608.800546
1013.848554,-5847.626942,-6957.935855,1149.143247
1013.848878,-4219.173869,-7105.977043,842.705048
1013.849202,-2220.617826,-7772.162391,1455.581446
1013.849525,444.123565,-8512.368333,3217.601092
1013.849849,1480.411884,-9622.677246,5056.230287
1013.850173,2146.597232,-10140.821405,4519.963438
1013.850497,1628.453072,-9178.553681,4443.353888
1013.850820,518.144159,-9844.739029,3600.648841
1013.851144,-222.061783,-11251.130318,2681.334243
1013.851468,74.020594,-9992.780217,1991.848295
1013.851791,1036.288319,-9326.594869,612.876398
1013.852115,1184.329507,-9918.759623,229.828649
1013.852439,1406.391290,-10955.047942,229.828649
1013.852763,370.102971,-10807.006753,-689.485948
1013.853086,-1628.453072,-10288.862594,-995.924147
1013.853410,-3034.844362,-10436.903782,-1302.362347
1013.853734,-3552.988522,-10510.924376,-1072.533697
1013.854058,-2516.700203,-10584.944971,0.000000
1013.854381,-1702.473667,-10658.965565,0.000000
1013.854705,-592.164754,-11399.171507,842.705048
1013.855029,-888.247130,-11843.295072,1302.362347
1013.855353,-296.082377,-11621.233289,1149.143247
1013.855676,0.000000,-9548.656652,1532.190996
1013.856000,1036.288319,-7846.182985,842.705048
1013.856324,2294.638420,-8364.327145,0.000000
1013.856648,2516.700203,-9474.636058,0.000000
1013.856971,2590.720797,-8734.430116,-995.924147
1013.857295,962.267725,-8586.388927,-2221.676944
1013.857619,-1184.329507,-8882.471304,-3294.210641
1013.857942,-1776.494261,-9918.759623,-2681.334243
1013.858266,-1924.535449,-11695.253884,-2604.724693
1013.858590,-3404.947333,-11177.109724,-2604.724693
1013.858914,-5403.503377,-10436.903782,-1455.581446
1013.859237,-4885.359217,-10140.821405,-842.705048
1013.859561,-2368.659014,-11621.233289,229.828649
1013.859885,-370.102971,-9918.759623,0.000000
1013.860209,370.102971,-7179.997637,76.609550
1013.860532,1036.288319,-8512.368333,1225.752797
1013.860856,3256.906145,-11991.336260,2145.067394
1013.861180,4737.318029,-11843.295072,2757.943793
1013.861504,4515.256246,-9622.677246,2528.115143
1013.861827,2516.700203,-6143.709319,0.000000
1013.862151,1406.391290,-5921.647536,-4673.182538
1013.862475,-1702.473667,-10807.006753,-3677.258390
1013.862798,-2368.659014,-12583.501014,-3600.648841
1013.863122,-1184.329507,-11473.192101,-4826.401637
1013.863446,-3034.844362,-11103.089130,-612.876398
1013.863770,-1258.350101,-9252.574275,-689.485948
1013.864093,1036.288319,-9030.512492,-1608.800546
1013.864417,0.000000,-8956.491898,-766.095498
1013.864741,518.144159,-8586.388927,1225.752797
1013.865065,2812.782580,-9400.615463,2528.115143
1013.865388,5255.462188,-8512.368333,2451.505594
1013.865712,4219.173869,-6735.874072,3600.648841
1013.866036,3034.844362,-5477.523971,1915.238745
1013.866360,2368.659014,-6957.935855,1302.362347
1013.866683,740.205942,-11473.192101,153.219100
1013.867007,444.123565,-10807.006753,-919.314598
1013.867331,296.082377,-7920.203579,-2681.334243
1013.867655,-888.247130,-8660.409521,-2451.505594
1013.867978,-1332.370696,-10807.006753,-2757.943793
1013.868302,-1480.411884,-11399.171507,-2911.162892
1013.868626,-2368.659014,-10288.862594,-2374.896044
1013.868949,-3478.967927,-9030.512492,-1838.629195
1013.869273,-2516.700203,-10288.862594,-612.876398
1013.869597,148.041188,-10658.965565,-306.438199
1013.869921,2072.576638,-10214.842000,1455.581446
1013.870244,2368.659014,-12139.377449,1762.019645
1013.870568,2516.700203,-11843.295072,1072.533697
1013.870892,1776.494261,-9992.780217,1532.190996
1013.871216,222.061783,-9474.636058,1072.533697
1013.871539,0.000000,-10214.842000,1072.533697
1013.871863,-370.102971,-11769.274478,-919.314598
1013.872187,-1998.556043,-10732.986159,-1378.971896
1013.872511,-2442.679609,-9104.533087,-1532.190996
1013.872834,-1776.494261,-8956.491898,-1532.190996
1013.873158,-1258.350101,-9252.574275,-1225.752797
1013.873482,-2220.617826,-8512.368333,-1532.190996
1013.873805,-2664.741391,-7402.059420,0.000000
1013.874129,-2368.659014,-8512.368333,536.266849
1013.874453,-1110.308913,-9548.656652,842.705048
1013.874777,-740.205942,-9400.615463,1608.800546
1013.875100,-1184.329507,-8882.471304,1532.190996
1013.875424,-592.164754,-10362.883188,1991.848295
1013.875748,1184.329507,-11473.192101,2298.286494
1013.876072,1850.514855,-11843.295072,3370.820191
1013.876395,1184.329507,-10658.965565,1608.800546
1013.876719,592.164754,-9104.533087,842.705048
1013.877043,888.247130,-9474.636058,1149.143247
1013.877367,2812.782580,-10288.862594,1302.362347
1013.877690,666.185348,-10362.883188,536.266849
1013.878014,-2812.782580,-8216.285956,-1302.362347
1013.878338,-4737.318029,-7105.977043,-1225.752797
1013.878661,-3627.009116,-8808.450710,0.000000
1013.878985,-1554.432478,-8660.409521,0.000000
1013.879309,-444.123565,-7550.100608,383.047749
1013.879633,-1628.453072,-7179.997637,1225.752797
1013.879956,-740.205942,-9104.533087,1378.971896
1013.880280,1332.370696,-10732.986159,2221.676944
1013.880604,2368.659014,-9474.636058,3600.648841
1013.880928,2368.659014,-8068.244768,2528.115143
1013.881251,1628.453072,-9400.615463,2221.676944
1013.881575,2368.659014,-10066.800811,2145.067394
1013.881899,3108.864956,-10436.903782,1532.190996
1013.882223,2886.803174,-10066.800811,689.485948
1013.882546,1258.350101,-9548.656652,-689.485948
1013.882870,-592.164754,-9326.594869,-1838.629195
1013.883194,-666.185348,-9178.553681,-1149.143247
1013.883518,-1110.308913,-8660.409521,-1225.752797
1013.883841,-2072.576638,-9622.677246,-1532.190996
1013.884165,-2960.823768,-10066.800811,-1838.629195
1013.884489,-2368.659014,-9178.553681,-1915.238745
1013.884812,-444.123565,-9104.533087,-1225.752797
1013.885136,0.000000,-10362.883188,-383.047749
1013.885460,0.000000,-10140.821405,-459.657299
1013.885784,370.102971,-10955.047942,-383.047749
1013.886107,1850.514855,-10584.944971,-536.266849
1013.886431,2664.741391,-9844.739029,0.000000
1013.886755,2442.679609,-10881.027347,-306.438199
1013.887079,1036.288319,-11695.253884,-153.219100
1013.887402,1406.391290,-11695.253884,76.609550
1013.887726,2146.597232,-11029.068536,-612.876398
1013.888050,1184.329507,-10140.821405,-1455.581446
1013.888374,-518.144159,-9770.718434,-2221.676944
1013.888697,-740.205942,-10288.862594,-2374.896044
1013.889021,-444.123565,-10881.027347,-2757.943793
1013.889345,-1776.494261,-10584.944971,-1455.581446
1013.889668,-3034.844362,-10066.800811,-1378.971896
1013.889992,-2738.761985,-10214.842000,-2298.286494
1013.890316,-2146.597232,-9992.780217,-1915.238745
1013.890640,-814.226536,-9474.636058,-995.924147
1013.890963,296.082377,-10140.821405,-383.047749
1013.891287,740.205942,-10732.986159,76.609550
1013.891611,1036.288319,-10732.986159,306.438199
1013.891935,1998.556043,-8882.471304,0.000000
1013.892258,2664.741391,-8586.388927,766.095498
1013.892582,2590.720797,-10510.924376,995.924147
1013.892906,1628.453072,-10362.883188,306.438199
1013.893230,296.082377,-9104.533087,76.609550
1013.893553,-444.123565,-7476.080014,536.266849
1013.893877,-222.061783,-8290.306550,-153.219100
1013.894201,-592.164754,-8734.430116,-1378.971896
1013.894525,-1480.411884,-7254.018232,-612.876398
1013.894848,-2146.597232,-6883.915261,-766.095498
1013.895172,-2294.638420,-7698.141797,-1532.190996
1013.895496,-1924.535449,-9474.636058,612.876398
1013.895819,-1406.391290,-9400.615463,0.000000
1013.896143,-592.164754,-9030.512492,612.876398
1013.896467,-370.102971,-8808.450710,689.485948
1013.896791,592.164754,-8956.491898,766.095498
1013.897114,1036.288319,-9474.636058,536.266849
1013.897438,1406.391290,-9918.759623,1532.190996
1013.897762,1258.350101,-9474.636058,689.485948
1013.898086,1406.391290,-9326.594869,1149.143247
1013.898409,592.164754,-10214.842000,689.485948
1013.898733,0.000000,-11251.130318,-229.828649
1013.899057,-444.123565,-10584.944971,-459.657299
1013.899381,-592.164754,-9622.677246,-689.485948
1013.899704,-666.185348,-9992.780217,-536.266849
1013.900028,-1184.329507,-10362.883188,-1072.533697
1013.900352,-1480.411884,-9622.677246,-1532.190996
1013.900675,-1998.556043,-9844.739029,-689.485948
1013.900999,-1036.288319,-11103.089130,-689.485948
1013.901323,518.144159,-11547.212695,766.095498
1013.901647,1184.329507,-10881.027347,842.705048
1013.901970,814.226536,-10288.862594,1149.143247
1013.902294,0.000000,-9918.759623,306.438199
1013.902618,888.247130,-10362.883188,1225.752797
1013.902942,1406.391290,-11325.150913,1762.019645
1013.903265,1406.391290,-11177.109724,1302.362347
1013.903589,1184.329507,-10066.800811,1149.143247
1013.903913,888.247130,-9474.636058,383.047749
1013.904237,296.082377,-9474.636058,229.828649
1013.904560,148.041188,-10436.903782,153.219100
1013.904884,-296.082377,-10214.842000,842.705048
1013.905208,-1258.350101,-9252.574275,229.828649
1013.905531,-2368.659014,-7476.080014,383.047749
1013.905855,-2146.597232,-8142.265362,153.219100
1013.906179,-1924.535449,-9918.759623,0.000000
1013.906503,-2072.576638,-10214.842000,383.047749
1013.906826,-1036.288319,-8660.409521,306.438199
1013.907150,0.000000,-7476.080014,919.314598
1013.907474,0.000000,-8808.450710,766.095498
1013.907798,148.041188,-9474.636058,766.095498
1013.908121,222.061783,-9770.718434,1532.190996
1013.908445,444.123565,-10288.862594,1532.190996
1013.908769,444.123565,-9326.594869,1072.533697
1013.909093,-296.082377,-8142.265362,536.266849
1013.909416,-518.144159,-8438.347739,1225.752797
1013.909740,74.020594,-9104.533087,995.924147
1013.910064,592.164754,-8956.491898,1225.752797
1013.910388,0.000000,-7920.203579,536.266849
1013.910711,-1406.391290,-7031.956449,-536.266849
1013.911035,-1776.494261,-7624.121203,-229.828649
1013.911359,-814.226536,-9030.512492,0.000000
1013.911682,592.164754,-9918.759623,-536.266849
1013.912006,1258.350101,-9400.615463,76.609550
1013.912330,1850.514855,-8882.471304,383.047749
1013.912654,1998.556043,-9844.739029,0.000000
1013.912977,2442.679609,-9548.656652,153.219100
1013.913301,1850.514855,-9844.739029,229.828649
1013.913625,666.185348,-11029.068536,-612.876398
1013.913949,444.123565,-11251.130318,-1455.581446
1013.914272,148.041188,-10807.006753,-689.485948
1013.914596,814.226536,-11029.068536,76.609550
1013.914920,296.082377,-11177.109724,-1072.533697
1013.915244,-1776.494261,-10732.986159,-2451.505594
1013.915567,-2516.700203,-10510.924376,-1991.848295
1013.915891,-1332.370696,-11029.068536,-1762.019645
1013.916215,-296.082377,-11843.295072,-1838.629195
1013.916538,-592.164754,-10362.883188,-1685.410096
1013.916862,-888.247130,-9992.780217,-459.657299
1013.917186,962.267725,-12065.356855,229.828649
1013.917510,2516.700203,-12139.377449,306.438199
1013.917833,1258.350101,-10436.903782,0.000000
1013.918157,0.000000,-8956.491898,-459.657299
1013.918481,-740.205942,-10436.903782,-1072.533697
1013.918805,-296.082377,-11843.295072,-612.876398
1013.919128,-370.102971,-10362.883188,-383.047749
1013.919452,-1110.308913,-9474.636058,-995.924147
1013.919776,-2664.741391,-9918.759623,-919.314598
1013.920100,-1702.473667,-10140.821405,-995.924147
1013.920423,148.041188,-9104.533087,-536.266849
1013.920747,0.000000,-8438.347739,76.609550
1013.921071,-1110.308913,-9104.533087,0.000000
1013.921395,-1332.370696,-9474.636058,306.438199
1013.921718,-222.061783,-8068.244768,0.000000
1013.922042,1036.288319,-7402.059420,536.266849
1013.922366,1258.350101,-8290.306550,612.876398
1013.922689,444.123565,-9030.512492,0.000000
1013.923013,-666.185348,-8956.491898,689.485948
1013.923337,-666.185348,-8734.430116,383.047749
1013.923661,0.000000,-8438.347739,0.000000
1013.923984,296.082377,-8364.327145,-306.438199
1013.924308,296.082377,-9030.512492,383.047749
1013.924632,518.144159,-8660.409521,0.000000
1013.924956,592.164754,-8808.450710,995.924147
1013.925279,0.000000,-9030.512492,459.657299
1013.925603,-222.061783,-8512.368333,-612.876398
1013.925927,-1110.308913,-9548.656652,689.485948
1013.926251,-296.082377,-9992.780217,612.876398
1013.926574,1628.453072,-9622.677246,1378.971896
1013.926898,1998.556043,-10362.883188,2068.457845
1013.927222,1258.350101,-9770.718434,459.657299
1013.927545,888.247130,-9252.574275,-229.828649
1013.927869,518.144159,-9178.553681,-536.266849
1013.928193,666.185348,-10584.944971,0.000000
1013.928517,666.185348,-11621.233289,306.438199
1013.928840,74.020594,-10288.862594,766.095498
1013.929164,518.144159,-8882.471304,536.266849
1013.929488,0.000000,-9252.574275,0.000000
1013.929812,-592.164754,-9770.718434,-766.095498
1013.930135,-666.185348,-10066.800811,-536.266849
1013.930459,-888.247130,-9844.739029,-612.876398
1013.930783,-962.267725,-8808.450710,-229.828649
1013.931107,-1332.370696,-9474.636058,766.095498
1013.931430,-1184.329507,-10732.986159,306.438199
1013.931754,148.041188,-10288.862594,76.609550
1013.932078,518.144159,-10140.821405,0.000000
1013.932401,1924.535449,-9918.759623,383.047749
1013.932725,1480.411884,-10288.862594,842.705048
1013.933049,592.164754,-10658.965565,536.266849
1013.933373,-444.123565,-10362.883188,689.485948
1013.933696,-1332.370696,-10140.821405,383.047749
1013.934020,-2220.617826,-9918.759623,383.047749
1013.934344,-2146.597232,-9622.677246,-995.924147
1013.934668,-2590.720797,-9474.636058,-766.095498
1013.934992,-1776.494261,-9548.656652,-153.219100
1013.935316,-370.102971,-9104.533087,0.000000
1013.935640,0.000000,-9474.636058,536.266849
1013.935964,74.020594,-8882.471304,306.438199
1013.936288,222.061783,-8290.306550,0.000000
1013.936612,814.226536,-8660.409521,153.219100
1013.936936,444.123565,-9622.677246,766.095498
1013.937260,888.247130,-10436.903782,-459.657299
1013.937584,-740.205942,-9474.636058,0.000000
1013.937908,-666.185348,-9474.636058,612.876398
1013.938233,740.205942,-9918.759623,459.657299
1013.938557,1554.432478,-9622.677246,229.828649
1013.938881,1702.473667,-8956.491898,-153.219100
1013.939205,740.205942,-9918.759623,0.000000
1013.939529,962.267725,-10362.883188,459.657299
1013.939853,518.144159,-9844.739029,306.438199
1013.940177,-1554.432478,-9400.615463,306.438199
1013.940501,-2220.617826,-8216.285956,-842.705048
1013.940825,-1036.288319,-8882.471304,-766.095498
1013.941149,0.000000,-9696.697840,-306.438199
1013.941473,814.226536,-9622.677246,153.219100
1013.941797,666.185348,-8512.368333,-383.047749
1013.942121,444.123565,-8808.450710,-842.705048
1013.942445,148.041188,-9178.553681,-919.314598
1013.942769,592.164754,-9104.533087,-995.924147
1013.943093,0.000000,-9918.759623,-995.924147
1013.943417,-1036.288319,-10362.883188,-1532.190996
1013.943741,-444.123565,-9548.656652,-1532.190996
1013.944065,814.226536,-9770.718434,-1225.752797
1013.944389,1036.288319,-9622.677246,-1378.971896
1013.944713,444.123565,-9918.759623,-1149.143247
1013.945037,0.000000,-9918.759623,-306.438199
1013.945361,-222.061783,-10510.924376,-766.095498
1013.945685,-296.082377,-9992.780217,-1072.533697
1013.946009,0.000000,-9696.697840,-842.705048
1013.946333,814.226536,-11103.089130,0.000000
1013.946657,1406.391290,-11473.192101,-1072.533697
1013.946981,1406.391290,-10436.903782,153.219100
1013.947305,740.205942,-9844.739029,459.657299
1013.947629,222.061783,-11325.150913,-536.266849
1013.947953,-592.164754,-11473.192101,-612.876398
1013.948277,-666.185348,-10066.800811,-1225.752797
1013.948601,-1110.308913,-9622.677246,-1378.971896
1013.948925,-1332.370696,-10288.862594,-919.314598
1013.949249,-1110.308913,-10584.944971,-536.266849
1013.949573,0.000000,-10362.883188,459.657299
1013.949897,814.226536,-9770.718434,536.266849
1013.950222,1480.411884,-9104.533087,0.000000
1013.950546,888.247130,-9030.512492,0.000000
1013.950870,1036.288319,-9696.697840,536.266849
1013.951194,1258.350101,-10807.006753,1378.971896
1013.951518,1554.432478,-11251.130318,1915.238745
1013.951842,1258.350101,-9104.533087,919.314598
1013.952166,222.061783,-8808.450710,383.047749
1013.952490,-1110.308913,-9548.656652,-689.485948
1013.952814,-1776.494261,-9696.697840,-689.485948
1013.953138,-1480.411884,-9844.739029,76.609550
1013.953462,0.000000,-9178.553681,536.266849
1013.953786,74.020594,-9104.533087,229.828649
1013.954110,-296.082377,-9104.533087,766.095498
1013.954434,-1036.288319,-9030.512492,1072.533697
1013.954758,-444.123565,-9548.656652,76.609550
1013.955082,-1480.411884,-9622.677246,229.828649
1013.955406,-2368.659014,-8808.450710,612.876398
1013.955730,-1554.432478,-8660.409521,919.314598
1013.956054,-148.041188,-9030.512492,1149.143247
1013.956378,222.061783,-8956.491898,536.266849
1013.956702,-666.185348,-9252.574275,1072.533697
1013.957026,-518.144159,-9474.636058,1225.752797
1013.957350,962.267725,-8660.409521,766.095498
1013.957674,1702.473667,-7476.080014,919.314598
1013.957998,888.247130,-8068.244768,995.924147
1013.958322,-518.144159,-8438.347739,-766.095498
1013.958646,-2146.597232,-8586.388927,-1378.971896
1013.958970,-666.185348,-7550.100608,-689.485948
1013.959294,666.185348,-8142.265362,-459.657299
1013.959618,0.000000,-9326.594869,-383.047749
1013.959942,-148.041188,-10066.800811,-383.047749
1013.960266,592.164754,-9992.780217,306.438199
1013.960590,2072.576638,-9770.718434,229.828649
1013.960914,1110.308913,-10658.965565,1302.362347
1013.961238,-592.164754,-10881.027347,1072.533697
1013.961562,0.000000,-9918.759623,229.828649
1013.961886,296.082377,-9770.718434,383.047749
1013.962211,1406.391290,-10732.986159,306.438199
1013.962535,1480.411884,-10955.047942,-153.219100
1013.962859,666.185348,-11103.089130,-306.438199
1013.963183,0.000000,-10955.047942,459.657299
1013.963507,0.000000,-10436.903782,-995.924147
1013.963831,-296.082377,-10288.862594,-1455.581446
1013.964155,-1702.473667,-10955.047942,-1302.362347
1013.964479,-1628.453072,-11473.192101,-1685.410096
1013.964803,-592.164754,-10807.006753,-1302.362347
1013.965127,0.000000,-9622.677246,-383.047749
1013.965451,0.000000,-10214.842000,536.266849
1013.965775,0.000000,-10510.924376,-306.438199
1013.966099,74.020594,-9400.615463,-536.266849
1013.966423,296.082377,-9252.574275,-612.876398
1013.966747,296.082377,-9770.718434,-536.266849
1013.967071,-518.144159,-10732.986159,-536.266849
1013.967395,-1110.308913,-9622.677246,-842.705048
1013.967719,-1036.288319,-8512.368333,-153.219100
1013.968043,592.164754,-9178.553681,153.219100
1013.968367,1998.556043,-10140.821405,0.000000
1013.968691,1332.370696,-9770.718434,306.438199
1013.969015,-370.102971,-9400.615463,229.828649
1013.969339,0.000000,-8660.409521,-306.438199
1013.969663,222.061783,-8364.327145,-536.266849
1013.969987,-296.082377,-8734.430116,0.000000
1013.970311,-1036.288319,-8882.471304,536.266849
1013.970635,-1332.370696,-8142.265362,383.047749
1013.970959,-1184.329507,-8216.285956,0.000000
1013.971283,-1184.329507,-8438.347739,-383.047749
1013.971607,-1554.432478,-8290.306550,-689.485948
1013.971931,-592.164754,-8808.450710,-459.657299
1013.972255,296.082377,-8808.450710,-842.705048
1013.972579,1036.288319,-7550.100608,-612.876398
1013.972903,0.000000,-8216.285956,-766.095498
1013.973227,-296.082377,-9178.553681,-842.705048
1013.973551,666.185348,-9326.594869,-919.314598
1013.973875,1628.453072,-10140.821405,-306.438199
1013.974200,2368.659014,-10584.944971,-383.047749
1013.974524,2146.597232,-10732.986159,0.000000
1013.974848,1628.453072,-10436.903782,76.609550
1013.975172,1554.432478,-11177.109724,153.219100
1013.975496,592.164754,-10510.924376,-306.438199
1013.975820,-518.144159,-10436.903782,-612.876398
1013.976144,-1332.370696,-11621.233289,0.000000
1013.976468,-1110.308913,-11399.171507,-1072.533697
1013.976792,-962.267725,-10362.883188,-612.876398
1013.977116,-666.185348,-10214.842000,-536.266849
1013.977440,-518.144159,-10732.986159,-612.876398
1013.977764,-888.247130,-10881.027347,-689.485948
1013.978088,-1480.411884,-11177.109724,0.000000
1013.978412,-1110.308913,-10436.903782,-76.609550
1013.978736,-444.123565,-10288.862594,-689.485948
1013.979060,-370.102971,-10436.903782,-919.314598
1013.979384,-666.185348,-10362.883188,0.000000
1013.979708,-296.082377,-10214.842000,0.000000
1013.980032,370.102971,-9548.656652,612.876398
1013.980356,444.123565,-9474.636058,612.876398
1013.980680,0.000000,-9696.697840,536.266849
1013.981004,0.000000,-9178.553681,153.219100
1013.981328,444.123565,-9104.533087,229.828649
1013.981652,74.020594,-9844.739029,919.314598
1013.981976,-814.226536,-11251.130318,1149.143247
1013.982300,-1776.494261,-9992.780217,995.924147
1013.982624,-1406.391290,-8438.347739,842.705048
1013.982948,-222.061783,-8068.244768,153.219100
1013.983272,296.082377,-9030.512492,-306.438199
1013.983596,-296.082377,-9696.697840,0.000000
1013.983920,-740.205942,-9400.615463,1302.362347
1013.984244,-1036.288319,-8660.409521,919.314598
1013.984568,-1406.391290,-7476.080014,76.609550
1013.984892,-2590.720797,-7994.224174,689.485948
1013.985216,-1850.514855,-9326.594869,306.438199
1013.985540,518.144159,-9474.636058,612.876398
1013.985864,2220.617826,-8142.265362,1149.143247
1013.986189,1924.535449,-7846.182985,1455.581446
1013.986513,1258.350101,-8512.368333,689.485948
1013.986837,1110.308913,-8734.430116,919.314598
1013.987161,1184.329507,-8512.368333,536.266849
1013.987485,1998.556043,-7476.080014,0.000000
1013.987809,1036.288319,-7772.162391,-689.485948
1013.988133,-444.123565,-8586.388927,-919.314598
1013.988457,148.041188,-9252.574275,-1072.533697
1013.988781,1184.329507,-9622.677246,0.000000
1013.989105,1406.391290,-9696.697840,-153.219100
1013.989429,74.020594,-10214.842000,-612.876398
1013.989753,-1480.411884,-9178.553681,-383.047749
1013.990077,-1628.453072,-8956.491898,-1915.238745
1013.990401,-1110.308913,-10510.924376,-306.438199
1013.990725,-740.205942,-11473.192101,-766.095498
1013.991049,-444.123565,-11177.109724,-459.657299
1013.991373,-296.082377,-10807.006753,0.000000
1013.991697,666.185348,-10881.027347,153.219100
1013.992021,1554.432478,-11029.068536,-229.828649
1013.992345,1258.350101,-11843.295072,76.609550
1013.992669,518.144159,-11029.068536,459.657299
1013.992993,0.000000,-11177.109724,0.000000
1013.993317,-814.226536,-10362.883188,-1072.533697
1013.993641,-1036.288319,-9622.677246,-1072.533697
1013.993965,-1924.535449,-10584.944971,-536.266849
1013.994289,-1776.494261,-10288.862594,-1455.581446
1013.994613,-2072.576638,-8438.347739,-1532.190996
1013.994937,-1480.411884,-7994.224174,0.000000
1013.995261,-1184.329507,-9474.636058,-612.876398
1013.995585,-592.164754,-10658.965565,-459.657299
1013.995909,-296.082377,-9474.636058,0.000000
1013.996233,666.185348,-9548.656652,536.266849
1013.996557,1628.453072,-10955.047942,229.828649
1013.996881,1776.494261,-9844.739029,383.047749
1013.997205,1332.370696,-9992.780217,766.095498
1013.997529,592.164754,-11473.192101,-153.219100
1013.997853,888.247130,-9770.718434,-1302.362347
1013.998178,222.061783,-9178.553681,-1225.752797
1013.998502,-814.226536,-9474.636058,-766.095498
1013.998826,-370.102971,-9696.697840,-153.219100
1013.999150,74.020594,-9548.656652,-459.657299
1013.999474,0.000000,-9548.656652,306.438199
1013.999798,370.102971,-8364.327145,-766.095498
1014.000122,444.123565,-7328.038826,-689.485948
1014.000446,-1406.391290,-7698.141797,612.876398
1014.000770,-814.226536,-8956.491898,459.657299
1014.001094,444.123565,-8734.430116,536.266849
1014.001418,518.144159,-8068.244768,842.705048
1014.001742,1554.432478,-7624.121203,612.876398
1014.002066,2664.741391,-7772.162391,-459.657299
1014.002390,2368.659014,-8808.450710,-306.438199
1014.002714,962.267725,-9844.739029,-229.828649
1014.003038,1110.308913,-9474.636058,0.000000
1014.003362,888.247130,-9252.574275,-1608.800546
1014.003686,888.247130,-9178.553681,-1225.752797
1014.004010,814.226536,-9992.780217,-1072.533697
1014.004334,148.041188,-11547.212695,-1378.971896
1014.004658,-518.144159,-11547.212695,-1225.752797
1014.004982,-1628.453072,-10362.883188,-1302.362347
1014.005306,-1332.370696,-9474.636058,-995.924147
1014.005630,-1480.411884,-9400.615463,-1378.971896
1014.005954,-2072.576638,-10658.965565,-153.219100
1014.006278,-2368.659014,-12361.439231,536.266849
1014.006602,-1554.432478,-12287.418637,229.828649
1014.006926,-370.102971,-10510.924376,0.000000
1014.007250,-148.041188,-9400.615463,-383.047749
1014.007574,666.185348,-9844.739029,-383.047749
1014.007898,592.164754,-11473.192101,0.000000
1014.008222,74.020594,-11399.171507,0.000000
1014.008546,-888.247130,-9844.739029,-153.219100
1014.008870,-1702.473667,-8956.491898,-842.705048
1014.009194,-1036.288319,-8956.491898,-766.095498
1014.009518,-888.247130,-10362.883188,0.000000
1014.009842,0.000000,-9992.780217,689.485948
1014.010167,592.164754,-8808.450710,76.609550
1014.010491,-814.226536,-8586.388927,229.828649
1014.010815,-148.041188,-9622.677246,1378.971896
1014.011139,592.164754,-9474.636058,995.924147
1014.011463,222.061783,-9844.739029,612.876398
1014.011787,-1554.432478,-9400.615463,229.828649
1014.012111,-1406.391290,-9030.512492,-306.438199
1014.012435,-962.267725,-9770.718434,689.485948
1014.012759,518.144159,-10288.862594,536.266849
1014.013083,1184.329507,-9918.759623,995.924147
1014.013407,1110.308913,-9474.636058,1378.971896
1014.013731,222.061783,-10288.862594,459.657299
1014.014055,-1110.308913,-10510.924376,0.000000
1014.014379,-1332.370696,-9104.533087,76.609550
1014.014703,-962.267725,-9178.553681,-229.828649
1014.015027,-592.164754,-9696.697840,0.000000
1014.015351,-296.082377,-9252.574275,229.828649
1014.015675,740.205942,-7994.224174,153.219100
1014.015999,1184.329507,-8142.265362,229.828649
1014.016323,1702.473667,-8734.430116,919.314598
1014.016647,1776.494261,-9400.615463,766.095498
1014.016971,888.247130,-8882.471304,-689.485948
1014.017295,592.164754,-7254.018232,-689.485948
1014.017619,666.185348,-7105.977043,153.219100
1014.017943,1406.391290,-9770.718434,0.000000
1014.018267,1628.453072,-10214.842000,0.000000
1014.018591,1036.288319,-8512.368333,153.219100
1014.018915,1480.411884,-7698.141797,-459.657299
1014.019239,1332.370696,-9548.656652,-1225.752797
1014.019563,148.041188,-10288.862594,-383.047749
1014.019887,74.020594,-10066.800811,-919.314598
1014.020211,-592.164754,-9252.574275,-995.924147
1014.020535,-444.123565,-9474.636058,-1225.752797
1014.020859,-740.205942,-10066.800811,-1225.752797
1014.021183,-1184.329507,-10807.006753,-383.047749
1014.021507,-2072.576638,-10658.965565,-459.657299
1014.021831,-1406.391290,-10807.006753,-612.876398
1014.022156,-592.164754,-10658.965565,-842.705048
1014.022480,-444.123565,-11177.109724,153.219100
1014.022804,74.020594,-10214.842000,76.609550
1014.023128,740.205942,-10214.842000,-76.609550
1014.023452,518.144159,-10658.965565,153.219100
1014.023776,-148.041188,-11103.089130,76.609550
1014.024100,518.144159,-11251.130318,-383.047749
1014.024424,666.185348,-10658.965565,0.000000
1014.024748,1702.473667,-8956.491898,0.000000
1014.025072,1110.308913,-9548.656652,-383.047749
1014.025396,-962.267725,-9474.636058,-689.485948
1014.025720,-1258.350101,-9844.739029,-1072.533697
1014.026044,-1184.329507,-8956.491898,-1532.190996
1014.026368,-1702.473667,-8734.430116,-1455.581446
1014.026692,-2590.720797,-9548.656652,-1455.581446
1014.027016,-1924.535449,-9918.759623,-536.266849
1014.027340,-962.267725,-10140.821405,459.657299
1014.027664,-370.102971,-9992.780217,612.876398
1014.027988,-296.082377,-10066.800811,0.000000
1014.028312,-666.185348,-10436.903782,383.047749
1014.028636,0.000000,-11251.130318,306.438199
1014.028960,2146.597232,-10288.862594,153.219100
1014.029284,2738.761985,-9474.636058,995.924147
1014.029608,740.205942,-9770.718434,-153.219100
1014.029932,-1036.288319,-8660.409521,-995.924147
1014.030256,-2294.638420,-9326.594869,-306.438199
1014.030580,-296.082377,-9474.636058,-842.705048
1014.030904,666.185348,-9104.533087,-1532.190996
1014.031228,-148.041188,-8512.368333,-612.876398
1014.031552,222.061783,-7772.162391,-153.219100
1014.031876,1702.473667,-7994.224174,-842.705048
1014.032200,1480.411884,-8512.368333,995.924147
1014.032524,666.185348,-9918.759623,2374.896044
1014.032848,370.102971,-9992.780217,842.705048
1014.033172,814.226536,-8216.285956,383.047749
1014.033496,444.123565,-7254.018232,766.095498
1014.033820,518.144159,-8956.491898,0.000000
1014.034145,0.000000,-9622.677246,-229.828649
1014.034469,-814.226536,-9474.636058,766.095498
1014.034793,148.041188,-9030.512492,306.438199
1014.035117,740.205942,-8068.244768,-306.438199
1014.035441,-222.061783,-9178.553681,0.000000
1014.035765,-1776.494261,-11029.068536,-383.047749
1014.036089,-1258.350101,-11177.109724,-459.657299
1014.036413,-888.247130,-10658.965565,76.609550
1014.036737,-148.041188,-10881.027347,1072.533697
1014.037061,148.041188,-10807.006753,766.095498
1014.037386,0.000000,-10732.986159,689.485948
1014.037710,-370.102971,-10510.924376,229.828649
1014.038034,-592.164754,-9770.718434,306.438199
1014.038358,-1258.350101,-10732.986159,536.266849
1014.038682,-444.123565,-11029.068536,459.657299
1014.039006,518.144159,-10066.800811,1149.143247
1014.039330,1110.308913,-9400.615463,306.438199
1014.039654,370.102971,-8734.430116,0.000000
1014.039978,-814.226536,-9400.615463,-612.876398
1014.040302,-518.144159,-10066.800811,-995.924147
1014.040627,-740.205942,-8808.450710,-1072.533697
1014.040951,444.123565,-7920.203579,-229.828649
1014.041275,-148.041188,-8660.409521,76.609550
1014.041599,-1110.308913,-9178.553681,-919.314598
1014.041923,-1702.473667,-9104.533087,-842.705048
1014.042247,-1924.535449,-9548.656652,229.828649
1014.042571,-296.082377,-10214.842000,0.000000
1014.042895,666.185348,-11399.171507,153.219100
1014.043219,518.144159,-10881.027347,1455.581446
1014.043544,1036.288319,-11251.130318,1455.581446
1014.043868,1554.432478,-10955.047942,459.657299
1014.044192,296.082377,-10955.047942,459.657299
1014.044516,-1332.370696,-10807.006753,-689.485948
1014.044840,-740.205942,-10732.986159,-919.314598
1014.045164,-518.144159,-9622.677246,-995.924147
1014.045488,222.061783,-9252.574275,-689.485948
1014.045812,0.000000,-10288.862594,-536.266849
1014.046136,-1776.494261,-9918.759623,-919.314598
1014.046461,-2146.597232,-9178.553681,-842.705048
1014.046785,-666.185348,-8512.368333,-766.095498
1014.047109,1184.329507,-8290.306550,0.000000
1014.047433,1776.494261,-8808.450710,153.219100
1014.047757,740.205942,-8882.471304,612.876398
1014.048081,1184.329507,-8808.450710,612.876398
1014.048405,1702.473667,-8808.450710,76.609550
1014.048729,1998.556043,-8808.450710,-383.047749
1014.049053,814.226536,-8808.450710,-919.314598
1014.049377,740.205942,-9178.553681,-1225.752797
1014.049702,1258.350101,-8808.450710,-1072.533697
1014.050026,2146.597232,-9696.697840,0.000000
1014.050350,2146.597232,-11029.068536,229.828649
1014.050674,1110.308913,-9622.677246,-842.705048
1014.050998,-592.164754,-8956.491898,-536.266849
1014.051322,-1184.329507,-9548.656652,-766.095498
1014.051646,-518.144159,-10955.047942,-536.266849
1014.051970,-740.205942,-10732.986159,-306.438199
1014.052294,-1702.473667,-9400.615463,306.438199
1014.052619,-2220.617826,-9844.739029,-306.438199
1014.052943,-1554.432478,-9474.636058,-383.047749
1014.053267,-962.267725,-9770.718434,153.219100
1014.053591,-740.205942,-10288.862594,153.219100
1014.053915,-1184.329507,-10214.842000,0.000000
1014.054239,-1702.473667,-9104.533087,-153.219100
1014.054563,-962.267725,-8438.347739,-689.485948
1014.054887,-592.164754,-9474.636058,-306.438199
1014.055211,-148.041188,-10140.821405,-612.876398
1014.055535,1036.288319,-10288.862594,536.266849
1014.055860,2294.638420,-9918.759623,689.485948
1014.056184,3034.844362,-10214.842000,842.705048
1014.056508,2146.597232,-10658.965565,0.000000
1014.056832,1554.432478,-10807.006753,0.000000
1014.057156,814.226536,-10140.821405,-459.657299
1014.057480,666.185348,-10362.883188,459.657299
1014.057804,148.041188,-10807.006753,-229.828649
1014.058128,-592.164754,-10881.027347,229.828649
1014.058452,-1850.514855,-10584.944971,0.000000
1014.058777,-2368.659014,-9992.780217,-766.095498
1014.059101,-2590.720797,-9622.677246,-459.657299
1014.059425,-3034.844362,-9548.656652,-766.095498
1014.059749,-2294.638420,-10066.800811,612.876398
1014.060073,-1184.329507,-10658.965565,766.095498
1014.060397,-370.102971,-9770.718434,-153.219100
1014.060721,444.123565,-9030.512492,612.876398
1014.061045,1184.329507,-9918.759623,689.485948
1014.061369,2072.576638,-10732.986159,229.828649
1014.061694,1998.556043,-9178.553681,383.047749
1014.062018,1850.514855,-7846.182985,919.314598
1014.062342,1628.453072,-8290.306550,-383.047749
1014.062666,1184.329507,-9400.615463,766.095498
1014.062990,1480.411884,-9178.553681,612.876398
1014.063314,2220.617826,-8068.244768,229.828649
1014.063638,1850.514855,-8216.285956,-383.047749
1014.063962,0.000000,-7772.162391,-306.438199
1014.064286,-814.226536,-8290.306550,536.266849
1014.064610,-518.144159,-9474.636058,919.314598
1014.064935,-222.061783,-9696.697840,459.657299
1014.065259,-740.205942,-8808.450710,153.219100
1014.065583,-1628.453072,-8512.368333,-536.266849
1014.065907,-1406.391290,-9326.594869,0.000000
1014.066231,-592.164754,-9844.739029,0.000000
1014.066555,0.000000,-10140.821405,76.609550
1014.066879,-1480.411884,-10362.883188,153.219100
1014.067203,-2294.638420,-10066.800811,0.000000
1014.067527,-1702.473667,-10288.862594,0.000000
1014.067852,-888.247130,-9992.780217,-459.657299
1014.068176,-1110.308913,-10362.883188,0.000000
1014.068500,-1110.308913,-10807.006753,76.609550
1014.068824,370.102971,-10807.006753,383.047749
1014.069148,1628.453072,-10214.842000,1838.629195
1014.069472,2146.597232,-9474.636058,766.095498
1014.069796,370.102971,-8808.450710,0.000000
1014.070120,-1628.453072,-8956.491898,-383.047749
1014.070444,-1258.350101,-10066.800811,-612.876398
1014.070769,-444.123565,-9474.636058,-612.876398
1014.071093,-518.144159,-8586.388927,-1225.752797
1014.071417,-1036.288319,-8068.244768,-842.705048
1014.071741,0.000000,-9622.677246,-766.095498
1014.072065,0.000000,-10436.903782,-229.828649
1014.072389,2072.576638,-10658.965565,459.657299
1014.072713,2294.638420,-10881.027347,766.095498
1014.073037,1776.494261,-11029.068536,383.047749
1014.073361,1110.308913,-11399.171507,689.485948
1014.073685,444.123565,-12139.377449,1378.971896
1014.074010,1332.370696,-12583.501014,919.314598
1014.074334,148.041188,-10807.006753,-842.705048
1014.074658,-1702.473667,-9548.656652,-459.657299
1014.074982,-1332.370696,-8956.491898,0.000000
1014.075306,-592.164754,-9918.759623,-306.438199
1014.075630,-296.082377,-10140.821405,-383.047749
1014.075954,-888.247130,-9030.512492,0.000000
1014.076278,-666.185348,-8882.471304,-766.095498
1014.076602,-666.185348,-8068.244768,-1915.238745
1014.076927,0.000000,-7402.059420,-536.266849
1014.077251,666.185348,-8142.265362,-383.047749
1014.077575,1110.308913,-8956.491898,-689.485948
1014.077899,1110.308913,-9178.553681,76.609550
1014.078223,1776.494261,-8142.265362,459.657299
1014.078547,2812.782580,-8438.347739,1149.143247
1014.078871,2516.700203,-8512.368333,-306.438199
1014.079195,1406.391290,-8512.368333,-536.266849
1014.079519,0.000000,-7846.182985,-1072.533697
1014.079844,-444.123565,-8586.388927,-459.657299
1014.080168,-962.267725,-9992.780217,-383.047749
1014.080492,-1332.370696,-9474.636058,-766.095498
1014.080816,-1702.473667,-9474.636058,-842.705048
1014.081140,-1702.473667,-9030.512492,-536.266849
1014.081464,-1110.308913,-9918.759623,-995.924147
1014.081788,-1480.411884,-10066.800811,-1072.533697
1014.082112,-1776.494261,-9622.677246,-1072.533697
1014.082436,-2146.597232,-10288.862594,-766.095498
1014.082760,-1332.370696,-9992.780217,-1149.143247
1014.083085,-444.123565,-10436.903782,-612.876398
1014.083409,222.061783,-11251.130318,0.000000
1014.083733,1628.453072,-11251.130318,689.485948
1014.084057,2072.576638,-10436.903782,153.219100
1014.084381,1850.514855,-9696.697840,306.438199
1014.084705,1406.391290,-9918.759623,229.828649
1014.085029,1850.514855,-11473.192101,0.000000
1014.085353,1702.473667,-11695.253884,0.000000
1014.085677,666.185348,-10214.842000,0.000000
1014.086002,-740.205942,-10214.842000,0.000000
1014.086326,-2146.597232,-9622.677246,-1838.629195
1014.086650,-2664.741391,-9918.759623,-1455.581446
1014.086974,-2368.659014,-9548.656652,-995.924147
1014.087298,-1702.473667,-9400.615463,-919.314598
1014.087622,-1184.329507,-9696.697840,-766.095498
1014.087946,-814.226536,-9622.677246,-919.314598
1014.088270,-740.205942,-11029.068536,536.266849
1014.088594,0.000000,-11547.212695,536.266849
1014.088919,740.205942,-11029.068536,689.485948
1014.089243,0.000000,-9474.636058,766.095498
1014.089567,592.164754,-9474.636058,995.924147
1014.089891,1924.535449,-9844.739029,919.314598
1014.090215,2812.782580,-10288.862594,1149.143247
1014.090539,2368.659014,-10066.800811,1915.238745
1014.090863,1332.370696,-8512.368333,1608.800546
1014.091187,74.020594,-8882.471304,459.657299
1014.091511,-1258.350101,-7328.038826,0.000000
1014.091835,-1924.535449,-7328.038826,0.000000
1014.092160,-2442.679609,-9030.512492,-536.266849
1014.092484,-2072.576638,-8586.388927,0.000000
1014.092808,-888.247130,-7254.018232,536.266849
1014.093132,370.102971,-7031.956449,0.000000
1014.093456,518.144159,-7105.977043,0.000000
1014.093780,666.185348,-8438.347739,306.438199
1014.094104,444.123565,-9844.739029,612.876398
1014.094428,592.164754,-9474.636058,1302.362347
1014.094752,1480.411884,-9178.553681,1915.238745
1014.095077,1036.288319,-10584.944971,2451.505594
1014.095401,1110.308913,-11399.171507,1608.800546
1014.095725,888.247130,-9770.718434,0.000000
1014.096049,0.000000,-8216.285956,-995.924147
1014.096373,-1332.370696,-9030.512492,-306.438199
1014.096697,-1628.453072,-10066.800811,-689.485948
1014.097021,-1702.473667,-10436.903782,-612.876398
1014.097345,-2442.679609,-10140.821405,0.000000
1014.097669,-1702.473667,-9474.636058,-842.705048
1014.097994,-1480.411884,-9622.677246,-1608.800546
1014.098318,-1480.411884,-9474.636058,-1149.143247
1014.098642,-1184.329507,-11029.068536,766.095498
1014.098966,74.020594,-11621.233289,1378.971896
1014.099290,666.185348,-11399.171507,229.828649
1014.099614,0.000000,-10807.006753,76.609550
1014.099938,666.185348,-10066.800811,153.219100
1014.100262,2072.576638,-11621.233289,306.438199
1014.100586,1998.556043,-11991.336260,689.485948
1014.100910,592.164754,-10658.965565,229.828649
1014.101235,-296.082377,-10214.842000,-689.485948
1014.101559,-1184.329507,-10140.821405,-1149.143247
1014.101883,-592.164754,-10658.965565,-689.485948
1014.102207,444.123565,-10732.986159,-459.657299
1014.102531,370.102971,-10066.800811,-842.705048
1014.102855,-296.082377,-9474.636058,-612.876398
1014.103179,-444.123565,-9252.574275,-1072.533697
1014.103503,222.061783,-9252.574275,-459.657299
1014.103827,148.041188,-9400.615463,76.609550
1014.104152,-222.061783,-9770.718434,612.876398
1014.104476,-740.205942,-9030.512492,919.314598
1014.104800,-222.061783,-8216.285956,689.485948
1014.105124,74.020594,-8216.285956,919.314598
1014.105448,814.226536,-9030.512492,1378.971896
1014.105772,1628.453072,-8882.471304,306.438199
1014.106096,1332.370696,-8808.450710,919.314598
1014.106420,1406.391290,-7920.203579,459.657299
1014.106744,1702.473667,-7550.100608,229.828649
1014.107069,-222.061783,-7772.162391,-919.314598
1014.107393,-1554.432478,-8216.285956,-689.485948
1014.107717,-518.144159,-8512.368333,-766.095498
1014.108041,1036.288319,-8364.327145,-1378.971896
1014.108365,592.164754,-7698.141797,-612.876398
1014.108689,148.041188,-7994.224174,-153.219100
1014.109013,1258.350101,-9104.533087,76.609550
1014.109337,1480.411884,-9548.656652,229.828649
1014.109661,444.123565,-9400.615463,459.657299
1014.109985,-1184.329507,-9400.615463,-612.876398
1014.110310,-1850.514855,-9770.718434,-689.485948
1014.110634,-1036.288319,-9844.739029,-1302.362347
1014.110958,0.000000,-10214.842000,-995.924147
1014.111282,444.123565,-10955.047942,-612.876398
1014.111606,444.123565,-10955.047942,-1532.190996
1014.111930,0.000000,-11029.068536,-995.924147
1014.112254,-814.226536,-11325.150913,-1149.143247
1014.112578,-1110.308913,-11621.233289,-2374.896044
1014.112902,-1628.453072,-11843.295072,-2068.457845
1014.113227,-1184.329507,-11621.233289,-612.876398
1014.113551,-222.061783,-11177.109724,-612.876398
1014.113875,1110.308913,-11029.068536,-383.047749
1014.114199,888.247130,-11473.192101,383.047749
1014.114523,518.144159,-11399.171507,-689.485948
1014.114847,518.144159,-11177.109724,-1072.533697
1014.115171,-740.205942,-10214.842000,-842.705048
1014.115495,-814.226536,-9548.656652,-306.438199
1014.115819,-592.164754,-10140.821405,-612.876398
1014.116144,-1776.494261,-9548.656652,-1378.971896
1014.116468,-1776.494261,-8882.471304,-766.095498
1014.116792,-296.082377,-8808.450710,-766.095498
1014.117116,666.185348,-9474.636058,-153.219100
1014.117440,814.226536,-10214.842000,306.438199
1014.117764,740.205942,-9474.636058,459.657299
1014.118088,814.226536,-8956.491898,1149.143247
1014.118412,1332.370696,-8512.368333,1685.410096
1014.118736,1258.350101,-8660.409521,1608.800546
1014.119060,518.144159,-9030.512492,766.095498
1014.119385,-370.102971,-8660.409521,383.047749
1014.119709,-1554.432478,-7772.162391,0.000000
1014.120033,-888.247130,-7994.224174,-306.438199
1014.120357,-592.164754,-8956.491898,1072.533697
1014.120681,-666.185348,-9252.574275,229.828649
1014.121005,-814.226536,-8068.244768,-689.485948
1014.121329,-666.185348,-7402.059420,-536.266849
1014.121653,592.164754,-8660.409521,306.438199
1014.121977,1184.329507,-10584.944971,306.438199
1014.122302,888.247130,-9326.594869,995.924147
1014.122626,370.102971,-7698.141797,1532.190996
1014.122950,814.226536,-8660.409521,1532.190996
1014.123274,1184.329507,-11103.089130,1378.971896
1014.123598,1776.494261,-10436.903782,1608.800546
1014.123922,2146.597232,-9178.553681,1915.238745
1014.124246,1406.391290,-9030.512492,1225.752797
1014.124570,370.102971,-9326.594869,689.485948
1014.124894,-814.226536,-9844.739029,612.876398
1014.125219,-2220.617826,-10362.883188,-153.219100
1014.125543,-2516.700203,-10584.944971,-766.095498
1014.125867,-2368.659014,-9918.759623,76.609550
1014.126191,-1184.329507,-10658.965565,76.609550
1014.126515,-962.267725,-10955.047942,459.657299
1014.126839,-1258.350101,-10881.027347,229.828649
1014.127163,-1850.514855,-10807.006753,612.876398
1014.127487,-518.144159,-10288.862594,612.876398
1014.127811,0.000000,-9696.697840,229.828649
1014.128135,-592.164754,-9992.780217,1302.362347
1014.128460,-592.164754,-9622.677246,995.924147
1014.128784,-296.082377,-9992.780217,153.219100
1014.129108,-814.226536,-10955.047942,459.657299
1014.129432,-296.082377,-10214.842000,76.609550
1014.129756,518.144159,-9474.636058,-229.828649
1014.130080,518.144159,-9030.512492,383.047749
1014.130404,666.185348,-8956.491898,459.657299
1014.130728,518.144159,-10362.883188,0.000000
1014.131052,-1036.288319,-10510.924376,-536.266849
1014.131377,-2072.576638,-9696.697840,-766.095498
1014.131701,-1110.308913,-8660.409521,-612.876398
1014.132025,1406.391290,-8512.368333,-153.219100
1014.132349,2294.638420,-9548.656652,0.000000
1014.132673,1776.494261,-9918.759623,995.924147
1014.132997,1702.473667,-9104.533087,1149.143247
1014.133321,2220.617826,-9104.533087,0.000000
1014.133645,666.185348,-8956.491898,306.438199
1014.133969,-1258.350101,-8808.450710,-766.095498
1014.134293,-888.247130,-9030.512492,-1149.143247
1014.134618,0.000000,-10140.821405,-383.047749
1014.134942,1184.329507,-10436.903782,0.000000
1014.135266,1184.329507,-10066.800811,153.219100
1014.135590,740.205942,-10066.800811,536.266849
1014.135914,0.000000,-9548.656652,-306.438199
1014.136238,814.226536,-8438.347739,-1225.752797
1014.136562,296.082377,-8882.471304,-383.047749
1014.136886,-518.144159,-10214.842000,-1072.533697
1014.137210,74.020594,-9770.718434,-612.876398
1014.137535,1036.288319,-9400.615463,0.000000
1014.137859,2072.576638,-8734.430116,-842.705048
1014.138183,1184.329507,-9696.697840,-1302.362347
1014.138507,-592.164754,-9326.594869,-1991.848295
1014.138831,-2072.576638,-9252.574275,-1608.800546
1014.139155,-2368.659014,-9696.697840,-1302.362347
1014.139479,-1184.329507,-9178.553681,-1762.019645
1014.139803,-370.102971,-9252.574275,-612.876398
1014.140127,592.164754,-10214.842000,-229.828649
1014.140452,1184.329507,-10288.862594,-1072.533697
1014.140776,666.185348,-9844.739029,-383.047749
1014.141100,-666.185348,-9918.759623,229.828649
1014.141424,-370.102971,-10436.903782,-229.828649
1014.141748,-1406.391290,-11547.212695,-459.657299
1014.142072,-2146.597232,-10807.006753,-689.485948
1014.142396,-1850.514855,-9474.636058,0.000000
1014.142720,-740.205942,-11103.089130,0.000000
1014.143044,-592.164754,-11473.192101,-459.657299
1014.143369,-888.247130,-9844.739029,-842.705048
1014.143693,-814.226536,-8216.285956,-1455.581446
1014.144017,-1036.288319,-9770.718434,-229.828649
1014.144341,-814.226536,-11695.253884,-306.438199
1014.144665,-888.247130,-10140.821405,-76.609550
1014.144989,-814.226536,-8586.388927,0.000000
1014.145313,222.061783,-8142.265362,153.219100
1014.145637,888.247130,-9326.594869,-306.438199
1014.145961,222.061783,-10362.883188,0.000000
1014.146285,370.102971,-9918.759623,612.876398
1014.146610,1406.391290,-9178.553681,383.047749
1014.146934,1998.556043,-8586.388927,919.314598
1014.147258,962.267725,-9030.512492,1072.533697
1014.147582,222.061783,-9622.677246,995.924147
1014.147906,814.226536,-9696.697840,1608.800546
1014.148230,1406.391290,-9400.615463,612.876398
1014.148554,814.226536,-8808.450710,1378.971896
1014.148878,-370.102971,-9400.615463,2068.457845
1014.149202,-370.102971,-10658.965565,1915.238745
1014.149527,0.000000,-9844.739029,1685.410096
1014.149851,-222.061783,-8882.471304,1455.581446
1014.150175,-888.247130,-9252.574275,766.095498
1014.150499,-592.164754,-9178.553681,536.266849
1014.150823,592.164754,-9326.594869,1072.533697
1014.151147,1480.411884,-8364.327145,1072.533697
1014.151471,888.247130,-8808.450710,919.314598
1014.151795,-518.144159,-9252.574275,0.000000
1014.152119,-1036.288319,-9326.594869,612.876398
1014.152444,222.061783,-9104.533087,689.485948
1014.152768,1332.370696,-8586.388927,306.438199
1014.153092,666.185348,-9252.574275,229.828649
1014.153416,148.041188,-9992.780217,153.219100
1014.153740,814.226536,-10214.842000,842.705048
1014.154064,1184.329507,-10140.821405,1225.752797
1014.154388,222.061783,-10288.862594,1532.190996
1014.154712,-1258.350101,-9770.718434,1072.533697
1014.155036,-2294.638420,-9030.512492,229.828649
1014.155360,-1776.494261,-9696.697840,0.000000
1014.155685,-1036.288319,-9622.677246,0.000000
1014.156009,-1406.391290,-9770.718434,0.000000
1014.156333,-1998.556043,-9622.677246,-459.657299
1014.156657,-1998.556043,-9622.677246,-459.657299
1014.156981,-1554.432478,-9548.656652,-536.266849
1014.157305,-370.102971,-9992.780217,-766.095498
1014.157629,-1184.329507,-11843.295072,76.609550
1014.157953,-962.267725,-11621.233289,689.485948
1014.158277,740.205942,-10140.821405,306.438199
1014.158602,1110.308913,-9622.677246,76.609550
1014.158926,1406.391290,-10214.842000,-153.219100
1014.159250,1776.494261,-10288.862594,-459.657299
1014.159574,1554.432478,-10214.842000,0.000000
1014.159898,0.000000,-9992.780217,-689.485948
1014.160222,-666.185348,-9178.553681,-995.924147
1014.160546,-1628.453072,-8734.430116,-1225.752797
1014.160870,-1998.556043,-9400.615463,-1608.800546
1014.161194,-1184.329507,-10214.842000,-1302.362347
1014.161519,222.061783,-9326.594869,-689.485948
1014.161843,1628.453072,-9400.615463,-153.219100
1014.162167,2368.659014,-9770.718434,229.828649
1014.162491,1850.514855,-9992.780217,229.828649
1014.162815,666.185348,-10214.842000,-459.657299
1014.163139,-444.123565,-9474.636058,-1378.971896
1014.163463,-740.205942,-9548.656652,-689.485948
1014.163787,-296.082377,-9992.780217,-995.924147
1014.164111,0.000000,-10584.944971,-689.485948
1014.164435,0.000000,-10066.800811,-229.828649
1014.164760,370.102971,-9474.636058,0.000000
1014.165084,1628.453072,-9844.739029,-383.047749
1014.165408,1332.370696,-9622.677246,-536.266849
1014.165732,-296.082377,-9474.636058,-612.876398
1014.166056,-518.144159,-8512.368333,-612.876398
1014.166380,0.000000,-9252.574275,-766.095498
1014.166704,-666.185348,-9548.656652,-612.876398
1014.167028,-148.041188,-8586.388927,0.000000
1014.167352,1110.308913,-8438.347739,-536.266849
1014.167677,1776.494261,-8364.327145,-842.705048
1014.168001,740.205942,-7254.018232,-1225.752797
1014.168325,0.000000,-8216.285956,-1072.533697
1014.168649,-444.123565,-9474.636058,-1072.533697
1014.168973,592.164754,-9548.656652,-1302.362347
1014.169297,1184.329507,-8734.430116,-153.219100
1014.169621,888.247130,-9548.656652,0.000000
1014.169945,592.164754,-11325.150913,229.828649
1014.170269,666.185348,-11029.068536,842.705048
1014.170594,592.164754,-9548.656652,-459.657299
1014.170918,74.020594,-10362.883188,0.000000
1014.171242,-666.185348,-11177.109724,-153.219100
1014.171566,0.000000,-11547.212695,459.657299
1014.171890,296.082377,-11473.192101,153.219100
1014.172214,0.000000,-10584.944971,-383.047749
1014.172538,-1036.288319,-10214.842000,-919.314598
1014.172862,-1850.514855,-9770.718434,-995.924147
1014.173186,-1850.514855,-10436.903782,-689.485948
1014.173510,-1480.411884,-10658.965565,-383.047749
1014.173835,-962.267725,-10066.800811,-612.876398
1014.174159,-296.082377,-9548.656652,0.000000
1014.174483,814.226536,-9918.759623,612.876398
1014.174807,1702.473667,-10510.924376,0.000000
1014.175131,2220.617826,-9918.759623,1685.410096
1014.175455,814.226536,-10066.800811,842.705048
1014.175779,-666.185348,-9178.553681,0.000000
1014.176103,-1480.411884,-9400.615463,1762.019645
1014.176427,-666.185348,-9696.697840,1302.362347
1014.176752,296.082377,-9844.739029,1072.533697
1014.177076,0.000000,-8660.409521,-306.438199
1014.177400,-1036.288319,-8364.327145,1455.581446
1014.177724,-814.226536,-9844.739029,383.047749
1014.178048,-148.041188,-9326.594869,1225.752797
1014.178372,-1184.329507,-7698.141797,1838.629195
1014.178696,-2294.638420,-8290.306550,0.000000
1014.179020,-2738.761985,-8216.285956,0.000000
1014.179344,-1776.494261,-7698.141797,919.314598
1014.179669,0.000000,-8956.491898,1378.971896
1014.179993,1184.329507,-9030.512492,1455.581446
1014.180317,1184.329507,-7994.224174,1532.190996
1014.180641,1332.370696,-8956.491898,2145.067394
1014.180965,2220.617826,-9622.677246,1685.410096
1014.181289,2146.597232,-9474.636058,1149.143247
1014.181613,0.000000,-8734.430116,1302.362347
1014.181937,-1554.432478,-8734.430116,-383.047749
1014.182261,-1184.329507,-9326.594869,-459.657299
1014.182585,0.000000,-9548.656652,612.876398
1014.182910,1258.350101,-9474.636058,383.047749
1014.183234,888.247130,-9326.594869,153.219100
1014.183558,0.000000,-9918.759623,459.657299
1014.183882,-222.061783,-9844.739029,0.000000
1014.184206,-1110.308913,-9548.656652,-383.047749
1014.184530,-1702.473667,-9844.739029,-612.876398
1014.184854,-1184.329507,-9770.718434,-766.095498
1014.185178,74.020594,-11103.089130,-536.266849
1014.185502,666.185348,-11473.192101,919.314598
1014.185827,518.144159,-11473.192101,306.438199
1014.186151,-370.102971,-11029.068536,-459.657299
1014.186475,-740.205942,-11103.089130,-689.485948
1014.186799,-296.082377,-11621.233289,-1608.800546
1014.187123,1332.370696,-10658.965565,-612.876398
1014.187447,444.123565,-10214.842000,-383.047749
1014.187771,-592.164754,-10140.821405,-689.485948
1014.188095,-518.144159,-9918.759623,-689.485948
1014.188419,296.082377,-10140.821405,-153.219100
1014.188744,-222.061783,-10732.986159,-995.924147
1014.189068,-1110.308913,-8808.450710,-1838.629195
1014.189392,-1406.391290,-7920.203579,-1915.238745
1014.189716,0.000000,-9030.512492,-1685.410096
1014.190040,1332.370696,-10584.944971,-229.828649
1014.190364,2368.659014,-10510.924376,0.000000
1014.190688,2516.700203,-9178.553681,153.219100
1014.191012,2072.576638,-9548.656652,0.000000
1014.191336,2072.576638,-8808.450710,-689.485948
1014.191660,1554.432478,-9400.615463,-306.438199
1014.191985,370.102971,-9844.739029,-612.876398
1014.192309,0.000000,-9474.636058,-766.095498
1014.192633,74.020594,-8882.471304,-459.657299
1014.192957,518.144159,-8882.471304,76.609550
1014.193281,-1036.288319,-9474.636058,153.219100
1014.193605,-1924.535449,-9400.615463,-1302.362347
1014.193929,-2072.576638,-8290.306550,-1455.581446
1014.194253,-2812.782580,-8660.409521,-766.095498
1014.194577,-2368.659014,-9104.533087,-536.266849
1014.194902,-666.185348,-9474.636058,0.000000
1014.195226,0.000000,-9918.759623,689.485948
1014.195550,888.247130,-9178.553681,0.000000
1014.195874,592.164754,-8734.430116,-612.876398
1014.196198,-370.102971,-9622.677246,306.438199
1014.196522,-444.123565,-9622.677246,-842.705048
1014.196846,888.247130,-9400.615463,-1149.143247
1014.197170,666.185348,-9326.594869,0.000000
1014.197494,296.082377,-10288.862594,0.000000
1014.197819,148.041188,-11177.109724,0.000000
1014.198143,0.000000,-9918.759623,-459.657299
1014.198467,-370.102971,-9992.780217,-229.828649
1014.198791,-518.144159,-9918.759623,-1225.752797
1014.199115,-74.020594,-10288.862594,-612.876398
1014.199439,592.164754,-10732.986159,1149.143247
1014.199763,1332.370696,-10881.027347,842.705048
1014.200087,444.123565,-10732.986159,842.705048
1014.200411,-814.226536,-10214.842000,153.219100
1014.200735,-1036.288319,-9696.697840,-612.876398
1014.201060,-444.123565,-10214.842000,0.000000
1014.201384,666.185348,-11695.253884,459.657299
1014.201708,1184.329507,-10732.986159,995.924147
1014.202032,740.205942,-9918.759623,1149.143247
1014.202356,-592.164754,-10214.842000,689.485948
1014.202680,-740.205942,-10214.842000,76.609550
1014.203004,-1184.329507,-10214.842000,306.438199
1014.203328,-666.185348,-9474.636058,383.047749
1014.203652,-222.061783,-9030.512492,766.095498
1014.203977,0.000000,-8808.450710,-612.876398
1014.204301,-148.041188,-9178.553681,1225.752797
1014.204625,666.185348,-9474.636058,842.705048
1014.204949,2072.576638,-8956.491898,536.266849
1014.205273,370.102971,-8660.409521,612.876398
1014.205597,-148.041188,-8512.368333,689.485948
1014.205921,148.041188,-8808.450710,1302.362347
1014.206245,888.247130,-8882.471304,842.705048
1014.206569,888.247130,-8882.471304,612.876398
1014.206894,-740.205942,-9030.512492,995.924147
1014.207218,-1184.329507,-9992.780217,1378.971896
1014.207542,148.041188,-9326.594869,842.705048
1014.207866,518.144159,-8068.244768,2068.457845
1014.208190,-666.185348,-8512.368333,919.314598
1014.208514,-1184.329507,-8882.471304,-153.219100
1014.208838,-1554.432478,-8438.347739,0.000000
1014.209162,-962.267725,-8290.306550,842.705048
1014.209486,0.000000,-8734.430116,459.657299
1014.209810,-518.144159,-8808.450710,-536.266849
1014.210135,-888.247130,-8216.285956,0.000000
1014.210459,0.000000,-7994.224174,-383.047749
1014.210783,1776.494261,-9622.677246,-306.438199
1014.211107,1406.391290,-10807.006753,842.705048
1014.211431,370.102971,-10066.800811,229.828649
1014.211755,814.226536,-9474.636058,1455.581446
1014.212079,1184.329507,-10066.800811,919.314598
1014.212403,1776.494261,-10584.944971,153.219100
1014.212727,148.041188,-10214.842000,-383.047749
1014.213052,-1110.308913,-9770.718434,-459.657299
1014.213376,-1036.288319,-10362.883188,-1149.143247
1014.213700,-296.082377,-10214.842000,306.438199
1014.214024,-444.123565,-10140.821405,-306.438199
1014.214348,-518.144159,-9918.759623,-2068.457845
1014.214672,-1776.494261,-10436.903782,-2374.896044
1014.214996,-1776.494261,-10658.965565,-1838.629195
1014.215320,296.082377,-11103.089130,-1149.143247
1014.215644,1406.391290,-11917.315666,306.438199
1014.215969,1332.370696,-11103.089130,459.657299
1014.216293,814.226536,-11251.130318,76.609550
1014.216617,-222.061783,-11177.109724,0.000000
1014.216941,-888.247130,-11251.130318,-919.314598
1014.217265,-1184.329507,-10140.821405,-1378.971896
1014.217589,0.000000,-10362.883188,-689.485948
1014.217913,1184.329507,-10510.924376,689.485948
1014.218237,2738.761985,-9252.574275,229.828649
1014.218561,1628.453072,-8438.347739,-536.266849
1014.218886,-888.247130,-8734.430116,-1378.971896
1014.219210,-1776.494261,-9474.636058,-2068.457845
1014.219534,-1924.535449,-9474.636058,-1225.752797
1014.219858,-962.267725,-9178.553681,-612.876398
1014.220182,-814.226536,-8068.244768,-612.876398
1014.220506,-962.267725,-8808.450710,-306.438199
1014.220830,-592.164754,-9992.780217,76.609550
1014.221154,1998.556043,-10140.821405,689.485948
1014.221478,2368.659014,-8512.368333,229.828649
1014.221802,592.164754,-8216.285956,-1225.752797
1014.222127,-1036.288319,-8364.327145,-689.485948
1014.222451,0.000000,-9474.636058,-689.485948
1014.222775,1480.411884,-10436.903782,306.438199
1014.223099,1406.391290,-9992.780217,229.828649
1014.223423,444.123565,-8808.450710,1225.752797
1014.223747,740.205942,-9252.574275,1072.533697
1014.224071,666.185348,-9770.718434,0.000000
1014.224395,444.123565,-9548.656652,229.828649
1014.224719,-962.267725,-9696.697840,-383.047749
1014.225044,-1184.329507,-9474.636058,-536.266849
1014.225368,-518.144159,-8956.491898,-612.876398
1014.225692,-222.061783,-7994.224174,-766.095498
1014.226016,-296.082377,-8512.368333,-1149.143247
1014.226340,0.000000,-9252.574275,-1838.629195
1014.226664,-148.041188,-9844.739029,-995.924147
1014.226988,222.061783,-9474.636058,-459.657299
1014.227312,1702.473667,-9696.697840,383.047749
1014.227636,1702.473667,-11399.171507,1225.752797
1014.227961,1554.432478,-12139.377449,1455.581446
1014.228285,1924.535449,-11843.295072,995.924147
1014.228609,1628.453072,-11029.068536,995.924147
1014.228933,-518.144159,-11473.192101,1225.752797
1014.229257,-740.205942,-10955.047942,306.438199
1014.229581,-666.185348,-10658.965565,1532.190996
1014.229905,-592.164754,-10584.944971,689.485948
1014.230229,-444.123565,-9474.636058,-153.219100
1014.230553,-962.267725,-8364.327145,-383.047749
1014.230877,-1406.391290,-9030.512492,-536.266849
1014.231202,-1406.391290,-9474.636058,-153.219100
1014.231526,-1332.370696,-9474.636058,383.047749
1014.231850,-1036.288319,-9178.553681,1072.533697
1014.232174,-592.164754,-9178.553681,766.095498
1014.232498,370.102971,-9104.533087,842.705048
1014.232822,1110.308913,-9104.533087,1991.848295
1014.233146,1406.391290,-8882.471304,1225.752797
1014.233470,518.144159,-9622.677246,1149.143247
1014.233794,370.102971,-9030.512492,1072.533697
1014.234119,592.164754,-9252.574275,689.485948
1014.234443,-518.144159,-8290.306550,0.000000
1014.234767,-1258.350101,-8216.285956,0.000000
1014.235091,-1924.535449,-9474.636058,-1455.581446
1014.235415,-3256.906145,-9474.636058,-1072.533697
1014.235739,-3330.926739,-8956.491898,-1685.410096
1014.236063,-2368.659014,-9252.574275,-842.705048
1014.236387,296.082377,-10362.883188,306.438199
1014.236711,2368.659014,-10362.883188,-306.438199
1014.237035,1480.411884,-9992.780217,229.828649
1014.237360,148.041188,-9104.533087,-153.219100
1014.237684,0.000000,-9918.759623,0.000000
1014.238008,444.123565,-11769.274478,0.000000
1014.238332,518.144159,-11325.150913,153.219100
1014.238656,592.164754,-9548.656652,612.876398
1014.238980,1258.350101,-9326.594869,0.000000
1014.239304,1998.556043,-9770.718434,-229.828649
1014.239628,1110.308913,-9252.574275,-459.657299
1014.239952,148.041188,-9104.533087,-536.266849
1014.240277,0.000000,-9326.594869,-1072.533697
1014.240601,740.205942,-8290.306550,-1072.533697
1014.240925,370.102971,-8808.450710,-689.485948
1014.241249,-814.226536,-9992.780217,-842.705048
1014.241573,-518.144159,-10436.903782,-995.924147
1014.241897,814.226536,-9548.656652,-919.314598
1014.242221,1924.535449,-9178.553681,-919.314598
1014.242545,1776.494261,-9992.780217,-1455.581446
1014.242869,888.247130,-10732.986159,-536.266849
1014.243193,962.267725,-11251.130318,0.000000
1014.243518,888.247130,-10510.924376,-229.828649
1014.243842,296.082377,-10288.862594,-766.095498
1014.244166,-888.247130,-9696.697840,-995.924147
1014.244490,-740.205942,-10732.986159,-383.047749
1014.244814,0.000000,-11473.192101,0.000000
1014.245138,296.082377,-10955.047942,536.266849
1014.245462,-518.144159,-10584.944971,-153.219100
1014.245786,-592.164754,-9696.697840,536.266849
1014.246110,0.000000,-9844.739029,383.047749
1014.246434,0.000000,-9252.574275,229.828649
1014.246759,-814.226536,-9104.533087,0.000000
1014.247083,-2294.638420,-9400.615463,-842.705048
1014.247407,-2368.659014,-9400.615463,-919.314598
1014.247731,-1406.391290,-8512.368333,-459.657299
1014.248055,-740.205942,-8586.388927,536.266849
1014.248379,518.144159,-9474.636058,459.657299
1014.248703,518.144159,-9474.636058,-229.828649
1014.249027,148.041188,-9104.533087,76.609550
1014.249351,148.041188,-8808.450710,-306.438199
1014.249676,518.144159,-9918.759623,536.266849
1014.250000,0.000000,-11325.150913,459.657299
1014.250324,0.000000,-10955.047942,689.485948
1014.250648,148.041188,-9992.780217,1532.190996
1014.250972,518.144159,-9474.636058,1149.143247
1014.251296,1258.350101,-9770.718434,459.657299
1014.251620,814.226536,-8956.491898,-689.485948
1014.251944,-296.082377,-8808.450710,-153.219100
1014.252268,-1332.370696,-8660.409521,-229.828649
1014.252592,0.000000,-9548.656652,612.876398
1014.252917,-1332.370696,-10066.800811,689.485948
1014.253241,-2146.597232,-8734.430116,-459.657299
1014.253565,-3775.050304,-8364.327145,-995.924147
1014.253889,-4071.132681,-9252.574275,-995.924147
1014.254213,-962.267725,-9696.697840,0.000000
1014.254537,1258.350101,-9918.759623,919.314598
1014.254861,2590.720797,-9770.718434,1532.190996
1014.255185,3997.112087,-9252.574275,1378.971896
1014.255509,4219.173869,-9474.636058,229.828649
1014.255834,814.226536,-9252.574275,-842.705048
1014.256158,-2072.576638,-9326.594869,-1302.362347
1014.256482,-2220.617826,-10436.903782,-383.047749
1014.256806,222.061783,-10955.047942,-459.657299
1014.257130,1554.432478,-10362.883188,76.609550
1014.257454,1924.535449,-9178.553681,0.000000
1014.257778,962.267725,-9770.718434,-306.438199
1014.258102,148.041188,-11103.089130,-1455.581446
1014.258426,0.000000,-10436.903782,-766.095498
1014.258750,-888.247130,-10658.965565,-306.438199
1014.259075,-1480.411884,-10510.924376,-689.485948
1014.259399,-1184.329507,-9770.718434,0.000000
1014.259723,-148.041188,-9918.759623,76.609550
1014.260047,592.164754,-10807.006753,459.657299
1014.260371,74.020594,-10807.006753,229.828649
1014.260695,-444.123565,-9992.780217,153.219100
1014.261019,0.000000,-9992.780217,995.924147
1014.261343,592.164754,-9622.677246,459.657299
1014.261667,0.000000,-9104.533087,76.609550
1014.261991,-740.205942,-9252.574275,-383.047749
1014.262316,-814.226536,-9622.677246,0.000000
1014.262640,740.205942,-8438.347739,-842.705048
1014.262964,814.226536,-7920.203579,612.876398
1014.263288,444.123565,-8956.491898,842.705048
1014.263612,222.061783,-9104.533087,-306.438199
1014.263936,444.123565,-8660.409521,-919.314598
1014.264260,518.144159,-8438.347739,0.000000
1014.264584,518.144159,-9474.636058,689.485948
1014.264908,296.082377,-10362.883188,-459.657299
1014.265233,-518.144159,-9474.636058,536.266849
1014.265557,-1628.453072,-8734.430116,-306.438199
1014.265881,-1110.308913,-9474.636058,-536.266849
1014.266205,-1850.514855,-10955.047942,-153.219100
1014.266529,-1110.308913,-10214.842000,-306.438199
1014.266853,0.000000,-9326.594869,0.000000
1014.267177,1184.329507,-9474.636058,-383.047749
1014.267501,1480.411884,-10436.903782,612.876398
1014.267825,518.144159,-10584.944971,-306.438199
1014.268149,222.061783,-10214.842000,306.438199
1014.268474,-740.205942,-9474.636058,-689.485948
1014.268798,-444.123565,-9178.553681,-1991.848295
1014.269122,-740.205942,-9622.677246,-1532.190996
1014.269446,-740.205942,-9548.656652,-1532.190996
1014.269770,-222.061783,-9770.718434,-459.657299
1014.270094,814.226536,-10658.965565,0.000000
1014.270418,1184.329507,-10288.862594,-229.828649
1014.270742,518.144159,-8438.347739,-1378.971896
1014.271066,222.061783,-8956.491898,-995.924147
1014.271391,148.041188,-10658.965565,0.000000
1014.271715,962.267725,-11103.089130,-306.438199
1014.272039,74.020594,-11029.068536,153.219100
1014.272363,-1184.329507,-9252.574275,-766.095498
1014.272687,-444.123565,-9400.615463,-536.266849
1014.273011,444.123565,-10658.965565,-306.438199
1014.273335,888.247130,-10510.924376,-842.705048
1014.273659,222.061783,-9178.553681,-1225.752797
1014.273983,-1036.288319,-9548.656652,-842.705048
1014.274307,-1258.350101,-11177.109724,-306.438199
1014.274632,-444.123565,-11473.192101,-306.438199
1014.274956,-1332.370696,-10288.862594,1532.190996
1014.275280,-1554.432478,-9918.759623,-229.828649
1014.275604,-1702.473667,-9474.636058,-459.657299
1014.275928,-1480.411884,-9252.574275,0.000000
1014.276252,-814.226536,-8956.491898,229.828649
1014.276576,-444.123565,-9400.615463,536.266849
1014.276900,-888.247130,-8734.430116,536.266849
1014.277224,-888.247130,-7846.182985,76.609550
1014.277548,-518.144159,-7550.100608,383.047749
1014.277873,1184.329507,-8586.388927,459.657299
1014.278197,1628.453072,-9622.677246,612.876398
1014.278521,1776.494261,-9400.615463,919.314598
1014.278845,1406.391290,-9622.677246,1072.533697
1014.279169,1628.453072,-9474.636058,842.705048
1014.279493,1406.391290,-9474.636058,919.314598
1014.279817,-296.082377,-9770.718434,459.657299
1014.280141,-1628.453072,-9992.780217,-306.438199
1014.280465,-2368.659014,-8956.491898,-842.705048
1014.280790,-1184.329507,-8586.388927,153.219100
1014.281114,0.000000,-9474.636058,306.438199
1014.281438,0.000000,-9548.656652,153.219100
1014.281762,-666.185348,-9474.636058,76.609550
1014.282086,-814.226536,-9400.615463,229.828649
1014.282410,296.082377,-9400.615463,-459.657299
1014.282734,0.000000,-10510.924376,689.485948
1014.283058,-296.082377,-10955.047942,1302.362347
1014.283382,-592.164754,-10214.842000,1608.800546
1014.283706,814.226536,-9474.636058,1455.581446
1014.284031,1924.535449,-9252.574275,689.485948
1014.284355,1332.370696,-8438.347739,-306.438199
1014.284679,444.123565,-8438.347739,536.266849
1014.285003,370.102971,-8808.450710,0.000000
1014.285327,444.123565,-9178.553681,-306.438199
1014.285651,-222.061783,-9178.553681,-383.047749
1014.285975,-1110.308913,-9622.677246,0.000000
1014.286299,-148.041188,-11399.171507,0.000000
1014.286623,1258.350101,-10881.027347,-536.266849
1014.286948,2294.638420,-9844.739029,919.314598
1014.287272,1924.535449,-10436.903782,229.828649
1014.287596,1184.329507,-10807.006753,-229.828649
1014.287920,0.000000,-9622.677246,-229.828649
1014.288244,0.000000,-9918.759623,0.000000
1014.288568,-666.185348,-11177.109724,-1072.533697
1014.288892,-1332.370696,-11177.109724,-1532.190996
1014.289216,-1406.391290,-9474.636058,-1072.533697
1014.289540,-370.102971,-9104.533087,-1532.190996
1014.289864,-444.123565,-10955.047942,-919.314598
1014.290189,-740.205942,-11769.274478,-995.924147
1014.290513,-814.226536,-10214.842000,-536.266849
1014.290837,-666.185348,-10510.924376,-76.609550
1014.291161,-592.164754,-10140.821405,-383.047749
1014.291485,-1036.288319,-9992.780217,153.219100
1014.291809,-1406.391290,-9622.677246,-229.828649
1014.292133,-888.247130,-9844.739029,76.609550
1014.292457,-74.020594,-9474.636058,0.000000
1014.292781,1036.288319,-8734.430116,-229.828649
1014.293105,148.041188,-8882.471304,766.095498
1014.293430,148.041188,-9474.636058,306.438199
1014.293754,-148.041188,-9030.512492,-306.438199
1014.294078,-888.247130,-7550.100608,-1302.362347
1014.294402,-1480.411884,-7994.224174,-1302.362347
1014.294726,-1628.453072,-9178.553681,-995.924147
1014.295050,-592.164754,-9474.636058,229.828649
1014.295374,296.082377,-8290.306550,153.219100
1014.295698,814.226536,-7772.162391,766.095498
1014.296022,0.000000,-9030.512492,-383.047749
1014.296347,-222.061783,-8882.471304,-919.314598
1014.296671,-296.082377,-9326.594869,459.657299
1014.296995,962.267725,-9474.636058,1149.143247
1014.297319,2368.659014,-10214.842000,2451.505594
1014.297643,814.226536,-9622.677246,1072.533697
1014.297967,-518.144159,-8660.409521,76.609550
1014.298291,-1480.411884,-9474.636058,-153.219100
1014.298615,-740.205942,-10584.944971,-1608.800546
1014.298939,-296.082377,-10140.821405,-919.314598
1014.299263,-518.144159,-9474.636058,-229.828649
1014.299588,-444.123565,-10362.883188,-383.047749
1014.299912,666.185348,-9992.780217,-919.314598
1014.300236,1332.370696,-10140.821405,-919.314598
1014.300560,814.226536,-9844.739029,-995.924147
1014.300884,370.102971,-9770.718434,-1225.752797
1014.301208,1184.329507,-9548.656652,0.000000
1014.301532,2664.741391,-10066.800811,995.924147
1014.301856,2886.803174,-11251.130318,689.485948
1014.302180,1776.494261,-11029.068536,0.000000
1014.302505,888.247130,-10807.006753,689.485948
1014.302829,1036.288319,-11473.192101,0.000000
1014.303153,1332.370696,-10584.944971,-459.657299
1014.303477,-740.205942,-9548.656652,-612.876398
1014.303801,-2960.823768,-9696.697840,-1302.362347
1014.304125,-3108.864956,-10732.986159,-1685.410096
1014.304449,-1406.391290,-9918.759623,-1455.581446
1014.304773,-666.185348,-9770.718434,-383.047749
1014.305097,0.000000,-9918.759623,-1072.533697
1014.305421,962.267725,-10140.821405,0.000000
1014.305746,1258.350101,-9770.718434,-689.485948
1014.306070,592.164754,-9770.718434,-306.438199
1014.306394,-296.082377,-9844.739029,0.000000
1014.306718,-666.185348,-10955.047942,0.000000
1014.307042,0.000000,-11177.109724,1072.533697
1014.307366,592.164754,-9474.636058,153.219100
1014.307690,1258.350101,-9178.553681,229.828649
1014.308014,592.164754,-8882.471304,-766.095498
1014.308338,-296.082377,-8956.491898,-919.314598
1014.308662,-962.267725,-9474.636058,0.000000
1014.308987,0.000000,-9474.636058,-153.219100
1014.309311,-740.205942,-8290.306550,-689.485948
1014.309635,-2368.659014,-7846.182985,-536.266849
1014.309959,-4145.153275,-7698.141797,-1991.848295
1014.310283,-3404.947333,-8068.244768,-2681.334243
1014.310607,-1480.411884,-8734.430116,-919.314598
1014.310931,666.185348,-9326.594869,0.000000
1014.311255,3552.988522,-9252.574275,1072.533697
1014.311579,4663.297435,-9696.697840,2451.505594
1014.311904,4663.297435,-9474.636058,1838.629195
1014.312228,3478.967927,-9104.533087,612.876398
1014.312552,1036.288319,-9474.636058,612.876398
1014.312876,-592.164754,-9696.697840,0.000000
1014.313200,-962.267725,-9548.656652,-459.657299
1014.313524,-74.020594,-8956.491898,-995.924147
1014.313848,814.226536,-8586.388927,-766.095498
1014.314172,1258.350101,-9104.533087,-1072.533697
1014.314496,1332.370696,-8660.409521,-2604.724693
1014.314820,0.000000,-7624.121203,-2528.115143
1014.315145,-814.226536,-7402.059420,-3294.210641
1014.315469,-222.061783,-9474.636058,-3064.381992
1014.315793,1258.350101,-11029.068536,-2451.505594
1014.316117,2738.761985,-10807.006753,-842.705048
1014.316441,3552.988522,-10214.842000,842.705048
1014.316765,4071.132681,-11251.130318,1225.752797
1014.317089,3775.050304,-10881.027347,-1378.971896
1014.317413,3701.029710,-10066.800811,-766.095498
1014.317737,3849.070898,-11695.253884,-995.924147
1014.318062,4367.215058,-11547.212695,-2374.896044
1014.318386,2590.720797,-10140.821405,-2145.067394
1014.318710,444.123565,-9474.636058,-2604.724693
1014.319034,74.020594,-9844.739029,-4060.306139
1014.319358,74.020594,-9770.718434,-4519.963438
1014.319682,148.041188,-9178.553681,-4673.182538
1014.320006,148.041188,-10066.800811,-4903.011187
1014.320330,962.267725,-10510.924376,-3983.696590
1014.320654,1036.288319,-10807.006753,-2221.676944
1014.320978,1776.494261,-10881.027347,-766.095498
1014.321303,3849.070898,-10510.924376,-1378.971896
1014.321627,4663.297435,-10584.944971,-1225.752797
1014.321951,4737.318029,-10510.924376,-766.095498
1014.322275,4219.173869,-9696.697840,-1762.019645
1014.322599,4441.235652,-9992.780217,-1762.019645
1014.322923,3404.947333,-9918.759623,-1915.238745
1014.323247,2368.659014,-10214.842000,-3447.429741
1014.323571,888.247130,-9918.759623,-4060.306139
1014.323895,296.082377,-9844.739029,-3447.429741
1014.324219,444.123565,-10732.986159,-3217.601092
1014.324544,1406.391290,-9992.780217,-2911.162892
1014.324868,2220.617826,-9474.636058,-2451.505594
1014.325192,1702.473667,-9474.636058,-2528.115143
1014.325516,2294.638420,-9474.636058,-2068.457845
1014.325840,3034.844362,-9030.512492,-1685.410096
1014.326164,2590.720797,-9030.512492,-1072.533697
1014.326488,1480.411884,-8512.368333,-1378.971896
1014.326812,1480.411884,-8068.244768,-1838.629195
1014.327136,2072.576638,-7624.121203,-2068.457845
1014.327461,2738.761985,-8068.244768,-1685.410096
1014.327785,2738.761985,-9844.739029,-2068.457845
1014.328109,2368.659014,-8882.471304,-2221.676944
1014.328433,1776.494261,-7624.121203,-1532.190996
1014.328757,1258.350101,-7698.141797,-2374.896044
1014.329081,444.123565,-8438.347739,-3217.601092
1014.329405,-666.185348,-8660.409521,-3753.867940
1014.329729,-740.205942,-8882.471304,-3370.820191
1014.330053,1258.350101,-8882.471304,-3064.381992
1014.330377,3330.926739,-8808.450710,-1685.410096
1014.330702,3182.885551,-8660.409521,-1149.143247
1014.331026,2590.720797,-9474.636058,-1455.581446
1014.331350,2442.679609,-10288.862594,-1149.143247
1014.331674,2442.679609,-11177.109724,-1991.848295
1014.331998,3034.844362,-11547.212695,-1302.362347
1014.332322,3923.091493,-10140.821405,-1149.143247
1014.332646,2664.741391,-9918.759623,-1685.410096
1014.332970,814.226536,-10881.027347,-2528.115143
1014.333294,-444.123565,-11177.109724,-3064.381992
1014.333619,-1480.411884,-11473.192101,-3524.039291
1014.333943,-666.185348,-10436.903782,-3753.867940
1014.334267,888.247130,-8882.471304,-3524.039291
1014.334591,2516.700203,-9548.656652,-2451.505594
1014.334915,3775.050304,-10732.986159,-2374.896044
1014.335239,4737.318029,-9992.780217,-2757.943793
1014.335563,3923.091493,-10436.903782,-1838.629195
1014.335887,3627.009116,-11029.068536,-1762.019645
1014.336211,4737.318029,-10066.800811,-2451.505594
1014.336535,4589.276840,-9770.718434,-1149.143247
1014.336859,3182.885551,-10140.821405,-1915.238745
1014.337183,3256.906145,-11251.130318,-2911.162892
1014.337507,2072.576638,-10807.006753,-2681.334243
1014.337831,1184.329507,-10214.842000,-2528.115143
1014.338156,1480.411884,-9104.533087,-2604.724693
1014.338480,1554.432478,-8808.450710,-2681.334243
1014.338804,74.020594,-8808.450710,-2145.067394
1014.339128,370.102971,-9474.636058,-2298.286494
1014.339452,814.226536,-9252.574275,-1685.410096
1014.339776,1406.391290,-9918.759623,-995.924147
1014.340100,2072.576638,-9400.615463,-995.924147
1014.340424,2146.597232,-8290.306550,-1072.533697
1014.340748,1924.535449,-9548.656652,-1532.190996
1014.341072,1554.432478,-10362.883188,-1608.800546
1014.341396,1110.308913,-9326.594869,-2298.286494
1014.341720,740.205942,-9030.512492,-1532.190996
1014.342044,814.226536,-9400.615463,-2221.676944
1014.342368,1628.453072,-9104.533087,-2451.505594
1014.342692,1258.350101,-7772.162391,-2451.505594
1014.343016,740.205942,-8882.471304,-2221.676944
1014.343340,1776.494261,-9770.718434,-1991.848295
1014.343664,3034.844362,-9178.553681,-1532.190996
1014.343988,3256.906145,-7994.224174,0.000000
1014.344312,3701.029710,-9622.677246,766.095498
1014.344636,3923.091493,-10214.842000,-229.828649
1014.344960,4441.235652,-9474.636058,-689.485948
1014.345284,2220.617826,-8660.409521,-766.095498
1014.345609,370.102971,-9696.697840,-1762.019645
1014.345933,222.061783,-9992.780217,-1991.848295
1014.346257,222.061783,-9104.533087,-1991.848295
1014.346581,-518.144159,-8512.368333,-3217.601092
1014.346905,-888.247130,-9030.512492,-4060.306139
1014.347229,222.061783,-9622.677246,-3140.991542
1014.347553,2664.741391,-9474.636058,-2374.896044
1014.347877,3404.947333,-9474.636058,-2145.067394
1014.348201,2960.823768,-10140.821405,-1608.800546
1014.348525,2960.823768,-10362.883188,-1532.190996
1014.348849,3775.050304,-10732.986159,-1072.533697
1014.349173,5329.482782,-10510.924376,-689.485948
1014.349497,4663.297435,-11103.089130,-1302.362347
1014.349821,3256.906145,-11843.295072,-1915.238745
1014.350145,2960.823768,-11177.109724,-1532.190996
1014.350469,3997.112087,-9696.697840,-1762.019645
1014.350793,4071.132681,-9622.677246,-2528.115143
1014.351117,2368.659014,-10288.862594,-3447.429741
1014.351441,148.041188,-9696.697840,-4136.915689
1014.351765,-370.102971,-8808.450710,-4136.915689
1014.352089,148.041188,-9030.512492,-3983.696590
1014.352413,1628.453072,-9178.553681,-3830.477490
1014.352737,2442.679609,-9400.615463,-2987.772442
1014.353062,3997.112087,-10140.821405,-2145.067394
1014.353386,3849.070898,-10140.821405,-2221.676944
1014.353710,3404.947333,-9400.615463,-1762.019645
1014.354034,3627.009116,-9548.656652,-1149.143247
1014.354358,3997.112087,-10362.883188,-1149.143247
1014.354682,4145.153275,-9992.780217,-1378.971896
1014.355006,3108.864956,-9030.512492,-1685.410096
1014.355330,592.164754,-9252.574275,-2604.724693
1014.355654,-1554.432478,-9696.697840,-3600.648841
1014.355978,-1628.453072,-9030.512492,-3907.087040
1014.356302,-296.082377,-7550.100608,-3294.210641
1014.356626,814.226536,-7698.141797,-3600.648841
1014.356950,74.020594,-9252.574275,-4136.915689
1014.357274,-888.247130,-9474.636058,-4290.134789
1014.357598,-1110.308913,-8956.491898,-3753.867940
1014.357922,444.123565,-8734.430116,-2604.724693
1014.358246,3256.906145,-9326.594869,-995.924147
1014.358570,5625.565159,-9992.780217,-229.828649
1014.358894,5773.606348,-10658.965565,-1072.533697
1014.359218,3923.091493,-11325.150913,-1838.629195
1014.359542,2220.617826,-11473.192101,-2374.896044
1014.359866,814.226536,-11547.212695,-2298.286494
1014.360191,-518.144159,-10807.006753,-2681.334243
1014.360515,-1110.308913,-9918.759623,-2987.772442
1014.360839,-814.226536,-9104.533087,-3217.601092
1014.361163,1036.288319,-9474.636058,-3140.991542
1014.361487,2220.617826,-10066.800811,-2451.505594
1014.361811,2590.720797,-10584.944971,-2298.286494
1014.362135,2072.576638,-9548.656652,-2221.676944
1014.362459,1036.288319,-8660.409521,-2068.457845
1014.362783,740.205942,-8956.491898,-1915.238745
1014.363107,1036.288319,-9696.697840,-1838.629195
1014.363431,2368.659014,-11029.068536,-1378.971896
1014.363755,4071.132681,-10362.883188,-1302.362347
1014.364079,5847.626942,-10584.944971,-689.485948
1014.364403,6809.894666,-10214.842000,-689.485948
1014.364727,6069.688724,-9992.780217,-1225.752797
1014.365051,3552.988522,-9992.780217,-1762.019645
1014.365375,1184.329507,-9474.636058,-2757.943793
1014.365699,0.000000,-9696.697840,-2987.772442
1014.366023,296.082377,-9474.636058,-2298.286494
1014.366347,814.226536,-8586.388927,-1762.019645
1014.366671,1850.514855,-8586.388927,-1532.190996
1014.366995,2516.700203,-8586.388927,-766.095498
1014.367319,2886.803174,-8068.244768,-459.657299
1014.367644,2590.720797,-8142.265362,0.000000
1014.367968,2368.659014,-8586.388927,0.000000
1014.368292,2072.576638,-8364.327145,-1149.143247
1014.368616,1776.494261,-9104.533087,-1149.143247
1014.368940,1332.370696,-9474.636058,-2374.896044
1014.369264,814.226536,-9622.677246,-2757.943793
1014.369588,592.164754,-8956.491898,-3140.991542
1014.369912,1110.308913,-8956.491898,-3217.601092
1014.370236,1406.391290,-8882.471304,-2987.772442
1014.370560,2294.638420,-9178.553681,-2221.676944
1014.370884,3034.844362,-9622.677246,-1608.800546
1014.371208,2812.782580,-9918.759623,-1225.752797
1014.371532,2812.782580,-9696.697840,-766.095498
1014.371856,3034.844362,-9622.677246,0.000000
1014.372180,3404.947333,-9844.739029,153.219100
1014.372504,3404.947333,-10510.924376,-229.828649
1014.372828,2812.782580,-10510.924376,-919.314598
1014.373152,1480.411884,-10288.862594,-2145.067394
1014.373476,0.000000,-10214.842000,-3217.601092
1014.373800,-962.267725,-10362.883188,-4673.182538
1014.374124,-1776.494261,-10362.883188,-5592.497135
1014.374448,-1702.473667,-9548.656652,-5286.058936
1014.374772,-592.164754,-9696.697840,-5286.058936
1014.375097,1480.411884,-9696.697840,-4213.525239
1014.375421,3552.988522,-9844.739029,-3294.210641
1014.375745,4515.256246,-9844.739029,-1991.848295
1014.376069,5477.523971,-10288.862594,-383.047749
1014.376393,6439.791695,-11251.130318,-306.438199
1014.376717,6291.750507,-11473.192101,0.000000
1014.377041,5181.441594,-11399.171507,306.438199
1014.377365,3923.091493,-11473.192101,-459.657299
1014.377689,1998.556043,-11399.171507,-1915.238745
1014.378013,-666.185348,-10807.006753,-3064.381992
1014.378337,-3108.864956,-9696.697840,-4749.792088
1014.378661,-5033.400406,-9104.533087,-5056.230287
1014.378985,-5329.482782,-8438.347739,-5286.058936
1014.379309,-3923.091493,-8142.265362,-4596.572988
1014.379633,-1924.535449,-7698.141797,-2911.162892
1014.379957,370.102971,-8364.327145,-1762.019645
1014.380281,2442.679609,-8660.409521,-689.485948
1014.380605,3997.112087,-9252.574275,383.047749
1014.380929,5551.544565,-10140.821405,1149.143247
1014.381253,5033.400406,-10214.842000,383.047749
1014.381577,4293.194464,-10436.903782,919.314598
1014.381901,3034.844362,-10732.986159,0.000000
1014.382225,2220.617826,-10955.047942,-1302.362347
1014.382550,888.247130,-11029.068536,-2604.724693
1014.382874,0.000000,-9696.697840,-3753.867940
1014.383198,-592.164754,-8068.244768,-3753.867940
1014.383522,0.000000,-8364.327145,-3753.867940
1014.383846,1036.288319,-7179.997637,-2451.505594
1014.384170,2590.720797,-6513.812290,-1302.362347
1014.384494,3997.112087,-6809.894666,-612.876398
1014.384818,5551.544565,-7402.059420,76.609550
1014.385142,6957.935855,-7920.203579,536.266849
1014.385466,7624.121203,-9030.512492,1225.752797
1014.385790,6587.832884,-9770.718434,1072.533697
1014.386114,4811.338623,-9992.780217,-306.438199
1014.386438,3330.926739,-10436.903782,-1762.019645
1014.386762,2146.597232,-10807.006753,-2987.772442
1014.387086,1924.535449,-11029.068536,-3753.867940
1014.387410,1702.473667,-10362.883188,-4060.306139
1014.387734,1702.473667,-9622.677246,-3907.087040
1014.388058,1998.556043,-9252.574275,-3524.039291
1014.388382,2220.617826,-8734.430116,-3370.820191
1014.388706,2368.659014,-8882.471304,-2298.286494
1014.389030,3404.947333,-9252.574275,-1378.971896
1014.389354,3849.070898,-9622.677246,-766.095498
1014.389678,4145.153275,-10140.821405,-383.047749
1014.390003,4293.194464,-10807.006753,-229.828649
1014.390327,3552.988522,-10881.027347,-1225.752797
1014.390651,2442.679609,-10955.047942,-1685.410096
1014.390975,1406.391290,-10584.944971,-3294.210641
1014.391299,0.000000,-10066.800811,-4060.306139
1014.391623,-1036.288319,-10066.800811,-5515.887586
1014.391947,-2294.638420,-9918.759623,-5898.935335
1014.392271,-2886.803174,-9548.656652,-6205.373534
1014.392595,-2960.823768,-9178.553681,-5822.325785
1014.392919,-1480.411884,-9178.553681,-4443.353888
1014.393243,74.020594,-8882.471304,-3064.381992
1014.393567,2664.741391,-9400.615463,-1225.752797
1014.393891,4959.379811,-9992.780217,-689.485948
1014.394215,5995.668130,-10955.047942,-153.219100
1014.394539,6143.709319,-11547.212695,-153.219100
1014.394863,4959.379811,-11917.315666,-536.266849
1014.395187,2738.761985,-11843.295072,-1532.190996
1014.395511,-222.061783,-11621.233289,-2374.896044
1014.395835,-3849.070898,-10362.883188,-4903.011187
1014.396159,-5033.400406,-9696.697840,-6588.421283
1014.396483,-4811.338623,-9030.512492,-6741.640382
1014.396807,-2442.679609,-8956.491898,-6435.202183
1014.397131,370.102971,-8512.368333,-4979.620737
1014.397456,2812.782580,-8438.347739,-3140.991542
1014.397780,3849.070898,-8808.450710,-2451.505594
1014.398104,4219.173869,-9474.636058,-1149.143247
1014.398428,3923.091493,-8734.430116,-995.924147
1014.398752,4737.318029,-9400.615463,-383.047749
1014.399076,6661.853478,-10658.965565,459.657299
1014.399400,8142.265362,-11399.171507,689.485948
1014.399724,7402.059420,-11103.089130,229.828649
1014.400048,4293.194464,-10140.821405,-1149.143247
1014.400372,888.247130,-9622.677246,-3064.381992
1014.400696,-1702.473667,-8290.306550,-3600.648841
1014.401020,-2220.617826,-8068.244768,-4060.306139
1014.401344,-1776.494261,-7254.018232,-4136.915689
1014.401668,-296.082377,-7476.080014,-3447.429741
1014.401992,370.102971,-7994.224174,-2757.943793
1014.402316,1258.350101,-7994.224174,-2145.067394
1014.402640,2072.576638,-8068.244768,-612.876398
1014.402964,3256.906145,-8068.244768,612.876398
1014.403288,4589.276840,-8586.388927,306.438199
1014.403612,6069.688724,-9622.677246,1608.800546
1014.403936,6291.750507,-11177.109724,1378.971896
1014.404260,5551.544565,-11917.315666,842.705048
1014.404584,4145.153275,-11399.171507,229.828649
1014.404909,3108.864956,-9770.718434,0.000000
1014.405233,2368.659014,-8882.471304,-1072.533697
1014.405557,740.205942,-8216.285956,-2145.067394
1014.405881,-1258.350101,-8882.471304,-3447.429741
1014.406205,-2960.823768,-8956.491898,-3983.696590
1014.406529,-2146.597232,-8660.409521,-3753.867940
1014.406853,592.164754,-8364.327145,-2528.115143
1014.407177,3256.906145,-8512.368333,-1072.533697
1014.407501,4589.276840,-8660.409521,-842.705048
1014.407825,4367.215058,-9696.697840,306.438199
1014.408149,3849.070898,-10658.965565,-153.219100
1014.408473,4589.276840,-11769.274478,0.000000
1014.408797,4959.379811,-12435.459826,459.657299
1014.409121,3997.112087,-12731.542202,0.000000
1014.409445,1702.473667,-12065.356855,-1072.533697
1014.409769,0.000000,-11843.295072,-2374.896044
1014.410093,-1036.288319,-11103.089130,-3447.429741
1014.410417,-1110.308913,-10436.903782,-3983.696590
1014.410741,-1110.308913,-9696.697840,-4060.306139
1014.411065,-592.164754,-9474.636058,-3294.210641
1014.411389,592.164754,-9400.615463,-3294.210641
1014.411713,1480.411884,-9252.574275,-3524.039291
1014.412037,2072.576638,-9548.656652,-3753.867940
1014.412362,1998.556043,-9400.615463,-2221.676944
1014.412686,2960.823768,-9992.780217,-1225.752797
1014.413010,4441.235652,-9992.780217,-1838.629195
1014.413334,4367.215058,-9326.594869,-1991.848295
1014.413658,4367.215058,-9992.780217,-1149.143247
1014.413982,3997.112087,-11029.068536,-919.314598
1014.414306,3923.091493,-10658.965565,-1302.362347
1014.414630,1998.556043,-8660.409521,-1991.848295
1014.414954,-814.226536,-8216.285956,-2834.553343
1014.415278,-2220.617826,-8660.409521,-3217.601092
1014.415602,-740.205942,-8142.265362,-2834.553343
1014.415926,740.205942,-7772.162391,-2757.943793
1014.416250,74.020594,-7550.100608,-2987.772442
1014.416574,-148.041188,-8142.265362,-3140.991542
1014.416898,962.267725,-9104.533087,-2757.943793
1014.417222,3034.844362,-8734.430116,-2987.772442
1014.417546,2812.782580,-8068.244768,-2834.553343
1014.417870,2368.659014,-10066.800811,-2604.724693
1014.418194,2738.761985,-10658.965565,-2604.724693
1014.418518,4589.276840,-10436.903782,-2528.115143
1014.418842,5329.482782,-9622.677246,-1532.190996
1014.419166,5181.441594,-10807.006753,-1991.848295
1014.419490,4293.194464,-11769.274478,-2068.457845
1014.419815,2590.720797,-10288.862594,-2451.505594
1014.420139,1850.514855,-9030.512492,-2451.505594
1014.420463,2220.617826,-9400.615463,-1991.848295
1014.420787,2294.638420,-10214.842000,-1608.800546
1014.421111,2368.659014,-9696.697840,-1455.581446
1014.421435,1850.514855,-8956.491898,-2528.115143
1014.421759,1776.494261,-8882.471304,-2757.943793
1014.422083,1776.494261,-9104.533087,-2528.115143
1014.422407,1184.329507,-9548.656652,-2604.724693
1014.422731,592.164754,-9252.574275,-3753.867940
1014.423055,888.247130,-9400.615463,-3524.039291
1014.423379,1924.535449,-10288.862594,-3600.648841
1014.423703,2812.782580,-11325.150913,-4443.353888
1014.424027,2368.659014,-11325.150913,-3753.867940
1014.424351,1998.556043,-11325.150913,-2604.724693
1014.424675,2220.617826,-10658.965565,-2451.505594
1014.424999,2294.638420,-10362.883188,-1532.190996
1014.425323,2812.782580,-11177.109724,0.000000
1014.425647,3108.864956,-11399.171507,-842.705048
1014.425971,3256.906145,-10510.924376,-766.095498
1014.426295,1850.514855,-9474.636058,0.000000
1014.426619,1702.473667,-9918.759623,-995.924147
1014.426943,2886.803174,-8808.450710,-1991.848295
1014.427268,2294.638420,-7328.038826,-2221.676944
1014.427592,1036.288319,-8068.244768,-3447.429741
1014.427916,518.144159,-8808.450710,-4136.915689
1014.428240,-370.102971,-8512.368333,-4826.401637
1014.428564,-2220.617826,-8808.450710,-4749.792088
1014.428888,-1924.535449,-8734.430116,-4673.182538
1014.429212,1332.370696,-8438.347739,-4443.353888
1014.429536,2812.782580,-10066.800811,-2681.334243
1014.429860,4515.256246,-10214.842000,-689.485948
1014.430184,6735.874072,-10584.944971,766.095498
1014.430508,6143.709319,-12139.377449,2298.286494
1014.430832,6365.771101,-11029.068536,2451.505594
1014.431156,6291.750507,-9770.718434,2145.067394
1014.431480,4515.256246,-11029.068536,766.095498
1014.431804,2368.659014,-10066.800811,-1225.752797
1014.432128,0.000000,-8882.471304,-1532.190996
1014.432452,-1258.350101,-8216.285956,-2298.286494
1014.432776,-1406.391290,-8216.285956,-3830.477490
1014.433100,-1924.535449,-7328.038826,-4673.182538
1014.433424,-3108.864956,-6809.894666,-5286.058936
1014.433748,-3108.864956,-7698.141797,-5515.887586
1014.434072,-888.247130,-8364.327145,-4519.963438
1014.434396,1036.288319,-8438.347739,-3370.820191
1014.434721,2516.700203,-8512.368333,-2221.676944
1014.435045,3552.988522,-8660.409521,-229.828649
1014.435369,4219.173869,-11325.150913,1455.581446
1014.435693,4885.359217,-13027.624579,1762.019645
1014.436017,5255.462188,-11991.336260,1762.019645
1014.436341,4441.235652,-11251.130318,1991.848295
1014.436665,4219.173869,-11325.150913,1455.581446
1014.436989,3701.029710,-10066.800811,76.609550
1014.437313,2146.597232,-9918.759623,-153.219100
1014.437637,1628.453072,-9474.636058,-1532.190996
1014.437960,1258.350101,-8660.409521,-2757.943793
1014.438284,-148.041188,-8364.327145,-4136.915689
1014.438608,-3256.906145,-7772.162391,-4903.011187
1014.438932,-5181.441594,-7920.203579,-6358.592633
1014.439256,-5921.647536,-10066.800811,-5745.716235
1014.439580,-2664.741391,-10510.924376,-3830.477490
1014.439904,1184.329507,-9918.759623,-2681.334243
1014.440228,4589.276840,-9918.759623,76.609550
1014.440552,6957.935855,-11399.171507,1225.752797
1014.440876,7105.977043,-12065.356855,1838.629195
1014.441200,5625.565159,-12731.542202,1838.629195
1014.441524,3478.967927,-12435.459826,1685.410096
1014.441848,1776.494261,-11621.233289,1991.848295
1014.442172,222.061783,-10955.047942,2068.457845
1014.442496,-1036.288319,-10288.862594,689.485948
1014.442820,-2072.576638,-9474.636058,-1225.752797
1014.443144,-3034.844362,-7920.203579,-2451.505594
1014.443468,-2812.782580,-7402.059420,-2987.772442
1014.443792,-1776.494261,-7550.100608,-3677.258390
1014.444115,-222.061783,-7031.956449,-2911.162892
1014.444439,-740.205942,-6661.853478,-2604.724693
1014.444763,-1776.494261,-7698.141797,-2834.553343
1014.445087,-2960.823768,-8586.388927,-2911.162892
1014.445411,-1258.350101,-9474.636058,-2681.334243
1014.445735,1554.432478,-9770.718434,-536.266849
1014.446059,3775.050304,-10510.924376,1915.238745
1014.446383,5329.482782,-10955.047942,3983.696590
1014.446707,5255.462188,-11843.295072,4290.134789
1014.447031,4589.276840,-11991.336260,3677.258390
1014.447355,3256.906145,-10362.883188,2834.553343
1014.447679,1998.556043,-10362.883188,2451.505594
1014.448003,1628.453072,-8512.368333,-229.828649
1014.448327,222.061783,-6365.771101,-995.924147
1014.448651,-1480.411884,-6883.915261,-766.095498
1014.448975,-3108.864956,-9252.574275,-2298.286494
1014.449299,-5107.421000,-9030.512492,-3983.696590
1014.449623,-6809.894666,-7550.100608,-2604.724693
1014.449947,-5921.647536,-8438.347739,-3217.601092
1014.450270,-3478.967927,-9178.553681,-4290.134789
1014.450594,-2368.659014,-9400.615463,-1838.629195
1014.450918,-666.185348,-10584.944971,995.924147
1014.451242,2146.597232,-11843.295072,2604.724693
1014.451566,4219.173869,-12435.459826,3830.477490
1014.451890,4367.215058,-10732.986159,3677.258390
1014.452214,3849.070898,-9844.739029,3217.601092
1014.452538,2442.679609,-11177.109724,2451.505594
1014.452862,2072.576638,-12213.398043,2068.457845
1014.453186,1776.494261,-9548.656652,1991.848295
1014.453510,518.144159,-7328.038826,0.000000
1014.453834,-2738.761985,-9030.512492,-1762.019645
1014.454158,-4589.276840,-10288.862594,-2681.334243
1014.454482,-3775.050304,-9326.594869,-4903.011187
1014.454806,-4737.318029,-9030.512492,-4979.620737
1014.455130,-7031.956449,-9548.656652,-4443.353888
1014.455454,-4737.318029,-9326.594869,-2834.553343
1014.455778,-888.247130,-10140.821405,-306.438199
1014.456102,3404.947333,-10807.006753,919.314598
1014.456425,4811.338623,-10214.842000,2068.457845
1014.456749,5181.441594,-10510.924376,2528.115143
1014.457073,4885.359217,-11251.130318,3064.381992
1014.457397,3849.070898,-10584.944971,3370.820191
1014.457721,2368.659014,-10807.006753,3753.867940
1014.458045,296.082377,-11399.171507,2451.505594
1014.458369,-222.061783,-9992.780217,612.876398
1014.458693,1110.308913,-8660.409521,76.609550
1014.459017,1628.453072,-8956.491898,0.000000
1014.459341,444.123565,-8956.491898,-1455.581446
1014.459665,-3997.112087,-8216.285956,-2987.772442
1014.459989,-7476.080014,-7846.182985,-3064.381992
1014.460313,-6291.750507,-7846.182985,-3983.696590
1014.460637,-3849.070898,-7846.182985,-2528.115143
1014.460961,-1554.432478,-8586.388927,-536.266849
1014.461285,1998.556043,-8734.430116,383.047749
1014.461609,4515.256246,-8142.265362,1378.971896
1014.461933,5625.565159,-9474.636058,2911.162892
1014.462257,4885.359217,-10807.006753,3447.429741
1014.462580,3923.091493,-10955.047942,3140.991542
1014.462904,2294.638420,-10807.006753,2834.553343
1014.463228,740.205942,-10510.924376,2604.724693
1014.463552,1036.288319,-9992.780217,919.314598
1014.463876,-222.061783,-9104.533087,-689.485948
1014.464200,-1924.535449,-9104.533087,-2068.457845
1014.464524,-2220.617826,-9326.594869,-2221.676944
1014.464848,-1702.473667,-8586.388927,-2374.896044
1014.465172,-2664.741391,-8216.285956,-2221.676944
1014.465496,-4811.338623,-8438.347739,-1532.190996
1014.465820,-5181.441594,-8956.491898,-2451.505594
1014.466144,-2960.823768,-9326.594869,-689.485948
1014.466468,-222.061783,-10362.883188,306.438199
1014.466792,1406.391290,-10140.821405,766.095498
1014.467116,2220.617826,-10362.883188,1225.752797
1014.467440,2072.576638,-10140.821405,1838.629195
1014.467764,1628.453072,-11177.109724,2451.505594
1014.468088,1184.329507,-11399.171507,995.924147
1014.468411,518.144159,-10214.842000,459.657299
1014.468735,-1110.308913,-9400.615463,-1378.971896
1014.469059,-370.102971,-10362.883188,-1608.800546
1014.469383,1702.473667,-10288.862594,-919.314598
1014.469707,2590.720797,-9992.780217,-1378.971896
1014.470031,592.164754,-9548.656652,-1378.971896
1014.470355,-518.144159,-8290.306550,-2068.457845
1014.470679,-222.061783,-9400.615463,-1915.238745
1014.471003,-1184.329507,-9622.677246,-2451.505594
1014.471327,-518.144159,-9104.533087,-2604.724693
1014.471651,-296.082377,-10436.903782,-1072.533697
1014.471975,0.000000,-11325.150913,-306.438199
1014.472299,666.185348,-11103.089130,-153.219100
1014.472623,666.185348,-10881.027347,1378.971896
1014.472947,-888.247130,-11547.212695,1072.533697
1014.473271,-1258.350101,-11177.109724,-612.876398
1014.473595,-1480.411884,-10288.862594,0.000000
1014.473919,-444.123565,-9474.636058,0.000000
1014.474243,1406.391290,-10362.883188,383.047749
1014.474566,1332.370696,-11103.089130,0.000000
1014.474890,-148.041188,-9992.780217,0.000000
1014.475214,-1332.370696,-9252.574275,-842.705048
1014.475538,-1628.453072,-8068.244768,-2221.676944
1014.475862,-2294.638420,-8586.388927,-1608.800546
1014.476186,-1554.432478,-9178.553681,-1378.971896
1014.476510,-296.082377,-9474.636058,76.609550
1014.476834,1628.453072,-10288.862594,1685.410096
1014.477158,2368.659014,-8734.430116,1608.800546
1014.477482,1184.329507,-8142.265362,919.314598
1014.477806,0.000000,-7624.121203,459.657299
1014.478130,-444.123565,-8660.409521,229.828649
1014.478454,-296.082377,-8586.388927,1455.581446
1014.478778,-1258.350101,-8364.327145,1225.752797
1014.479102,-1702.473667,-8512.368333,383.047749
1014.479426,-1110.308913,-9400.615463,995.924147
1014.479750,370.102971,-8956.491898,-306.438199
1014.480074,740.205942,-8586.388927,-612.876398
1014.480398,-592.164754,-9104.533087,0.000000
1014.480721,-1184.329507,-9844.739029,383.047749
1014.481045,-666.185348,-10955.047942,1149.143247
1014.481369,-370.102971,-9622.677246,153.219100
1014.481693,-444.123565,-8956.491898,0.000000
1014.482017,74.020594,-9844.739029,-306.438199
1014.482341,1406.391290,-11251.130318,766.095498
1014.482665,1480.411884,-10881.027347,1685.410096
1014.482989,1258.350101,-10140.821405,2145.067394
1014.483313,-592.164754,-10807.006753,1302.362347
1014.483637,-1554.432478,-11029.068536,-536.266849
1014.483961,-1332.370696,-10436.903782,-612.876398
1014.484285,0.000000,-9104.533087,-153.219100
1014.484609,1480.411884,-9030.512492,-153.219100
1014.484933,1184.329507,-9548.656652,0.000000
1014.485257,1184.329507,-9474.636058,842.705048
1014.485581,1480.411884,-9696.697840,-153.219100
1014.485905,1406.391290,-9400.615463,-766.095498
1014.486229,592.164754,-9548.656652,-536.266849
1014.486553,-666.185348,-9918.759623,-842.705048
1014.486876,74.020594,-10658.965565,612.876398
1014.487200,1480.411884,-10807.006753,1225.752797
1014.487524,1850.514855,-10066.800811,1149.143247
1014.487848,0.000000,-9992.780217,229.828649
1014.488172,-1850.514855,-9030.512492,-919.314598
1014.488496,-1850.514855,-9474.636058,-459.657299
1014.488820,-1406.391290,-9918.759623,-459.657299
1014.489144,-518.144159,-9400.615463,-612.876398
1014.489468,-1258.350101,-9548.656652,-1072.533697
1014.489792,-1924.535449,-9696.697840,-689.485948
1014.490116,-592.164754,-8808.450710,-1378.971896
1014.490440,444.123565,-8808.450710,-153.219100
1014.490764,740.205942,-9992.780217,0.000000
1014.491088,962.267725,-9622.677246,-1225.752797
1014.491412,1036.288319,-8956.491898,-306.438199
1014.491736,1036.288319,-9696.697840,-306.438199
1014.492060,814.226536,-10807.006753,-383.047749
1014.492384,222.061783,-10584.944971,0.000000
1014.492708,0.000000,-8882.471304,153.219100
1014.493031,74.020594,-9178.553681,-306.438199
1014.493355,-222.061783,-9474.636058,-612.876398
1014.493679,-814.226536,-10288.862594,-536.266849
1014.494003,-1184.329507,-11473.192101,-612.876398
1014.494327,-1258.350101,-10584.944971,-842.705048
1014.494651,-1184.329507,-8956.491898,-766.095498
1014.494975,-1332.370696,-8290.306550,-153.219100
1014.495299,-1924.535449,-9548.656652,-766.095498
1014.495623,-2220.617826,-10584.944971,-1302.362347
1014.495947,-1628.453072,-10214.842000,-919.314598
1014.496271,-962.267725,-9918.759623,-383.047749
1014.496595,-222.061783,-9400.615463,-229.828649
1014.496919,518.144159,-8364.327145,-842.705048
1014.497243,1036.288319,-9104.533087,842.705048
1014.497567,2220.617826,-10658.965565,612.876398
1014.497891,3256.906145,-10288.862594,229.828649
1014.498215,1702.473667,-9918.759623,1532.190996
1014.498539,-148.041188,-9030.512492,-459.657299
1014.498863,-814.226536,-9474.636058,-766.095498
1014.499186,-1480.411884,-9474.636058,-689.485948
1014.499510,-518.144159,-8586.388927,-229.828649
1014.499834,370.102971,-9548.656652,306.438199
1014.500158,1554.432478,-9178.553681,229.828649
1014.500482,3256.906145,-8734.430116,306.438199
1014.500806,3478.967927,-9030.512492,766.095498
1014.501130,2442.679609,-10214.842000,766.095498
1014.501454,296.082377,-11103.089130,0.000000
1014.501778,-1110.308913,-10140.821405,-229.828649
1014.502102,-962.267725,-8290.306550,-1149.143247
1014.502426,-592.164754,-8734.430116,-842.705048
1014.502750,222.061783,-10362.883188,153.219100
1014.503074,666.185348,-10436.903782,229.828649
1014.503398,1702.473667,-10732.986159,0.000000
1014.503722,1258.350101,-9178.553681,0.000000
1014.504046,-444.123565,-9400.615463,-919.314598
1014.504370,-2516.700203,-10436.903782,-1532.190996
1014.504694,-2368.659014,-10658.965565,76.609550
1014.505018,-740.205942,-11473.192101,766.095498
1014.505341,444.123565,-10436.903782,689.485948
1014.505665,814.226536,-9622.677246,919.314598
1014.505989,296.082377,-9030.512492,306.438199
1014.506313,666.185348,-8808.450710,-383.047749
1014.506637,592.164754,-9326.594869,-612.876398
1014.506961,-296.082377,-9326.594869,-153.219100
1014.507285,-1332.370696,-9918.759623,-766.095498
1014.507609,-1628.453072,-8586.388927,-536.266849
1014.507933,-962.267725,-8512.368333,-842.705048
1014.508257,-296.082377,-8660.409521,-1302.362347
1014.508581,-444.123565,-9030.512492,-612.876398
1014.508905,-740.205942,-9548.656652,-153.219100
1014.509229,74.020594,-10362.883188,612.876398
1014.509553,1184.329507,-9918.759623,995.924147
1014.509877,1406.391290,-9918.759623,1149.143247
1014.510201,0.000000,-10510.924376,995.924147
1014.510525,-962.267725,-10214.842000,383.047749
1014.510849,-1998.556043,-10066.800811,0.000000
1014.511172,-1406.391290,-9548.656652,-306.438199
1014.511496,-740.205942,-9474.636058,-306.438199
1014.511820,-666.185348,-9548.656652,-459.657299
1014.512144,0.000000,-10288.862594,-306.438199
1014.512468,-296.082377,-10288.862594,-383.047749
1014.512792,148.041188,-10510.924376,153.219100
1014.513116,74.020594,-10584.944971,536.266849
1014.513440,296.082377,-10732.986159,-612.876398
1014.513764,148.041188,-9474.636058,76.609550
1014.514088,148.041188,-9326.594869,229.828649
1014.514412,888.247130,-9844.739029,919.314598
1014.514736,1184.329507,-10658.965565,1225.752797
1014.515060,370.102971,-10436.903782,1991.848295
1014.515384,518.144159,-8586.388927,1149.143247
1014.515708,518.144159,-8142.265362,612.876398
1014.516032,-518.144159,-8882.471304,153.219100
1014.516356,-1628.453072,-9030.512492,0.000000
1014.516680,-1554.432478,-9252.574275,76.609550
1014.517004,-1998.556043,-8882.471304,306.438199
1014.517327,-1480.411884,-8068.244768,536.266849
1014.517651,-1480.411884,-8882.471304,-306.438199
1014.517975,-1480.411884,-8882.471304,-536.266849
1014.518299,-148.041188,-9474.636058,0.000000
1014.518623,1628.453072,-10066.800811,689.485948
1014.518947,2294.638420,-9918.759623,536.266849
1014.519271,888.247130,-9770.718434,76.609550
1014.519595,0.000000,-9030.512492,229.828649
1014.519919,518.144159,-9474.636058,229.828649
1014.520243,148.041188,-9918.759623,-689.485948
1014.520567,-1184.329507,-9992.780217,0.000000
1014.520891,-148.041188,-9992.780217,-383.047749
1014.521215,1776.494261,-9474.636058,-229.828649
1014.521539,2886.803174,-8068.244768,-306.438199
1014.521863,2368.659014,-8808.450710,0.000000
1014.522187,962.267725,-10436.903782,-1302.362347
1014.522511,-518.144159,-10436.903782,-919.314598
1014.522835,-592.164754,-9622.677246,-689.485948
1014.523159,148.041188,-9104.533087,-1455.581446
1014.523482,444.123565,-9918.759623,-1072.533697
1014.523806,1036.288319,-10658.965565,-1149.143247
1014.524130,1776.494261,-10584.944971,-842.705048
1014.524454,2294.638420,-10732.986159,-766.095498
1014.524778,1628.453072,-10658.965565,-766.095498
1014.525102,0.000000,-11325.150913,-766.095498
1014.525426,-222.061783,-10881.027347,-1532.190996
1014.525750,0.000000,-11325.150913,-153.219100
1014.526074,296.082377,-12065.356855,0.000000
1014.526398,-592.164754,-12139.377449,-229.828649
1014.526722,-1554.432478,-10955.047942,-612.876398
1014.527046,-2072.576638,-9178.553681,-919.314598
1014.527370,-444.123565,-8734.430116,-842.705048
1014.527694,0.000000,-10214.842000,-459.657299
1014.528018,-222.061783,-10658.965565,-383.047749
1014.528342,-740.205942,-9178.553681,-459.657299
1014.528666,-1480.411884,-8734.430116,306.438199
1014.528990,-888.247130,-7994.224174,0.000000
1014.529314,-814.226536,-7624.121203,383.047749
1014.529637,-1628.453072,-8068.244768,0.000000
1014.529961,518.144159,-7846.182985,153.219100
1014.530285,2442.679609,-8956.491898,1378.971896
1014.530609,4293.194464,-8882.471304,2068.457845
1014.530933,3627.009116,-8438.347739,2298.286494
1014.531257,1110.308913,-7772.162391,1532.190996
1014.531581,-1332.370696,-7698.141797,842.705048
1014.531905,-3182.885551,-8512.368333,0.000000
1014.532229,-3627.009116,-8882.471304,-383.047749
1014.532553,-2664.741391,-8734.430116,0.000000
1014.532877,-666.185348,-9326.594869,842.705048
1014.533201,296.082377,-9844.739029,766.095498
1014.533525,-888.247130,-9400.615463,0.000000
1014.533849,-2812.782580,-9252.574275,-766.095498
1014.534173,-4663.297435,-9326.594869,-2221.676944
1014.534497,-4737.318029,-10362.883188,-1302.362347
1014.534821,-2664.741391,-11473.192101,0.000000
1014.535145,222.061783,-10658.965565,229.828649
1014.535469,1332.370696,-11103.089130,536.266849
1014.535792,962.267725,-11843.295072,0.000000
1014.536116,666.185348,-12361.439231,-459.657299
1014.536440,1184.329507,-11695.253884,-306.438199
1014.536764,1924.535449,-11177.109724,76.609550
1014.537088,1184.329507,-11103.089130,-459.657299
1014.537412,1036.288319,-10362.883188,-383.047749
1014.537736,962.267725,-10362.883188,-842.705048
1014.538060,1998.556043,-10140.821405,-536.266849
1014.538384,2294.638420,-10288.862594,-383.047749
1014.538708,2294.638420,-9622.677246,383.047749
1014.539032,1776.494261,-9104.533087,153.219100
1014.539356,1332.370696,-8956.491898,-612.876398
1014.539680,1036.288319,-9474.636058,-612.876398
1014.540004,222.061783,-9622.677246,-612.876398
1014.540328,-666.185348,-10214.842000,0.000000
1014.540652,-1332.370696,-9474.636058,153.219100
1014.540976,0.000000,-8290.306550,0.000000
1014.541300,148.041188,-8438.347739,0.000000
1014.541624,0.000000,-9474.636058,0.000000
1014.541948,518.144159,-9770.718434,536.266849
1014.542272,296.082377,-9474.636058,689.485948
1014.542595,-296.082377,-8586.388927,1532.190996
1014.542919,-1332.370696,-8660.409521,0.000000
1014.543243,-740.205942,-8956.491898,459.657299
1014.543567,814.226536,-9622.677246,1072.533697
1014.543891,2960.823768,-9326.594869,1225.752797
1014.544215,3701.029710,-8808.450710,1838.629195
1014.544539,1998.556043,-8956.491898,2068.457845
1014.544863,1258.350101,-8216.285956,1532.190996
1014.545187,0.000000,-8216.285956,536.266849
1014.545511,-444.123565,-8586.388927,0.000000
1014.545835,-1036.288319,-8660.409521,-153.219100
1014.546159,-2442.679609,-7624.121203,-459.657299
1014.546483,-2960.823768,-7254.018232,0.000000
1014.546807,-2294.638420,-7624.121203,383.047749
1014.547131,-2442.679609,-8586.388927,842.705048
1014.547455,-3404.947333,-9178.553681,229.828649
1014.547779,-3404.947333,-9030.512492,-229.828649
1014.548103,-2442.679609,-9474.636058,-229.828649
1014.548427,-666.185348,-9844.739029,612.876398
1014.548751,-296.082377,-11399.171507,459.657299
1014.549075,-1480.411884,-11547.212695,383.047749
1014.549398,-2072.576638,-11029.068536,229.828649
1014.549722,-1776.494261,-10881.027347,-153.219100
1014.550046,-444.123565,-10510.924376,-1225.752797
1014.550370,-222.061783,-11991.336260,0.000000
1014.550694,-444.123565,-12213.398043,-995.924147
1014.551018,74.020594,-11547.212695,-1072.533697
1014.551342,74.020594,-10881.027347,-1302.362347
1014.551666,-148.041188,-10658.965565,-1302.362347
1014.551990,518.144159,-10881.027347,-1608.800546
1014.552314,666.185348,-10732.986159,-1225.752797
1014.552638,888.247130,-10214.842000,-1149.143247
1014.552962,1406.391290,-9770.718434,-919.314598
1014.553286,1036.288319,-10881.027347,0.000000
1014.553610,1406.391290,-10955.047942,306.438199
1014.553934,2368.659014,-9992.780217,0.000000
1014.554258,1998.556043,-8660.409521,-459.657299
1014.554582,740.205942,-8586.388927,-306.438199
1014.554906,74.020594,-10214.842000,383.047749
1014.555230,0.000000,-10881.027347,-306.438199
1014.555554,666.185348,-9622.677246,-766.095498
1014.555878,740.205942,-8290.306550,-1072.533697
1014.556201,74.020594,-8586.388927,-1378.971896
1014.556525,296.082377,-9326.594869,-1685.410096
1014.556849,296.082377,-9030.512492,-842.705048
1014.557173,-296.082377,-9030.512492,-1302.362347
1014.557497,-444.123565,-9030.512492,-919.314598
1014.557821,-592.164754,-9474.636058,-459.657299
1014.558145,-888.247130,-9178.553681,0.000000
1014.558469,-518.144159,-9400.615463,306.438199
1014.558793,1110.308913,-8808.450710,-229.828649
1014.559117,1998.556043,-8808.450710,766.095498
1014.559441,2368.659014,-9474.636058,1685.410096
1014.559765,3108.864956,-8438.347739,1608.800546
1014.560089,2664.741391,-8586.388927,1225.752797
1014.560413,1184.329507,-9104.533087,1455.581446
1014.560737,0.000000,-7994.224174,-383.047749
1014.561061,-1480.411884,-7920.203579,-536.266849
1014.561385,-2220.617826,-8586.388927,229.828649
1014.561709,-444.123565,-8956.491898,-689.485948
1014.562033,-370.102971,-9548.656652,1072.533697
1014.562357,-1924.535449,-9918.759623,76.609550
1014.562681,-2368.659014,-9252.574275,0.000000
1014.563004,-2146.597232,-8956.491898,0.000000
1014.563328,-1702.473667,-9696.697840,536.266849
1014.563652,-814.226536,-11843.295072,1225.752797
1014.563976,-444.123565,-11843.295072,842.705048
1014.564300,0.000000,-10584.944971,1685.410096
1014.564624,0.000000,-10732.986159,1838.629195
1014.564948,666.185348,-10436.903782,536.266849
1014.565272,0.000000,-10362.883188,306.438199
1014.565596,-444.123565,-10881.027347,612.876398
1014.565920,0.000000,-10955.047942,0.000000
1014.566244,-740.205942,-11177.109724,-612.876398
1014.566568,-2072.576638,-10584.944971,766.095498
1014.566892,-2368.659014,-10288.862594,0.000000
1014.567216,-1480.411884,-9474.636058,-995.924147
1014.567540,-962.267725,-9030.512492,0.000000
1014.567864,0.000000,-9104.533087,0.000000
