#time,accel_x,accel_y,accel_z
539.493513,148.041188,-9622.677246,0.000000
539.493837,148.041188,-9696.697840,0.000000
539.494161,148.041188,-9548.656652,76.609550
539.494485,296.082377,-9696.697840,76.609550
539.494809,0.000000,-9326.594869,0.000000
539.495133,0.000000,-9326.594869,0.000000
539.495457,0.000000,-9844.739029,-153.219100
539.495781,-148.041188,-9770.718434,-306.438199
539.496105,-148.041188,-9622.677246,0.000000
539.496429,0.000000,-9474.636058,0.000000
539.496753,74.020594,-9474.636058,-306.438199
539.497077,74.020594,-9622.677246,0.000000
539.497401,74.020594,-9770.718434,0.000000
539.497725,296.082377,-9770.718434,0.000000
539.498049,74.020594,-9622.677246,0.000000
539.498373,0.000000,-9622.677246,0.000000
539.498697,-370.102971,-9770.718434,0.000000
539.499021,-222.061783,-9622.677246,0.000000
539.499345,0.000000,-9622.677246,459.657299
539.499669,222.061783,-9992.780217,0.000000
539.499993,0.000000,-9844.739029,229.828649
539.500317,-148.041188,-9622.677246,-153.219100
539.500641,0.000000,-9474.636058,-153.219100
539.500965,370.102971,-9474.636058,229.828649
539.501289,740.205942,-10066.800811,306.438199
539.501614,592.164754,-9992.780217,383.047749
539.501938,-148.041188,-10066.800811,0.000000
539.502262,-1406.391290,-9918.759623,0.000000
539.502586,-1924.535449,-9622.677246,-459.657299
539.502910,-1554.432478,-9178.553681,0.000000
539.503234,-370.102971,-9548.656652,842.705048
539.503558,1036.288319,-9770.718434,689.485948
539.503882,1776.494261,-9400.615463,1149.143247
539.504206,1258.350101,-8882.471304,766.095498
539.504530,1184.329507,-9400.615463,536.266849
539.504854,1110.308913,-9992.780217,0.000000
539.505178,222.061783,-9770.718434,0.000000
539.505502,-888.247130,-10066.800811,-383.047749
539.505826,-1406.391290,-10214.842000,-459.657299
539.506150,-1036.288319,-10584.944971,0.000000
539.506474,-370.102971,-9992.780217,612.876398
539.506798,1110.308913,-9474.636058,842.705048
539.507122,2146.597232,-9548.656652,995.924147
539.507446,2516.700203,-9326.594869,1838.629195
539.507770,2960.823768,-9918.759623,1762.019645
539.508094,2812.782580,-9622.677246,1532.190996
539.508418,2812.782580,-9178.553681,919.314598
539.508742,1850.514855,-9252.574275,306.438199
539.509066,814.226536,-9252.574275,-919.314598
539.509390,0.000000,-9992.780217,-229.828649
539.509714,0.000000,-9918.759623,-153.219100
539.510038,0.000000,-9548.656652,0.000000
539.510362,1184.329507,-9770.718434,689.485948
539.510686,2664.741391,-9474.636058,1608.800546
539.511010,4441.235652,-9548.656652,2451.505594
539.511334,4737.318029,-9474.636058,2604.724693
539.511658,4737.318029,-9696.697840,2681.334243
539.511982,4145.153275,-9326.594869,2604.724693
539.512306,3701.029710,-9770.718434,2068.457845
539.512630,2960.823768,-10066.800811,1685.410096
539.512954,2072.576638,-10510.924376,1072.533697
539.513278,1184.329507,-10584.944971,459.657299
539.513602,1110.308913,-10066.800811,1302.362347
539.513926,1702.473667,-10066.800811,2068.457845
539.514250,3478.967927,-10214.842000,2834.553343
539.514574,4293.194464,-9622.677246,3140.991542
539.514898,4441.235652,-9770.718434,4366.744339
539.515222,4071.132681,-9918.759623,4290.134789
539.515546,3256.906145,-10436.903782,4290.134789
539.515870,1850.514855,-9770.718434,4290.134789
539.516194,518.144159,-9474.636058,4136.915689
539.516518,-370.102971,-9030.512492,3677.258390
539.516842,-1110.308913,-8512.368333,2681.334243
539.517166,-1110.308913,-7994.224174,2374.896044
539.517490,0.000000,-7402.059420,2145.067394
539.517814,592.164754,-7105.977043,2374.896044
539.518138,1554.432478,-6735.874072,2681.334243
539.518462,2294.638420,-6883.915261,3370.820191
539.518786,3330.926739,-7550.100608,3524.039291
539.519110,3775.050304,-8216.285956,3983.696590
539.519434,4293.194464,-9400.615463,4519.963438
539.519758,3478.967927,-10955.047942,4136.915689
539.520083,2664.741391,-11843.295072,4673.182538
539.520407,518.144159,-11843.295072,3447.429741
539.520731,-1776.494261,-11843.295072,2451.505594
539.521055,-3108.864956,-11399.171507,1532.190996
539.521379,-2812.782580,-10436.903782,1225.752797
539.521703,-444.123565,-9104.533087,1378.971896
539.522027,2516.700203,-8068.244768,2145.067394
539.522351,4885.359217,-7698.141797,2298.286494
539.522675,6143.709319,-7105.977043,2298.286494
539.522999,6291.750507,-7476.080014,1378.971896
539.523323,5625.565159,-8586.388927,1378.971896
539.523647,3552.988522,-10732.986159,1915.238745
539.523971,1406.391290,-12139.377449,2221.676944
539.524295,-222.061783,-12065.356855,2221.676944
539.524619,-1258.350101,-11399.171507,2451.505594
539.524943,-1702.473667,-10436.903782,1149.143247
539.525267,-962.267725,-10362.883188,153.219100
539.525591,296.082377,-9474.636058,0.000000
539.525915,1628.453072,-8512.368333,0.000000
539.526239,2664.741391,-8142.265362,536.266849
539.526563,3478.967927,-8216.285956,229.828649
539.526887,3182.885551,-8586.388927,76.609550
539.527211,3404.947333,-8586.388927,0.000000
539.527535,3775.050304,-9030.512492,-306.438199
539.527859,5921.647536,-11103.089130,536.266849
539.528183,7179.997637,-13027.624579,1532.190996
539.528507,7105.977043,-13915.871710,2374.896044
539.528831,5403.503377,-13471.748144,2374.896044
539.529155,1628.453072,-12805.562797,1532.190996
539.529479,-2072.576638,-12065.356855,-306.438199
539.529803,-3701.029710,-10955.047942,-153.219100
539.530127,-2960.823768,-9844.739029,153.219100
539.530451,-296.082377,-8512.368333,689.485948
539.530775,2146.597232,-7846.182985,1072.533697
539.531099,3404.947333,-7328.038826,1149.143247
539.531423,4071.132681,-6735.874072,766.095498
539.531747,4589.276840,-5995.668130,536.266849
539.532071,5107.421000,-7031.956449,842.705048
539.532395,5329.482782,-8956.491898,1762.019645
539.532719,4737.318029,-11251.130318,2298.286494
539.533043,2886.803174,-11843.295072,2145.067394
539.533367,814.226536,-10807.006753,1838.629195
539.533691,-592.164754,-9770.718434,1378.971896
539.534015,-962.267725,-9770.718434,2221.676944
539.534339,-1036.288319,-9326.594869,1915.238745
539.534663,-1628.453072,-9474.636058,2221.676944
539.534987,-1850.514855,-9252.574275,2298.286494
539.535311,-1036.288319,-8512.368333,1991.848295
539.535635,1184.329507,-7105.977043,1991.848295
539.535959,4219.173869,-6291.750507,1915.238745
539.536283,5847.626942,-7179.997637,2374.896044
539.536607,4663.297435,-9030.512492,2221.676944
539.536931,2072.576638,-9844.739029,1225.752797
539.537255,296.082377,-10807.006753,1532.190996
539.537579,518.144159,-11399.171507,2221.676944
539.537903,2294.638420,-11621.233289,2911.162892
539.538227,3034.844362,-11177.109724,3064.381992
539.538552,2516.700203,-10140.821405,3600.648841
539.538876,1998.556043,-9918.759623,3140.991542
539.539200,2072.576638,-10362.883188,3830.477490
539.539524,888.247130,-10140.821405,3294.210641
539.539848,0.000000,-9770.718434,2987.772442
539.540172,-370.102971,-8882.471304,2451.505594
539.540496,518.144159,-8364.327145,1608.800546
539.540820,3034.844362,-8808.450710,1915.238745
539.541144,5033.400406,-10140.821405,2451.505594
539.541468,5699.585753,-10066.800811,2451.505594
539.541792,4811.338623,-9252.574275,2145.067394
539.542116,5107.421000,-9104.533087,2451.505594
539.542440,4737.318029,-10881.027347,3064.381992
539.542764,3923.091493,-11621.233289,2834.553343
539.543088,2220.617826,-10436.903782,2681.334243
539.543412,814.226536,-10066.800811,2834.553343
539.543736,592.164754,-9992.780217,3600.648841
539.544060,2146.597232,-10732.986159,4136.915689
539.544384,2886.803174,-10658.965565,4290.134789
539.544708,3182.885551,-9548.656652,3600.648841
539.545032,2146.597232,-8882.471304,2604.724693
539.545356,370.102971,-8586.388927,1991.848295
539.545680,-370.102971,-8808.450710,1378.971896
539.546004,666.185348,-8290.306550,995.924147
539.546328,2516.700203,-8438.347739,919.314598
539.546652,2960.823768,-8586.388927,1225.752797
539.546976,3034.844362,-9104.533087,1762.019645
539.547300,2664.741391,-8364.327145,1838.629195
539.547624,1776.494261,-7772.162391,1838.629195
539.547948,0.000000,-8586.388927,1532.190996
539.548272,-1258.350101,-9622.677246,2221.676944
539.548596,-518.144159,-9844.739029,2604.724693
539.548920,1628.453072,-8290.306550,3217.601092
539.549244,1776.494261,-7624.121203,2528.115143
539.549568,592.164754,-9252.574275,2374.896044
539.549892,-1184.329507,-10584.944971,1532.190996
539.550216,-2664.741391,-9548.656652,0.000000
539.550540,-4145.153275,-7994.224174,-1685.410096
539.550864,-4737.318029,-7624.121203,-2604.724693
539.551188,-2516.700203,-9474.636058,-1838.629195
539.551512,222.061783,-8956.491898,-1608.800546
539.551836,2072.576638,-8512.368333,-383.047749
539.552160,3108.864956,-9622.677246,766.095498
539.552484,4959.379811,-10658.965565,229.828649
539.552808,4515.256246,-11251.130318,842.705048
539.553132,2516.700203,-10510.924376,1302.362347
539.553456,1702.473667,-11103.089130,536.266849
539.553781,0.000000,-12435.459826,0.000000
539.554105,-1850.514855,-13027.624579,0.000000
539.554429,-2590.720797,-11621.233289,-919.314598
539.554753,-2590.720797,-10658.965565,-1915.238745
539.555077,-3034.844362,-10807.006753,-2834.553343
539.555401,-3108.864956,-10584.944971,-3447.429741
539.555726,-2368.659014,-8586.388927,-2911.162892
539.556050,74.020594,-8216.285956,-2374.896044
539.556374,2812.782580,-10140.821405,-995.924147
539.556698,5921.647536,-10807.006753,-689.485948
539.557022,7550.100608,-9474.636058,842.705048
539.557347,6735.874072,-10288.862594,459.657299
539.557671,3849.070898,-11029.068536,-995.924147
539.557995,0.000000,-10732.986159,-1225.752797
539.558319,-2220.617826,-10362.883188,-1608.800546
539.558643,-3404.947333,-11769.274478,-1762.019645
539.558968,-4071.132681,-12065.356855,-2221.676944
539.559292,-4293.194464,-10288.862594,-2451.505594
539.559616,-4219.173869,-9252.574275,-2374.896044
539.559940,-4145.153275,-9918.759623,-2374.896044
539.560264,-2812.782580,-8882.471304,-2068.457845
539.560589,-1480.411884,-7698.141797,-1072.533697
539.560913,-74.020594,-7550.100608,-919.314598
539.561237,1036.288319,-7105.977043,-766.095498
539.561561,1480.411884,-6809.894666,229.828649
539.561885,1406.391290,-7920.203579,-306.438199
539.562210,1036.288319,-9474.636058,-995.924147
539.562534,1036.288319,-8438.347739,-842.705048
539.562858,1406.391290,-7550.100608,-306.438199
539.563182,666.185348,-10066.800811,306.438199
539.563506,0.000000,-13101.645173,0.000000
539.563831,-1110.308913,-11843.295072,0.000000
539.564155,-1628.453072,-10288.862594,612.876398
539.564479,-2738.761985,-11473.192101,766.095498
539.564803,-2220.617826,-11917.315666,0.000000
539.565127,74.020594,-9918.759623,0.000000
539.565452,2072.576638,-8808.450710,306.438199
539.565776,3478.967927,-9400.615463,-383.047749
539.566100,2442.679609,-9252.574275,-842.705048
539.566424,222.061783,-8216.285956,-766.095498
539.566748,-740.205942,-8808.450710,-1225.752797
539.567072,-296.082377,-9548.656652,-383.047749
539.567397,1850.514855,-9326.594869,612.876398
539.567721,2886.803174,-9992.780217,2145.067394
539.568045,2442.679609,-11251.130318,2987.772442
539.568369,1480.411884,-9622.677246,3524.039291
539.568693,-518.144159,-9992.780217,2834.553343
539.569018,-3627.009116,-11325.150913,2681.334243
539.569342,-4367.215058,-10214.842000,1608.800546
539.569666,-2812.782580,-8438.347739,1685.410096
539.569990,-1258.350101,-8586.388927,2145.067394
539.570314,-444.123565,-9030.512492,612.876398
539.570639,-666.185348,-7846.182985,-383.047749
539.570963,-1480.411884,-7179.997637,-689.485948
539.571287,-1332.370696,-8438.347739,-612.876398
539.571611,0.000000,-9104.533087,459.657299
539.571935,2590.720797,-9252.574275,1915.238745
539.572260,4367.215058,-10288.862594,3140.991542
539.572584,3775.050304,-11029.068536,3370.820191
539.572908,2812.782580,-11029.068536,3677.258390
539.573232,592.164754,-11473.192101,3140.991542
539.573556,-1628.453072,-12139.377449,2911.162892
539.573881,-2738.761985,-11325.150913,3217.601092
539.574205,-2886.803174,-9548.656652,2298.286494
539.574529,-2442.679609,-8512.368333,689.485948
539.574853,-2442.679609,-7920.203579,-536.266849
539.575177,-1776.494261,-6587.832884,-1991.848295
539.575502,-666.185348,-6069.688724,-1762.019645
539.575826,0.000000,-7402.059420,-1608.800546
539.576150,1924.535449,-7624.121203,-689.485948
539.576474,3775.050304,-7402.059420,0.000000
539.576798,4515.256246,-9992.780217,0.000000
539.577122,3849.070898,-11991.336260,0.000000
539.577447,2886.803174,-12139.377449,76.609550
539.577771,1702.473667,-12509.480420,459.657299
539.578095,-148.041188,-14137.933492,1608.800546
539.578419,-592.164754,-13101.645173,1072.533697
539.578743,-1110.308913,-11473.192101,459.657299
539.579068,-1924.535449,-11621.233289,-536.266849
539.579392,-1850.514855,-11029.068536,-1915.238745
539.579716,-1184.329507,-9252.574275,-2221.676944
539.580040,-1184.329507,-8068.244768,-2451.505594
539.580364,-1332.370696,-7920.203579,-2681.334243
539.580689,148.041188,-7105.977043,-2604.724693
539.581013,2368.659014,-7402.059420,-1991.848295
539.581337,2960.823768,-9992.780217,-2221.676944
539.581661,2146.597232,-10510.924376,-2374.896044
539.581985,1110.308913,-9178.553681,-1302.362347
539.582310,-592.164754,-9622.677246,-536.266849
539.582634,-2368.659014,-10955.047942,0.000000
539.582958,-3182.885551,-9992.780217,-536.266849
539.583282,-2738.761985,-9622.677246,229.828649
539.583606,-2516.700203,-10288.862594,0.000000
539.583931,-592.164754,-9252.574275,-459.657299
539.584255,1406.391290,-7105.977043,-383.047749
539.584579,1554.432478,-7105.977043,-306.438199
539.584903,1258.350101,-7920.203579,-1532.190996
539.585227,1480.411884,-7550.100608,-2451.505594
539.585552,1998.556043,-7994.224174,-1685.410096
539.585876,2368.659014,-10510.924376,-1838.629195
539.586200,1776.494261,-12065.356855,-1838.629195
539.586524,666.185348,-11325.150913,-1225.752797
539.586848,-1628.453072,-11843.295072,-306.438199
539.587173,-3330.926739,-12583.501014,-919.314598
539.587497,-3627.009116,-11029.068536,-995.924147
539.587821,-3627.009116,-10362.883188,153.219100
539.588145,-2590.720797,-11251.130318,766.095498
539.588469,-962.267725,-10658.965565,995.924147
539.588793,-222.061783,-9178.553681,842.705048
539.589118,-592.164754,-8216.285956,76.609550
539.589442,-444.123565,-7994.224174,-1302.362347
539.589766,592.164754,-7550.100608,-1838.629195
539.590090,1776.494261,-8882.471304,-306.438199
539.590414,2664.741391,-11251.130318,536.266849
539.590739,2886.803174,-11695.253884,306.438199
539.591063,1998.556043,-10584.944971,-153.219100
539.591387,-592.164754,-11325.150913,383.047749
539.591711,-2368.659014,-12065.356855,0.000000
539.592035,-2442.679609,-10732.986159,536.266849
539.592360,-2738.761985,-10214.842000,2068.457845
539.592684,-2294.638420,-10436.903782,2068.457845
539.593008,-1184.329507,-9030.512492,2068.457845
539.593332,-1036.288319,-6883.915261,1838.629195
539.593656,-1184.329507,-7031.956449,536.266849
539.593981,-1110.308913,-7105.977043,-919.314598
539.594305,-296.082377,-6365.771101,-995.924147
539.594629,444.123565,-6957.935855,0.000000
539.594953,1258.350101,-8956.491898,153.219100
539.595277,1998.556043,-9474.636058,0.000000
539.595602,1850.514855,-9696.697840,1072.533697
539.595926,740.205942,-11251.130318,995.924147
539.596250,-296.082377,-11621.233289,1225.752797
539.596574,0.000000,-10510.924376,2145.067394
539.596898,148.041188,-11029.068536,2987.772442
539.597223,0.000000,-11769.274478,2757.943793
539.597547,148.041188,-9326.594869,1991.848295
539.597871,-518.144159,-7624.121203,1149.143247
539.598195,-1628.453072,-8438.347739,-153.219100
539.598519,-740.205942,-8290.306550,-536.266849
539.598844,518.144159,-7476.080014,-306.438199
539.599168,1480.411884,-7624.121203,0.000000
539.599492,2294.638420,-9474.636058,0.000000
539.599816,2664.741391,-10140.821405,0.000000
539.600140,2442.679609,-10658.965565,612.876398
539.600464,1554.432478,-11843.295072,1302.362347
539.600789,666.185348,-11843.295072,1532.190996
539.601113,518.144159,-11177.109724,2068.457845
539.601437,444.123565,-11917.315666,2298.286494
539.601761,0.000000,-11399.171507,1762.019645
539.602085,0.000000,-9474.636058,1149.143247
539.602410,-1258.350101,-8734.430116,995.924147
539.602734,-1998.556043,-8586.388927,0.000000
539.603058,-1258.350101,-7402.059420,-536.266849
539.603382,74.020594,-6217.729913,-306.438199
539.603706,666.185348,-7105.977043,-842.705048
539.604031,962.267725,-8438.347739,-1532.190996
539.604355,1110.308913,-7920.203579,-1149.143247
539.604679,1184.329507,-8734.430116,-919.314598
539.605003,74.020594,-10584.944971,-383.047749
539.605327,-444.123565,-10436.903782,306.438199
539.605652,-1036.288319,-10584.944971,383.047749
539.605976,-1332.370696,-11769.274478,153.219100
539.606300,-1480.411884,-11695.253884,-306.438199
539.606624,-1036.288319,-10288.862594,-995.924147
539.606948,-1036.288319,-9770.718434,383.047749
539.607273,-962.267725,-9400.615463,-612.876398
539.607597,370.102971,-7624.121203,-1225.752797
539.607921,1110.308913,-6883.915261,-2221.676944
539.608245,1036.288319,-7994.224174,-2834.553343
539.608569,1184.329507,-9622.677246,-3140.991542
539.608894,1850.514855,-9918.759623,-2834.553343
539.609218,1406.391290,-10732.986159,-2068.457845
539.609542,0.000000,-12287.418637,-2221.676944
539.609866,-592.164754,-11695.253884,-1455.581446
539.610190,-1332.370696,-11843.295072,-1378.971896
539.610514,-2146.597232,-13619.789333,-1455.581446
539.610839,-2516.700203,-13101.645173,-1608.800546
539.611163,-1924.535449,-11325.150913,-1378.971896
539.611487,-1258.350101,-10436.903782,-612.876398
539.611811,74.020594,-10436.903782,-1225.752797
539.612135,1258.350101,-8734.430116,-1608.800546
539.612460,1776.494261,-7772.162391,-1762.019645
539.612784,1480.411884,-9178.553681,-1762.019645
539.613108,1406.391290,-9918.759623,-1915.238745
539.613432,1628.453072,-9474.636058,-1225.752797
539.613756,1184.329507,-9992.780217,-459.657299
539.614081,-222.061783,-10955.047942,-919.314598
539.614405,-592.164754,-10881.027347,-842.705048
539.614729,-1628.453072,-10362.883188,229.828649
539.615053,-1850.514855,-12065.356855,612.876398
539.615377,-1480.411884,-11177.109724,766.095498
539.615702,-1184.329507,-9400.615463,1149.143247
539.616026,-2072.576638,-8734.430116,1455.581446
539.616350,-2072.576638,-7550.100608,995.924147
539.616674,-1554.432478,-6587.832884,766.095498
539.616998,-1110.308913,-6513.812290,1072.533697
539.617323,-1110.308913,-7402.059420,229.828649
539.617647,148.041188,-7698.141797,0.000000
539.617971,296.082377,-7476.080014,306.438199
539.618295,370.102971,-8512.368333,383.047749
539.618619,0.000000,-9252.574275,689.485948
539.618944,0.000000,-8586.388927,1455.581446
539.619268,666.185348,-10288.862594,2374.896044
539.619592,592.164754,-11177.109724,2298.286494
539.619916,592.164754,-10214.842000,2681.334243
539.620240,666.185348,-9252.574275,2451.505594
539.620565,222.061783,-9992.780217,1991.848295
539.620889,0.000000,-9918.759623,1455.581446
539.621213,148.041188,-7698.141797,2068.457845
539.621537,444.123565,-7772.162391,1532.190996
539.621861,518.144159,-9770.718434,306.438199
539.622185,518.144159,-9326.594869,-1072.533697
539.622510,148.041188,-8808.450710,-1072.533697
539.622834,-518.144159,-9548.656652,-1149.143247
539.623158,-444.123565,-10732.986159,-1302.362347
539.623482,444.123565,-10214.842000,-229.828649
539.623806,1110.308913,-10955.047942,766.095498
539.624131,2072.576638,-12065.356855,2374.896044
539.624455,2664.741391,-11695.253884,1685.410096
539.624779,1998.556043,-10510.924376,1762.019645
539.625103,0.000000,-11251.130318,1455.581446
539.625427,-370.102971,-10732.986159,842.705048
539.625752,222.061783,-8882.471304,459.657299
539.626076,444.123565,-8512.368333,-306.438199
539.626400,-592.164754,-8808.450710,-1072.533697
539.626724,0.000000,-9178.553681,-1838.629195
539.627048,-222.061783,-8438.347739,-1915.238745
539.627373,-1036.288319,-9326.594869,-1685.410096
539.627697,-666.185348,-9770.718434,-1532.190996
539.628021,518.144159,-9770.718434,-842.705048
539.628345,1258.350101,-10658.965565,153.219100
539.628669,1406.391290,-11103.089130,306.438199
539.628994,1628.453072,-10807.006753,612.876398
539.629318,0.000000,-10140.821405,766.095498
539.629642,-370.102971,-10658.965565,612.876398
539.629966,0.000000,-9474.636058,383.047749
539.630290,666.185348,-7920.203579,383.047749
539.630615,-222.061783,-8142.265362,0.000000
539.630939,-888.247130,-9030.512492,-1302.362347
539.631263,-1036.288319,-7772.162391,-1149.143247
539.631587,-814.226536,-7550.100608,-1378.971896
539.631911,-1258.350101,-9178.553681,-1532.190996
539.632236,-1332.370696,-9252.574275,-1608.800546
539.632560,74.020594,-9252.574275,-1072.533697
539.632884,888.247130,-10436.903782,-459.657299
539.633208,518.144159,-11399.171507,0.000000
539.633532,444.123565,-11251.130318,-76.609550
539.633856,370.102971,-11103.089130,153.219100
539.634181,148.041188,-12509.480420,995.924147
539.634505,814.226536,-10807.006753,459.657299
539.634829,814.226536,-9400.615463,459.657299
539.635153,-296.082377,-9770.718434,0.000000
539.635477,-888.247130,-10288.862594,-919.314598
539.635802,-370.102971,-9400.615463,-842.705048
539.636126,-1258.350101,-8956.491898,-766.095498
539.636450,-1924.535449,-9474.636058,-1225.752797
539.636774,-1998.556043,-8808.450710,-1302.362347
539.637098,-740.205942,-8438.347739,-766.095498
539.637423,-148.041188,-9844.739029,-459.657299
539.637747,-222.061783,-10288.862594,-689.485948
539.638071,0.000000,-9252.574275,-459.657299
539.638395,-222.061783,-9622.677246,1149.143247
539.638719,74.020594,-11251.130318,1149.143247
539.639044,148.041188,-9918.759623,689.485948
539.639368,-74.020594,-8364.327145,766.095498
539.639692,-444.123565,-9696.697840,306.438199
539.640016,-666.185348,-10584.944971,-536.266849
539.640340,-222.061783,-9622.677246,-229.828649
539.640665,-740.205942,-8808.450710,229.828649
539.640989,-666.185348,-9178.553681,-383.047749
539.641313,-296.082377,-8734.430116,-766.095498
539.641637,148.041188,-9030.512492,-842.705048
539.641961,148.041188,-10214.842000,-383.047749
539.642286,370.102971,-10510.924376,-229.828649
539.642610,222.061783,-9474.636058,0.000000
539.642934,-518.144159,-10140.821405,536.266849
539.643258,-1332.370696,-10955.047942,459.657299
539.643582,222.061783,-10510.924376,153.219100
539.643906,814.226536,-9770.718434,842.705048
539.644231,666.185348,-10955.047942,995.924147
539.644555,666.185348,-10807.006753,306.438199
539.644879,666.185348,-9474.636058,-383.047749
539.645203,-148.041188,-9104.533087,-383.047749
539.645527,-148.041188,-9844.739029,-766.095498
539.645852,666.185348,-8512.368333,-383.047749
539.646176,1110.308913,-8290.306550,-306.438199
539.646500,1776.494261,-9400.615463,383.047749
539.646824,2368.659014,-9548.656652,0.000000
539.647148,1924.535449,-9474.636058,0.000000
539.647473,0.000000,-10288.862594,459.657299
539.647797,-1332.370696,-10066.800811,842.705048
539.648121,-518.144159,-8882.471304,1455.581446
539.648445,-518.144159,-9770.718434,1455.581446
539.648769,-1258.350101,-10436.903782,1225.752797
539.649094,-666.185348,-9992.780217,383.047749
539.649418,-740.205942,-9622.677246,229.828649
539.649742,-1702.473667,-9030.512492,-536.266849
539.650066,-2442.679609,-7920.203579,-689.485948
539.650390,-1184.329507,-7328.038826,-842.705048
539.650715,0.000000,-8290.306550,-383.047749
539.651039,666.185348,-9400.615463,0.000000
539.651363,1924.535449,-9030.512492,153.219100
539.651687,1850.514855,-8216.285956,383.047749
539.652011,518.144159,-9178.553681,0.000000
539.652336,-666.185348,-10140.821405,0.000000
539.652660,-1184.329507,-9474.636058,-229.828649
539.652984,-1628.453072,-9474.636058,306.438199
539.653308,-1406.391290,-10807.006753,995.924147
539.653632,-444.123565,-9770.718434,766.095498
539.653957,0.000000,-8216.285956,0.000000
539.654281,-1110.308913,-8438.347739,-919.314598
539.654604,-1036.288319,-9696.697840,-1455.581446
539.654928,148.041188,-9252.574275,-1532.190996
539.655252,1258.350101,-9474.636058,-612.876398
539.655576,1406.391290,-10140.821405,-306.438199
539.655900,2442.679609,-9622.677246,-1378.971896
539.656224,3256.906145,-10436.903782,-842.705048
539.656548,2220.617826,-12509.480420,-76.609550
539.656872,1036.288319,-13027.624579,-919.314598
539.657196,370.102971,-11177.109724,76.609550
539.657520,-370.102971,-11399.171507,459.657299
539.657844,-888.247130,-12361.439231,306.438199
539.658168,-888.247130,-11473.192101,-153.219100
539.658492,-1776.494261,-10214.842000,-229.828649
539.658816,-2368.659014,-10288.862594,-153.219100
539.659140,-1110.308913,-9474.636058,153.219100
539.659464,222.061783,-7402.059420,-459.657299
539.659788,814.226536,-7402.059420,-153.219100
539.660112,666.185348,-8586.388927,-383.047749
539.660436,666.185348,-8808.450710,-689.485948
539.660760,444.123565,-9104.533087,229.828649
539.661084,-444.123565,-9548.656652,76.609550
539.661408,-592.164754,-9252.574275,0.000000
539.661732,-296.082377,-9622.677246,229.828649
539.662056,-518.144159,-10955.047942,1455.581446
539.662380,-444.123565,-12213.398043,1991.848295
539.662704,-592.164754,-10881.027347,1991.848295
539.663028,-2368.659014,-9696.697840,1608.800546
539.663352,-3034.844362,-9474.636058,689.485948
539.663676,-2590.720797,-8438.347739,0.000000
539.664000,-1554.432478,-7476.080014,0.000000
539.664324,-518.144159,-7328.038826,0.000000
539.664648,518.144159,-7846.182985,-306.438199
539.664972,1110.308913,-7254.018232,-689.485948
539.665296,814.226536,-7994.224174,0.000000
539.665620,444.123565,-9474.636058,0.000000
539.665944,222.061783,-9474.636058,-536.266849
539.666268,0.000000,-10066.800811,76.609550
539.666592,148.041188,-12139.377449,1838.629195
539.666916,296.082377,-12731.542202,2374.896044
539.667240,592.164754,-10807.006753,1762.019645
539.667564,-518.144159,-8882.471304,612.876398
539.667888,-2146.597232,-8734.430116,-612.876398
539.668212,-1850.514855,-8364.327145,-1455.581446
539.668536,-148.041188,-7698.141797,-1302.362347
539.668860,1036.288319,-7846.182985,-536.266849
539.669184,2072.576638,-7920.203579,-612.876398
539.669508,2516.700203,-7846.182985,-612.876398
539.669832,1776.494261,-8290.306550,-1378.971896
539.670156,592.164754,-9252.574275,-1302.362347
539.670480,1036.288319,-9770.718434,-1225.752797
539.670804,1406.391290,-11325.150913,-766.095498
539.671128,0.000000,-12879.583391,306.438199
539.671452,0.000000,-12805.562797,842.705048
539.671776,0.000000,-11399.171507,919.314598
539.672100,-962.267725,-11547.212695,-229.828649
539.672424,-1702.473667,-11695.253884,-766.095498
539.672748,-1702.473667,-10066.800811,-842.705048
539.673072,-1332.370696,-8808.450710,-459.657299
539.673396,-444.123565,-9030.512492,-383.047749
539.673720,592.164754,-9326.594869,-229.828649
539.674044,1702.473667,-8734.430116,-1532.190996
539.674368,1332.370696,-9030.512492,-1838.629195
539.674692,740.205942,-9030.512492,-1762.019645
539.675015,2294.638420,-9030.512492,-842.705048
539.675339,2960.823768,-10732.986159,229.828649
539.675663,2368.659014,-12509.480420,842.705048
539.675987,814.226536,-11917.315666,842.705048
539.676311,-370.102971,-10732.986159,766.095498
539.676635,-2072.576638,-11473.192101,229.828649
539.676959,-1998.556043,-11695.253884,306.438199
539.677283,-1184.329507,-9474.636058,153.219100
539.677607,-518.144159,-7994.224174,459.657299
539.677931,-148.041188,-8216.285956,0.000000
539.678255,296.082377,-8068.244768,-1149.143247
539.678579,74.020594,-7031.956449,-1532.190996
539.678903,148.041188,-7550.100608,-1225.752797
539.679227,-444.123565,-7772.162391,-1302.362347
539.679551,518.144159,-7624.121203,-995.924147
539.679875,888.247130,-8956.491898,229.828649
539.680199,592.164754,-11399.171507,459.657299
539.680523,296.082377,-11029.068536,1991.848295
539.680847,-888.247130,-10584.944971,2068.457845
539.681171,-2368.659014,-10658.965565,2298.286494
539.681495,-3182.885551,-10510.924376,995.924147
539.681819,-2664.741391,-8734.430116,1149.143247
539.682143,-2146.597232,-8364.327145,995.924147
539.682467,-1850.514855,-8808.450710,689.485948
539.682791,-518.144159,-7476.080014,0.000000
539.683115,222.061783,-5551.544565,-306.438199
539.683439,-222.061783,-6069.688724,-1302.362347
539.683763,0.000000,-7698.141797,-1225.752797
539.684087,888.247130,-8512.368333,-1149.143247
539.684411,1258.350101,-9992.780217,0.000000
539.684735,444.123565,-11917.315666,689.485948
539.685059,296.082377,-11991.336260,995.924147
539.685383,0.000000,-11547.212695,1302.362347
539.685707,-1110.308913,-12583.501014,1608.800546
539.686031,-1110.308913,-11843.295072,919.314598
539.686355,-666.185348,-10584.944971,1149.143247
539.686679,-1036.288319,-10955.047942,1149.143247
539.687003,-962.267725,-10436.903782,689.485948
539.687327,-296.082377,-8364.327145,-766.095498
539.687651,0.000000,-7105.977043,-1838.629195
539.687975,0.000000,-8512.368333,-1838.629195
539.688299,888.247130,-8734.430116,-2221.676944
539.688623,2072.576638,-8808.450710,-1915.238745
539.688947,2886.803174,-10140.821405,-919.314598
539.689271,2738.761985,-11991.336260,-459.657299
539.689595,2516.700203,-11917.315666,-536.266849
539.689919,1406.391290,-12583.501014,306.438199
539.690243,0.000000,-12879.583391,1072.533697
539.690567,0.000000,-11843.295072,1302.362347
539.690891,0.000000,-10436.903782,536.266849
539.691215,-518.144159,-10140.821405,689.485948
539.691539,148.041188,-9770.718434,536.266849
539.691863,1110.308913,-8512.368333,-383.047749
539.692187,74.020594,-7698.141797,-1072.533697
539.692511,-1184.329507,-7624.121203,-1762.019645
539.692835,-740.205942,-6809.894666,-2221.676944
539.693159,296.082377,-6587.832884,-1915.238745
539.693483,1110.308913,-8882.471304,-1991.848295
539.693807,1036.288319,-10214.842000,-995.924147
539.694131,444.123565,-9400.615463,-536.266849
539.694455,-740.205942,-10066.800811,919.314598
539.694779,-1850.514855,-11473.192101,1378.971896
539.695103,-1332.370696,-10584.944971,1225.752797
539.695426,-666.185348,-9400.615463,1378.971896
539.695750,-518.144159,-9474.636058,1762.019645
539.696074,0.000000,-9474.636058,1225.752797
539.696398,740.205942,-7476.080014,689.485948
539.696722,148.041188,-6365.771101,766.095498
539.697046,-666.185348,-5995.668130,-1225.752797
539.697370,-666.185348,-5847.626942,-1991.848295
539.697694,0.000000,-6735.874072,-1608.800546
539.698018,740.205942,-9252.574275,-1072.533697
539.698342,1184.329507,-10584.944971,-153.219100
539.698666,814.226536,-9770.718434,76.609550
539.698990,-740.205942,-10436.903782,0.000000
539.699314,-2220.617826,-12287.418637,842.705048
539.699638,-2146.597232,-12213.398043,459.657299
539.699962,-888.247130,-11769.274478,459.657299
539.700286,-222.061783,-12139.377449,842.705048
539.700610,370.102971,-11177.109724,459.657299
539.700934,1332.370696,-9770.718434,612.876398
539.701258,666.185348,-9178.553681,-306.438199
539.701582,740.205942,-9326.594869,-1532.190996
539.701906,444.123565,-8882.471304,-2757.943793
539.702230,592.164754,-8956.491898,-2221.676944
539.702554,888.247130,-10955.047942,-1608.800546
539.702878,1554.432478,-11991.336260,-1608.800546
539.703202,1332.370696,-11029.068536,-689.485948
539.703526,-592.164754,-12139.377449,0.000000
539.703850,-2368.659014,-13323.706956,-383.047749
539.704174,-2960.823768,-12435.459826,76.609550
539.704498,-2442.679609,-11843.295072,766.095498
539.704822,-2146.597232,-11843.295072,995.924147
539.705146,-1332.370696,-10658.965565,919.314598
539.705470,-740.205942,-7994.224174,459.657299
539.705794,-370.102971,-8216.285956,383.047749
539.706118,0.000000,-7698.141797,-536.266849
539.706442,1036.288319,-7031.956449,-689.485948
539.706766,1554.432478,-7105.977043,-153.219100
539.707090,1480.411884,-8438.347739,-536.266849
539.707414,1628.453072,-9252.574275,-919.314598
539.707738,814.226536,-9474.636058,0.000000
539.708062,-518.144159,-9918.759623,76.609550
539.708386,-1924.535449,-9992.780217,153.219100
539.708710,-1480.411884,-9252.574275,612.876398
539.709034,-888.247130,-9104.533087,1762.019645
539.709358,0.000000,-9918.759623,1838.629195
539.709682,74.020594,-8882.471304,2298.286494
539.710006,-148.041188,-7254.018232,1685.410096
539.710330,-888.247130,-6883.915261,1455.581446
539.710654,-296.082377,-5921.647536,-306.438199
539.710978,814.226536,-4737.318029,-842.705048
539.711302,1258.350101,-6439.791695,-766.095498
539.711626,2294.638420,-9474.636058,-1149.143247
539.711950,2886.803174,-10214.842000,-1378.971896
539.712274,2442.679609,-10214.842000,-766.095498
539.712598,0.000000,-11621.233289,-229.828649
539.712922,-1628.453072,-12583.501014,-306.438199
539.713246,-2516.700203,-11843.295072,-689.485948
539.713570,-3478.967927,-11843.295072,-842.705048
539.713894,-2590.720797,-11991.336260,536.266849
539.714218,-1184.329507,-11621.233289,766.095498
539.714542,-518.144159,-10436.903782,1455.581446
539.714866,74.020594,-8956.491898,689.485948
539.715190,1184.329507,-6809.894666,-689.485948
539.715514,2442.679609,-6661.853478,-1149.143247
539.715837,2812.782580,-8586.388927,-842.705048
539.716161,3627.009116,-10955.047942,-919.314598
539.716485,3627.009116,-10807.006753,-459.657299
539.716809,2590.720797,-10288.862594,-383.047749
539.717133,296.082377,-11695.253884,-842.705048
539.717457,-1480.411884,-11991.336260,-1149.143247
539.717781,-2368.659014,-10955.047942,-536.266849
539.718105,-3775.050304,-11029.068536,-153.219100
539.718429,-3627.009116,-10881.027347,-306.438199
539.718753,-2664.741391,-9696.697840,0.000000
539.719077,-2738.761985,-8438.347739,229.828649
539.719401,-2516.700203,-7994.224174,0.000000
539.719725,-1480.411884,-7254.018232,-842.705048
539.720049,148.041188,-6365.771101,-1072.533697
539.720373,666.185348,-7772.162391,-612.876398
539.720697,1332.370696,-9844.739029,-689.485948
539.721021,3330.926739,-10140.821405,-229.828649
539.721345,2664.741391,-10955.047942,-306.438199
539.721669,814.226536,-13027.624579,-842.705048
539.721993,-592.164754,-12361.439231,-919.314598
539.722317,-962.267725,-11103.089130,-383.047749
539.722641,-962.267725,-12435.459826,766.095498
539.722965,-888.247130,-13027.624579,383.047749
539.723289,-296.082377,-10807.006753,689.485948
539.723613,-1184.329507,-8512.368333,766.095498
539.723937,-740.205942,-8216.285956,306.438199
539.724261,74.020594,-7550.100608,0.000000
539.724585,1702.473667,-6957.935855,0.000000
539.724909,2220.617826,-7476.080014,459.657299
539.725233,2368.659014,-7994.224174,0.000000
539.725557,3182.885551,-8364.327145,-306.438199
539.725881,2590.720797,-8808.450710,0.000000
539.726205,1258.350101,-9918.759623,0.000000
539.726529,-518.144159,-9622.677246,-306.438199
539.726853,-1036.288319,-9326.594869,383.047749
539.727177,-1924.535449,-10584.944971,612.876398
539.727501,-2516.700203,-11029.068536,766.095498
539.727825,-1924.535449,-10066.800811,842.705048
539.728149,-1776.494261,-9326.594869,1072.533697
539.728473,-1924.535449,-8068.244768,1072.533697
539.728797,-1480.411884,-6735.874072,0.000000
539.729121,-518.144159,-6365.771101,229.828649
539.729445,0.000000,-8364.327145,-153.219100
539.729769,814.226536,-9844.739029,0.000000
539.730093,1406.391290,-9474.636058,0.000000
539.730417,814.226536,-9918.759623,153.219100
539.730741,1332.370696,-10658.965565,-153.219100
539.731065,1184.329507,-10732.986159,229.828649
539.731389,888.247130,-11325.150913,842.705048
539.731713,-592.164754,-12509.480420,306.438199
539.732037,-1924.535449,-11991.336260,612.876398
539.732361,-1924.535449,-10658.965565,0.000000
539.732685,-1850.514855,-10732.986159,153.219100
539.733009,-1776.494261,-10066.800811,76.609550
539.733333,74.020594,-8734.430116,-153.219100
539.733657,592.164754,-8364.327145,0.000000
539.733981,740.205942,-9178.553681,-153.219100
539.734305,1554.432478,-9770.718434,-766.095498
539.734629,2294.638420,-9178.553681,-459.657299
539.734953,2294.638420,-9918.759623,-612.876398
539.735277,1850.514855,-11695.253884,-842.705048
539.735601,1554.432478,-11325.150913,-766.095498
539.735925,1332.370696,-10510.924376,0.000000
539.736249,222.061783,-11399.171507,76.609550
539.736572,-740.205942,-11473.192101,-306.438199
539.736896,-1628.453072,-10214.842000,-536.266849
539.737220,-2664.741391,-10436.903782,766.095498
539.737544,-2368.659014,-10214.842000,536.266849
539.737868,-1110.308913,-7846.182985,536.266849
539.738192,-592.164754,-6957.935855,-76.609550
539.738516,-740.205942,-7698.141797,0.000000
539.738840,0.000000,-8290.306550,229.828649
539.739164,1184.329507,-8290.306550,229.828649
539.739488,962.267725,-8290.306550,383.047749
539.739812,592.164754,-8438.347739,-306.438199
539.740136,962.267725,-7328.038826,-919.314598
539.740460,444.123565,-7550.100608,-689.485948
539.740784,-148.041188,-9474.636058,-1072.533697
539.741108,-1480.411884,-9178.553681,-766.095498
539.741432,-1628.453072,-8216.285956,0.000000
539.741756,-1924.535449,-8882.471304,766.095498
539.742080,-1110.308913,-8586.388927,306.438199
539.742404,0.000000,-6883.915261,-153.219100
539.742728,0.000000,-6883.915261,0.000000
539.743052,-592.164754,-8734.430116,-612.876398
539.743376,74.020594,-10066.800811,76.609550
539.743700,370.102971,-9474.636058,-383.047749
539.744024,0.000000,-10140.821405,-1149.143247
539.744348,370.102971,-11029.068536,-1762.019645
539.744672,1480.411884,-11695.253884,-1915.238745
539.744996,1554.432478,-12657.521608,-1378.971896
539.745320,148.041188,-14434.015869,-766.095498
539.745644,-222.061783,-13175.665768,-306.438199
539.745968,-1036.288319,-11991.336260,-842.705048
539.746292,-1776.494261,-12509.480420,-153.219100
539.746616,-1998.556043,-11621.233289,-842.705048
539.746940,-1258.350101,-9474.636058,-1072.533697
539.747264,-740.205942,-9844.739029,-383.047749
539.747588,-1110.308913,-11103.089130,459.657299
539.747912,0.000000,-10140.821405,0.000000
539.748236,296.082377,-8512.368333,-1608.800546
539.748560,592.164754,-8660.409521,-995.924147
539.748884,1110.308913,-9178.553681,-1532.190996
539.749208,2368.659014,-9326.594869,-995.924147
539.749532,2590.720797,-9992.780217,229.828649
539.749856,2146.597232,-10658.965565,689.485948
539.750180,1480.411884,-9844.739029,0.000000
539.750504,222.061783,-9326.594869,459.657299
539.750828,-1702.473667,-10881.027347,689.485948
539.751152,-1480.411884,-9844.739029,536.266849
539.751476,-962.267725,-8290.306550,76.609550
539.751800,-1110.308913,-9104.533087,919.314598
539.752124,-1332.370696,-10362.883188,1225.752797
539.752448,-444.123565,-9474.636058,919.314598
539.752772,-222.061783,-8734.430116,1378.971896
539.753096,-296.082377,-8808.450710,842.705048
539.753420,-296.082377,-8068.244768,0.000000
539.753744,592.164754,-8808.450710,153.219100
539.754068,1406.391290,-9770.718434,689.485948
539.754392,1406.391290,-10214.842000,612.876398
539.754716,888.247130,-9548.656652,153.219100
539.755040,-518.144159,-9178.553681,0.000000
539.755364,-1258.350101,-9326.594869,536.266849
539.755688,-1184.329507,-8660.409521,383.047749
539.756012,148.041188,-8068.244768,306.438199
539.756336,888.247130,-9474.636058,1149.143247
539.756661,1480.411884,-10140.821405,1302.362347
539.756985,1628.453072,-9030.512492,1225.752797
539.757309,370.102971,-7550.100608,0.000000
539.757633,-370.102971,-7994.224174,842.705048
539.757957,-296.082377,-8586.388927,-229.828649
539.758281,1110.308913,-9252.574275,153.219100
539.758605,1776.494261,-10214.842000,383.047749
539.758930,2294.638420,-10510.924376,383.047749
539.759254,2146.597232,-10436.903782,383.047749
539.759578,814.226536,-10807.006753,0.000000
539.759902,-1036.288319,-10584.944971,0.000000
539.760226,-1628.453072,-9918.759623,0.000000
539.760550,-1184.329507,-10288.862594,0.000000
539.760874,-1702.473667,-11325.150913,766.095498
539.761199,-2294.638420,-11177.109724,612.876398
539.761523,-2442.679609,-9400.615463,0.000000
539.761847,-3034.844362,-8956.491898,-689.485948
539.762171,-2812.782580,-9178.553681,-612.876398
539.762495,-1036.288319,-8512.368333,-689.485948
539.762819,1110.308913,-8438.347739,306.438199
539.763143,1702.473667,-9104.533087,-306.438199
539.763468,1776.494261,-8882.471304,0.000000
539.763792,1924.535449,-9326.594869,-306.438199
539.764116,962.267725,-10288.862594,0.000000
539.764440,-148.041188,-10436.903782,-76.609550
539.764764,0.000000,-9400.615463,-612.876398
539.765088,592.164754,-9844.739029,0.000000
539.765412,0.000000,-11325.150913,153.219100
539.765737,0.000000,-10955.047942,153.219100
539.766061,-962.267725,-9474.636058,-689.485948
539.766385,-2146.597232,-9400.615463,-1225.752797
539.766709,-1998.556043,-9770.718434,-1149.143247
539.767033,-888.247130,-8660.409521,-1149.143247
539.767357,1332.370696,-8142.265362,-766.095498
539.767681,1480.411884,-9474.636058,-612.876398
539.768006,2812.782580,-9918.759623,-995.924147
539.768330,2516.700203,-9622.677246,-995.924147
539.768654,666.185348,-10214.842000,-1072.533697
539.768978,-888.247130,-10955.047942,-1302.362347
539.769302,-1258.350101,-9992.780217,-1302.362347
539.769626,-1332.370696,-10584.944971,-1378.971896
539.769950,-1554.432478,-11843.295072,0.000000
539.770275,-1332.370696,-10955.047942,-919.314598
539.770599,-1702.473667,-9104.533087,-383.047749
539.770923,-2072.576638,-9252.574275,-995.924147
539.771247,-2146.597232,-9178.553681,-1302.362347
539.771571,-962.267725,-8068.244768,-1378.971896
539.771895,518.144159,-7624.121203,-1072.533697
539.772219,1850.514855,-8882.471304,-1225.752797
539.772544,3330.926739,-8660.409521,-383.047749
539.772868,3775.050304,-8660.409521,306.438199
539.773192,2590.720797,-10140.821405,76.609550
539.773516,814.226536,-10955.047942,-612.876398
539.773840,-296.082377,-10881.027347,-459.657299
539.774164,-1036.288319,-11769.274478,229.828649
539.774488,-1924.535449,-12583.501014,536.266849
539.774813,-2516.700203,-11177.109724,76.609550
539.775137,-2590.720797,-9844.739029,229.828649
539.775461,-2738.761985,-9918.759623,995.924147
539.775785,-1702.473667,-9770.718434,766.095498
539.776109,0.000000,-8438.347739,689.485948
539.776433,888.247130,-7994.224174,766.095498
539.776757,1850.514855,-8586.388927,153.219100
539.777082,2738.761985,-8364.327145,536.266849
539.777406,3034.844362,-8438.347739,1455.581446
539.777730,2220.617826,-10510.924376,536.266849
539.778054,1258.350101,-11103.089130,383.047749
539.778378,370.102971,-9770.718434,0.000000
539.778702,-666.185348,-10436.903782,689.485948
539.779026,-1332.370696,-11917.315666,1149.143247
539.779350,-1258.350101,-10881.027347,1608.800546
539.779675,-2516.700203,-9474.636058,1838.629195
539.779999,-3849.070898,-9252.574275,1302.362347
539.780323,-3108.864956,-8956.491898,1302.362347
539.780647,-1480.411884,-7994.224174,1072.533697
539.780971,0.000000,-7920.203579,1225.752797
539.781295,1480.411884,-8142.265362,612.876398
539.781619,2590.720797,-7328.038826,0.000000
539.781944,2664.741391,-7105.977043,536.266849
539.782268,1406.391290,-9104.533087,76.609550
539.782592,1554.432478,-10436.903782,0.000000
539.782916,1406.391290,-10066.800811,459.657299
539.783240,518.144159,-11029.068536,689.485948
539.783564,-370.102971,-11547.212695,1149.143247
539.783888,-962.267725,-10288.862594,766.095498
539.784213,-2146.597232,-9548.656652,612.876398
539.784537,-3182.885551,-9770.718434,995.924147
539.784861,-2738.761985,-9326.594869,689.485948
539.785185,-2146.597232,-7550.100608,229.828649
539.785509,-222.061783,-7402.059420,76.609550
539.785833,1702.473667,-8068.244768,-536.266849
539.786157,3330.926739,-7698.141797,-612.876398
539.786482,3256.906145,-8290.306550,-459.657299
539.786806,2664.741391,-9178.553681,-766.095498
539.787130,2590.720797,-9326.594869,-995.924147
539.787454,3404.947333,-10584.944971,-536.266849
539.787778,2812.782580,-12583.501014,-306.438199
539.788102,1258.350101,-12879.583391,-766.095498
539.788426,-518.144159,-11103.089130,-995.924147
539.788751,-2886.803174,-10807.006753,-689.485948
539.789075,-4219.173869,-11917.315666,-842.705048
539.789399,-3552.988522,-10584.944971,-1378.971896
539.789723,-2738.761985,-8068.244768,-1072.533697
539.790047,-2072.576638,-8882.471304,-842.705048
539.790371,-222.061783,-9844.739029,-1378.971896
539.790695,1776.494261,-8808.450710,-1225.752797
539.791020,2368.659014,-7994.224174,-1149.143247
539.791344,1924.535449,-9030.512492,-1225.752797
539.791668,1776.494261,-9548.656652,-1762.019645
539.791992,1702.473667,-10214.842000,-2068.457845
539.792316,962.267725,-11917.315666,-1532.190996
539.792640,-592.164754,-12435.459826,-1838.629195
539.792964,-1850.514855,-11695.253884,-1455.581446
539.793289,-3775.050304,-10732.986159,-1072.533697
539.793613,-5181.441594,-10584.944971,-766.095498
539.793937,-4737.318029,-9252.574275,-1072.533697
539.794261,-3182.885551,-8586.388927,-383.047749
539.794585,-1924.535449,-8808.450710,0.000000
539.794909,518.144159,-8290.306550,-153.219100
539.795233,2146.597232,-7105.977043,0.000000
539.795558,2590.720797,-6957.935855,76.609550
539.795882,2146.597232,-7698.141797,-766.095498
539.796206,1850.514855,-8660.409521,-459.657299
539.796530,1628.453072,-10436.903782,229.828649
539.796854,814.226536,-12509.480420,-306.438199
539.797178,-148.041188,-12953.603985,0.000000
539.797502,-1480.411884,-12065.356855,0.000000
539.797827,-3552.988522,-11843.295072,0.000000
539.798151,-4811.338623,-11769.274478,-229.828649
539.798475,-4145.153275,-10066.800811,153.219100
539.798799,-2442.679609,-8734.430116,153.219100
539.799123,-740.205942,-8660.409521,842.705048
539.799447,444.123565,-7772.162391,919.314598
539.799771,1998.556043,-6957.935855,383.047749
539.800096,2664.741391,-7402.059420,459.657299
539.800420,3330.926739,-7772.162391,153.219100
539.800744,3997.112087,-7846.182985,383.047749
539.801068,4885.359217,-8660.409521,536.266849
539.801392,3923.091493,-11621.233289,1378.971896
539.801716,2886.803174,-12435.459826,1685.410096
539.802040,518.144159,-11103.089130,229.828649
539.802365,-2294.638420,-11177.109724,-76.609550
539.802689,-4515.256246,-11177.109724,0.000000
539.803013,-3552.988522,-9474.636058,0.000000
539.803337,-2368.659014,-9400.615463,459.657299
539.803661,-1332.370696,-9474.636058,1455.581446
539.803985,0.000000,-7994.224174,995.924147
539.804309,1184.329507,-7105.977043,153.219100
539.804634,1110.308913,-7772.162391,0.000000
539.804958,888.247130,-8216.285956,-153.219100
539.805282,1480.411884,-8512.368333,0.000000
539.805606,1702.473667,-9696.697840,76.609550
539.805930,1258.350101,-11325.150913,689.485948
539.806254,1480.411884,-11251.130318,919.314598
539.806578,1184.329507,-10436.903782,229.828649
539.806903,-296.082377,-11621.233289,995.924147
539.807227,-1998.556043,-11473.192101,1608.800546
539.807551,-1850.514855,-10140.821405,1532.190996
539.807875,-1628.453072,-9326.594869,1378.971896
539.808199,-1554.432478,-8660.409521,1455.581446
539.808523,222.061783,-7402.059420,536.266849
539.808847,888.247130,-6365.771101,-383.047749
539.809171,1258.350101,-7105.977043,-306.438199
539.809496,1776.494261,-6513.812290,-306.438199
539.809820,3034.844362,-6365.771101,-536.266849
539.810144,3182.885551,-8956.491898,-612.876398
539.810468,2146.597232,-11399.171507,-459.657299
539.810792,1184.329507,-11991.336260,-229.828649
539.811116,0.000000,-12065.356855,-919.314598
539.811440,-2146.597232,-13101.645173,-689.485948
539.811765,-2886.803174,-12361.439231,-306.438199
539.812089,-2072.576638,-11399.171507,-383.047749
539.812413,-1924.535449,-11695.253884,689.485948
539.812737,-1850.514855,-12065.356855,612.876398
539.813061,-888.247130,-9918.759623,229.828649
539.813385,0.000000,-7624.121203,-612.876398
539.813709,-148.041188,-7994.224174,-919.314598
539.814034,814.226536,-8438.347739,-2451.505594
539.814358,2516.700203,-7624.121203,-1532.190996
539.814682,2960.823768,-8956.491898,-1149.143247
539.815006,2516.700203,-10436.903782,-1378.971896
539.815330,1998.556043,-10510.924376,-1608.800546
539.815654,296.082377,-10955.047942,-1072.533697
539.815978,-2146.597232,-11917.315666,-842.705048
539.816303,-2960.823768,-10881.027347,-229.828649
539.816627,-3034.844362,-9770.718434,-229.828649
539.816951,-3034.844362,-9696.697840,459.657299
539.817275,-2960.823768,-9844.739029,459.657299
539.817599,-2146.597232,-8808.450710,459.657299
539.817923,-1332.370696,-7772.162391,459.657299
539.818247,0.000000,-7846.182985,-229.828649
539.818572,888.247130,-7772.162391,-1225.752797
539.818896,2590.720797,-7550.100608,-153.219100
539.819220,3627.009116,-9326.594869,383.047749
539.819544,3849.070898,-11843.295072,-229.828649
539.819868,2516.700203,-11769.274478,-306.438199
539.820192,0.000000,-11473.192101,0.000000
539.820516,-1554.432478,-11991.336260,383.047749
539.820841,-2220.617826,-11399.171507,-383.047749
539.821165,-2442.679609,-10436.903782,0.000000
539.821489,-3552.988522,-9770.718434,459.657299
539.821813,-3404.947333,-9770.718434,383.047749
539.822137,-2442.679609,-8216.285956,612.876398
539.822461,-1776.494261,-6957.935855,383.047749
539.822785,-962.267725,-6883.915261,0.000000
539.823110,222.061783,-7105.977043,-306.438199
539.823434,2220.617826,-7179.997637,0.000000
539.823758,2886.803174,-8586.388927,-383.047749
539.824082,3330.926739,-10288.862594,0.000000
539.824406,2886.803174,-11029.068536,-153.219100
539.824730,1554.432478,-11769.274478,-383.047749
539.825054,148.041188,-12805.562797,0.000000
539.825379,0.000000,-11621.233289,-612.876398
539.825703,-518.144159,-11103.089130,229.828649
539.826027,-1258.350101,-11843.295072,536.266849
539.826351,-1184.329507,-10658.965565,153.219100
539.826675,-740.205942,-8808.450710,0.000000
539.826999,-1258.350101,-8142.265362,536.266849
539.827323,-888.247130,-8660.409521,0.000000
539.827648,740.205942,-7920.203579,-459.657299
539.827972,2368.659014,-6661.853478,-383.047749
539.828296,2368.659014,-8290.306550,153.219100
539.828620,2294.638420,-9918.759623,-229.828649
539.828944,1480.411884,-9474.636058,0.000000
539.829268,-296.082377,-10066.800811,-229.828649
539.829592,-1258.350101,-11103.089130,-306.438199
539.829917,-814.226536,-10584.944971,-612.876398
539.830241,-814.226536,-10807.006753,-153.219100
539.830565,-1110.308913,-10955.047942,919.314598
539.830889,0.000000,-9548.656652,459.657299
539.831213,444.123565,-8290.306550,842.705048
539.831537,-740.205942,-8290.306550,766.095498
539.831861,0.000000,-8438.347739,383.047749
539.832186,1628.453072,-7328.038826,0.000000
539.832510,2368.659014,-7254.018232,-459.657299
539.832834,1998.556043,-8586.388927,-229.828649
539.833158,1776.494261,-9030.512492,-153.219100
539.833482,814.226536,-9548.656652,-1302.362347
539.833806,-666.185348,-11103.089130,-612.876398
539.834130,-1110.308913,-11991.336260,-306.438199
539.834455,-592.164754,-11843.295072,-612.876398
539.834779,-1110.308913,-11325.150913,-536.266849
539.835103,-2146.597232,-11547.212695,-689.485948
539.835427,-1258.350101,-10732.986159,-153.219100
539.835751,-1184.329507,-10436.903782,-536.266849
539.836075,-1628.453072,-10732.986159,536.266849
539.836399,-1258.350101,-8808.450710,-153.219100
539.836724,222.061783,-7105.977043,-995.924147
539.837048,1406.391290,-7846.182985,-459.657299
539.837372,2146.597232,-10584.944971,383.047749
539.837696,2960.823768,-10881.027347,766.095498
539.838020,1554.432478,-9844.739029,-76.609550
539.838344,-296.082377,-9992.780217,229.828649
539.838668,-1110.308913,-10288.862594,-536.266849
539.838992,-296.082377,-10140.821405,-689.485948
539.839317,-444.123565,-10140.821405,0.000000
539.839641,-962.267725,-10214.842000,612.876398
539.839965,-1332.370696,-9474.636058,306.438199
539.840289,-1406.391290,-8142.265362,536.266849
539.840613,-2812.782580,-8068.244768,842.705048
539.840937,-2146.597232,-8068.244768,842.705048
539.841261,-370.102971,-7476.080014,0.000000
539.841586,222.061783,-7772.162391,-153.219100
539.841910,1036.288319,-8882.471304,459.657299
539.842234,2294.638420,-9030.512492,229.828649
539.842558,2072.576638,-9252.574275,153.219100
539.842882,222.061783,-10807.006753,306.438199
539.843206,-1036.288319,-10436.903782,-766.095498
539.843530,-592.164754,-10584.944971,-306.438199
539.843855,-518.144159,-11843.295072,612.876398
539.844179,-444.123565,-12435.459826,1072.533697
539.844503,-592.164754,-11103.089130,766.095498
539.844827,-1776.494261,-9548.656652,612.876398
539.845151,-2886.803174,-9696.697840,459.657299
539.845475,-1924.535449,-9030.512492,-536.266849
539.845799,0.000000,-7920.203579,0.000000
539.846124,0.000000,-8438.347739,229.828649
539.846448,666.185348,-9104.533087,153.219100
539.846772,1110.308913,-8438.347739,-842.705048
539.847096,666.185348,-8438.347739,-1072.533697
539.847420,518.144159,-9252.574275,-842.705048
539.847744,888.247130,-9844.739029,-766.095498
539.848068,1554.432478,-9844.739029,-766.095498
539.848393,1628.453072,-11177.109724,229.828649
539.848717,962.267725,-11251.130318,459.657299
539.849041,1258.350101,-10658.965565,153.219100
539.849365,222.061783,-10658.965565,0.000000
539.849689,-1036.288319,-11103.089130,0.000000
539.850013,-1036.288319,-9474.636058,306.438199
539.850337,296.082377,-8364.327145,0.000000
539.850662,666.185348,-9178.553681,229.828649
539.850986,1036.288319,-10288.862594,-306.438199
539.851310,444.123565,-9696.697840,-995.924147
539.851634,-592.164754,-9400.615463,-1455.581446
539.851958,-1184.329507,-9696.697840,-1532.190996
539.852282,-222.061783,-9474.636058,-919.314598
539.852606,0.000000,-9696.697840,-1072.533697
539.852931,592.164754,-10955.047942,-842.705048
539.853255,0.000000,-9992.780217,-536.266849
539.853579,-296.082377,-9844.739029,-536.266849
539.853903,-444.123565,-10362.883188,0.000000
539.854227,-296.082377,-10140.821405,229.828649
539.854551,296.082377,-7920.203579,995.924147
539.854875,1184.329507,-7624.121203,306.438199
539.855199,1036.288319,-9474.636058,612.876398
539.855523,1110.308913,-9770.718434,229.828649
539.855847,1628.453072,-8512.368333,0.000000
539.856171,518.144159,-7846.182985,-766.095498
539.856495,0.000000,-9400.615463,-306.438199
539.856819,0.000000,-9696.697840,-1302.362347
539.857144,518.144159,-9622.677246,-1302.362347
539.857468,74.020594,-10658.965565,-383.047749
539.857792,0.000000,-10584.944971,-536.266849
539.858116,0.000000,-9918.759623,-536.266849
539.858440,-1110.308913,-9844.739029,306.438199
539.858764,-1332.370696,-10362.883188,919.314598
539.859088,-962.267725,-9548.656652,612.876398
539.859412,-666.185348,-9622.677246,842.705048
539.859736,-1406.391290,-10510.924376,1225.752797
539.860060,-666.185348,-10214.842000,306.438199
539.860384,0.000000,-8808.450710,383.047749
539.860708,-592.164754,-8660.409521,536.266849
539.861032,-962.267725,-9844.739029,0.000000
539.861356,0.000000,-8660.409521,-612.876398
539.861680,222.061783,-8808.450710,229.828649
539.862004,-148.041188,-9992.780217,766.095498
539.862328,370.102971,-10288.862594,383.047749
539.862652,222.061783,-9622.677246,306.438199
539.862976,-888.247130,-9622.677246,1149.143247
539.863300,-1036.288319,-9992.780217,1225.752797
539.863624,-592.164754,-9104.533087,1532.190996
539.863948,-814.226536,-9548.656652,1455.581446
539.864272,-1332.370696,-9992.780217,1225.752797
539.864596,-740.205942,-9474.636058,306.438199
539.864920,-592.164754,-9400.615463,612.876398
539.865244,-1036.288319,-9696.697840,1302.362347
539.865568,-222.061783,-9548.656652,459.657299
539.865892,592.164754,-8882.471304,153.219100
539.866216,1258.350101,-9770.718434,-153.219100
539.866540,1184.329507,-10881.027347,-612.876398
539.866864,962.267725,-10362.883188,-919.314598
539.867188,370.102971,-9918.759623,-153.219100
539.867512,-592.164754,-10807.006753,76.609550
539.867836,-1184.329507,-10658.965565,-306.438199
539.868160,-888.247130,-9548.656652,-306.438199
539.868484,0.000000,-10140.821405,766.095498
539.868808,148.041188,-11029.068536,689.485948
539.869132,1110.308913,-10288.862594,229.828649
539.869456,518.144159,-8956.491898,536.266849
539.869780,74.020594,-8956.491898,919.314598
539.870104,1554.432478,-9326.594869,229.828649
539.870428,2368.659014,-8364.327145,-842.705048
539.870752,2516.700203,-8734.430116,153.219100
539.871076,2368.659014,-10214.842000,-612.876398
539.871400,2368.659014,-10288.862594,-842.705048
539.871724,1258.350101,-9326.594869,-766.095498
539.872048,0.000000,-10066.800811,-306.438199
539.872372,-518.144159,-10584.944971,-536.266849
539.872696,-148.041188,-9474.636058,-536.266849
539.873020,-370.102971,-9474.636058,1072.533697
539.873344,-444.123565,-9548.656652,1149.143247
539.873668,-1036.288319,-9252.574275,383.047749
539.873992,-1924.535449,-8586.388927,0.000000
539.874316,-2368.659014,-8290.306550,0.000000
539.874640,-1184.329507,-7994.224174,-536.266849
539.874964,-296.082377,-7328.038826,-919.314598
539.875288,0.000000,-8068.244768,0.000000
539.875612,962.267725,-8956.491898,-153.219100
539.875936,1776.494261,-9252.574275,-842.705048
539.876260,518.144159,-9252.574275,-689.485948
539.876584,-370.102971,-10214.842000,-689.485948
539.876908,0.000000,-10436.903782,-1378.971896
539.877232,148.041188,-9992.780217,-1072.533697
539.877556,-370.102971,-11029.068536,-306.438199
539.877880,-740.205942,-11917.315666,-536.266849
539.878204,-1406.391290,-10510.924376,-919.314598
539.878528,-1998.556043,-10066.800811,-919.314598
539.878852,-2294.638420,-10510.924376,-612.876398
539.879176,-518.144159,-10362.883188,-689.485948
539.879500,1332.370696,-9252.574275,-689.485948
539.879824,1850.514855,-9696.697840,-306.438199
539.880148,2590.720797,-10214.842000,0.000000
539.880472,2442.679609,-9696.697840,-1072.533697
539.880796,1332.370696,-10584.944971,-842.705048
539.881120,-370.102971,-11621.233289,-536.266849
539.881444,-518.144159,-11103.089130,-689.485948
539.881768,-1332.370696,-10955.047942,-842.705048
539.882092,-2294.638420,-11621.233289,-153.219100
539.882416,-2294.638420,-10584.944971,-383.047749
539.882740,-1332.370696,-9918.759623,153.219100
539.883064,-1776.494261,-9918.759623,612.876398
539.883388,-2368.659014,-9104.533087,612.876398
539.883713,-592.164754,-8142.265362,383.047749
539.884037,592.164754,-7328.038826,689.485948
539.884361,1480.411884,-8142.265362,1149.143247
539.884685,2220.617826,-8734.430116,306.438199
539.885009,2220.617826,-8882.471304,229.828649
539.885333,74.020594,-8734.430116,-459.657299
539.885657,-888.247130,-8956.491898,-76.609550
539.885981,-222.061783,-8586.388927,-383.047749
539.886305,0.000000,-9844.739029,919.314598
539.886629,-666.185348,-11769.274478,1685.410096
539.886953,-1554.432478,-10955.047942,2068.457845
539.887277,-1332.370696,-9326.594869,1225.752797
539.887601,-2368.659014,-8808.450710,842.705048
539.887925,-2664.741391,-9474.636058,612.876398
539.888249,-1406.391290,-8364.327145,612.876398
539.888573,148.041188,-7476.080014,1072.533697
539.888897,1110.308913,-7698.141797,689.485948
539.889221,2146.597232,-8290.306550,-306.438199
539.889545,2146.597232,-8068.244768,-766.095498
539.889869,888.247130,-9104.533087,0.000000
539.890193,-296.082377,-10066.800811,-459.657299
539.890517,-222.061783,-10214.842000,-306.438199
539.890841,0.000000,-10807.006753,153.219100
539.891165,148.041188,-12139.377449,689.485948
539.891489,0.000000,-12361.439231,459.657299
539.891813,-1036.288319,-11103.089130,76.609550
539.892137,-1628.453072,-10436.903782,306.438199
539.892461,-1850.514855,-10584.944971,612.876398
539.892785,148.041188,-9178.553681,459.657299
539.893109,1480.411884,-7476.080014,306.438199
539.893433,1998.556043,-7920.203579,153.219100
539.893757,2442.679609,-8364.327145,-612.876398
539.894081,2368.659014,-8956.491898,-766.095498
539.894405,1850.514855,-9696.697840,-842.705048
539.894729,1258.350101,-9992.780217,-459.657299
539.895053,1332.370696,-9770.718434,-689.485948
539.895377,444.123565,-11251.130318,-383.047749
539.895701,-666.185348,-12361.439231,153.219100
539.896025,-962.267725,-12213.398043,229.828649
539.896349,-1332.370696,-11251.130318,0.000000
539.896673,-2146.597232,-10955.047942,689.485948
539.896997,-1776.494261,-10288.862594,536.266849
539.897321,-888.247130,-8364.327145,536.266849
539.897645,0.000000,-7550.100608,306.438199
539.897969,592.164754,-7994.224174,306.438199
539.898293,1554.432478,-7846.182985,-459.657299
539.898617,1554.432478,-7254.018232,-689.485948
539.898941,1332.370696,-7846.182985,-842.705048
539.899265,1110.308913,-8586.388927,-1378.971896
539.899589,592.164754,-8808.450710,-1532.190996
539.899913,-592.164754,-9844.739029,-1225.752797
539.900237,-1184.329507,-10881.027347,-383.047749
539.900561,-666.185348,-10140.821405,-306.438199
539.900885,-1332.370696,-10584.944971,153.219100
539.901209,-1924.535449,-10881.027347,0.000000
539.901533,-2294.638420,-9770.718434,-153.219100
539.901857,-888.247130,-8438.347739,306.438199
539.902181,148.041188,-8438.347739,459.657299
539.902505,1036.288319,-9030.512492,383.047749
539.902829,1776.494261,-8660.409521,0.000000
539.903153,1628.453072,-8290.306550,-995.924147
539.903477,148.041188,-8438.347739,-1685.410096
539.903801,-666.185348,-9400.615463,-2604.724693
539.904125,-444.123565,-10140.821405,-2068.457845
539.904449,-592.164754,-11991.336260,-1302.362347
539.904773,-666.185348,-12657.521608,-612.876398
539.905097,-370.102971,-11695.253884,0.000000
539.905421,-962.267725,-11325.150913,0.000000
539.905745,-1924.535449,-11399.171507,536.266849
539.906069,-1628.453072,-10510.924376,229.828649
539.906393,-666.185348,-9474.636058,689.485948
539.906717,-592.164754,-9400.615463,1455.581446
539.907041,518.144159,-9326.594869,995.924147
539.907365,1480.411884,-7476.080014,306.438199
539.907689,888.247130,-6587.832884,-459.657299
539.908013,-592.164754,-7994.224174,-1378.971896
539.908337,-1036.288319,-8882.471304,-1378.971896
539.908661,0.000000,-9474.636058,-1532.190996
539.908985,592.164754,-11325.150913,-306.438199
539.909309,0.000000,-11991.336260,153.219100
539.909633,-518.144159,-10732.986159,383.047749
539.909958,-1850.514855,-11251.130318,306.438199
539.910282,-3182.885551,-11843.295072,459.657299
539.910606,-2442.679609,-10214.842000,689.485948
539.910930,-518.144159,-8956.491898,1225.752797
539.911254,444.123565,-9178.553681,1685.410096
539.911578,1110.308913,-9474.636058,1991.848295
539.911902,1480.411884,-7920.203579,536.266849
539.912226,296.082377,-6957.935855,0.000000
539.912550,-444.123565,-8142.265362,-536.266849
539.912874,666.185348,-8882.471304,-1225.752797
539.913198,1628.453072,-9326.594869,-766.095498
539.913522,1628.453072,-10955.047942,0.000000
539.913846,666.185348,-11399.171507,229.828649
539.914170,74.020594,-11103.089130,0.000000
539.914494,-1184.329507,-11177.109724,0.000000
539.914818,-2368.659014,-11103.089130,306.438199
539.915142,-592.164754,-10140.821405,536.266849
539.915466,1110.308913,-9474.636058,1838.629195
539.915790,2146.597232,-10288.862594,2451.505594
539.916114,2368.659014,-9252.574275,2145.067394
539.916438,1480.411884,-7476.080014,1072.533697
539.916762,222.061783,-6883.915261,0.000000
539.917086,0.000000,-7624.121203,-919.314598
539.917410,370.102971,-8068.244768,-1072.533697
539.917734,1184.329507,-8290.306550,-383.047749
539.918058,592.164754,-9548.656652,76.609550
539.918382,814.226536,-9992.780217,-689.485948
539.918706,148.041188,-9548.656652,-612.876398
539.919030,-1480.411884,-10584.944971,-306.438199
539.919354,-2220.617826,-10658.965565,229.828649
539.919678,-962.267725,-9992.780217,766.095498
539.920002,148.041188,-9622.677246,1378.971896
539.920326,592.164754,-9992.780217,1532.190996
539.920650,1332.370696,-9104.533087,1608.800546
539.920974,1480.411884,-7550.100608,306.438199
539.921298,1184.329507,-7920.203579,0.000000
539.921622,444.123565,-8068.244768,-995.924147
539.921946,1184.329507,-7624.121203,-1302.362347
539.922270,1554.432478,-8808.450710,-1302.362347
539.922594,1036.288319,-10510.924376,-1532.190996
539.922918,0.000000,-11547.212695,-1838.629195
539.923242,-1850.514855,-11029.068536,-2145.067394
539.923566,-3034.844362,-12139.377449,-1685.410096
539.923890,-2590.720797,-12435.459826,-842.705048
539.924214,-1110.308913,-11325.150913,-536.266849
539.924538,0.000000,-11029.068536,229.828649
539.924862,-222.061783,-11621.233289,919.314598
539.925186,296.082377,-10436.903782,306.438199
539.925510,1184.329507,-8956.491898,842.705048
539.925834,222.061783,-8512.368333,153.219100
539.926158,518.144159,-9326.594869,-459.657299
539.926482,1332.370696,-8660.409521,-1378.971896
539.926806,1480.411884,-8808.450710,-1378.971896
539.927130,1110.308913,-11251.130318,-766.095498
539.927454,1036.288319,-11991.336260,-842.705048
539.927778,148.041188,-11325.150913,-459.657299
539.928102,-1776.494261,-10362.883188,0.000000
539.928426,-2960.823768,-9992.780217,-766.095498
539.928750,-2960.823768,-9622.677246,-536.266849
539.929074,-2220.617826,-10510.924376,383.047749
539.929398,-888.247130,-10807.006753,2068.457845
539.929722,666.185348,-8290.306550,1991.848295
539.930046,740.205942,-6439.791695,1532.190996
539.930370,0.000000,-6809.894666,1838.629195
539.930694,74.020594,-6661.853478,229.828649
539.931018,666.185348,-6587.832884,-689.485948
539.931342,222.061783,-7105.977043,-612.876398
539.931666,-148.041188,-8438.347739,-689.485948
539.931990,-148.041188,-9178.553681,-766.095498
539.932314,-666.185348,-9770.718434,-612.876398
539.932638,-1924.535449,-10510.924376,-229.828649
539.932962,-2886.803174,-10510.924376,-229.828649
539.933286,-2664.741391,-10658.965565,0.000000
539.933610,-2516.700203,-11251.130318,229.828649
539.933934,-1850.514855,-10807.006753,842.705048
539.934258,-222.061783,-9548.656652,1072.533697
539.934582,740.205942,-8586.388927,459.657299
539.934906,666.185348,-8956.491898,-383.047749
539.935230,962.267725,-8438.347739,-459.657299
539.935554,2294.638420,-7846.182985,-766.095498
539.935878,2812.782580,-8956.491898,-995.924147
539.936202,2516.700203,-11325.150913,-689.485948
539.936527,2368.659014,-12065.356855,-1225.752797
539.936851,962.267725,-12065.356855,-1225.752797
539.937175,-740.205942,-12657.521608,-995.924147
539.937499,-1184.329507,-12509.480420,-612.876398
539.937823,-1036.288319,-12065.356855,0.000000
539.938147,-1332.370696,-11991.336260,459.657299
539.938471,0.000000,-11325.150913,1072.533697
539.938795,814.226536,-9696.697840,689.485948
539.939119,518.144159,-8142.265362,459.657299
539.939443,740.205942,-8438.347739,766.095498
539.939767,1406.391290,-8068.244768,153.219100
539.940091,2294.638420,-7328.038826,153.219100
539.940415,2294.638420,-8068.244768,689.485948
539.940739,1554.432478,-9622.677246,383.047749
539.941063,1776.494261,-10140.821405,153.219100
539.941387,592.164754,-9992.780217,-153.219100
539.941711,-592.164754,-10436.903782,76.609550
539.942035,-1258.350101,-9992.780217,459.657299
539.942359,-1332.370696,-10140.821405,536.266849
539.942683,-1702.473667,-10066.800811,1072.533697
539.943007,-1406.391290,-8586.388927,995.924147
539.943331,-222.061783,-7254.018232,1532.190996
539.943655,0.000000,-7550.100608,1149.143247
539.943979,222.061783,-8142.265362,995.924147
539.944303,962.267725,-6883.915261,1072.533697
539.944627,1998.556043,-6661.853478,536.266849
539.944951,1850.514855,-8068.244768,76.609550
539.945275,1554.432478,-8438.347739,-459.657299
539.945599,888.247130,-8586.388927,-995.924147
539.945923,0.000000,-9622.677246,-1225.752797
539.946247,-962.267725,-11177.109724,-995.924147
539.946571,-1480.411884,-11399.171507,-536.266849
539.946895,-1258.350101,-11325.150913,-306.438199
539.947219,-1554.432478,-11843.295072,0.000000
539.947543,-1332.370696,-11251.130318,229.828649
539.947867,-1480.411884,-10140.821405,-153.219100
539.948191,-814.226536,-10140.821405,0.000000
539.948515,-370.102971,-9548.656652,306.438199
539.948839,518.144159,-8512.368333,-153.219100
539.949163,1554.432478,-7994.224174,-766.095498
539.949487,2072.576638,-9104.533087,-459.657299
539.949811,1924.535449,-10288.862594,-1302.362347
539.950135,1332.370696,-10288.862594,-1532.190996
539.950459,-518.144159,-10732.986159,-1991.848295
539.950783,-1776.494261,-11473.192101,-1991.848295
539.951107,-1258.350101,-11621.233289,-1838.629195
539.951431,-296.082377,-11991.336260,-536.266849
539.951755,-592.164754,-12287.418637,153.219100
539.952079,-888.247130,-11399.171507,0.000000
539.952403,-1036.288319,-10288.862594,0.000000
539.952727,-1480.411884,-10214.842000,459.657299
539.953051,-962.267725,-9622.677246,1378.971896
539.953375,0.000000,-7846.182985,306.438199
539.953699,740.205942,-7476.080014,459.657299
539.954023,370.102971,-8364.327145,0.000000
539.954347,222.061783,-8586.388927,-536.266849
539.954671,-222.061783,-8586.388927,-612.876398
539.954995,-962.267725,-9104.533087,-612.876398
539.955319,-1480.411884,-8734.430116,-1532.190996
539.955643,-1332.370696,-8512.368333,-919.314598
539.955967,-592.164754,-9992.780217,0.000000
539.956292,-296.082377,-11399.171507,459.657299
539.956616,0.000000,-10881.027347,1225.752797
539.956940,0.000000,-9770.718434,1455.581446
539.957264,-666.185348,-9030.512492,1072.533697
539.957588,-444.123565,-8216.285956,1762.019645
539.957912,888.247130,-7402.059420,1378.971896
539.958236,1110.308913,-7624.121203,689.485948
539.958560,1036.288319,-8586.388927,536.266849
539.958884,592.164754,-8660.409521,-459.657299
539.959208,740.205942,-8142.265362,-153.219100
539.959533,666.185348,-9474.636058,-306.438199
539.959857,592.164754,-10140.821405,-383.047749
539.960181,518.144159,-9918.759623,229.828649
539.960505,370.102971,-10288.862594,536.266849
539.960829,370.102971,-11325.150913,536.266849
539.961153,0.000000,-11177.109724,153.219100
539.961477,0.000000,-10288.862594,1072.533697
539.961801,-518.144159,-10584.944971,995.924147
539.962125,-370.102971,-9844.739029,536.266849
539.962450,592.164754,-8142.265362,0.000000
539.962774,1110.308913,-8290.306550,689.485948
539.963098,1480.411884,-9252.574275,-383.047749
539.963422,888.247130,-8808.450710,-1072.533697
539.963746,740.205942,-8438.347739,-842.705048
539.964070,-222.061783,-9400.615463,-1149.143247
539.964394,-296.082377,-10066.800811,-1685.410096
539.964718,0.000000,-10436.903782,-689.485948
539.965042,0.000000,-10732.986159,-536.266849
539.965367,-296.082377,-11917.315666,-766.095498
539.965691,-592.164754,-11325.150913,-459.657299
539.966015,-962.267725,-10955.047942,0.000000
539.966339,-1184.329507,-10881.027347,76.609550
539.966663,-1258.350101,-9844.739029,-153.219100
539.966987,-370.102971,-8956.491898,-229.828649
539.967311,518.144159,-8808.450710,-76.609550
539.967635,1480.411884,-9770.718434,0.000000
539.967959,1628.453072,-9030.512492,-306.438199
539.968283,1184.329507,-8586.388927,-1225.752797
539.968608,-222.061783,-9696.697840,-995.924147
539.968932,-444.123565,-10955.047942,-1302.362347
539.969256,0.000000,-10732.986159,-1378.971896
539.969580,0.000000,-11029.068536,-459.657299
539.969904,74.020594,-10732.986159,-383.047749
539.970228,-148.041188,-10510.924376,-383.047749
539.970552,-296.082377,-9992.780217,459.657299
539.970876,-1184.329507,-9770.718434,306.438199
539.971200,-888.247130,-8734.430116,153.219100
539.971525,0.000000,-8290.306550,306.438199
539.971849,222.061783,-9178.553681,1608.800546
539.972173,148.041188,-9178.553681,842.705048
539.972497,518.144159,-7550.100608,-306.438199
539.972821,-592.164754,-7550.100608,-536.266849
539.973145,-1850.514855,-8882.471304,0.000000
539.973469,-962.267725,-9474.636058,-306.438199
539.973793,148.041188,-9030.512492,0.000000
539.974117,148.041188,-9622.677246,919.314598
539.974441,-296.082377,-9918.759623,766.095498
539.974766,-74.020594,-10288.862594,229.828649
539.975090,-814.226536,-9992.780217,842.705048
539.975414,-1406.391290,-9474.636058,1072.533697
539.975738,-962.267725,-8438.347739,383.047749
539.976062,-962.267725,-8364.327145,919.314598
539.976386,-444.123565,-9770.718434,1685.410096
539.976710,296.082377,-9770.718434,1378.971896
539.977034,444.123565,-8882.471304,1302.362347
539.977358,-444.123565,-8882.471304,153.219100
539.977683,-962.267725,-9326.594869,306.438199
539.978007,0.000000,-8438.347739,-306.438199
539.978331,370.102971,-8438.347739,-383.047749
539.978655,296.082377,-9696.697840,-536.266849
539.978979,0.000000,-10510.924376,-995.924147
539.979303,74.020594,-10214.842000,-766.095498
539.979627,148.041188,-10436.903782,153.219100
539.979951,666.185348,-10510.924376,689.485948
539.980275,1628.453072,-9696.697840,766.095498
539.980599,518.144159,-10214.842000,919.314598
539.980924,740.205942,-11473.192101,995.924147
539.981248,2072.576638,-11547.212695,689.485948
539.981572,2442.679609,-10214.842000,689.485948
539.981896,1036.288319,-9548.656652,0.000000
539.982220,-444.123565,-9770.718434,-153.219100
539.982544,0.000000,-9326.594869,-1225.752797
539.982868,296.082377,-9474.636058,-1455.581446
539.983192,592.164754,-10436.903782,-1455.581446
539.983516,1036.288319,-10436.903782,-1225.752797
539.983841,1184.329507,-10066.800811,-612.876398
539.984165,666.185348,-10288.862594,-536.266849
539.984489,222.061783,-10214.842000,-459.657299
539.984813,-518.144159,-9178.553681,-306.438199
539.985137,-296.082377,-9992.780217,-76.609550
539.985461,-592.164754,-10807.006753,0.000000
539.985785,-222.061783,-9474.636058,76.609550
539.986109,74.020594,-8586.388927,459.657299
539.986433,0.000000,-9474.636058,842.705048
539.986758,0.000000,-9548.656652,-306.438199
539.987082,518.144159,-7550.100608,-1072.533697
539.987406,518.144159,-7254.018232,-306.438199
539.987730,222.061783,-8882.471304,-612.876398
539.988054,222.061783,-9548.656652,-842.705048
539.988378,-518.144159,-8956.491898,-612.876398
539.988702,-1406.391290,-9178.553681,0.000000
539.989026,-1258.350101,-9474.636058,-689.485948
539.989350,-1110.308913,-9178.553681,0.000000
539.989674,-1332.370696,-9400.615463,612.876398
539.989999,-2368.659014,-9918.759623,306.438199
539.990323,-2294.638420,-9474.636058,-229.828649
539.990647,-2220.617826,-9400.615463,-306.438199
539.990971,-1924.535449,-9326.594869,0.000000
539.991295,-740.205942,-9104.533087,-536.266849
539.991619,666.185348,-8586.388927,-536.266849
539.991943,1924.535449,-8586.388927,-766.095498
539.992267,2590.720797,-9992.780217,-229.828649
539.992591,2960.823768,-10510.924376,-1149.143247
539.992916,2072.576638,-10732.986159,-842.705048
539.993240,1036.288319,-11621.233289,-383.047749
539.993564,148.041188,-11917.315666,-689.485948
539.993888,-296.082377,-11177.109724,-1225.752797
539.994212,-1406.391290,-11325.150913,-612.876398
539.994536,-2516.700203,-10881.027347,-919.314598
539.994860,-2368.659014,-10288.862594,-1149.143247
539.995184,-2072.576638,-10288.862594,-612.876398
539.995508,-2072.576638,-10288.862594,0.000000
539.995832,-888.247130,-9400.615463,76.609550
539.996157,-148.041188,-7550.100608,-919.314598
539.996481,518.144159,-7772.162391,-459.657299
539.996805,666.185348,-9696.697840,-612.876398
539.997129,1850.514855,-10658.965565,-536.266849
539.997453,1998.556043,-10584.944971,0.000000
539.997777,592.164754,-10955.047942,229.828649
539.998101,148.041188,-10807.006753,0.000000
539.998425,0.000000,-10881.027347,0.000000
539.998749,-296.082377,-11917.315666,383.047749
539.999074,-592.164754,-11547.212695,842.705048
539.999398,-888.247130,-10066.800811,689.485948
539.999722,-1258.350101,-9474.636058,1302.362347
540.000046,-1702.473667,-8290.306550,689.485948
540.000370,-740.205942,-7105.977043,612.876398
540.000694,222.061783,-6661.853478,383.047749
540.001018,666.185348,-7179.997637,612.876398
540.001342,1184.329507,-7698.141797,306.438199
540.001666,1184.329507,-7254.018232,919.314598
540.001991,592.164754,-8068.244768,306.438199
540.002315,444.123565,-9474.636058,0.000000
540.002639,0.000000,-9622.677246,76.609550
540.002963,370.102971,-9696.697840,306.438199
540.003287,370.102971,-11399.171507,1225.752797
540.003611,222.061783,-11991.336260,1149.143247
540.003935,74.020594,-10436.903782,1915.238745
540.004259,-518.144159,-9548.656652,1149.143247
540.004583,-1184.329507,-9770.718434,995.924147
540.004907,-666.185348,-8734.430116,0.000000
540.005232,222.061783,-7105.977043,0.000000
540.005556,814.226536,-7846.182985,536.266849
540.005880,1776.494261,-9030.512492,76.609550
540.006204,1924.535449,-8660.409521,-229.828649
540.006528,1258.350101,-8364.327145,76.609550
540.006852,962.267725,-9178.553681,-995.924147
540.007176,1480.411884,-9992.780217,-842.705048
540.007500,962.267725,-10955.047942,-383.047749
540.007824,0.000000,-11991.336260,383.047749
540.008149,-666.185348,-12213.398043,459.657299
540.008473,-518.144159,-11325.150913,536.266849
540.008797,-962.267725,-11177.109724,766.095498
540.009121,-370.102971,-10881.027347,229.828649
540.009445,592.164754,-8956.491898,76.609550
540.009769,370.102971,-7920.203579,-842.705048
540.010093,518.144159,-8660.409521,-612.876398
540.010417,1184.329507,-9326.594869,-689.485948
540.010741,1776.494261,-9474.636058,-842.705048
540.011065,1184.329507,-9030.512492,-1378.971896
540.011390,296.082377,-9104.533087,-1762.019645
540.011714,-370.102971,-9178.553681,-1915.238745
540.012038,-296.082377,-10658.965565,-2145.067394
540.012362,-518.144159,-11991.336260,-842.705048
540.012686,-962.267725,-11695.253884,-306.438199
540.013010,-1998.556043,-11029.068536,-995.924147
540.013334,-3108.864956,-10362.883188,-1302.362347
540.013658,-3182.885551,-9400.615463,-689.485948
540.013982,-1480.411884,-9474.636058,-306.438199
540.014307,0.000000,-9104.533087,-383.047749
540.014631,740.205942,-8956.491898,229.828649
540.014955,1998.556043,-8808.450710,-229.828649
540.015279,2590.720797,-8068.244768,-1149.143247
540.015603,2072.576638,-8808.450710,-1302.362347
540.015927,0.000000,-9474.636058,-1532.190996
540.016251,0.000000,-9474.636058,-1378.971896
540.016575,-592.164754,-10584.944971,-995.924147
540.016899,-1332.370696,-11843.295072,-689.485948
540.017223,-1702.473667,-11473.192101,-766.095498
540.017548,-2072.576638,-10732.986159,-919.314598
540.017872,-2516.700203,-11325.150913,0.000000
540.018196,-2442.679609,-10807.006753,842.705048
540.018520,-1628.453072,-8512.368333,766.095498
540.018844,-1036.288319,-7994.224174,1302.362347
540.019168,370.102971,-8438.347739,1072.533697
540.019492,1628.453072,-8586.388927,0.000000
540.019816,1332.370696,-7031.956449,229.828649
540.020140,1036.288319,-6957.935855,153.219100
540.020465,1258.350101,-8512.368333,-383.047749
540.020789,1406.391290,-9474.636058,-383.047749
540.021113,1702.473667,-11103.089130,306.438199
540.021437,148.041188,-11547.212695,766.095498
540.021761,-1258.350101,-11325.150913,0.000000
540.022085,-2442.679609,-11325.150913,229.828649
540.022409,-2960.823768,-11325.150913,766.095498
540.022733,-1998.556043,-9918.759623,766.095498
540.023057,-148.041188,-8438.347739,1149.143247
540.023382,0.000000,-8660.409521,1455.581446
540.023706,222.061783,-8660.409521,2221.676944
540.024030,888.247130,-8142.265362,612.876398
540.024354,1036.288319,-6809.894666,536.266849
540.024678,1036.288319,-7920.203579,383.047749
540.025002,1406.391290,-9326.594869,-383.047749
540.025326,1850.514855,-9326.594869,-153.219100
540.025650,1554.432478,-9992.780217,-689.485948
540.025974,1036.288319,-11769.274478,-612.876398
540.026298,148.041188,-11695.253884,153.219100
540.026623,-962.267725,-12139.377449,153.219100
540.026947,-2146.597232,-11695.253884,383.047749
540.027271,-1554.432478,-10584.944971,229.828649
540.027595,-444.123565,-9918.759623,459.657299
540.027919,666.185348,-9992.780217,1302.362347
540.028243,1480.411884,-9326.594869,229.828649
540.028567,1554.432478,-7772.162391,1149.143247
540.028891,1184.329507,-7476.080014,0.000000
540.029215,444.123565,-8216.285956,-229.828649
540.029540,962.267725,-8882.471304,-1149.143247
540.029864,1332.370696,-8734.430116,-1685.410096
540.030188,518.144159,-9696.697840,-1149.143247
540.030512,296.082377,-11399.171507,-1302.362347
540.030836,444.123565,-11547.212695,-1072.533697
540.031160,-296.082377,-11547.212695,-153.219100
540.031484,-1332.370696,-11769.274478,0.000000
540.031808,-1110.308913,-10955.047942,-459.657299
540.032132,-296.082377,-9992.780217,229.828649
540.032456,296.082377,-10066.800811,1149.143247
540.032781,740.205942,-9770.718434,1302.362347
540.033105,1258.350101,-8586.388927,766.095498
540.033429,1110.308913,-7550.100608,1302.362347
540.033753,1258.350101,-8734.430116,995.924147
540.034077,1480.411884,-8068.244768,-842.705048
540.034401,518.144159,-7105.977043,-842.705048
540.034725,0.000000,-8956.491898,-766.095498
540.035049,-296.082377,-10732.986159,-1302.362347
540.035373,-518.144159,-11325.150913,-1378.971896
540.035698,-2368.659014,-10732.986159,-1455.581446
540.036022,-2368.659014,-10066.800811,-766.095498
540.036346,-1776.494261,-9696.697840,-612.876398
540.036670,-666.185348,-9696.697840,306.438199
540.036994,-296.082377,-9918.759623,1149.143247
540.037318,518.144159,-9178.553681,766.095498
540.037642,1110.308913,-7772.162391,306.438199
540.037966,888.247130,-7105.977043,383.047749
540.038290,666.185348,-7254.018232,153.219100
540.038614,740.205942,-8290.306550,-306.438199
540.038939,-666.185348,-8364.327145,-459.657299
540.039263,-1554.432478,-9622.677246,-1149.143247
540.039587,-1702.473667,-11029.068536,-1838.629195
540.039911,-2220.617826,-11473.192101,-2221.676944
540.040235,-1924.535449,-11695.253884,-995.924147
540.040559,-2368.659014,-11621.233289,-229.828649
540.040883,-740.205942,-11621.233289,-306.438199
540.041207,-666.185348,-11991.336260,229.828649
540.041531,-740.205942,-12065.356855,995.924147
540.041856,222.061783,-10362.883188,612.876398
540.042180,666.185348,-8956.491898,76.609550
540.042504,148.041188,-8808.450710,1072.533697
540.042828,518.144159,-8290.306550,76.609550
540.043152,1554.432478,-8068.244768,-306.438199
540.043476,1628.453072,-7476.080014,-153.219100
540.043800,888.247130,-9030.512492,-1149.143247
540.044124,-666.185348,-9696.697840,-2145.067394
540.044448,-2072.576638,-10436.903782,-1991.848295
540.044773,-3034.844362,-10881.027347,-1608.800546
540.045097,-2442.679609,-11621.233289,-1225.752797
540.045421,-1776.494261,-10881.027347,229.828649
540.045745,-1036.288319,-11177.109724,1225.752797
540.046069,-296.082377,-11621.233289,536.266849
540.046393,1110.308913,-10807.006753,536.266849
540.046717,1924.535449,-10140.821405,766.095498
540.047041,1998.556043,-9474.636058,842.705048
540.047365,2664.741391,-9178.553681,229.828649
540.047689,3256.906145,-7772.162391,-536.266849
540.048014,3108.864956,-8216.285956,229.828649
540.048338,2368.659014,-10732.986159,689.485948
540.048662,1406.391290,-10955.047942,-536.266849
540.048986,-222.061783,-9918.759623,-612.876398
540.049310,-1998.556043,-10140.821405,-229.828649
540.049634,-2886.803174,-10288.862594,-383.047749
540.049958,-2590.720797,-9918.759623,0.000000
540.050282,-3256.906145,-9992.780217,1072.533697
540.050606,-2368.659014,-9474.636058,1762.019645
540.050931,74.020594,-8068.244768,766.095498
540.051255,1406.391290,-6439.791695,1455.581446
540.051579,1628.453072,-6587.832884,1685.410096
540.051903,1628.453072,-6735.874072,689.485948
540.052227,1998.556043,-6291.750507,383.047749
540.052551,1850.514855,-7105.977043,153.219100
540.052875,1776.494261,-8808.450710,766.095498
540.053199,1924.535449,-10362.883188,0.000000
540.053523,814.226536,-10510.924376,229.828649
540.053847,-1110.308913,-10955.047942,0.000000
540.054172,-2812.782580,-10732.986159,-229.828649
540.054496,-2960.823768,-10584.944971,0.000000
540.054820,-2886.803174,-10807.006753,153.219100
540.055144,-2368.659014,-10214.842000,1072.533697
540.055468,-1332.370696,-8956.491898,459.657299
540.055792,-592.164754,-8142.265362,0.000000
540.056116,0.000000,-8364.327145,459.657299
540.056440,1258.350101,-8734.430116,0.000000
540.056765,1924.535449,-8142.265362,-612.876398
540.057089,1924.535449,-8660.409521,-383.047749
540.057413,1776.494261,-10066.800811,-1302.362347
540.057737,2368.659014,-11917.315666,-1302.362347
540.058061,1480.411884,-11991.336260,-1838.629195
540.058385,-148.041188,-12657.521608,-1685.410096
540.058709,-1036.288319,-12435.459826,-1302.362347
540.059033,-592.164754,-12953.603985,-766.095498
540.059358,0.000000,-13619.789333,383.047749
540.059682,444.123565,-12879.583391,383.047749
540.060006,-592.164754,-10362.883188,76.609550
540.060330,-444.123565,-9770.718434,-612.876398
540.060654,-370.102971,-10140.821405,-919.314598
540.060978,1036.288319,-9252.574275,-766.095498
540.061302,1924.535449,-7994.224174,-306.438199
540.061626,1776.494261,-8808.450710,0.000000
540.061951,1332.370696,-9548.656652,-842.705048
540.062275,592.164754,-9030.512492,-1378.971896
540.062599,-666.185348,-9030.512492,-995.924147
540.062923,-1924.535449,-9844.739029,-1302.362347
540.063247,-1998.556043,-9844.739029,-919.314598
540.063571,-1406.391290,-9474.636058,76.609550
540.063895,-1258.350101,-9918.759623,689.485948
540.064220,-1628.453072,-9400.615463,229.828649
540.064544,-1702.473667,-7624.121203,153.219100
540.064868,-1110.308913,-7994.224174,919.314598
540.065192,-666.185348,-8068.244768,1838.629195
540.065516,444.123565,-8068.244768,1225.752797
540.065840,740.205942,-6143.709319,1149.143247
540.066164,592.164754,-6883.915261,842.705048
540.066488,0.000000,-8068.244768,-536.266849
540.066813,-518.144159,-8808.450710,-612.876398
540.067137,-814.226536,-9474.636058,-919.314598
540.067461,-592.164754,-9992.780217,0.000000
540.067785,-370.102971,-9696.697840,-689.485948
540.068109,-1258.350101,-10066.800811,-306.438199
540.068433,-1628.453072,-10955.047942,76.609550
540.068757,-1258.350101,-11177.109724,-153.219100
540.069082,-740.205942,-9770.718434,612.876398
540.069406,0.000000,-9474.636058,1455.581446
540.069730,1184.329507,-9844.739029,2451.505594
540.070054,2072.576638,-9030.512492,919.314598
540.070378,1702.473667,-8512.368333,1302.362347
540.070702,1480.411884,-10214.842000,1072.533697
540.071026,1406.391290,-11621.233289,76.609550
540.071350,1776.494261,-10732.986159,0.000000
540.071675,1480.411884,-9474.636058,0.000000
540.071999,740.205942,-9992.780217,-1072.533697
540.072323,888.247130,-10436.903782,-2374.896044
540.072647,-444.123565,-11177.109724,-1685.410096
540.072971,-740.205942,-12287.418637,-229.828649
540.073295,0.000000,-11991.336260,-459.657299
540.073619,0.000000,-10362.883188,0.000000
540.073944,-666.185348,-9770.718434,306.438199
540.074268,-518.144159,-9844.739029,-153.219100
540.074592,444.123565,-8956.491898,459.657299
540.074916,518.144159,-8882.471304,995.924147
540.075240,888.247130,-9622.677246,919.314598
540.075564,1480.411884,-9474.636058,306.438199
540.075888,666.185348,-9178.553681,0.000000
540.076212,-296.082377,-9252.574275,-689.485948
540.076537,-518.144159,-9548.656652,-919.314598
540.076861,-740.205942,-9770.718434,-1149.143247
540.077185,-1258.350101,-10066.800811,-306.438199
540.077509,-888.247130,-10288.862594,-536.266849
540.077833,-148.041188,-10066.800811,-612.876398
540.078157,-1110.308913,-9474.636058,-612.876398
540.078481,-1998.556043,-9622.677246,0.000000
540.078805,-1702.473667,-9622.677246,0.000000
540.079130,-666.185348,-8068.244768,459.657299
540.079454,888.247130,-8216.285956,1378.971896
540.079778,1406.391290,-8734.430116,1302.362347
540.080102,1628.453072,-8216.285956,153.219100
540.080426,1036.288319,-7698.141797,-383.047749
540.080750,222.061783,-8734.430116,-536.266849
540.081074,296.082377,-9326.594869,-919.314598
540.081399,592.164754,-9326.594869,-612.876398
540.081723,444.123565,-9326.594869,-383.047749
540.082047,148.041188,-10066.800811,0.000000
540.082371,0.000000,-10140.821405,-1991.848295
540.082695,-962.267725,-10140.821405,-919.314598
540.083019,-1258.350101,-10436.903782,-153.219100
540.083343,-740.205942,-9622.677246,153.219100
540.083667,-370.102971,-8734.430116,0.000000
540.083992,-296.082377,-9770.718434,612.876398
540.084316,0.000000,-10881.027347,76.609550
540.084640,370.102971,-10362.883188,-536.266849
540.084964,74.020594,-9622.677246,306.438199
540.085288,296.082377,-10288.862594,1302.362347
540.085612,1110.308913,-10362.883188,306.438199
540.085936,740.205942,-9548.656652,153.219100
540.086261,0.000000,-9696.697840,0.000000
540.086585,-962.267725,-10510.924376,-383.047749
540.086909,-1628.453072,-10658.965565,-1072.533697
540.087233,-2812.782580,-9844.739029,-383.047749
540.087557,-2960.823768,-9548.656652,-306.438199
540.087881,-1998.556043,-9548.656652,-842.705048
540.088205,-592.164754,-8956.491898,306.438199
540.088529,-222.061783,-10214.842000,689.485948
540.088854,518.144159,-9474.636058,383.047749
540.089178,296.082377,-8808.450710,536.266849
540.089502,0.000000,-8660.409521,995.924147
540.089826,592.164754,-9326.594869,842.705048
540.090150,1332.370696,-10584.944971,76.609550
540.090474,1554.432478,-8660.409521,306.438199
540.090798,518.144159,-8956.491898,536.266849
540.091122,0.000000,-10510.924376,-153.219100
540.091447,-148.041188,-10732.986159,-536.266849
540.091771,-1406.391290,-10658.965565,0.000000
540.092095,-2368.659014,-10214.842000,-536.266849
540.092419,-1702.473667,-9770.718434,-766.095498
540.092743,-222.061783,-9844.739029,536.266849
540.093067,666.185348,-11103.089130,1072.533697
540.093391,444.123565,-11251.130318,536.266849
540.093716,74.020594,-9622.677246,0.000000
540.094040,-370.102971,-9030.512492,306.438199
540.094364,370.102971,-9770.718434,-153.219100
540.094688,1258.350101,-9030.512492,-306.438199
540.095012,1850.514855,-7920.203579,689.485948
540.095336,2368.659014,-9104.533087,919.314598
540.095660,2590.720797,-10140.821405,459.657299
540.095984,2442.679609,-9770.718434,459.657299
540.096309,814.226536,-9326.594869,383.047749
540.096633,-222.061783,-9178.553681,-459.657299
540.096957,0.000000,-8290.306550,-612.876398
540.097281,-370.102971,-9030.512492,0.000000
540.097605,0.000000,-10066.800811,383.047749
540.097929,148.041188,-9104.533087,0.000000
540.098253,-148.041188,-7772.162391,-383.047749
540.098578,-962.267725,-8512.368333,153.219100
540.098902,-666.185348,-9474.636058,0.000000
540.099226,74.020594,-8882.471304,-536.266849
540.099550,888.247130,-7772.162391,-383.047749
540.099874,1036.288319,-9104.533087,-229.828649
540.100198,962.267725,-9844.739029,-536.266849
540.100522,296.082377,-10436.903782,-383.047749
540.100846,0.000000,-10732.986159,-383.047749
540.101171,-444.123565,-10807.006753,-766.095498
540.101495,-592.164754,-11029.068536,-612.876398
540.101819,-962.267725,-11991.336260,76.609550
540.102143,-1184.329507,-12805.562797,689.485948
540.102467,-1628.453072,-11473.192101,0.000000
540.102791,-2294.638420,-9474.636058,-229.828649
540.103115,-1776.494261,-9622.677246,0.000000
540.103439,-296.082377,-9770.718434,-153.219100
540.103764,1184.329507,-8438.347739,-1072.533697
540.104088,2146.597232,-7550.100608,-229.828649
540.104412,2664.741391,-8586.388927,-536.266849
540.104736,2812.782580,-9104.533087,-1072.533697
540.105060,2442.679609,-8586.388927,-766.095498
540.105384,740.205942,-9400.615463,-612.876398
540.105708,-148.041188,-10584.944971,-766.095498
540.106033,-1184.329507,-11029.068536,-842.705048
540.106357,-1406.391290,-11621.233289,383.047749
540.106681,-1332.370696,-11991.336260,689.485948
540.107005,-1850.514855,-11177.109724,612.876398
540.107329,-2368.659014,-10732.986159,612.876398
540.107653,-2664.741391,-10881.027347,842.705048
540.107977,-2368.659014,-10066.800811,306.438199
540.108301,-1036.288319,-8734.430116,0.000000
540.108626,-148.041188,-7846.182985,153.219100
540.108950,592.164754,-8586.388927,-459.657299
540.109274,1184.329507,-9326.594869,153.219100
540.109598,0.000000,-9474.636058,306.438199
540.109922,-592.164754,-9770.718434,0.000000
540.110246,-2072.576638,-9918.759623,0.000000
540.110570,-1850.514855,-10288.862594,76.609550
540.110895,-2146.597232,-10807.006753,919.314598
540.111219,-2294.638420,-10658.965565,842.705048
540.111543,-2294.638420,-9252.574275,1072.533697
540.111867,-1998.556043,-8216.285956,842.705048
540.112191,-2220.617826,-7698.141797,1532.190996
540.112515,-666.185348,-6735.874072,689.485948
540.112839,1332.370696,-6217.729913,919.314598
540.113163,3108.864956,-6291.750507,995.924147
540.113488,4811.338623,-7254.018232,842.705048
540.113812,5625.565159,-8142.265362,689.485948
540.114136,4441.235652,-8586.388927,383.047749
540.114460,2072.576638,-9622.677246,76.609550
540.114784,1184.329507,-10140.821405,-612.876398
540.115108,370.102971,-11029.068536,-536.266849
540.115432,-592.164754,-12731.542202,153.219100
540.115757,-1776.494261,-13101.645173,459.657299
540.116081,-1924.535449,-11547.212695,229.828649
540.116405,-1702.473667,-10881.027347,995.924147
540.116729,-962.267725,-10955.047942,995.924147
540.117053,-296.082377,-9326.594869,1149.143247
540.117377,518.144159,-7698.141797,383.047749
540.117701,444.123565,-7031.956449,229.828649
540.118025,1332.370696,-7994.224174,-459.657299
540.118350,2220.617826,-8290.306550,-766.095498
540.118674,2368.659014,-8586.388927,-536.266849
540.118998,1924.535449,-9474.636058,-612.876398
540.119322,1702.473667,-9622.677246,-1225.752797
540.119646,1332.370696,-10214.842000,-1072.533697
540.119970,222.061783,-12065.356855,0.000000
540.120294,-888.247130,-12805.562797,76.609550
540.120618,-1554.432478,-11621.233289,0.000000
540.120943,-2664.741391,-10732.986159,0.000000
540.121267,-2664.741391,-10436.903782,153.219100
540.121591,-1554.432478,-9696.697840,0.000000
540.121915,-740.205942,-7846.182985,-689.485948
540.122239,0.000000,-7994.224174,383.047749
540.122563,740.205942,-9030.512492,-536.266849
540.122887,962.267725,-9696.697840,-1378.971896
540.123212,-222.061783,-9178.553681,-612.876398
540.123536,0.000000,-10214.842000,-995.924147
540.123860,370.102971,-10807.006753,-2374.896044
540.124184,-148.041188,-10732.986159,-1838.629195
540.124508,-592.164754,-12139.377449,0.000000
540.124832,-1258.350101,-12509.480420,-229.828649
540.125156,-2368.659014,-12065.356855,-612.876398
540.125480,-3701.029710,-10732.986159,-153.219100
540.125805,-3701.029710,-9400.615463,-383.047749
540.126129,-2220.617826,-8512.368333,-612.876398
540.126453,-444.123565,-7476.080014,766.095498
540.126777,888.247130,-7179.997637,459.657299
540.127101,3108.864956,-6587.832884,0.000000
540.127425,4663.297435,-5921.647536,-229.828649
540.127749,4589.276840,-6587.832884,-229.828649
540.128074,3923.091493,-8586.388927,-536.266849
540.128398,2812.782580,-9104.533087,-995.924147
540.128722,1480.411884,-9844.739029,-229.828649
540.129046,-148.041188,-11917.315666,459.657299
540.129370,-814.226536,-12213.398043,0.000000
540.129694,-2146.597232,-11621.233289,229.828649
540.130018,-3997.112087,-11103.089130,153.219100
540.130342,-4145.153275,-10955.047942,229.828649
540.130667,-2590.720797,-10066.800811,842.705048
540.130991,-1406.391290,-8660.409521,1225.752797
540.131315,-1036.288319,-7328.038826,766.095498
540.131639,-518.144159,-6957.935855,306.438199
540.131963,-148.041188,-6513.812290,-995.924147
540.132287,0.000000,-7846.182985,-383.047749
540.132611,370.102971,-9548.656652,-536.266849
540.132935,1702.473667,-9622.677246,-612.876398
540.133260,1702.473667,-10214.842000,536.266849
540.133584,296.082377,-11917.315666,229.828649
540.133908,-1036.288319,-12435.459826,0.000000
540.134232,-2368.659014,-11843.295072,0.000000
540.134556,-3330.926739,-11399.171507,383.047749
540.134880,-2738.761985,-11029.068536,766.095498
540.135204,-1406.391290,-9918.759623,766.095498
540.135529,-296.082377,-8734.430116,1455.581446
540.135853,518.144159,-7698.141797,1378.971896
540.136177,1110.308913,-7994.224174,383.047749
540.136501,962.267725,-7550.100608,-153.219100
540.136825,888.247130,-7624.121203,-842.705048
540.137149,2072.576638,-8438.347739,-842.705048
540.137473,3256.906145,-9326.594869,-842.705048
540.137797,2886.803174,-11251.130318,-1072.533697
540.138122,1110.308913,-13101.645173,-766.095498
540.138446,0.000000,-12509.480420,-306.438199
540.138770,-1036.288319,-12509.480420,0.000000
540.139094,-1924.535449,-12731.542202,536.266849
540.139418,-1480.411884,-12213.398043,0.000000
540.139742,-148.041188,-10584.944971,536.266849
540.140066,888.247130,-9844.739029,919.314598
540.140391,1258.350101,-9474.636058,1225.752797
540.140715,2146.597232,-7698.141797,76.609550
540.141039,1850.514855,-6661.853478,995.924147
540.141363,888.247130,-6661.853478,-459.657299
540.141687,1332.370696,-7254.018232,-536.266849
540.142011,2072.576638,-8068.244768,-842.705048
540.142335,2294.638420,-9400.615463,-306.438199
540.142659,1850.514855,-11177.109724,0.000000
540.142984,1036.288319,-10881.027347,-153.219100
540.143308,-1554.432478,-10436.903782,-383.047749
540.143632,-3923.091493,-9696.697840,76.609550
540.143956,-3478.967927,-9918.759623,76.609550
540.144280,-2368.659014,-9326.594869,76.609550
540.144604,-888.247130,-8586.388927,995.924147
540.144928,74.020594,-8216.285956,1302.362347
540.145253,1406.391290,-7550.100608,995.924147
540.145577,1850.514855,-6513.812290,306.438199
540.145901,1258.350101,-7031.956449,536.266849
540.146225,1258.350101,-7402.059420,229.828649
540.146549,1184.329507,-8142.265362,-306.438199
540.146873,814.226536,-9844.739029,536.266849
540.147197,444.123565,-11695.253884,0.000000
540.147521,-518.144159,-11769.274478,-766.095498
540.147846,-2516.700203,-11621.233289,-919.314598
540.148170,-3849.070898,-12509.480420,153.219100
540.148494,-3478.967927,-11325.150913,76.609550
540.148818,-1850.514855,-9844.739029,306.438199
540.149142,-444.123565,-10510.924376,1072.533697
540.149466,888.247130,-10214.842000,536.266849
540.149790,1850.514855,-8956.491898,536.266849
540.150114,1998.556043,-8068.244768,536.266849
540.150439,2220.617826,-8586.388927,76.609550
540.150763,2590.720797,-8290.306550,0.000000
540.151087,2516.700203,-8660.409521,229.828649
540.151411,1776.494261,-10584.944971,153.219100
540.151735,740.205942,-11843.295072,-919.314598
540.152059,-962.267725,-11917.315666,-919.314598
540.152383,-3034.844362,-12139.377449,-995.924147
540.152708,-4515.256246,-11769.274478,-689.485948
540.153032,-4145.153275,-10288.862594,-612.876398
540.153356,-2368.659014,-9918.759623,-842.705048
540.153680,-2146.597232,-9770.718434,306.438199
540.154004,-1110.308913,-10066.800811,842.705048
540.154328,222.061783,-8364.327145,229.828649
540.154652,962.267725,-7550.100608,459.657299
540.154976,1924.535449,-8364.327145,842.705048
540.155301,2590.720797,-7698.141797,0.000000
540.155625,3182.885551,-7920.203579,0.000000
540.155949,2368.659014,-9178.553681,229.828649
540.156273,1924.535449,-11029.068536,-229.828649
540.156597,296.082377,-11621.233289,-383.047749
540.156921,-1924.535449,-10732.986159,0.000000
540.157245,-4145.153275,-10288.862594,-1149.143247
540.157569,-4367.215058,-9178.553681,-766.095498
540.157893,-3552.988522,-9178.553681,-306.438199
540.158217,-2368.659014,-9474.636058,689.485948
540.158541,-1184.329507,-8364.327145,1225.752797
540.158865,-296.082377,-7031.956449,612.876398
540.159190,666.185348,-6291.750507,689.485948
540.159514,1258.350101,-6957.935855,-383.047749
540.159838,1998.556043,-7328.038826,-689.485948
540.160162,2590.720797,-8068.244768,-153.219100
540.160486,3256.906145,-10288.862594,229.828649
540.160810,2960.823768,-11695.253884,0.000000
540.161134,2516.700203,-11695.253884,-842.705048
540.161458,148.041188,-12435.459826,-1149.143247
540.161782,-1406.391290,-12953.603985,-1378.971896
540.162106,-2294.638420,-12287.418637,-1378.971896
540.162430,-2146.597232,-11399.171507,-536.266849
540.162754,-1776.494261,-11473.192101,383.047749
540.163078,-592.164754,-10658.965565,-153.219100
540.163402,0.000000,-9104.533087,-306.438199
540.163726,-518.144159,-8586.388927,-306.438199
540.164050,74.020594,-8068.244768,-306.438199
540.164374,1036.288319,-7402.059420,-995.924147
540.164699,1776.494261,-7624.121203,-229.828649
540.165023,2294.638420,-9178.553681,-229.828649
540.165347,2368.659014,-10362.883188,-842.705048
540.165671,1258.350101,-10807.006753,-689.485948
540.165995,74.020594,-11029.068536,-306.438199
540.166319,-1850.514855,-10807.006753,-1608.800546
540.166643,-2146.597232,-10066.800811,-919.314598
540.166967,-2294.638420,-10658.965565,153.219100
540.167291,-1554.432478,-11695.253884,383.047749
540.167615,-740.205942,-10436.903782,0.000000
540.167939,-148.041188,-8290.306550,383.047749
540.168263,0.000000,-8068.244768,1072.533697
540.168587,1406.391290,-7920.203579,-153.219100
540.168911,2368.659014,-7254.018232,76.609550
540.169235,2664.741391,-7772.162391,383.047749
540.169559,2442.679609,-9622.677246,76.609550
540.169884,1850.514855,-10732.986159,-536.266849
540.170208,74.020594,-10584.944971,-919.314598
540.170532,-1184.329507,-10881.027347,-306.438199
540.170856,-1480.411884,-11473.192101,-1225.752797
540.171180,-1998.556043,-10510.924376,-459.657299
540.171504,-2072.576638,-10955.047942,0.000000
540.171828,-1332.370696,-10881.027347,689.485948
540.172152,0.000000,-10362.883188,459.657299
540.172476,0.000000,-8438.347739,919.314598
540.172800,-444.123565,-7402.059420,1149.143247
540.173124,0.000000,-7254.018232,459.657299
540.173448,370.102971,-7402.059420,76.609550
540.173772,2146.597232,-8068.244768,459.657299
540.174096,2590.720797,-9178.553681,1378.971896
540.174420,3108.864956,-9696.697840,612.876398
540.174744,1406.391290,-10362.883188,612.876398
540.175068,-518.144159,-11325.150913,306.438199
540.175393,-1702.473667,-11177.109724,-153.219100
540.175717,-1924.535449,-11029.068536,-766.095498
540.176041,-2220.617826,-11547.212695,995.924147
540.176365,-2072.576638,-11103.089130,459.657299
540.176689,-1850.514855,-9696.697840,536.266849
540.177013,-2738.761985,-8586.388927,612.876398
540.177337,-3256.906145,-8586.388927,689.485948
540.177661,-1998.556043,-8586.388927,459.657299
540.177985,-814.226536,-7846.182985,612.876398
540.178309,518.144159,-8142.265362,1762.019645
540.178633,1924.535449,-8882.471304,1149.143247
540.178957,1850.514855,-9178.553681,612.876398
540.179281,148.041188,-9548.656652,0.000000
540.179605,-592.164754,-10658.965565,-383.047749
540.179929,-592.164754,-11029.068536,-306.438199
540.180253,-222.061783,-11251.130318,-306.438199
540.180578,-1258.350101,-11251.130318,0.000000
540.180902,-1332.370696,-11103.089130,76.609550
540.181226,-666.185348,-10510.924376,0.000000
540.181550,-888.247130,-10288.862594,153.219100
540.181874,-814.226536,-9844.739029,229.828649
540.182198,518.144159,-8216.285956,0.000000
540.182522,1776.494261,-7402.059420,0.000000
540.182846,2442.679609,-8660.409521,153.219100
540.183170,3182.885551,-10362.883188,766.095498
540.183494,2738.761985,-10066.800811,-153.219100
540.183818,1184.329507,-9252.574275,-536.266849
540.184142,0.000000,-9622.677246,-1378.971896
540.184466,0.000000,-10732.986159,-1915.238745
540.184790,740.205942,-11029.068536,-1378.971896
540.185114,148.041188,-11399.171507,-536.266849
540.185438,-370.102971,-10807.006753,0.000000
540.185762,0.000000,-10066.800811,0.000000
540.186087,-592.164754,-9696.697840,-536.266849
540.186411,-962.267725,-9252.574275,229.828649
540.186735,74.020594,-7550.100608,-459.657299
540.187059,1258.350101,-6809.894666,-612.876398
540.187383,1554.432478,-7698.141797,0.000000
540.187707,1998.556043,-8808.450710,-383.047749
540.188031,1628.453072,-7994.224174,-689.485948
540.188355,370.102971,-8290.306550,-1608.800546
540.188679,-518.144159,-9696.697840,-2145.067394
540.189003,-888.247130,-10288.862594,-1838.629195
540.189327,-740.205942,-10881.027347,-1302.362347
540.189651,-962.267725,-11547.212695,-919.314598
540.189975,-814.226536,-11251.130318,-612.876398
540.190299,-1110.308913,-11177.109724,-306.438199
540.190623,-1332.370696,-11251.130318,-306.438199
540.190947,-1850.514855,-9992.780217,0.000000
540.191272,-962.267725,-8142.265362,-612.876398
540.191596,0.000000,-8586.388927,0.000000
540.191920,814.226536,-10436.903782,383.047749
540.192244,1184.329507,-10362.883188,0.000000
540.192568,1036.288319,-8512.368333,-1072.533697
540.192892,222.061783,-8808.450710,-842.705048
540.193216,-370.102971,-10584.944971,-1455.581446
540.193540,74.020594,-11547.212695,-1225.752797
540.193864,-444.123565,-11177.109724,-459.657299
540.194188,-814.226536,-11399.171507,0.000000
540.194512,-814.226536,-11547.212695,-612.876398
540.194836,-592.164754,-11843.295072,-383.047749
540.195160,-888.247130,-10214.842000,689.485948
540.195484,0.000000,-9178.553681,306.438199
540.195808,1332.370696,-8438.347739,995.924147
540.196132,1776.494261,-9474.636058,1608.800546
540.196456,1110.308913,-10214.842000,1915.238745
540.196781,444.123565,-9474.636058,459.657299
540.197105,-148.041188,-7772.162391,0.000000
540.197429,-962.267725,-8956.491898,842.705048
540.197753,-296.082377,-10214.842000,536.266849
540.198077,0.000000,-9178.553681,306.438199
540.198401,-222.061783,-8586.388927,919.314598
540.198725,-148.041188,-9326.594869,1149.143247
540.199049,-740.205942,-10214.842000,842.705048
540.199373,-1924.535449,-9696.697840,689.485948
540.199697,-2368.659014,-8660.409521,1608.800546
540.200021,-1406.391290,-8586.388927,1455.581446
540.200345,-222.061783,-8290.306550,1685.410096
540.200669,370.102971,-8512.368333,1762.019645
540.200993,1036.288319,-8956.491898,2374.896044
540.201317,1628.453072,-8586.388927,1991.848295
540.201641,1406.391290,-8290.306550,1149.143247
540.201965,296.082377,-8290.306550,1149.143247
540.202290,296.082377,-8808.450710,689.485948
540.202614,444.123565,-8956.491898,0.000000
540.202938,148.041188,-9400.615463,0.000000
540.203262,0.000000,-9696.697840,76.609550
540.203586,0.000000,-10658.965565,0.000000
540.203910,-1110.308913,-10658.965565,0.000000
540.204234,-1702.473667,-10955.047942,689.485948
540.204558,-1924.535449,-10362.883188,306.438199
540.204882,-962.267725,-9844.739029,0.000000
540.205206,-666.185348,-10658.965565,459.657299
540.205530,0.000000,-10658.965565,689.485948
540.205854,814.226536,-9770.718434,383.047749
540.206178,0.000000,-9178.553681,0.000000
540.206502,518.144159,-10066.800811,76.609550
540.206826,1036.288319,-9622.677246,-612.876398
540.207150,1924.535449,-9548.656652,-995.924147
540.207475,1998.556043,-10214.842000,-612.876398
540.207799,1998.556043,-11103.089130,-612.876398
540.208123,1998.556043,-11029.068536,-1072.533697
540.208447,740.205942,-10732.986159,-383.047749
540.208771,-518.144159,-11103.089130,0.000000
540.209095,-370.102971,-10584.944971,-919.314598
540.209419,-370.102971,-10362.883188,-459.657299
540.209743,-814.226536,-10362.883188,0.000000
540.210067,-1110.308913,-9918.759623,-306.438199
540.210391,-1332.370696,-8438.347739,-1302.362347
540.210715,-1776.494261,-7624.121203,-612.876398
540.211039,-1406.391290,-8364.327145,-459.657299
540.211363,-370.102971,-8290.306550,-919.314598
540.211687,1258.350101,-7624.121203,-842.705048
540.212011,1406.391290,-8290.306550,-689.485948
540.212335,1258.350101,-9400.615463,-1225.752797
540.212659,888.247130,-9992.780217,-1378.971896
540.212984,-148.041188,-10288.862594,-842.705048
540.213308,-1406.391290,-9992.780217,-689.485948
540.213632,-740.205942,-9992.780217,-1072.533697
540.213956,-222.061783,-9548.656652,-995.924147
540.214280,-666.185348,-10214.842000,0.000000
540.214604,-518.144159,-10362.883188,-229.828649
540.214928,-740.205942,-9770.718434,-1225.752797
540.215252,-1628.453072,-8882.471304,-383.047749
540.215576,-1776.494261,-8956.491898,-229.828649
540.215900,0.000000,-8438.347739,-1378.971896
540.216224,1406.391290,-7994.224174,-1378.971896
540.216548,2294.638420,-9474.636058,-536.266849
540.216872,3182.885551,-10807.006753,-766.095498
540.217196,2812.782580,-11621.233289,-842.705048
540.217520,814.226536,-11177.109724,-612.876398
540.217844,-666.185348,-11473.192101,-995.924147
540.218169,-2368.659014,-11029.068536,-1915.238745
540.218493,-2590.720797,-11473.192101,-766.095498
540.218817,-2220.617826,-12213.398043,153.219100
540.219141,-1702.473667,-11473.192101,76.609550
540.219465,-1924.535449,-9252.574275,-612.876398
540.219789,-2738.761985,-8290.306550,-229.828649
540.220113,-1998.556043,-8882.471304,-766.095498
540.220437,-296.082377,-8882.471304,-536.266849
540.220761,296.082377,-7328.038826,0.000000
540.221085,1332.370696,-8216.285956,842.705048
540.221409,2516.700203,-9474.636058,536.266849
540.221733,2220.617826,-9622.677246,0.000000
540.222057,0.000000,-9918.759623,153.219100
540.222381,-1776.494261,-10214.842000,-383.047749
540.222705,-1776.494261,-10436.903782,0.000000
540.223029,-1332.370696,-10732.986159,1455.581446
540.223353,-1184.329507,-11473.192101,1762.019645
540.223678,-1110.308913,-9770.718434,1225.752797
540.224002,-1258.350101,-8586.388927,1072.533697
540.224326,-1184.329507,-9030.512492,919.314598
540.224650,-888.247130,-8734.430116,842.705048
540.224974,740.205942,-6883.915261,1072.533697
540.225298,1924.535449,-6069.688724,1302.362347
540.225622,2812.782580,-7698.141797,1225.752797
540.225946,3034.844362,-8956.491898,536.266849
540.226270,1702.473667,-9770.718434,76.609550
540.226594,-296.082377,-10362.883188,153.219100
540.226918,-666.185348,-11177.109724,0.000000
540.227242,-148.041188,-11251.130318,0.000000
540.227566,222.061783,-11547.212695,995.924147
540.227890,-296.082377,-11695.253884,1455.581446
540.228214,-592.164754,-10584.944971,919.314598
540.228538,-592.164754,-10140.821405,1149.143247
540.228863,-666.185348,-10140.821405,1455.581446
540.229187,148.041188,-9548.656652,1225.752797
540.229511,1110.308913,-7698.141797,459.657299
540.229835,2146.597232,-6809.894666,612.876398
540.230159,2146.597232,-7402.059420,383.047749
540.230483,2368.659014,-9104.533087,-459.657299
540.230807,1554.432478,-8956.491898,-153.219100
540.231131,296.082377,-9326.594869,-153.219100
540.231455,74.020594,-9696.697840,-459.657299
540.231779,-296.082377,-9696.697840,-842.705048
540.232103,-1924.535449,-10436.903782,-612.876398
540.232427,-3034.844362,-10732.986159,-689.485948
540.232751,-2146.597232,-10288.862594,-536.266849
540.233075,-1850.514855,-10288.862594,459.657299
540.233399,-1406.391290,-9918.759623,766.095498
540.233723,-148.041188,-8882.471304,995.924147
540.234047,1258.350101,-7846.182985,612.876398
540.234372,1998.556043,-7994.224174,0.000000
540.234696,2220.617826,-7920.203579,-383.047749
540.235020,2368.659014,-8364.327145,-766.095498
540.235344,1628.453072,-8586.388927,-1378.971896
540.235668,444.123565,-8808.450710,-1378.971896
540.235992,0.000000,-9918.759623,-2068.457845
540.236316,-666.185348,-10881.027347,-2374.896044
540.236640,-1554.432478,-12435.459826,-1991.848295
540.236964,-2368.659014,-12435.459826,-2145.067394
540.237288,-2146.597232,-11325.150913,-2298.286494
540.237612,-3627.009116,-10362.883188,-1302.362347
540.237936,-3478.967927,-11473.192101,-689.485948
540.238260,-2146.597232,-11251.130318,-842.705048
540.238584,444.123565,-9548.656652,0.000000
540.238908,3034.844362,-9326.594869,306.438199
540.239232,4441.235652,-10066.800811,0.000000
540.239556,4441.235652,-9326.594869,-153.219100
540.239881,3627.009116,-8364.327145,-459.657299
540.240205,2812.782580,-9992.780217,-1991.848295
540.240529,1184.329507,-11325.150913,-1838.629195
540.240853,-518.144159,-11769.274478,-1608.800546
540.241177,-2146.597232,-11991.336260,-1838.629195
540.241501,-3404.947333,-12213.398043,-1608.800546
540.241825,-3849.070898,-10807.006753,-1302.362347
540.242149,-4293.194464,-9844.739029,-1149.143247
540.242473,-4663.297435,-8956.491898,-153.219100
540.242797,-3552.988522,-8364.327145,766.095498
540.243121,-1110.308913,-7402.059420,1762.019645
540.243445,1110.308913,-7920.203579,1991.848295
540.243769,1998.556043,-7698.141797,1838.629195
540.244093,2516.700203,-7105.977043,1608.800546
540.244417,3404.947333,-6957.935855,1915.238745
540.244741,3182.885551,-7179.997637,1149.143247
540.245066,2294.638420,-7624.121203,76.609550
540.245390,740.205942,-9474.636058,-383.047749
540.245714,-518.144159,-11843.295072,-459.657299
540.246038,-2146.597232,-12139.377449,-229.828649
540.246362,-4293.194464,-10955.047942,229.828649
540.246686,-5625.565159,-10066.800811,536.266849
540.247010,-6291.750507,-9474.636058,229.828649
540.247334,-4441.235652,-7846.182985,0.000000
540.247658,-1332.370696,-7105.977043,919.314598
540.247982,1332.370696,-8734.430116,2145.067394
540.248306,2368.659014,-8734.430116,1685.410096
540.248630,2442.679609,-7254.018232,1685.410096
540.248954,2516.700203,-6809.894666,1455.581446
540.249278,2590.720797,-8290.306550,0.000000
540.249602,2368.659014,-10584.944971,76.609550
540.249926,2442.679609,-11917.315666,-842.705048
540.250250,3034.844362,-13027.624579,-306.438199
540.250575,1998.556043,-13989.892304,306.438199
540.250899,0.000000,-13175.665768,0.000000
540.251223,-2664.741391,-12583.501014,-306.438199
540.251547,-3849.070898,-12139.377449,-612.876398
540.251871,-3108.864956,-9770.718434,-612.876398
540.252195,-888.247130,-9474.636058,0.000000
540.252519,1406.391290,-9252.574275,1072.533697
540.252843,3034.844362,-8438.347739,1532.190996
540.253167,3478.967927,-7105.977043,995.924147
540.253491,2294.638420,-7031.956449,76.609550
540.253815,962.267725,-7698.141797,-919.314598
540.254139,1184.329507,-8364.327145,-1072.533697
540.254463,2590.720797,-9844.739029,-689.485948
540.254787,3108.864956,-11843.295072,-76.609550
540.255111,2664.741391,-12509.480420,306.438199
540.255435,518.144159,-11843.295072,0.000000
540.255760,-1850.514855,-11843.295072,-153.219100
540.256084,-3330.926739,-10881.027347,-536.266849
540.256408,-2664.741391,-8956.491898,-766.095498
540.256732,-1258.350101,-8290.306550,1532.190996
540.257056,518.144159,-7994.224174,1915.238745
540.257380,1332.370696,-7254.018232,1149.143247
540.257704,740.205942,-6069.688724,459.657299
540.258028,518.144159,-5847.626942,-306.438199
540.258352,1036.288319,-6513.812290,-919.314598
540.258676,1924.535449,-6661.853478,-612.876398
540.259000,1998.556043,-8660.409521,459.657299
540.259324,1702.473667,-10807.006753,-153.219100
540.259648,74.020594,-11769.274478,-995.924147
540.259972,-1850.514855,-12139.377449,-1455.581446
540.260296,-3108.864956,-12065.356855,-1072.533697
540.260620,-3034.844362,-11621.233289,-995.924147
540.260945,-1776.494261,-10658.965565,-459.657299
540.261269,-296.082377,-9844.739029,153.219100
540.261593,148.041188,-9844.739029,612.876398
540.261917,1332.370696,-10140.821405,766.095498
540.262241,1702.473667,-9030.512492,536.266849
540.262565,1332.370696,-8734.430116,76.609550
540.262889,1184.329507,-8512.368333,-383.047749
540.263213,1406.391290,-9030.512492,-689.485948
540.263537,1036.288319,-10955.047942,-689.485948
540.263861,518.144159,-12361.439231,-1225.752797
540.264185,-296.082377,-12657.521608,-995.924147
540.264509,-1776.494261,-12139.377449,-1149.143247
540.264833,-2960.823768,-12583.501014,-689.485948
540.265157,-3701.029710,-11399.171507,-842.705048
540.265481,-3701.029710,-9844.739029,-536.266849
540.265805,-3330.926739,-9770.718434,-229.828649
540.266129,-2146.597232,-9474.636058,0.000000
540.266454,-444.123565,-8142.265362,612.876398
540.266778,1110.308913,-6513.812290,919.314598
540.267102,1628.453072,-6439.791695,1149.143247
540.267426,1924.535449,-7105.977043,383.047749
540.267750,1998.556043,-7254.018232,-229.828649
540.268074,1332.370696,-8734.430116,0.000000
540.268398,1110.308913,-10955.047942,-153.219100
540.268722,666.185348,-11547.212695,-995.924147
540.269046,-962.267725,-10881.027347,-842.705048
540.269370,-2368.659014,-11251.130318,-383.047749
540.269694,-3034.844362,-11177.109724,-995.924147
540.270018,-2812.782580,-11103.089130,-1072.533697
540.270342,-2960.823768,-10732.986159,-306.438199
540.270666,-2072.576638,-9770.718434,76.609550
540.270990,-518.144159,-7920.203579,612.876398
540.271314,1036.288319,-7402.059420,689.485948
540.271639,1998.556043,-7550.100608,306.438199
540.271963,2368.659014,-6883.915261,-459.657299
540.272287,2590.720797,-7550.100608,0.000000
540.272611,3256.906145,-9696.697840,76.609550
540.272935,3627.009116,-11621.233289,-383.047749
540.273259,2664.741391,-11399.171507,-536.266849
540.273583,1110.308913,-11621.233289,0.000000
540.273907,-740.205942,-12805.562797,0.000000
540.274231,-1628.453072,-12879.583391,-1685.410096
540.274555,-1628.453072,-11325.150913,-536.266849
540.274879,-1702.473667,-10658.965565,306.438199
540.275203,-296.082377,-9770.718434,383.047749
540.275527,592.164754,-7994.224174,612.876398
540.275851,370.102971,-7254.018232,1685.410096
540.276175,444.123565,-6957.935855,842.705048
540.276499,1184.329507,-6069.688724,-229.828649
540.276824,1184.329507,-5255.462188,76.609550
540.277148,888.247130,-7105.977043,0.000000
540.277472,814.226536,-8808.450710,-536.266849
540.277796,444.123565,-9400.615463,-766.095498
540.278120,-296.082377,-10140.821405,689.485948
540.278444,-888.247130,-10955.047942,0.000000
540.278768,-1628.453072,-10881.027347,-612.876398
540.279092,-1850.514855,-10584.944971,-536.266849
540.279416,-1628.453072,-9992.780217,536.266849
540.279740,0.000000,-10288.862594,612.876398
540.280064,222.061783,-9770.718434,612.876398
540.280388,-222.061783,-8956.491898,1455.581446
540.280712,1184.329507,-8364.327145,1455.581446
540.281036,2590.720797,-7846.182985,-612.876398
540.281360,2220.617826,-8142.265362,-306.438199
540.281684,1702.473667,-9622.677246,-153.219100
540.282009,1628.453072,-11917.315666,-766.095498
540.282333,0.000000,-11917.315666,-1225.752797
540.282657,-1924.535449,-11547.212695,-766.095498
540.282981,-2664.741391,-11917.315666,-1455.581446
540.283305,-1998.556043,-12657.521608,-2604.724693
540.283629,-2516.700203,-11547.212695,-1302.362347
540.283953,-2368.659014,-11843.295072,459.657299
540.284277,-814.226536,-11695.253884,153.219100
540.284601,-296.082377,-10436.903782,0.000000
540.284925,0.000000,-8808.450710,536.266849
540.285249,1480.411884,-7772.162391,459.657299
540.285573,3182.885551,-8512.368333,0.000000
540.285897,3923.091493,-8734.430116,229.828649
540.286221,3627.009116,-9326.594869,612.876398
540.286545,3478.967927,-9770.718434,383.047749
540.286869,1628.453072,-10436.903782,-919.314598
540.287194,-1258.350101,-10881.027347,-536.266849
540.287518,-2368.659014,-11177.109724,-1149.143247
540.287842,-2886.803174,-10807.006753,-1149.143247
540.288166,-3627.009116,-10436.903782,-383.047749
540.288490,-3923.091493,-10362.883188,459.657299
540.288814,-2812.782580,-9474.636058,1072.533697
540.289138,-2294.638420,-8660.409521,76.609550
540.289462,-2664.741391,-7550.100608,1149.143247
540.289786,-1480.411884,-6735.874072,1302.362347
540.290110,814.226536,-6957.935855,1378.971896
540.290434,2294.638420,-7402.059420,2221.676944
540.290758,2516.700203,-7254.018232,1915.238745
540.291082,1998.556043,-7105.977043,1149.143247
540.291406,444.123565,-8290.306550,229.828649
540.291730,-1480.411884,-9474.636058,0.000000
540.292054,-1998.556043,-9770.718434,-689.485948
540.292379,-1702.473667,-9992.780217,-459.657299
540.292703,-1850.514855,-11103.089130,153.219100
540.293027,-1998.556043,-11251.130318,-306.438199
540.293351,-1480.411884,-9770.718434,536.266849
540.293675,-1480.411884,-9252.574275,306.438199
540.293999,-814.226536,-8808.450710,766.095498
540.294323,296.082377,-8068.244768,0.000000
540.294647,1702.473667,-6809.894666,383.047749
540.294971,2812.782580,-7846.182985,536.266849
540.295295,3182.885551,-9992.780217,76.609550
540.295619,3108.864956,-10362.883188,-1072.533697
540.295943,2146.597232,-9992.780217,-919.314598
540.296267,962.267725,-11621.233289,-1608.800546
540.296591,296.082377,-12139.377449,-2451.505594
540.296915,-814.226536,-12805.562797,-2068.457845
540.297239,-1998.556043,-13545.768739,-1762.019645
540.297564,-2368.659014,-13397.727550,-1915.238745
540.297888,-2220.617826,-12139.377449,-1762.019645
540.298212,-2294.638420,-10436.903782,-1685.410096
540.298536,-1998.556043,-9400.615463,-919.314598
540.298860,-740.205942,-9474.636058,-1302.362347
540.299184,518.144159,-8808.450710,-766.095498
540.299508,2072.576638,-8438.347739,-306.438199
540.299832,2738.761985,-8512.368333,-536.266849
540.300156,2368.659014,-8660.409521,-689.485948
540.300480,222.061783,-8364.327145,-2451.505594
540.300804,-1184.329507,-9992.780217,-2298.286494
540.301128,-2442.679609,-10658.965565,-2604.724693
540.301452,-2738.761985,-11029.068536,-3217.601092
540.301776,-2812.782580,-9992.780217,-2911.162892
540.302100,-2812.782580,-9992.780217,-1685.410096
540.302424,-2220.617826,-10362.883188,-2221.676944
540.302749,-2368.659014,-9178.553681,-1685.410096
540.303073,-3108.864956,-7920.203579,-612.876398
540.303397,-2368.659014,-7698.141797,-1072.533697
540.303721,-1776.494261,-8364.327145,-1532.190996
540.304045,-1332.370696,-8438.347739,-1302.362347
540.304369,-518.144159,-8956.491898,-612.876398
540.304693,0.000000,-9918.759623,-1225.752797
540.305017,-518.144159,-8808.450710,-2374.896044
540.305341,-2368.659014,-7105.977043,-2681.334243
540.305665,-3552.988522,-8290.306550,-2604.724693
540.305989,-4515.256246,-11399.171507,-3294.210641
540.306313,-4367.215058,-11991.336260,-3677.258390
540.306637,-3701.029710,-10807.006753,-2221.676944
540.306961,-2664.741391,-10436.903782,-1532.190996
540.307285,-2368.659014,-11399.171507,-2221.676944
