#time,accel_x,accel_y,accel_z
1007.138802,-370.102971,-9474.636058,0.000000
1007.139126,-444.123565,-9104.533087,0.000000
1007.139450,0.000000,-9696.697840,689.485948
1007.139774,0.000000,-9696.697840,-153.219100
1007.140098,-518.144159,-9548.656652,-153.219100
1007.140422,0.000000,-9622.677246,0.000000
1007.140746,-222.061783,-9696.697840,0.000000
1007.141070,-148.041188,-9770.718434,0.000000
1007.141394,-222.061783,-10066.800811,-229.828649
1007.141718,0.000000,-9548.656652,153.219100
1007.142042,0.000000,-9622.677246,0.000000
1007.142366,0.000000,-9474.636058,0.000000
1007.142690,-222.061783,-9548.656652,76.609550
1007.143014,0.000000,-9770.718434,76.609550
1007.143338,74.020594,-9844.739029,-229.828649
1007.143662,148.041188,-9548.656652,383.047749
1007.143986,444.123565,-9696.697840,0.000000
1007.144310,296.082377,-9770.718434,0.000000
1007.144634,-222.061783,-9178.553681,76.609550
1007.144958,-222.061783,-9770.718434,0.000000
1007.145282,-370.102971,-9474.636058,-383.047749
1007.145606,-296.082377,-9844.739029,-153.219100
1007.145930,0.000000,-9548.656652,0.000000
1007.146254,444.123565,-9326.594869,-229.828649
1007.146578,222.061783,-9622.677246,0.000000
1007.146902,-518.144159,-9474.636058,306.438199
1007.147226,-518.144159,-9770.718434,153.219100
1007.147550,-444.123565,-9696.697840,536.266849
1007.147874,-148.041188,-9622.677246,153.219100
1007.148198,296.082377,-9178.553681,0.000000
1007.148522,888.247130,-9178.553681,842.705048
1007.148846,1110.308913,-9696.697840,0.000000
1007.149170,296.082377,-9770.718434,-612.876398
1007.149494,-592.164754,-9918.759623,612.876398
1007.149818,-444.123565,-10140.821405,0.000000
1007.150142,-740.205942,-9844.739029,0.000000
1007.150466,-1036.288319,-9696.697840,-306.438199
1007.150790,-1628.453072,-9548.656652,0.000000
1007.151114,-1332.370696,-9770.718434,76.609550
1007.151438,-296.082377,-8882.471304,306.438199
1007.151762,0.000000,-8438.347739,1302.362347
1007.152086,888.247130,-8882.471304,689.485948
1007.152410,296.082377,-9474.636058,919.314598
1007.152734,-148.041188,-10140.821405,689.485948
1007.153058,-1702.473667,-9992.780217,0.000000
1007.153382,-2812.782580,-10362.883188,-229.828649
1007.153706,-3330.926739,-10436.903782,-459.657299
1007.154030,-2886.803174,-10881.027347,76.609550
1007.154354,-2368.659014,-10584.944971,536.266849
1007.154678,-2072.576638,-9992.780217,536.266849
1007.155002,-1702.473667,-9178.553681,612.876398
1007.155326,-1036.288319,-8734.430116,919.314598
1007.155650,74.020594,-8956.491898,1149.143247
1007.155974,592.164754,-9622.677246,1685.410096
1007.156298,-296.082377,-9696.697840,1532.190996
1007.156622,-1702.473667,-9992.780217,1532.190996
1007.156946,-2516.700203,-10288.862594,1225.752797
1007.157270,-2664.741391,-10955.047942,995.924147
1007.157594,-3404.947333,-11177.109724,1302.362347
1007.157918,-3404.947333,-11399.171507,1302.362347
1007.158242,-2886.803174,-10732.986159,1302.362347
1007.158566,-2220.617826,-9770.718434,1762.019645
1007.158890,-1406.391290,-8882.471304,1302.362347
1007.159214,-592.164754,-8438.347739,2834.553343
1007.159538,-148.041188,-8956.491898,2068.457845
1007.159862,0.000000,-9474.636058,2298.286494
1007.160186,-814.226536,-9622.677246,2604.724693
1007.160510,-1924.535449,-9992.780217,2451.505594
1007.160834,-3182.885551,-10140.821405,2681.334243
1007.161158,-4219.173869,-10881.027347,2068.457845
1007.161482,-4737.318029,-11029.068536,3140.991542
1007.161806,-5033.400406,-10732.986159,3064.381992
1007.162130,-4885.359217,-10510.924376,3447.429741
1007.162454,-4959.379811,-9548.656652,3524.039291
1007.162778,-4737.318029,-9104.533087,3370.820191
1007.163102,-4737.318029,-9252.574275,3524.039291
1007.163426,-2886.803174,-9474.636058,3983.696590
1007.163750,-1184.329507,-9104.533087,4979.620737
1007.164074,74.020594,-7846.182985,4673.182538
1007.164398,740.205942,-7772.162391,4749.792088
1007.164722,962.267725,-7846.182985,4213.525239
1007.165046,518.144159,-7994.224174,4213.525239
1007.165370,-814.226536,-7994.224174,3370.820191
1007.165694,-2590.720797,-7328.038826,2221.676944
1007.166018,-4959.379811,-7105.977043,919.314598
1007.166342,-6957.935855,-9030.512492,1149.143247
1007.166666,-6513.812290,-11621.233289,1685.410096
1007.166990,-5403.503377,-11029.068536,1455.581446
1007.167314,-4737.318029,-9474.636058,3370.820191
1007.167638,-3330.926739,-8216.285956,4749.792088
1007.167962,148.041188,-7698.141797,3753.867940
1007.168286,2294.638420,-9104.533087,4366.744339
1007.168610,3552.988522,-9474.636058,4979.620737
1007.168934,4293.194464,-10288.862594,5515.887586
1007.169258,3775.050304,-10584.944971,4749.792088
1007.169582,888.247130,-9178.553681,3600.648841
1007.169906,-1702.473667,-8290.306550,2298.286494
1007.170230,-4071.132681,-8364.327145,76.609550
1007.170554,-5403.503377,-8512.368333,-2834.553343
1007.170878,-7105.977043,-9326.594869,-3140.991542
1007.171202,-5773.606348,-10881.027347,-1608.800546
1007.171526,-2664.741391,-10955.047942,-1455.581446
1007.171850,-2368.659014,-10436.903782,0.000000
1007.172174,-3404.947333,-9844.739029,1838.629195
1007.172498,-3627.009116,-10732.986159,842.705048
1007.172822,-2812.782580,-11399.171507,306.438199
1007.173146,-814.226536,-10881.027347,2145.067394
1007.173470,2960.823768,-11325.150913,3524.039291
1007.173794,6957.935855,-12657.521608,3830.477490
1007.174118,6809.894666,-12805.562797,3370.820191
1007.174442,3182.885551,-10955.047942,2681.334243
1007.174766,-740.205942,-9622.677246,612.876398
1007.175090,-4737.318029,-9992.780217,-2298.286494
1007.175414,-7105.977043,-8660.409521,-3064.381992
1007.175738,-7476.080014,-7846.182985,-3447.429741
1007.176062,-5107.421000,-9918.759623,-2068.457845
1007.176386,-4145.153275,-11325.150913,-1991.848295
1007.176710,-4663.297435,-10436.903782,-1685.410096
1007.177034,-6143.709319,-9252.574275,-383.047749
1007.177358,-6439.791695,-7994.224174,-459.657299
1007.177682,-5699.585753,-8216.285956,-153.219100
1007.178006,-3256.906145,-9622.677246,1915.238745
1007.178330,1184.329507,-11769.274478,3140.991542
1007.178654,3997.112087,-13027.624579,3983.696590
1007.178978,2886.803174,-11769.274478,3370.820191
1007.179302,1110.308913,-9548.656652,2911.162892
1007.179626,-296.082377,-8808.450710,1915.238745
1007.179950,-1110.308913,-9474.636058,1302.362347
1007.180274,-1702.473667,-9178.553681,1532.190996
1007.180598,-2220.617826,-9326.594869,459.657299
1007.180922,-3404.947333,-8364.327145,842.705048
1007.181246,-3997.112087,-7698.141797,536.266849
1007.181570,-4293.194464,-6661.853478,766.095498
1007.181894,-3997.112087,-6587.832884,995.924147
1007.182218,-4293.194464,-7698.141797,766.095498
1007.182542,-5403.503377,-8956.491898,1455.581446
1007.182866,-5181.441594,-8956.491898,2221.676944
1007.183190,-3478.967927,-8956.491898,3217.601092
1007.183514,-1184.329507,-9178.553681,3294.210641
1007.183838,-444.123565,-9178.553681,2911.162892
1007.184162,-1184.329507,-9918.759623,2681.334243
1007.184486,-1480.411884,-11251.130318,3447.429741
1007.184810,-592.164754,-12065.356855,4366.744339
1007.185134,1110.308913,-11399.171507,4290.134789
1007.185458,1258.350101,-9844.739029,3294.210641
1007.185782,-1480.411884,-9622.677246,2987.772442
1007.186106,-4367.215058,-10288.862594,2757.943793
1007.186430,-4885.359217,-11251.130318,2374.896044
1007.186754,-4293.194464,-9992.780217,2374.896044
1007.187078,-4071.132681,-7994.224174,1685.410096
1007.187402,-4293.194464,-7328.038826,2145.067394
1007.187726,-3849.070898,-8438.347739,3294.210641
1007.188050,-2664.741391,-10288.862594,2451.505594
1007.188374,-2886.803174,-10140.821405,2834.553343
1007.188698,-4071.132681,-9104.533087,2145.067394
1007.189022,-3552.988522,-8956.491898,2374.896044
1007.189346,-1480.411884,-10288.862594,3140.991542
1007.189670,592.164754,-11695.253884,3830.477490
1007.189994,1036.288319,-12213.398043,4213.525239
1007.190318,518.144159,-12287.418637,4749.792088
1007.190642,518.144159,-11917.315666,4673.182538
1007.190965,1332.370696,-10214.842000,4519.963438
1007.191289,-444.123565,-9770.718434,3907.087040
1007.191613,-3256.906145,-10510.924376,3524.039291
1007.191937,-4219.173869,-10881.027347,2757.943793
1007.192261,-2516.700203,-8734.430116,2528.115143
1007.192585,-2072.576638,-6291.750507,3064.381992
1007.192909,-2960.823768,-6661.853478,2221.676944
1007.193233,-4293.194464,-7624.121203,1378.971896
1007.193557,-4737.318029,-7105.977043,612.876398
1007.193881,-3997.112087,-7624.121203,1149.143247
1007.194205,-2664.741391,-9252.574275,1608.800546
1007.194529,-1184.329507,-10214.842000,1685.410096
1007.194853,296.082377,-9104.533087,3753.867940
1007.195177,1924.535449,-8956.491898,3983.696590
1007.195501,2368.659014,-11029.068536,3370.820191
1007.195825,1332.370696,-11325.150913,2757.943793
1007.196149,-370.102971,-9252.574275,3217.601092
1007.196473,-1554.432478,-9622.677246,2987.772442
1007.196797,-1924.535449,-10362.883188,1532.190996
1007.197121,-2590.720797,-8290.306550,1838.629195
1007.197445,-3330.926739,-7920.203579,2911.162892
1007.197769,-4441.235652,-10066.800811,459.657299
1007.198093,-5551.544565,-9400.615463,-153.219100
1007.198417,-5625.565159,-7994.224174,536.266849
1007.198741,-5181.441594,-8734.430116,0.000000
1007.199065,-3552.988522,-9548.656652,-919.314598
1007.199390,-2516.700203,-9252.574275,919.314598
1007.199714,-1110.308913,-10140.821405,2451.505594
1007.200038,444.123565,-11843.295072,76.609550
1007.200362,592.164754,-10807.006753,1072.533697
1007.200686,-370.102971,-9992.780217,1532.190996
1007.201010,-814.226536,-10658.965565,766.095498
1007.201334,-814.226536,-10436.903782,919.314598
1007.201658,-1036.288319,-10066.800811,1532.190996
1007.201982,-518.144159,-11547.212695,919.314598
1007.202307,-2072.576638,-10140.821405,-306.438199
1007.202631,-3775.050304,-9400.615463,-536.266849
1007.202955,-4515.256246,-10732.986159,-766.095498
1007.203279,-4737.318029,-11251.130318,-995.924147
1007.203603,-4071.132681,-10658.965565,-689.485948
1007.203927,-4071.132681,-10066.800811,0.000000
1007.204251,-3849.070898,-9178.553681,459.657299
1007.204575,-2664.741391,-9474.636058,689.485948
1007.204899,-2294.638420,-10807.006753,0.000000
1007.205224,-2590.720797,-10066.800811,612.876398
1007.205548,-1924.535449,-10807.006753,2374.896044
1007.205872,148.041188,-11843.295072,1378.971896
1007.206196,296.082377,-10066.800811,2451.505594
1007.206520,-1702.473667,-9770.718434,2987.772442
1007.206844,-2960.823768,-10807.006753,1149.143247
1007.207168,-2294.638420,-10436.903782,1149.143247
1007.207492,-1554.432478,-9548.656652,1762.019645
1007.207816,-1850.514855,-8660.409521,1838.629195
1007.208140,-2368.659014,-8586.388927,1072.533697
1007.208465,-3849.070898,-8512.368333,1838.629195
1007.208789,-4885.359217,-8956.491898,1532.190996
1007.209113,-3775.050304,-9400.615463,1532.190996
1007.209437,-2442.679609,-8364.327145,2145.067394
1007.209761,-1850.514855,-8586.388927,3140.991542
1007.210085,-814.226536,-9252.574275,3600.648841
1007.210409,1036.288319,-9474.636058,3753.867940
1007.210733,1184.329507,-9474.636058,4979.620737
1007.211057,2146.597232,-9548.656652,4443.353888
1007.211382,1480.411884,-8734.430116,3830.477490
1007.211706,-666.185348,-8956.491898,3753.867940
1007.212030,-2220.617826,-9400.615463,1838.629195
1007.212354,-3404.947333,-9252.574275,1302.362347
1007.212678,-3478.967927,-8956.491898,536.266849
1007.213002,-2960.823768,-8660.409521,153.219100
1007.213326,-3330.926739,-9104.533087,689.485948
1007.213650,-3849.070898,-9104.533087,1302.362347
1007.213974,-3478.967927,-9030.512492,1608.800546
1007.214299,-3404.947333,-9770.718434,1608.800546
1007.214623,-2590.720797,-9622.677246,1991.848295
1007.214947,-1480.411884,-10140.821405,2757.943793
1007.215271,-740.205942,-10288.862594,3830.477490
1007.215595,666.185348,-9992.780217,3830.477490
1007.215919,2072.576638,-9326.594869,4443.353888
1007.216243,2590.720797,-9326.594869,3983.696590
1007.216567,1924.535449,-9474.636058,2911.162892
1007.216891,1406.391290,-8586.388927,1608.800546
1007.217216,1332.370696,-7550.100608,536.266849
1007.217540,814.226536,-9104.533087,-766.095498
1007.217864,296.082377,-9326.594869,-1608.800546
1007.218188,-444.123565,-7920.203579,-689.485948
1007.218512,-814.226536,-9992.780217,-995.924147
1007.218836,-2664.741391,-11473.192101,-1072.533697
1007.219160,-3923.091493,-11473.192101,-995.924147
1007.219484,-3849.070898,-10584.944971,-689.485948
1007.219808,-3404.947333,-10436.903782,383.047749
1007.220132,-444.123565,-10584.944971,1225.752797
1007.220457,1998.556043,-11547.212695,1149.143247
1007.220781,3478.967927,-11399.171507,1991.848295
1007.221105,4145.153275,-9474.636058,2145.067394
1007.221429,3552.988522,-9844.739029,2221.676944
1007.221753,2590.720797,-10510.924376,153.219100
1007.222077,888.247130,-9992.780217,-2298.286494
1007.222401,-3034.844362,-11177.109724,-3140.991542
1007.222725,-5033.400406,-12435.459826,-4290.134789
1007.223049,-4589.276840,-12213.398043,-4749.792088
1007.223374,-3923.091493,-11251.130318,-2604.724693
1007.223698,-3182.885551,-9844.739029,-1915.238745
1007.224022,-1332.370696,-9104.533087,-2528.115143
1007.224346,-962.267725,-8586.388927,-995.924147
1007.224670,148.041188,-9326.594869,0.000000
1007.224994,1406.391290,-7402.059420,766.095498
1007.225318,2516.700203,-6439.791695,1225.752797
1007.225642,2368.659014,-9326.594869,2834.553343
1007.225966,3478.967927,-10955.047942,3140.991542
1007.226291,6069.688724,-9770.718434,2757.943793
1007.226615,3404.947333,-9918.759623,3064.381992
1007.226939,0.000000,-8216.285956,-689.485948
1007.227263,-3478.967927,-5403.503377,-5286.058936
1007.227587,-7994.224174,-8956.491898,-3064.381992
1007.227911,-5477.523971,-11843.295072,-1762.019645
1007.228235,0.000000,-10955.047942,-3370.820191
1007.228559,-1184.329507,-10214.842000,-612.876398
1007.228883,-2738.761985,-7698.141797,-383.047749
1007.229207,-518.144159,-7328.038826,-2068.457845
1007.229532,740.205942,-9178.553681,-1532.190996
1007.229856,962.267725,-9252.574275,383.047749
1007.230180,2220.617826,-9918.759623,1378.971896
1007.230504,3330.926739,-9474.636058,1225.752797
1007.230828,3404.947333,-10214.842000,2681.334243
1007.231152,4515.256246,-9770.718434,3064.381992
1007.231476,4663.297435,-9622.677246,919.314598
1007.231800,814.226536,-11251.130318,-919.314598
1007.232124,-1702.473667,-10584.944971,-612.876398
1007.232449,-592.164754,-8142.265362,-1838.629195
1007.232773,74.020594,-8956.491898,-2221.676944
1007.233097,0.000000,-9326.594869,-1225.752797
1007.233421,-814.226536,-8142.265362,-1302.362347
1007.233745,-518.144159,-9104.533087,-2451.505594
1007.234069,-148.041188,-9622.677246,-1225.752797
1007.234393,222.061783,-10288.862594,383.047749
1007.234717,1036.288319,-11251.130318,0.000000
1007.235041,592.164754,-10881.027347,-306.438199
1007.235366,-296.082377,-11177.109724,766.095498
1007.235690,1036.288319,-12287.418637,1149.143247
1007.236014,2442.679609,-12509.480420,306.438199
1007.236338,1628.453072,-11251.130318,536.266849
1007.236662,444.123565,-10140.821405,842.705048
1007.236986,444.123565,-9992.780217,-1762.019645
1007.237310,370.102971,-10066.800811,-1455.581446
1007.237634,-814.226536,-10066.800811,-612.876398
1007.237958,-1036.288319,-10436.903782,-1608.800546
1007.238283,-962.267725,-9992.780217,-306.438199
1007.238607,-740.205942,-9622.677246,229.828649
1007.238931,-296.082377,-9178.553681,919.314598
1007.239255,74.020594,-8216.285956,689.485948
1007.239579,-592.164754,-7254.018232,995.924147
1007.239903,-1332.370696,-8438.347739,1225.752797
1007.240227,0.000000,-7994.224174,919.314598
1007.240551,518.144159,-8216.285956,2221.676944
1007.240875,0.000000,-9474.636058,612.876398
1007.241199,-2072.576638,-8364.327145,-689.485948
1007.241524,-3552.988522,-9400.615463,0.000000
1007.241848,-2738.761985,-10510.924376,-612.876398
1007.242172,-1406.391290,-11103.089130,-536.266849
1007.242496,-1110.308913,-9474.636058,229.828649
1007.242820,-592.164754,-9400.615463,766.095498
1007.243144,0.000000,-11029.068536,995.924147
1007.243468,-148.041188,-11177.109724,1838.629195
1007.243792,-1258.350101,-10214.842000,1302.362347
1007.244116,-2368.659014,-9844.739029,229.828649
1007.244441,-2368.659014,-9252.574275,0.000000
1007.244765,-962.267725,-8364.327145,766.095498
1007.245089,814.226536,-8660.409521,1838.629195
1007.245413,666.185348,-9326.594869,1225.752797
1007.245737,-148.041188,-8290.306550,-229.828649
1007.246061,-740.205942,-7698.141797,-459.657299
1007.246385,0.000000,-8364.327145,-459.657299
1007.246709,444.123565,-9104.533087,-383.047749
1007.247033,0.000000,-9030.512492,-842.705048
1007.247358,-592.164754,-8808.450710,459.657299
1007.247682,740.205942,-10066.800811,766.095498
1007.248006,2072.576638,-11325.150913,1455.581446
1007.248330,2664.741391,-10584.944971,689.485948
1007.248654,2368.659014,-8956.491898,919.314598
1007.248978,2220.617826,-9918.759623,1149.143247
1007.249302,2590.720797,-10881.027347,536.266849
1007.249626,1554.432478,-10510.924376,536.266849
1007.249950,0.000000,-9474.636058,-766.095498
1007.250275,-444.123565,-9326.594869,-1378.971896
1007.250599,-148.041188,-9844.739029,-1915.238745
1007.250923,444.123565,-10140.821405,-1762.019645
1007.251247,518.144159,-10510.924376,0.000000
1007.251571,296.082377,-10436.903782,-1455.581446
1007.251895,-962.267725,-9696.697840,-1685.410096
1007.252219,-1554.432478,-9474.636058,-842.705048
1007.252543,0.000000,-9548.656652,306.438199
1007.252867,1554.432478,-11029.068536,153.219100
1007.253191,1480.411884,-10807.006753,766.095498
1007.253516,296.082377,-9770.718434,1225.752797
1007.253840,1110.308913,-9696.697840,689.485948
1007.254164,1554.432478,-9696.697840,-383.047749
1007.254488,962.267725,-8438.347739,0.000000
1007.254812,-666.185348,-8290.306550,0.000000
1007.255136,-518.144159,-9918.759623,-1532.190996
1007.255460,74.020594,-9622.677246,-1072.533697
1007.255784,592.164754,-10140.821405,153.219100
1007.256108,-444.123565,-10066.800811,-1455.581446
1007.256433,-2590.720797,-9770.718434,-2298.286494
1007.256757,-3627.009116,-9992.780217,-1149.143247
1007.257081,-2590.720797,-10214.842000,-1455.581446
1007.257405,-2442.679609,-11029.068536,-1378.971896
1007.257729,-3701.029710,-9474.636058,-536.266849
1007.258053,-2738.761985,-8734.430116,-766.095498
1007.258377,-444.123565,-9252.574275,-766.095498
1007.258701,1332.370696,-10140.821405,459.657299
1007.259025,1184.329507,-10658.965565,383.047749
1007.259350,888.247130,-9770.718434,-459.657299
1007.259674,444.123565,-8586.388927,-229.828649
1007.259998,666.185348,-9252.574275,612.876398
1007.260322,1924.535449,-10955.047942,689.485948
1007.260646,1924.535449,-10955.047942,0.000000
1007.260970,1406.391290,-9548.656652,383.047749
1007.261294,1184.329507,-8216.285956,-612.876398
1007.261618,1332.370696,-7550.100608,-459.657299
1007.261942,592.164754,-8068.244768,306.438199
1007.262266,-740.205942,-9474.636058,306.438199
1007.262591,-1850.514855,-9030.512492,-766.095498
1007.262915,-2516.700203,-7179.997637,-995.924147
1007.263239,-1924.535449,-7254.018232,-1149.143247
1007.263563,-1110.308913,-8216.285956,-919.314598
1007.263887,74.020594,-10066.800811,612.876398
1007.264211,1184.329507,-11103.089130,919.314598
1007.264535,2146.597232,-9622.677246,766.095498
1007.264859,1998.556043,-9548.656652,1302.362347
1007.265183,1702.473667,-10732.986159,689.485948
1007.265508,1850.514855,-11177.109724,612.876398
1007.265832,1406.391290,-11399.171507,842.705048
1007.266156,1258.350101,-10288.862594,919.314598
1007.266480,740.205942,-9992.780217,-383.047749
1007.266804,-740.205942,-10288.862594,-536.266849
1007.267128,-1998.556043,-10362.883188,-306.438199
1007.267452,-1628.453072,-9696.697840,-1302.362347
1007.267776,-1702.473667,-9696.697840,-1072.533697
1007.268100,-2146.597232,-10140.821405,-1225.752797
1007.268425,-1850.514855,-9770.718434,-689.485948
1007.268749,-1036.288319,-9696.697840,0.000000
1007.269073,0.000000,-9474.636058,0.000000
1007.269397,444.123565,-10214.842000,153.219100
1007.269721,370.102971,-10214.842000,1072.533697
1007.270045,444.123565,-10214.842000,1455.581446
1007.270369,740.205942,-10658.965565,1685.410096
1007.270693,1258.350101,-10362.883188,1532.190996
1007.271017,1184.329507,-10732.986159,1149.143247
1007.271342,74.020594,-11103.089130,229.828649
1007.271666,-1258.350101,-9770.718434,306.438199
1007.271990,-1332.370696,-9030.512492,229.828649
1007.272314,-1184.329507,-9548.656652,-536.266849
1007.272638,-1184.329507,-9844.739029,0.000000
1007.272962,-1998.556043,-9030.512492,-842.705048
1007.273286,-1850.514855,-7920.203579,-689.485948
1007.273610,-1628.453072,-8142.265362,-689.485948
1007.273934,-1702.473667,-8808.450710,-536.266849
1007.274258,-962.267725,-8808.450710,153.219100
1007.274583,-370.102971,-9252.574275,1072.533697
1007.274907,518.144159,-8586.388927,1762.019645
1007.275231,1184.329507,-8364.327145,1915.238745
1007.275555,1406.391290,-8512.368333,1072.533697
1007.275879,2294.638420,-9030.512492,1149.143247
1007.276203,1924.535449,-11029.068536,1685.410096
1007.276527,2294.638420,-9548.656652,1072.533697
1007.276851,2220.617826,-7105.977043,1685.410096
1007.277175,296.082377,-8216.285956,383.047749
1007.277500,-518.144159,-8882.471304,-995.924147
1007.277824,-814.226536,-9622.677246,-306.438199
1007.278148,-518.144159,-9548.656652,-766.095498
1007.278472,-370.102971,-9104.533087,-306.438199
1007.278796,-1258.350101,-9252.574275,-1072.533697
1007.279120,-1702.473667,-8734.430116,-536.266849
1007.279444,-740.205942,-9770.718434,766.095498
1007.279768,444.123565,-10510.924376,229.828649
1007.280092,0.000000,-9844.739029,-536.266849
1007.280417,-1332.370696,-9326.594869,-612.876398
1007.280741,-666.185348,-9400.615463,-689.485948
1007.281065,1480.411884,-10066.800811,76.609550
1007.281389,3108.864956,-9992.780217,306.438199
1007.281713,2368.659014,-9770.718434,0.000000
1007.282037,666.185348,-10288.862594,0.000000
1007.282361,814.226536,-11325.150913,-459.657299
1007.282685,1036.288319,-9918.759623,-919.314598
1007.283009,444.123565,-9918.759623,-919.314598
1007.283333,-222.061783,-10881.027347,-1378.971896
1007.283658,-148.041188,-10732.986159,-1762.019645
1007.283982,0.000000,-10140.821405,-1149.143247
1007.284306,0.000000,-9548.656652,-766.095498
1007.284630,-1110.308913,-10807.006753,-1455.581446
1007.284954,-2368.659014,-11399.171507,-1378.971896
1007.285278,-2368.659014,-10732.986159,-536.266849
1007.285602,-1332.370696,-10658.965565,153.219100
1007.285926,-740.205942,-10436.903782,229.828649
1007.286250,-518.144159,-11177.109724,306.438199
1007.286575,-444.123565,-11251.130318,0.000000
1007.286899,-148.041188,-10807.006753,-153.219100
1007.287223,1036.288319,-10584.944971,459.657299
1007.287547,1406.391290,-10658.965565,-153.219100
1007.287871,0.000000,-9918.759623,-1608.800546
1007.288195,-1554.432478,-9548.656652,-995.924147
1007.288519,-1924.535449,-10140.821405,-1608.800546
1007.288843,-1036.288319,-9326.594869,-1685.410096
1007.289167,148.041188,-9030.512492,-536.266849
1007.289492,0.000000,-8956.491898,-766.095498
1007.289816,-592.164754,-8216.285956,-1455.581446
1007.290140,-814.226536,-7994.224174,-383.047749
1007.290464,518.144159,-8808.450710,1532.190996
1007.290788,2442.679609,-9548.656652,766.095498
1007.291112,1998.556043,-8512.368333,1072.533697
1007.291436,370.102971,-7476.080014,1685.410096
1007.291760,1036.288319,-8512.368333,1532.190996
1007.292084,2960.823768,-9622.677246,1149.143247
1007.292409,1998.556043,-9178.553681,536.266849
1007.292733,148.041188,-7698.141797,0.000000
1007.293057,-1110.308913,-7328.038826,-383.047749
1007.293381,0.000000,-8734.430116,-306.438199
1007.293705,444.123565,-9696.697840,383.047749
1007.294029,0.000000,-9474.636058,-229.828649
1007.294353,-1406.391290,-8290.306550,153.219100
1007.294677,-1628.453072,-8660.409521,-536.266849
1007.295001,-1184.329507,-9326.594869,0.000000
1007.295325,-666.185348,-9622.677246,919.314598
1007.295650,-148.041188,-10732.986159,1225.752797
1007.295974,-222.061783,-9992.780217,1072.533697
1007.296298,222.061783,-9252.574275,536.266849
1007.296622,1258.350101,-10140.821405,1378.971896
1007.296946,2664.741391,-11547.212695,1225.752797
1007.297270,3108.864956,-11325.150913,459.657299
1007.297594,1480.411884,-9474.636058,536.266849
1007.297918,-148.041188,-9400.615463,383.047749
1007.298242,-1036.288319,-10214.842000,0.000000
1007.298567,-1924.535449,-10288.862594,-1302.362347
1007.298891,-2516.700203,-9474.636058,-1072.533697
1007.299215,-1998.556043,-9474.636058,-919.314598
1007.299539,0.000000,-9844.739029,-842.705048
1007.299863,370.102971,-9622.677246,0.000000
1007.300187,-1332.370696,-8808.450710,612.876398
1007.300511,-1998.556043,-10066.800811,0.000000
1007.300835,-2368.659014,-11399.171507,0.000000
1007.301159,-1480.411884,-11473.192101,459.657299
1007.301483,-518.144159,-10955.047942,612.876398
1007.301807,0.000000,-10807.006753,612.876398
1007.302131,222.061783,-10881.027347,612.876398
1007.302455,1480.411884,-11325.150913,995.924147
1007.302779,1998.556043,-11695.253884,842.705048
1007.303103,962.267725,-11325.150913,-459.657299
1007.303426,-740.205942,-10288.862594,-459.657299
1007.303750,-592.164754,-10066.800811,-612.876398
1007.304074,-74.020594,-10140.821405,-689.485948
1007.304398,-296.082377,-9992.780217,0.000000
1007.304722,-518.144159,-8808.450710,-306.438199
1007.305046,-1332.370696,-8290.306550,-1302.362347
1007.305370,-1628.453072,-7772.162391,-1225.752797
1007.305694,-296.082377,-7698.141797,229.828649
1007.306018,888.247130,-8882.471304,842.705048
1007.306342,1776.494261,-8438.347739,383.047749
1007.306666,1776.494261,-7846.182985,689.485948
1007.306990,370.102971,-8068.244768,766.095498
1007.307314,814.226536,-8216.285956,383.047749
1007.307638,370.102971,-9178.553681,459.657299
1007.307962,444.123565,-8586.388927,0.000000
1007.308286,444.123565,-8808.450710,0.000000
1007.308610,222.061783,-9474.636058,0.000000
1007.308934,222.061783,-9548.656652,153.219100
1007.309258,0.000000,-9400.615463,-842.705048
1007.309582,-666.185348,-8586.388927,-1302.362347
1007.309906,-592.164754,-7994.224174,-1302.362347
1007.310230,-222.061783,-9252.574275,-612.876398
1007.310554,-148.041188,-9770.718434,-919.314598
1007.310878,-370.102971,-9252.574275,-842.705048
1007.311202,-962.267725,-8808.450710,-1225.752797
1007.311526,-592.164754,-8734.430116,-1225.752797
1007.311850,888.247130,-9474.636058,-919.314598
1007.312174,1924.535449,-9400.615463,-459.657299
1007.312498,1702.473667,-10955.047942,76.609550
1007.312821,1406.391290,-11325.150913,0.000000
1007.313145,1776.494261,-10288.862594,-919.314598
1007.313469,1036.288319,-10658.965565,229.828649
1007.313793,444.123565,-10584.944971,-842.705048
1007.314117,814.226536,-10362.883188,-995.924147
1007.314441,0.000000,-11177.109724,0.000000
1007.314765,444.123565,-11325.150913,0.000000
1007.315089,148.041188,-10955.047942,-612.876398
1007.315413,-740.205942,-10584.944971,-1532.190996
1007.315737,-1184.329507,-10436.903782,-306.438199
1007.316061,-666.185348,-11991.336260,-306.438199
1007.316385,-814.226536,-11325.150913,-383.047749
1007.316709,-1702.473667,-10658.965565,0.000000
1007.317033,-2368.659014,-10214.842000,0.000000
1007.317357,-1480.411884,-10955.047942,0.000000
1007.317681,0.000000,-11103.089130,0.000000
1007.318005,592.164754,-10214.842000,842.705048
1007.318329,1036.288319,-10140.821405,766.095498
1007.318653,666.185348,-10436.903782,766.095498
1007.318977,222.061783,-9622.677246,766.095498
1007.319301,296.082377,-8364.327145,383.047749
1007.319625,-740.205942,-8364.327145,0.000000
1007.319949,-1184.329507,-8734.430116,-459.657299
1007.320273,-1776.494261,-9178.553681,383.047749
1007.320597,-592.164754,-8660.409521,229.828649
1007.320921,370.102971,-7920.203579,689.485948
1007.321245,296.082377,-8438.347739,919.314598
1007.321569,148.041188,-8438.347739,-766.095498
1007.321892,-1332.370696,-8438.347739,306.438199
1007.322216,-962.267725,-8216.285956,459.657299
1007.322540,0.000000,-8364.327145,0.000000
1007.322864,-666.185348,-8808.450710,0.000000
1007.323188,-1480.411884,-8660.409521,536.266849
1007.323512,-740.205942,-8734.430116,919.314598
1007.323836,444.123565,-9178.553681,919.314598
1007.324160,518.144159,-8808.450710,306.438199
1007.324484,-296.082377,-8586.388927,306.438199
1007.324808,0.000000,-8882.471304,766.095498
1007.325132,1258.350101,-9104.533087,919.314598
1007.325456,1628.453072,-8660.409521,229.828649
1007.325780,592.164754,-8586.388927,76.609550
1007.326104,-814.226536,-9400.615463,-919.314598
1007.326428,-888.247130,-9252.574275,-1378.971896
1007.326752,222.061783,-9252.574275,0.000000
1007.327076,1184.329507,-9400.615463,153.219100
1007.327400,888.247130,-10584.944971,229.828649
1007.327724,0.000000,-9844.739029,-842.705048
1007.328048,444.123565,-9844.739029,229.828649
1007.328372,1184.329507,-10807.006753,229.828649
1007.328696,1924.535449,-11103.089130,459.657299
1007.329020,444.123565,-10362.883188,76.609550
1007.329344,-592.164754,-9770.718434,76.609550
1007.329668,-962.267725,-11325.150913,76.609550
1007.329992,296.082377,-12065.356855,536.266849
1007.330316,518.144159,-11325.150913,-229.828649
1007.330640,-296.082377,-10732.986159,-766.095498
1007.330964,-592.164754,-10881.027347,-842.705048
1007.331287,-740.205942,-11695.253884,-383.047749
1007.331611,-592.164754,-11251.130318,-229.828649
1007.331935,-1184.329507,-11399.171507,-536.266849
1007.332259,-1332.370696,-10807.006753,0.000000
1007.332583,-814.226536,-11103.089130,-229.828649
1007.332907,-444.123565,-11177.109724,153.219100
1007.333231,148.041188,-10584.944971,0.000000
1007.333555,-444.123565,-10510.924376,-153.219100
1007.333879,-518.144159,-10288.862594,306.438199
1007.334203,0.000000,-10288.862594,459.657299
1007.334527,1110.308913,-8216.285956,459.657299
1007.334851,814.226536,-8068.244768,766.095498
1007.335175,-666.185348,-9548.656652,0.000000
1007.335499,-1628.453072,-8660.409521,-1302.362347
1007.335823,-962.267725,-8068.244768,0.000000
1007.336147,518.144159,-7772.162391,383.047749
1007.336471,1406.391290,-7846.182985,-229.828649
1007.336795,962.267725,-7105.977043,229.828649
1007.337119,370.102971,-7476.080014,842.705048
1007.337443,1406.391290,-8734.430116,766.095498
1007.337767,1332.370696,-8142.265362,0.000000
1007.338091,74.020594,-7105.977043,-383.047749
1007.338415,-962.267725,-7550.100608,0.000000
1007.338739,-1258.350101,-8660.409521,-689.485948
1007.339063,-592.164754,-8290.306550,-306.438199
1007.339387,296.082377,-8142.265362,-229.828649
1007.339711,518.144159,-8660.409521,-995.924147
1007.340035,740.205942,-8956.491898,-459.657299
1007.340359,1184.329507,-9252.574275,-306.438199
1007.340682,962.267725,-8956.491898,-459.657299
1007.341006,222.061783,-10584.944971,-612.876398
1007.341330,-296.082377,-10658.965565,-1072.533697
1007.341654,0.000000,-9844.739029,-1378.971896
1007.341978,296.082377,-10732.986159,-689.485948
1007.342302,444.123565,-11325.150913,-1915.238745
1007.342626,296.082377,-11251.130318,-1991.848295
1007.342950,-518.144159,-10584.944971,-1838.629195
1007.343274,-1184.329507,-10436.903782,-2221.676944
1007.343598,-1332.370696,-10807.006753,-1915.238745
1007.343922,-592.164754,-11621.233289,-612.876398
1007.344246,-962.267725,-11621.233289,-1302.362347
1007.344570,-592.164754,-10807.006753,-1378.971896
1007.344894,-592.164754,-11103.089130,-689.485948
1007.345218,222.061783,-11769.274478,-459.657299
1007.345542,0.000000,-11621.233289,-612.876398
1007.345866,-444.123565,-11103.089130,306.438199
1007.346190,-518.144159,-10807.006753,536.266849
1007.346514,0.000000,-11399.171507,459.657299
1007.346838,-370.102971,-10807.006753,459.657299
1007.347162,-740.205942,-10214.842000,-153.219100
1007.347486,-1110.308913,-10288.862594,995.924147
1007.347810,-740.205942,-11103.089130,229.828649
1007.348134,-592.164754,-10658.965565,229.828649
1007.348458,-666.185348,-8808.450710,766.095498
1007.348782,370.102971,-8586.388927,1225.752797
1007.349106,592.164754,-9844.739029,689.485948
1007.349430,518.144159,-9474.636058,1378.971896
1007.349754,296.082377,-7772.162391,995.924147
1007.350077,0.000000,-8660.409521,995.924147
1007.350401,0.000000,-9030.512492,612.876398
1007.350725,370.102971,-8438.347739,1302.362347
1007.351049,592.164754,-8290.306550,2451.505594
1007.351373,888.247130,-7846.182985,1991.848295
1007.351697,444.123565,-7772.162391,1072.533697
1007.352021,0.000000,-7698.141797,1532.190996
1007.352345,-814.226536,-8290.306550,766.095498
1007.352669,-962.267725,-8216.285956,689.485948
1007.352993,-518.144159,-7105.977043,383.047749
1007.353317,-888.247130,-7624.121203,766.095498
1007.353641,-1258.350101,-8882.471304,-536.266849
1007.353965,-1036.288319,-8956.491898,-229.828649
1007.354289,296.082377,-8660.409521,919.314598
1007.354613,1628.453072,-8808.450710,612.876398
1007.354937,518.144159,-9622.677246,766.095498
1007.355261,-148.041188,-9474.636058,689.485948
1007.355585,222.061783,-9400.615463,689.485948
1007.355909,1554.432478,-9992.780217,306.438199
1007.356233,1332.370696,-10881.027347,0.000000
1007.356557,74.020594,-10510.924376,0.000000
1007.356881,-518.144159,-9548.656652,-383.047749
1007.357205,0.000000,-9548.656652,-689.485948
1007.357529,296.082377,-9474.636058,-1532.190996
1007.357853,-592.164754,-9844.739029,-2451.505594
1007.358177,-2072.576638,-9770.718434,-2145.067394
1007.358501,-740.205942,-10214.842000,-1378.971896
1007.358825,888.247130,-10362.883188,-1455.581446
1007.359149,1110.308913,-10955.047942,-842.705048
1007.359472,0.000000,-10436.903782,-612.876398
1007.359796,-962.267725,-11029.068536,-612.876398
1007.360120,-962.267725,-11917.315666,-229.828649
1007.360444,0.000000,-11917.315666,0.000000
1007.360768,222.061783,-11399.171507,-383.047749
1007.361092,-592.164754,-10732.986159,0.000000
1007.361416,-592.164754,-10510.924376,-689.485948
1007.361740,-148.041188,-11177.109724,-459.657299
1007.362064,-444.123565,-11621.233289,-459.657299
1007.362388,-1628.453072,-11251.130318,-919.314598
1007.362712,-2146.597232,-10436.903782,-1608.800546
1007.363036,-1258.350101,-10140.821405,-1225.752797
1007.363360,296.082377,-10658.965565,0.000000
1007.363684,1332.370696,-9770.718434,842.705048
1007.364008,0.000000,-10140.821405,919.314598
1007.364332,-518.144159,-9400.615463,459.657299
1007.364656,-592.164754,-8734.430116,0.000000
1007.364980,148.041188,-8438.347739,689.485948
1007.365304,1406.391290,-9474.636058,612.876398
1007.365628,814.226536,-8586.388927,0.000000
1007.365952,-962.267725,-7402.059420,-383.047749
1007.366276,-666.185348,-7328.038826,766.095498
1007.366600,444.123565,-7772.162391,76.609550
1007.366924,1628.453072,-8512.368333,-689.485948
1007.367248,1776.494261,-7550.100608,-612.876398
1007.367572,1924.535449,-8142.265362,0.000000
1007.367896,2072.576638,-9178.553681,76.609550
1007.368220,1998.556043,-9252.574275,689.485948
1007.368544,1036.288319,-9326.594869,383.047749
1007.368867,-518.144159,-8586.388927,-383.047749
1007.369191,-222.061783,-9252.574275,-306.438199
1007.369515,518.144159,-9474.636058,919.314598
1007.369839,2072.576638,-9622.677246,766.095498
1007.370163,1776.494261,-8586.388927,-612.876398
1007.370487,740.205942,-7920.203579,-459.657299
1007.370811,444.123565,-7920.203579,-1378.971896
1007.371135,0.000000,-9844.739029,-766.095498
1007.371459,-1332.370696,-9770.718434,-1149.143247
1007.371783,-2590.720797,-9474.636058,-1991.848295
1007.372107,-2886.803174,-9252.574275,-2528.115143
1007.372431,-2220.617826,-9252.574275,-2374.896044
1007.372755,-1332.370696,-10140.821405,-1991.848295
1007.373079,-1036.288319,-10510.924376,-1915.238745
1007.373403,-1332.370696,-10140.821405,-1455.581446
1007.373727,-740.205942,-11917.315666,-766.095498
1007.374051,888.247130,-11769.274478,-689.485948
1007.374375,2516.700203,-11547.212695,76.609550
1007.374699,3182.885551,-11769.274478,76.609550
1007.375023,3182.885551,-12509.480420,0.000000
1007.375347,3034.844362,-12805.562797,383.047749
1007.375671,2368.659014,-11843.295072,229.828649
1007.375995,518.144159,-11621.233289,-766.095498
1007.376319,-962.267725,-11029.068536,-1838.629195
1007.376643,-2368.659014,-10510.924376,-2451.505594
1007.376967,-3627.009116,-10362.883188,-1532.190996
1007.377291,-3923.091493,-10658.965565,-1378.971896
1007.377615,-4293.194464,-9918.759623,-919.314598
1007.377939,-3330.926739,-9326.594869,-612.876398
1007.378262,-2368.659014,-8956.491898,306.438199
1007.378586,-888.247130,-9178.553681,995.924147
1007.378910,888.247130,-9400.615463,1838.629195
1007.379234,740.205942,-9252.574275,1532.190996
1007.379558,518.144159,-9252.574275,2298.286494
1007.379882,1776.494261,-9918.759623,3140.991542
1007.380206,3552.988522,-9474.636058,2834.553343
1007.380530,2220.617826,-9326.594869,2374.896044
1007.380854,-148.041188,-8216.285956,766.095498
1007.381178,-1332.370696,-7624.121203,1072.533697
1007.381502,-1258.350101,-8808.450710,306.438199
1007.381826,-740.205942,-9178.553681,612.876398
1007.382150,-1036.288319,-7772.162391,995.924147
1007.382474,-1554.432478,-6365.771101,306.438199
1007.382798,-1258.350101,-7031.956449,459.657299
1007.383122,-444.123565,-7550.100608,842.705048
1007.383446,0.000000,-7994.224174,1608.800546
1007.383770,-962.267725,-7846.182985,1302.362347
1007.384094,-148.041188,-7994.224174,1225.752797
1007.384418,888.247130,-9104.533087,2221.676944
1007.384742,1924.535449,-9992.780217,1838.629195
1007.385066,2368.659014,-10436.903782,1072.533697
1007.385390,1628.453072,-10066.800811,1225.752797
1007.385714,1406.391290,-9918.759623,995.924147
1007.386038,1258.350101,-10288.862594,0.000000
1007.386362,296.082377,-10584.944971,0.000000
1007.386686,-962.267725,-9918.759623,-1532.190996
1007.387010,-1776.494261,-8956.491898,-3447.429741
1007.387334,-2146.597232,-9622.677246,-2528.115143
1007.387657,-1036.288319,-10732.986159,-1608.800546
1007.387981,592.164754,-10881.027347,-1532.190996
1007.388305,1110.308913,-9326.594869,-1225.752797
1007.388629,1184.329507,-8364.327145,-919.314598
1007.388953,1332.370696,-10584.944971,-1838.629195
1007.389277,1924.535449,-11177.109724,-995.924147
1007.389601,2220.617826,-11843.295072,76.609550
1007.389925,1702.473667,-11991.336260,153.219100
1007.390249,1258.350101,-11251.130318,-766.095498
1007.390573,444.123565,-10362.883188,-1608.800546
1007.390897,1184.329507,-11029.068536,-1149.143247
1007.391221,1776.494261,-12361.439231,-1532.190996
1007.391545,962.267725,-11325.150913,-1762.019645
1007.391869,-740.205942,-10362.883188,-689.485948
1007.392193,-1258.350101,-10436.903782,-1455.581446
1007.392517,-1184.329507,-10510.924376,-1149.143247
1007.392841,-1480.411884,-11325.150913,-1991.848295
1007.393165,-3182.885551,-10066.800811,-1378.971896
1007.393489,-3108.864956,-10362.883188,-76.609550
1007.393813,-1258.350101,-10140.821405,-536.266849
1007.394137,-592.164754,-9104.533087,0.000000
1007.394461,-962.267725,-8660.409521,766.095498
1007.394785,0.000000,-9326.594869,689.485948
1007.395109,740.205942,-9770.718434,0.000000
1007.395433,1110.308913,-9252.574275,306.438199
1007.395757,444.123565,-8142.265362,766.095498
1007.396081,518.144159,-8142.265362,-153.219100
1007.396405,-222.061783,-8734.430116,0.000000
1007.396729,-518.144159,-8660.409521,1072.533697
1007.397052,222.061783,-8438.347739,0.000000
1007.397376,-296.082377,-7994.224174,-383.047749
1007.397700,-1184.329507,-6883.915261,76.609550
1007.398024,-814.226536,-7476.080014,-153.219100
1007.398348,814.226536,-8882.471304,153.219100
1007.398672,444.123565,-9252.574275,689.485948
1007.398996,-888.247130,-8808.450710,536.266849
1007.399320,-1332.370696,-7846.182985,-766.095498
1007.399644,-1480.411884,-8512.368333,-689.485948
1007.399968,74.020594,-9992.780217,689.485948
1007.400292,1406.391290,-10658.965565,0.000000
1007.400616,1110.308913,-9844.739029,0.000000
1007.400940,148.041188,-9548.656652,612.876398
1007.401264,740.205942,-10436.903782,76.609550
1007.401588,1924.535449,-11103.089130,-536.266849
1007.401911,962.267725,-10881.027347,-383.047749
1007.402235,296.082377,-10066.800811,-153.219100
1007.402559,962.267725,-10140.821405,0.000000
1007.402883,1110.308913,-9918.759623,-995.924147
1007.403207,1406.391290,-9474.636058,-459.657299
1007.403531,518.144159,-10066.800811,-919.314598
1007.403855,148.041188,-10955.047942,-1072.533697
1007.404179,0.000000,-10436.903782,-995.924147
1007.404502,0.000000,-9548.656652,0.000000
1007.404826,148.041188,-11399.171507,-612.876398
1007.405150,296.082377,-11399.171507,-689.485948
1007.405474,-148.041188,-10732.986159,-459.657299
1007.405798,-222.061783,-10732.986159,306.438199
1007.406122,0.000000,-11029.068536,-306.438199
1007.406446,-518.144159,-10955.047942,-689.485948
1007.406769,-962.267725,-10436.903782,229.828649
1007.407093,-592.164754,-11103.089130,306.438199
1007.407417,0.000000,-11843.295072,-229.828649
1007.407741,-296.082377,-10732.986159,536.266849
1007.408065,-666.185348,-9474.636058,536.266849
1007.408389,-518.144159,-9104.533087,383.047749
1007.408713,-740.205942,-9474.636058,459.657299
1007.409037,-962.267725,-9400.615463,612.876398
1007.409360,-592.164754,-9252.574275,919.314598
1007.409684,-888.247130,-9252.574275,689.485948
1007.410008,-296.082377,-8438.347739,1225.752797
1007.410332,148.041188,-7402.059420,612.876398
1007.410656,592.164754,-7624.121203,612.876398
1007.410980,148.041188,-9030.512492,919.314598
1007.411304,-148.041188,-8808.450710,766.095498
1007.411628,-222.061783,-7698.141797,689.485948
1007.411951,-1036.288319,-7476.080014,1915.238745
1007.412275,-592.164754,-8882.471304,842.705048
1007.412599,-444.123565,-8512.368333,612.876398
1007.412923,-962.267725,-7328.038826,536.266849
1007.413247,-962.267725,-8512.368333,1149.143247
1007.413571,-444.123565,-9252.574275,1149.143247
1007.413895,-666.185348,-9252.574275,995.924147
1007.414219,-1036.288319,-8290.306550,536.266849
1007.414542,-1406.391290,-9178.553681,153.219100
1007.414866,-2294.638420,-10066.800811,0.000000
1007.415190,-1628.453072,-9548.656652,-306.438199
1007.415514,-1110.308913,-9178.553681,-306.438199
1007.415838,-444.123565,-9844.739029,-459.657299
1007.416162,740.205942,-11251.130318,-612.876398
1007.416486,2072.576638,-11029.068536,-383.047749
1007.416810,3256.906145,-10214.842000,383.047749
1007.417133,3404.947333,-10732.986159,-459.657299
1007.417457,2072.576638,-9992.780217,-383.047749
1007.417781,1036.288319,-10140.821405,-306.438199
1007.418105,1258.350101,-10510.924376,-1378.971896
1007.418429,962.267725,-10066.800811,-3140.991542
1007.418753,0.000000,-10140.821405,-2221.676944
1007.419077,814.226536,-10510.924376,-995.924147
1007.419401,2368.659014,-11547.212695,-1532.190996
1007.419724,962.267725,-10436.903782,-1532.190996
1007.420048,-592.164754,-9474.636058,-1685.410096
1007.420372,-1036.288319,-10732.986159,-2451.505594
1007.420696,148.041188,-11695.253884,-1762.019645
1007.421020,740.205942,-10658.965565,-1225.752797
1007.421344,1258.350101,-10584.944971,0.000000
1007.421668,740.205942,-10732.986159,-383.047749
1007.421992,0.000000,-10807.006753,-1225.752797
1007.422315,-814.226536,-10362.883188,-2221.676944
1007.422639,-296.082377,-9696.697840,-1225.752797
1007.422963,0.000000,-9992.780217,-1149.143247
1007.423287,0.000000,-10658.965565,153.219100
1007.423611,-74.020594,-9548.656652,536.266849
1007.423935,148.041188,-8660.409521,0.000000
1007.424259,-444.123565,-9178.553681,0.000000
1007.424583,-888.247130,-9474.636058,-766.095498
1007.424906,0.000000,-8438.347739,-459.657299
1007.425230,148.041188,-8734.430116,766.095498
1007.425554,296.082377,-8512.368333,612.876398
1007.425878,0.000000,-7772.162391,153.219100
1007.426202,-1406.391290,-8586.388927,229.828649
1007.426526,-1702.473667,-8808.450710,-153.219100
1007.426850,-1702.473667,-8956.491898,229.828649
1007.427174,-1258.350101,-8216.285956,995.924147
1007.427497,-370.102971,-7846.182985,459.657299
1007.427821,-1702.473667,-9696.697840,766.095498
1007.428145,-592.164754,-10658.965565,995.924147
1007.428469,1036.288319,-10732.986159,1302.362347
1007.428793,1184.329507,-10214.842000,459.657299
1007.429117,-518.144159,-8364.327145,383.047749
1007.429441,-1702.473667,-8734.430116,306.438199
1007.429765,-1258.350101,-10955.047942,689.485948
1007.430088,-740.205942,-10807.006753,229.828649
1007.430412,444.123565,-9326.594869,842.705048
1007.430736,0.000000,-8364.327145,536.266849
1007.431060,-740.205942,-9030.512492,229.828649
1007.431384,-370.102971,-10362.883188,842.705048
1007.431708,-296.082377,-10362.883188,612.876398
1007.432032,-148.041188,-9770.718434,76.609550
1007.432355,-444.123565,-9474.636058,-766.095498
1007.432679,0.000000,-8438.347739,0.000000
1007.433003,2220.617826,-9252.574275,0.000000
1007.433327,2886.803174,-9696.697840,-536.266849
1007.433651,2220.617826,-10214.842000,-153.219100
1007.433975,740.205942,-10732.986159,-383.047749
1007.434299,518.144159,-9992.780217,-536.266849
1007.434623,888.247130,-9474.636058,-229.828649
1007.434946,1110.308913,-9844.739029,-459.657299
1007.435270,962.267725,-11325.150913,0.000000
1007.435594,74.020594,-11177.109724,-76.609550
1007.435918,222.061783,-10436.903782,1149.143247
1007.436242,444.123565,-9918.759623,1149.143247
1007.436566,444.123565,-10140.821405,459.657299
1007.436890,-1036.288319,-9992.780217,612.876398
1007.437214,-2368.659014,-9918.759623,-995.924147
1007.437537,-3108.864956,-9326.594869,-1378.971896
1007.437861,-2072.576638,-8586.388927,-459.657299
1007.438185,-1628.453072,-9252.574275,0.000000
1007.438509,-1406.391290,-10140.821405,-383.047749
1007.438833,-666.185348,-9992.780217,0.000000
1007.439157,-444.123565,-9104.533087,-689.485948
1007.439481,444.123565,-9622.677246,0.000000
1007.439805,814.226536,-10807.006753,229.828649
1007.440128,1628.453072,-10362.883188,459.657299
1007.440452,1628.453072,-9326.594869,1762.019645
1007.440776,1110.308913,-9104.533087,842.705048
1007.441100,888.247130,-9252.574275,-229.828649
1007.441424,0.000000,-10288.862594,0.000000
1007.441748,-592.164754,-10732.986159,919.314598
1007.442072,0.000000,-9992.780217,766.095498
1007.442396,444.123565,-8290.306550,0.000000
1007.442719,-74.020594,-7920.203579,383.047749
1007.443043,-814.226536,-8956.491898,76.609550
1007.443367,-962.267725,-9992.780217,-689.485948
1007.443691,-2220.617826,-9326.594869,-383.047749
1007.444015,-2146.597232,-8660.409521,76.609550
1007.444339,-518.144159,-9178.553681,-229.828649
1007.444663,148.041188,-9178.553681,-766.095498
1007.444987,-444.123565,-8586.388927,76.609550
1007.445310,0.000000,-9474.636058,689.485948
1007.445634,1184.329507,-10436.903782,612.876398
1007.445958,3108.864956,-11251.130318,1838.629195
1007.446282,3034.844362,-9104.533087,1838.629195
1007.446606,2442.679609,-8216.285956,612.876398
1007.446930,518.144159,-8882.471304,-842.705048
1007.447254,-1258.350101,-10510.924376,-995.924147
1007.447578,-1480.411884,-10584.944971,-1149.143247
1007.447901,74.020594,-9326.594869,-306.438199
1007.448225,888.247130,-8438.347739,-306.438199
1007.448549,1480.411884,-8734.430116,-459.657299
1007.448873,1036.288319,-9474.636058,-1532.190996
1007.449197,-444.123565,-9918.759623,-3064.381992
1007.449521,-1924.535449,-9474.636058,-2451.505594
1007.449845,-2368.659014,-9696.697840,-2145.067394
1007.450169,-1258.350101,-10140.821405,-766.095498
1007.450492,-444.123565,-10584.944971,-229.828649
1007.450816,518.144159,-10807.006753,-459.657299
1007.451140,888.247130,-10584.944971,-1149.143247
1007.451464,962.267725,-10362.883188,-1838.629195
1007.451788,1332.370696,-10732.986159,-536.266849
1007.452112,1924.535449,-11177.109724,0.000000
1007.452436,1480.411884,-10362.883188,0.000000
1007.452760,0.000000,-9992.780217,0.000000
1007.453083,-1258.350101,-9992.780217,-1302.362347
1007.453407,-1258.350101,-10584.944971,-1991.848295
1007.453731,-1554.432478,-10066.800811,-1915.238745
1007.454055,-1554.432478,-9474.636058,-1072.533697
1007.454379,-814.226536,-9548.656652,-1149.143247
1007.454703,666.185348,-9918.759623,-612.876398
1007.455027,740.205942,-9474.636058,459.657299
1007.455351,592.164754,-9696.697840,0.000000
1007.455674,592.164754,-9178.553681,-229.828649
1007.455998,-148.041188,-9030.512492,-689.485948
1007.456322,0.000000,-9400.615463,153.219100
1007.456646,518.144159,-9992.780217,0.000000
1007.456970,296.082377,-9696.697840,0.000000
1007.457294,-148.041188,-9696.697840,689.485948
1007.457618,-592.164754,-10140.821405,919.314598
1007.457941,0.000000,-10732.986159,1532.190996
1007.458265,0.000000,-9844.739029,1225.752797
1007.458589,-888.247130,-9252.574275,1149.143247
1007.458913,-518.144159,-9696.697840,842.705048
1007.459237,-222.061783,-10140.821405,1072.533697
1007.459561,222.061783,-9252.574275,1685.410096
1007.459885,0.000000,-8364.327145,2145.067394
1007.460209,-666.185348,-8068.244768,1149.143247
1007.460532,-1480.411884,-8068.244768,229.828649
1007.460856,-888.247130,-9252.574275,766.095498
1007.461180,148.041188,-10436.903782,1762.019645
1007.461504,2072.576638,-9622.677246,1608.800546
1007.461828,2220.617826,-8808.450710,2757.943793
1007.462152,1850.514855,-7476.080014,1838.629195
1007.462476,1184.329507,-6735.874072,1149.143247
1007.462800,-370.102971,-8142.265362,383.047749
1007.463123,-814.226536,-7994.224174,536.266849
1007.463447,-1258.350101,-7624.121203,919.314598
1007.463771,-222.061783,-8068.244768,842.705048
1007.464095,74.020594,-8068.244768,612.876398
1007.464419,148.041188,-7920.203579,0.000000
1007.464743,222.061783,-9474.636058,0.000000
1007.465067,-370.102971,-11103.089130,0.000000
1007.465391,370.102971,-10807.006753,536.266849
1007.465714,-814.226536,-10362.883188,-383.047749
1007.466038,-2220.617826,-10510.924376,-1302.362347
1007.466362,-1480.411884,-11547.212695,-689.485948
1007.466686,296.082377,-12805.562797,0.000000
1007.467010,1702.473667,-13101.645173,0.000000
1007.467334,222.061783,-11473.192101,0.000000
1007.467658,-888.247130,-10510.924376,-306.438199
1007.467982,-666.185348,-11843.295072,-459.657299
1007.468305,0.000000,-12805.562797,0.000000
1007.468629,370.102971,-12065.356855,-229.828649
1007.468953,-444.123565,-10955.047942,-919.314598
1007.469277,-2072.576638,-9326.594869,-229.828649
1007.469601,-1184.329507,-9178.553681,-612.876398
1007.469925,-370.102971,-9770.718434,-1378.971896
1007.470249,-592.164754,-9474.636058,-1838.629195
1007.470573,-1850.514855,-8734.430116,-1608.800546
1007.470896,-1110.308913,-8290.306550,-1378.971896
1007.471220,740.205942,-8290.306550,-1302.362347
1007.471544,1998.556043,-8290.306550,0.000000
1007.471868,888.247130,-9400.615463,0.000000
1007.472192,-962.267725,-9548.656652,-1762.019645
1007.472516,-1258.350101,-9474.636058,-689.485948
1007.472840,0.000000,-9030.512492,306.438199
1007.473164,1036.288319,-10436.903782,995.924147
1007.473487,1258.350101,-10510.924376,0.000000
1007.473811,666.185348,-9474.636058,459.657299
1007.474135,814.226536,-9326.594869,842.705048
1007.474459,1184.329507,-9474.636058,0.000000
1007.474783,148.041188,-9326.594869,-536.266849
1007.475107,-1850.514855,-8364.327145,-689.485948
1007.475431,-1480.411884,-8586.388927,-689.485948
1007.475755,-296.082377,-8586.388927,-766.095498
1007.476078,222.061783,-8290.306550,-383.047749
1007.476402,222.061783,-7994.224174,766.095498
1007.476726,1258.350101,-7994.224174,-536.266849
1007.477050,1332.370696,-7846.182985,0.000000
1007.477374,1480.411884,-7624.121203,766.095498
1007.477698,1998.556043,-8512.368333,383.047749
1007.478022,814.226536,-8586.388927,-383.047749
1007.478346,-888.247130,-8438.347739,-383.047749
1007.478669,0.000000,-9252.574275,383.047749
1007.478993,2294.638420,-10066.800811,-153.219100
1007.479317,2664.741391,-9844.739029,-1378.971896
1007.479641,962.267725,-9252.574275,-766.095498
1007.479965,222.061783,-10140.821405,-1225.752797
1007.480289,444.123565,-11325.150913,-1302.362347
1007.480613,666.185348,-11991.336260,-306.438199
1007.480937,0.000000,-12583.501014,-459.657299
1007.481260,-814.226536,-11621.233289,-1838.629195
1007.481584,-1332.370696,-11177.109724,-1455.581446
1007.481908,-666.185348,-11621.233289,-459.657299
1007.482232,296.082377,-11769.274478,-995.924147
1007.482556,-962.267725,-11473.192101,-1838.629195
1007.482880,-2368.659014,-11103.089130,-536.266849
1007.483204,-1998.556043,-11103.089130,-919.314598
1007.483528,-1036.288319,-11103.089130,-919.314598
1007.483851,-666.185348,-10955.047942,-919.314598
1007.484175,-1110.308913,-10066.800811,-1225.752797
1007.484499,-222.061783,-9622.677246,-153.219100
1007.484823,1480.411884,-9252.574275,-153.219100
1007.485147,1332.370696,-8956.491898,306.438199
1007.485471,740.205942,-9400.615463,0.000000
1007.485795,222.061783,-10066.800811,-229.828649
1007.486118,888.247130,-9474.636058,383.047749
1007.486442,1332.370696,-8512.368333,842.705048
1007.486766,666.185348,-7846.182985,-536.266849
1007.487090,-962.267725,-8882.471304,76.609550
1007.487414,-1776.494261,-9474.636058,459.657299
1007.487738,-1554.432478,-9474.636058,536.266849
1007.488062,-1702.473667,-8216.285956,153.219100
1007.488386,-2220.617826,-8216.285956,383.047749
1007.488709,-2220.617826,-8734.430116,766.095498
1007.489033,-1184.329507,-9400.615463,766.095498
1007.489357,-518.144159,-9326.594869,1762.019645
1007.489681,0.000000,-8068.244768,1991.848295
1007.490005,370.102971,-8512.368333,1991.848295
1007.490329,222.061783,-9178.553681,2145.067394
1007.490653,814.226536,-9770.718434,2221.676944
1007.490977,666.185348,-9252.574275,1915.238745
1007.491300,592.164754,-8512.368333,1838.629195
1007.491624,666.185348,-8586.388927,1838.629195
1007.491948,962.267725,-8142.265362,1149.143247
1007.492272,1036.288319,-8216.285956,1225.752797
1007.492596,962.267725,-7772.162391,1378.971896
1007.492920,666.185348,-7550.100608,612.876398
1007.493244,0.000000,-8586.388927,76.609550
1007.493568,0.000000,-9474.636058,459.657299
1007.493891,148.041188,-8808.450710,-689.485948
1007.494215,370.102971,-10066.800811,383.047749
1007.494539,1184.329507,-12065.356855,689.485948
1007.494863,1554.432478,-11029.068536,229.828649
1007.495187,1850.514855,-9918.759623,1915.238745
1007.495511,1036.288319,-10288.862594,919.314598
1007.495835,888.247130,-11473.192101,306.438199
1007.496159,-296.082377,-12139.377449,-383.047749
1007.496482,-2072.576638,-10955.047942,0.000000
1007.496806,-2072.576638,-10807.006753,-459.657299
1007.497130,-1480.411884,-11399.171507,-1378.971896
1007.497454,-1554.432478,-11103.089130,76.609550
1007.497778,-1480.411884,-10288.862594,-995.924147
1007.498102,-1850.514855,-10807.006753,-1455.581446
1007.498426,-1924.535449,-11251.130318,-1149.143247
1007.498750,-1110.308913,-10658.965565,-1532.190996
1007.499073,-444.123565,-9770.718434,-689.485948
1007.499397,-518.144159,-9474.636058,-1149.143247
1007.499721,222.061783,-9474.636058,76.609550
1007.500045,1776.494261,-9844.739029,0.000000
1007.500369,2220.617826,-9400.615463,-383.047749
1007.500693,1184.329507,-9252.574275,0.000000
1007.501017,740.205942,-8808.450710,-383.047749
1007.501341,962.267725,-8364.327145,-1072.533697
1007.501664,444.123565,-8808.450710,-1072.533697
1007.501988,-666.185348,-8660.409521,-919.314598
1007.502312,-888.247130,-8290.306550,-1225.752797
1007.502636,-1036.288319,-8586.388927,-1072.533697
1007.502960,-1554.432478,-9770.718434,-536.266849
1007.503284,-1110.308913,-9992.780217,-229.828649
1007.503608,-666.185348,-9400.615463,-1302.362347
1007.503932,-888.247130,-8956.491898,-1302.362347
1007.504256,-296.082377,-10140.821405,-229.828649
1007.504580,518.144159,-10436.903782,689.485948
1007.504903,1702.473667,-10955.047942,1149.143247
1007.505227,962.267725,-10362.883188,536.266849
1007.505551,518.144159,-8956.491898,0.000000
1007.505875,222.061783,-9696.697840,0.000000
1007.506199,740.205942,-10658.965565,0.000000
1007.506523,1702.473667,-10436.903782,153.219100
1007.506847,1998.556043,-9400.615463,0.000000
1007.507171,1036.288319,-7846.182985,-842.705048
1007.507495,0.000000,-8364.327145,306.438199
1007.507818,-148.041188,-8660.409521,-842.705048
1007.508142,-592.164754,-8956.491898,-1455.581446
1007.508466,-1480.411884,-8956.491898,-919.314598
1007.508790,-740.205942,-8956.491898,-919.314598
1007.509114,0.000000,-9474.636058,383.047749
1007.509438,888.247130,-9400.615463,995.924147
1007.509762,1036.288319,-8660.409521,766.095498
1007.510086,0.000000,-9474.636058,-306.438199
1007.510410,-1184.329507,-10584.944971,536.266849
1007.510734,-666.185348,-10140.821405,383.047749
1007.511057,962.267725,-10288.862594,919.314598
1007.511381,370.102971,-10732.986159,1149.143247
1007.511705,-888.247130,-9770.718434,0.000000
1007.512029,-1850.514855,-10066.800811,-383.047749
1007.512353,-1480.411884,-10584.944971,-1149.143247
1007.512677,-740.205942,-10955.047942,-612.876398
1007.513001,-1110.308913,-9844.739029,-766.095498
1007.513325,-1702.473667,-9992.780217,-766.095498
1007.513649,-2294.638420,-10140.821405,-842.705048
1007.513972,-1554.432478,-9696.697840,-766.095498
1007.514296,-1184.329507,-9770.718434,-689.485948
1007.514620,666.185348,-10140.821405,229.828649
1007.514944,1184.329507,-10436.903782,1608.800546
1007.515268,1850.514855,-10658.965565,1608.800546
1007.515592,1998.556043,-9918.759623,1072.533697
1007.515916,1332.370696,-9770.718434,0.000000
1007.516240,148.041188,-9474.636058,-306.438199
1007.516564,0.000000,-9030.512492,-153.219100
1007.516888,296.082377,-9474.636058,-153.219100
1007.517211,518.144159,-9844.739029,766.095498
1007.517535,-666.185348,-9696.697840,0.000000
1007.517859,-2146.597232,-9400.615463,-1762.019645
1007.518183,-2664.741391,-9474.636058,-1225.752797
1007.518507,-1110.308913,-9622.677246,-689.485948
1007.518831,222.061783,-9992.780217,0.000000
1007.519155,-444.123565,-9844.739029,1072.533697
1007.519479,0.000000,-9548.656652,1915.238745
1007.519803,888.247130,-9770.718434,1685.410096
1007.520126,1628.453072,-10436.903782,1378.971896
1007.520450,1702.473667,-9622.677246,1455.581446
1007.520774,888.247130,-9252.574275,1838.629195
1007.521098,1332.370696,-9844.739029,1455.581446
1007.521422,1258.350101,-9104.533087,2374.896044
1007.521746,1702.473667,-10214.842000,2604.724693
1007.522070,1110.308913,-9178.553681,1608.800546
1007.522394,0.000000,-7994.224174,459.657299
1007.522718,-1258.350101,-7846.182985,995.924147
1007.523042,-518.144159,-8142.265362,612.876398
1007.523365,-222.061783,-8142.265362,0.000000
1007.523689,-2146.597232,-7476.080014,-459.657299
1007.524013,-2664.741391,-7550.100608,0.000000
1007.524337,-1332.370696,-8734.430116,459.657299
1007.524661,1036.288319,-8956.491898,1915.238745
1007.524985,1998.556043,-8808.450710,1225.752797
1007.525309,1036.288319,-8068.244768,919.314598
1007.525633,222.061783,-8808.450710,459.657299
1007.525957,296.082377,-11177.109724,919.314598
1007.526280,888.247130,-11917.315666,1915.238745
1007.526604,814.226536,-11029.068536,995.924147
1007.526928,-740.205942,-9252.574275,0.000000
1007.527252,-518.144159,-9844.739029,0.000000
1007.527576,296.082377,-11843.295072,229.828649
1007.527900,888.247130,-12879.583391,-229.828649
1007.528224,-666.185348,-10510.924376,-1149.143247
1007.528548,-2368.659014,-8216.285956,-1455.581446
1007.528872,-2220.617826,-8586.388927,-1991.848295
1007.529195,-1110.308913,-10584.944971,-1608.800546
1007.529519,-1110.308913,-11695.253884,-766.095498
1007.529843,-1258.350101,-11029.068536,-612.876398
1007.530167,-296.082377,-10436.903782,-536.266849
1007.530491,1036.288319,-10584.944971,76.609550
1007.530815,2886.803174,-10510.924376,689.485948
1007.531139,2590.720797,-11251.130318,-842.705048
1007.531463,666.185348,-10807.006753,-919.314598
1007.531787,-148.041188,-10732.986159,-1838.629195
1007.532111,148.041188,-10807.006753,-2145.067394
1007.532434,518.144159,-10658.965565,-1762.019645
1007.532758,-666.185348,-10214.842000,-2145.067394
1007.533082,-1628.453072,-9992.780217,-2451.505594
1007.533406,-1184.329507,-9992.780217,-2374.896044
1007.533730,-296.082377,-9992.780217,-1225.752797
1007.534054,888.247130,-10288.862594,-306.438199
1007.534378,1406.391290,-9326.594869,-383.047749
1007.534702,1776.494261,-9548.656652,153.219100
1007.535026,1332.370696,-10140.821405,306.438199
1007.535349,740.205942,-10510.924376,153.219100
1007.535673,0.000000,-9770.718434,1225.752797
1007.535997,-592.164754,-7920.203579,0.000000
1007.536321,-296.082377,-8216.285956,0.000000
1007.536645,-592.164754,-8512.368333,-153.219100
1007.536969,0.000000,-8956.491898,-612.876398
1007.537293,222.061783,-8808.450710,-383.047749
1007.537617,0.000000,-8290.306550,-306.438199
1007.537941,-222.061783,-8438.347739,306.438199
1007.538265,-666.185348,-7846.182985,459.657299
1007.538588,-370.102971,-7550.100608,-229.828649
1007.538912,-740.205942,-8216.285956,689.485948
1007.539236,-296.082377,-8586.388927,229.828649
1007.539560,0.000000,-8734.430116,842.705048
1007.539884,370.102971,-9030.512492,842.705048
1007.540208,1110.308913,-8660.409521,383.047749
1007.540532,740.205942,-8290.306550,1455.581446
1007.540856,592.164754,-9474.636058,689.485948
1007.541180,0.000000,-9844.739029,153.219100
1007.541503,-592.164754,-9474.636058,842.705048
1007.541827,-518.144159,-9400.615463,0.000000
1007.542151,0.000000,-9844.739029,-766.095498
1007.542475,0.000000,-10362.883188,-306.438199
1007.542799,0.000000,-9844.739029,-153.219100
1007.543123,0.000000,-9992.780217,-766.095498
1007.543447,-296.082377,-10510.924376,-919.314598
1007.543771,0.000000,-11029.068536,76.609550
1007.544095,962.267725,-11769.274478,612.876398
1007.544419,1184.329507,-10807.006753,536.266849
1007.544742,-370.102971,-11029.068536,842.705048
1007.545066,-1332.370696,-10955.047942,-383.047749
1007.545390,-1998.556043,-10658.965565,-689.485948
1007.545714,-1554.432478,-10807.006753,-536.266849
1007.546038,-962.267725,-11103.089130,-536.266849
1007.546362,444.123565,-10362.883188,-766.095498
1007.546686,592.164754,-10288.862594,0.000000
1007.547010,1554.432478,-10732.986159,229.828649
1007.547334,2368.659014,-10140.821405,-153.219100
1007.547657,1480.411884,-10214.842000,-383.047749
1007.547981,-370.102971,-9474.636058,-1149.143247
1007.548305,-518.144159,-10066.800811,-153.219100
1007.548629,444.123565,-10732.986159,1378.971896
1007.548953,1480.411884,-10732.986159,1455.581446
1007.549277,222.061783,-9548.656652,1072.533697
1007.549601,-1036.288319,-7846.182985,383.047749
1007.549925,-740.205942,-8808.450710,919.314598
1007.550249,0.000000,-10066.800811,766.095498
1007.550573,-592.164754,-8956.491898,919.314598
1007.550896,-2442.679609,-7698.141797,1455.581446
1007.551220,-3182.885551,-6883.915261,-459.657299
1007.551544,-2886.803174,-7846.182985,-306.438199
1007.551868,-3034.844362,-8290.306550,306.438199
1007.552192,-2146.597232,-8660.409521,153.219100
1007.552516,-1702.473667,-8290.306550,306.438199
1007.552840,-592.164754,-8216.285956,2068.457845
1007.553164,1184.329507,-8216.285956,1915.238745
1007.553488,2812.782580,-8290.306550,1378.971896
1007.553811,2738.761985,-7476.080014,1225.752797
1007.554135,2664.741391,-8734.430116,1072.533697
1007.554459,2368.659014,-9844.739029,1455.581446
1007.554783,2812.782580,-9474.636058,1378.971896
1007.555107,2664.741391,-9030.512492,1532.190996
1007.555431,814.226536,-8956.491898,0.000000
1007.555755,-1110.308913,-9400.615463,-995.924147
1007.556079,-2220.617826,-10288.862594,-612.876398
1007.556403,-1628.453072,-9844.739029,-536.266849
1007.556726,-1184.329507,-9326.594869,-612.876398
1007.557050,-2516.700203,-9326.594869,-1685.410096
1007.557374,-2960.823768,-9474.636058,-1302.362347
1007.557698,-2072.576638,-10955.047942,-612.876398
1007.558022,-296.082377,-11547.212695,0.000000
1007.558346,666.185348,-11547.212695,383.047749
1007.558670,814.226536,-11843.295072,919.314598
1007.558994,518.144159,-11843.295072,919.314598
1007.559318,1702.473667,-11991.336260,383.047749
1007.559642,2072.576638,-11547.212695,0.000000
1007.559965,2220.617826,-11843.295072,-1149.143247
1007.560289,1184.329507,-11769.274478,-1532.190996
1007.560613,444.123565,-11251.130318,-1225.752797
1007.560937,814.226536,-10288.862594,-1685.410096
1007.561261,1480.411884,-9548.656652,-1608.800546
1007.561585,148.041188,-9918.759623,-2451.505594
1007.561909,-1776.494261,-10140.821405,-2757.943793
1007.562233,-1406.391290,-9844.739029,-1378.971896
1007.562557,962.267725,-9400.615463,-689.485948
1007.562880,2146.597232,-8734.430116,-689.485948
1007.563204,444.123565,-8216.285956,0.000000
1007.563528,-888.247130,-9252.574275,-306.438199
1007.563852,-1184.329507,-10362.883188,-229.828649
1007.564176,148.041188,-10066.800811,-229.828649
1007.564500,518.144159,-9030.512492,-766.095498
1007.564824,-296.082377,-7624.121203,-766.095498
1007.565148,-444.123565,-8660.409521,-1608.800546
1007.565472,0.000000,-9474.636058,-1455.581446
1007.565796,296.082377,-9622.677246,0.000000
1007.566119,740.205942,-10584.944971,-383.047749
1007.566443,74.020594,-10066.800811,76.609550
1007.566767,-1184.329507,-9326.594869,-766.095498
1007.567091,-1258.350101,-7846.182985,-229.828649
1007.567415,-518.144159,-9104.533087,0.000000
1007.567739,-888.247130,-10436.903782,383.047749
1007.568063,-444.123565,-9548.656652,919.314598
1007.568387,370.102971,-7179.997637,612.876398
1007.568711,592.164754,-6661.853478,1225.752797
1007.569034,296.082377,-9326.594869,1149.143247
1007.569358,-888.247130,-9326.594869,383.047749
1007.569682,-1332.370696,-8808.450710,153.219100
1007.570006,-1036.288319,-8660.409521,459.657299
1007.570330,222.061783,-8364.327145,229.828649
1007.570654,962.267725,-8808.450710,306.438199
1007.570978,-518.144159,-9622.677246,306.438199
1007.571302,-1036.288319,-9918.759623,-842.705048
1007.571626,-666.185348,-9918.759623,-383.047749
1007.571950,518.144159,-10658.965565,1532.190996
1007.572273,888.247130,-11547.212695,1302.362347
1007.572597,74.020594,-10362.883188,383.047749
1007.572921,-666.185348,-9622.677246,383.047749
1007.573245,-1406.391290,-10214.842000,306.438199
1007.573569,-740.205942,-12435.459826,229.828649
1007.573893,-814.226536,-11991.336260,536.266849
1007.574217,-1258.350101,-10584.944971,689.485948
1007.574541,-1480.411884,-9622.677246,0.000000
1007.574865,-888.247130,-10658.965565,306.438199
1007.575188,-962.267725,-12139.377449,-153.219100
1007.575512,-592.164754,-11547.212695,-229.828649
1007.575836,-148.041188,-9844.739029,1302.362347
1007.576160,1628.453072,-9474.636058,919.314598
1007.576484,1998.556043,-9104.533087,0.000000
1007.576808,148.041188,-8660.409521,0.000000
1007.577132,-370.102971,-9474.636058,229.828649
1007.577456,592.164754,-10881.027347,383.047749
1007.577780,1924.535449,-9992.780217,383.047749
1007.578104,1406.391290,-7328.038826,1149.143247
1007.578427,370.102971,-7402.059420,153.219100
1007.578751,0.000000,-9104.533087,-612.876398
1007.579075,-222.061783,-10140.821405,0.000000
1007.579399,0.000000,-9326.594869,0.000000
1007.579723,-814.226536,-8660.409521,-459.657299
1007.580047,-1258.350101,-8438.347739,306.438199
1007.580371,0.000000,-9104.533087,919.314598
1007.580695,1110.308913,-9622.677246,383.047749
1007.581019,814.226536,-9326.594869,0.000000
1007.581342,222.061783,-8882.471304,0.000000
1007.581666,666.185348,-9400.615463,459.657299
1007.581990,1332.370696,-9400.615463,919.314598
1007.582314,962.267725,-8290.306550,1608.800546
1007.582638,-296.082377,-8512.368333,153.219100
1007.582962,-1850.514855,-9548.656652,-689.485948
1007.583286,-1628.453072,-9918.759623,-766.095498
1007.583610,-962.267725,-8956.491898,-919.314598
1007.583934,0.000000,-8142.265362,-1072.533697
1007.584257,-444.123565,-8808.450710,-536.266849
1007.584581,-740.205942,-9770.718434,-995.924147
1007.584905,-148.041188,-9844.739029,-689.485948
1007.585229,518.144159,-9252.574275,-229.828649
1007.585553,1480.411884,-9770.718434,153.219100
1007.585877,1702.473667,-10436.903782,-689.485948
1007.586201,1628.453072,-10140.821405,0.000000
1007.586525,1036.288319,-10214.842000,0.000000
1007.586849,1258.350101,-10955.047942,-383.047749
1007.587173,148.041188,-11473.192101,76.609550
1007.587496,-370.102971,-11843.295072,-612.876398
1007.587820,-1184.329507,-10955.047942,-459.657299
1007.588144,-1110.308913,-9696.697840,-995.924147
1007.588468,-1110.308913,-9992.780217,-1225.752797
1007.588792,-1776.494261,-11325.150913,-1378.971896
1007.589116,-1628.453072,-11029.068536,-1532.190996
1007.589440,-1554.432478,-9844.739029,-1225.752797
1007.589764,-1776.494261,-9474.636058,76.609550
1007.590088,-1110.308913,-9992.780217,-766.095498
1007.590411,-814.226536,-10881.027347,-919.314598
1007.590735,-814.226536,-10955.047942,153.219100
1007.591059,-444.123565,-10955.047942,306.438199
1007.591383,1406.391290,-10066.800811,229.828649
1007.591707,2442.679609,-9992.780217,459.657299
1007.592031,1850.514855,-10214.842000,766.095498
1007.592355,518.144159,-9918.759623,229.828649
1007.592679,0.000000,-8364.327145,-1378.971896
1007.593003,-666.185348,-7698.141797,-1838.629195
1007.593327,-666.185348,-9474.636058,-1072.533697
1007.593650,-148.041188,-9918.759623,-1608.800546
1007.593974,0.000000,-9400.615463,-689.485948
1007.594298,296.082377,-8512.368333,536.266849
1007.594622,1406.391290,-9252.574275,919.314598
1007.594946,1110.308913,-10066.800811,0.000000
1007.595270,0.000000,-8586.388927,306.438199
1007.595594,0.000000,-8290.306550,1455.581446
1007.595918,518.144159,-10066.800811,536.266849
1007.596242,444.123565,-10584.944971,536.266849
1007.596565,148.041188,-9474.636058,1149.143247
1007.596889,-148.041188,-8956.491898,1302.362347
1007.597213,0.000000,-9474.636058,-383.047749
1007.597537,-888.247130,-9474.636058,-153.219100
1007.597861,-370.102971,-9474.636058,536.266849
1007.598185,444.123565,-8882.471304,-1072.533697
1007.598509,1332.370696,-8216.285956,-536.266849
1007.598833,1258.350101,-8586.388927,459.657299
1007.599157,1184.329507,-9326.594869,0.000000
1007.599481,74.020594,-8808.450710,-229.828649
1007.599804,-888.247130,-8808.450710,0.000000
1007.600128,0.000000,-9548.656652,689.485948
1007.600452,1332.370696,-9400.615463,306.438199
1007.600776,1998.556043,-10066.800811,995.924147
1007.601100,1036.288319,-10584.944971,919.314598
1007.601424,444.123565,-9400.615463,0.000000
1007.601748,-518.144159,-9400.615463,-306.438199
1007.602072,-962.267725,-10066.800811,-459.657299
1007.602396,-814.226536,-10658.965565,612.876398
1007.602719,-1036.288319,-10658.965565,-229.828649
1007.603043,-1184.329507,-9474.636058,-306.438199
1007.603367,-1702.473667,-9474.636058,0.000000
1007.603691,-1110.308913,-10436.903782,-383.047749
1007.604015,-666.185348,-11325.150913,0.000000
1007.604339,-444.123565,-9992.780217,536.266849
1007.604663,0.000000,-10066.800811,689.485948
1007.604987,-888.247130,-9696.697840,0.000000
1007.605311,-1924.535449,-9622.677246,153.219100
1007.605635,-2368.659014,-9548.656652,153.219100
1007.605958,-962.267725,-10510.924376,306.438199
1007.606282,0.000000,-9770.718434,459.657299
1007.606606,444.123565,-8216.285956,306.438199
1007.606930,444.123565,-8364.327145,153.219100
1007.607254,296.082377,-8956.491898,-1072.533697
1007.607578,0.000000,-9030.512492,-459.657299
1007.607902,296.082377,-9770.718434,306.438199
1007.608226,1036.288319,-9400.615463,689.485948
1007.608550,2072.576638,-8956.491898,-536.266849
1007.608874,0.000000,-9474.636058,-689.485948
1007.609197,-962.267725,-9104.533087,-1532.190996
1007.609521,-1184.329507,-9918.759623,-1302.362347
1007.609845,-1554.432478,-11029.068536,0.000000
1007.610169,0.000000,-10066.800811,76.609550
1007.610493,888.247130,-8364.327145,76.609550
1007.610817,0.000000,-9326.594869,-306.438199
1007.611141,-592.164754,-10362.883188,-689.485948
1007.611465,-666.185348,-11029.068536,0.000000
1007.611789,-814.226536,-10510.924376,-153.219100
1007.612112,-1554.432478,-9844.739029,0.000000
1007.612436,-1554.432478,-9252.574275,306.438199
1007.612760,296.082377,-8808.450710,-306.438199
1007.613084,962.267725,-10510.924376,-995.924147
1007.613408,1036.288319,-10066.800811,-995.924147
1007.613732,1332.370696,-9104.533087,-383.047749
1007.614056,888.247130,-9326.594869,-153.219100
1007.614380,1110.308913,-8882.471304,-1072.533697
1007.614704,814.226536,-8586.388927,-1225.752797
1007.615028,222.061783,-8586.388927,-1225.752797
1007.615351,666.185348,-10140.821405,-689.485948
1007.615675,888.247130,-10140.821405,0.000000
1007.615999,1480.411884,-9326.594869,536.266849
1007.616323,1628.453072,-8956.491898,-306.438199
1007.616647,1480.411884,-9178.553681,-383.047749
1007.616971,814.226536,-10288.862594,-459.657299
1007.617295,1110.308913,-10510.924376,0.000000
1007.617619,592.164754,-10510.924376,76.609550
1007.617943,-888.247130,-9918.759623,-536.266849
1007.618267,-1184.329507,-10288.862594,-229.828649
1007.618590,-666.185348,-10732.986159,-383.047749
1007.618914,0.000000,-10584.944971,-612.876398
1007.619238,-1036.288319,-10214.842000,76.609550
1007.619562,-666.185348,-10288.862594,459.657299
1007.619886,-666.185348,-9252.574275,536.266849
1007.620210,-296.082377,-9326.594869,766.095498
1007.620534,-1036.288319,-9622.677246,612.876398
1007.620858,-1776.494261,-10288.862594,0.000000
1007.621182,-1924.535449,-10066.800811,306.438199
1007.621505,-1036.288319,-9474.636058,1378.971896
1007.621829,296.082377,-8882.471304,1378.971896
1007.622153,1110.308913,-8290.306550,689.485948
1007.622477,740.205942,-8290.306550,-459.657299
1007.622801,222.061783,-9400.615463,76.609550
1007.623125,814.226536,-10732.986159,459.657299
1007.623449,1258.350101,-10362.883188,1149.143247
1007.623773,740.205942,-9474.636058,995.924147
1007.624097,-222.061783,-8586.388927,0.000000
1007.624421,-1628.453072,-9252.574275,0.000000
1007.624744,-740.205942,-9696.697840,-842.705048
1007.625068,74.020594,-10066.800811,306.438199
1007.625392,666.185348,-10140.821405,919.314598
1007.625716,962.267725,-9474.636058,689.485948
1007.626040,-296.082377,-9474.636058,76.609550
1007.626364,-1184.329507,-9326.594869,-306.438199
1007.626688,-1184.329507,-10658.965565,76.609550
1007.627012,-592.164754,-11029.068536,0.000000
1007.627336,-1332.370696,-9696.697840,153.219100
1007.627660,-1924.535449,-8438.347739,842.705048
1007.627983,-1110.308913,-9030.512492,306.438199
1007.628307,-962.267725,-10510.924376,229.828649
1007.628631,-1184.329507,-9548.656652,-1532.190996
1007.628955,-666.185348,-8068.244768,-459.657299
1007.629279,592.164754,-8438.347739,-383.047749
1007.629603,2368.659014,-8956.491898,-995.924147
1007.629927,1924.535449,-9400.615463,-306.438199
1007.630251,0.000000,-9770.718434,153.219100
1007.630575,-370.102971,-10955.047942,-1225.752797
1007.630899,296.082377,-10510.924376,-1378.971896
1007.631222,1702.473667,-9622.677246,-153.219100
1007.631546,2664.741391,-9992.780217,76.609550
1007.631870,1554.432478,-10807.006753,229.828649
1007.632194,740.205942,-11029.068536,536.266849
1007.632518,-666.185348,-10807.006753,306.438199
1007.632842,-1554.432478,-11177.109724,-766.095498
1007.633166,-2516.700203,-10807.006753,-842.705048
1007.633490,-2368.659014,-9622.677246,-612.876398
1007.633814,-1110.308913,-9030.512492,-612.876398
1007.634137,-296.082377,-9548.656652,-919.314598
1007.634461,-962.267725,-9918.759623,-612.876398
1007.634785,-296.082377,-9474.636058,229.828649
1007.635109,1110.308913,-10066.800811,842.705048
1007.635433,2220.617826,-9918.759623,842.705048
1007.635757,2146.597232,-8956.491898,1072.533697
1007.636081,1406.391290,-8808.450710,0.000000
1007.636405,962.267725,-9770.718434,995.924147
1007.636729,1480.411884,-9844.739029,995.924147
1007.637053,1406.391290,-9030.512492,306.438199
1007.637376,222.061783,-7920.203579,459.657299
1007.637700,592.164754,-7179.997637,-766.095498
1007.638024,518.144159,-8216.285956,0.000000
1007.638348,0.000000,-9252.574275,383.047749
1007.638672,-740.205942,-8660.409521,383.047749
1007.638996,-1406.391290,-8364.327145,-383.047749
1007.639320,-2368.659014,-7550.100608,-842.705048
1007.639644,-1998.556043,-8068.244768,-306.438199
1007.639968,-1184.329507,-9696.697840,-153.219100
1007.640292,-814.226536,-10955.047942,0.000000
1007.640615,-740.205942,-10362.883188,-689.485948
1007.640939,-444.123565,-8364.327145,-1149.143247
1007.641263,0.000000,-9252.574275,0.000000
1007.641587,1406.391290,-10288.862594,-153.219100
1007.641911,1850.514855,-10658.965565,0.000000
1007.642235,0.000000,-10881.027347,-306.438199
1007.642559,-740.205942,-11103.089130,-1149.143247
1007.642883,-296.082377,-10288.862594,-842.705048
1007.643207,1184.329507,-9770.718434,-842.705048
1007.643530,1184.329507,-10510.924376,-1149.143247
1007.643854,0.000000,-11547.212695,-919.314598
1007.644178,518.144159,-11695.253884,-612.876398
1007.644502,1036.288319,-10436.903782,-766.095498
1007.644826,962.267725,-9622.677246,-842.705048
1007.645150,-370.102971,-9548.656652,-2451.505594
1007.645474,-1480.411884,-10584.944971,-1991.848295
1007.645798,0.000000,-11473.192101,-1838.629195
1007.646122,1480.411884,-10658.965565,-1149.143247
1007.646446,1184.329507,-11029.068536,-229.828649
1007.646769,148.041188,-10510.924376,0.000000
1007.647093,-222.061783,-10584.944971,-536.266849
1007.647417,-148.041188,-11399.171507,0.000000
1007.647741,592.164754,-11177.109724,153.219100
1007.648065,-222.061783,-11251.130318,0.000000
1007.648389,-1332.370696,-10584.944971,-229.828649
1007.648713,-1258.350101,-9474.636058,1225.752797
1007.649037,0.000000,-9178.553681,766.095498
1007.649361,-592.164754,-9548.656652,229.828649
1007.649685,-1776.494261,-9326.594869,-229.828649
1007.650008,-1998.556043,-7846.182985,-536.266849
1007.650332,-1702.473667,-7698.141797,0.000000
1007.650656,-962.267725,-8290.306550,76.609550
1007.650980,-814.226536,-7476.080014,153.219100
1007.651304,-1184.329507,-7994.224174,842.705048
1007.651628,-888.247130,-8882.471304,1608.800546
1007.651952,740.205942,-8586.388927,1302.362347
1007.652276,2072.576638,-8068.244768,2145.067394
1007.652600,1924.535449,-8290.306550,1915.238745
1007.652923,888.247130,-8290.306550,1608.800546
1007.653247,296.082377,-8956.491898,1991.848295
1007.653571,-296.082377,-9178.553681,1685.410096
1007.653895,-666.185348,-8290.306550,919.314598
1007.654219,-1480.411884,-7624.121203,0.000000
1007.654543,-2590.720797,-8290.306550,-459.657299
1007.654867,-2516.700203,-9030.512492,-612.876398
1007.655191,-1776.494261,-10140.821405,612.876398
1007.655515,0.000000,-11325.150913,1532.190996
1007.655839,1480.411884,-9992.780217,995.924147
1007.656162,518.144159,-9326.594869,1532.190996
1007.656486,518.144159,-10214.842000,1149.143247
1007.656810,1850.514855,-10732.986159,842.705048
1007.657134,2368.659014,-10881.027347,1072.533697
1007.657458,1110.308913,-10732.986159,0.000000
1007.657782,0.000000,-9770.718434,-229.828649
1007.658106,666.185348,-10140.821405,-689.485948
1007.658430,2072.576638,-11029.068536,-1149.143247
1007.658754,1036.288319,-11325.150913,-1455.581446
1007.659078,0.000000,-10140.821405,-2068.457845
1007.659401,-592.164754,-11029.068536,-1149.143247
1007.659725,888.247130,-11473.192101,-1072.533697
1007.660049,1776.494261,-11177.109724,-536.266849
1007.660373,740.205942,-10807.006753,-612.876398
1007.660697,-370.102971,-10436.903782,-612.876398
1007.661021,74.020594,-10807.006753,-612.876398
1007.661345,1480.411884,-10584.944971,-612.876398
1007.661669,1554.432478,-10436.903782,-536.266849
1007.661993,148.041188,-10436.903782,-689.485948
1007.662317,-1258.350101,-10510.924376,-1378.971896
1007.662640,-1924.535449,-9918.759623,-1532.190996
1007.662964,-1480.411884,-10214.842000,-1762.019645
1007.663288,-1554.432478,-11325.150913,-2068.457845
1007.663612,-1480.411884,-11251.130318,-1762.019645
1007.663936,-148.041188,-9696.697840,-536.266849
1007.664260,814.226536,-9030.512492,229.828649
1007.664584,1258.350101,-9104.533087,153.219100
1007.664908,666.185348,-9252.574275,536.266849
1007.665232,-148.041188,-9030.512492,459.657299
1007.665555,-962.267725,-8808.450710,842.705048
1007.665879,-1036.288319,-8142.265362,-229.828649
1007.666203,-1850.514855,-7402.059420,0.000000
1007.666527,-2368.659014,-8216.285956,-459.657299
1007.666851,-2146.597232,-8216.285956,-536.266849
1007.667175,-1924.535449,-7846.182985,-842.705048
1007.667499,-1628.453072,-7550.100608,-995.924147
1007.667823,-1628.453072,-7550.100608,-1455.581446
1007.668147,-1110.308913,-7402.059420,-1455.581446
1007.668471,-592.164754,-8438.347739,-306.438199
1007.668794,-740.205942,-10214.842000,229.828649
1007.669118,-148.041188,-9918.759623,229.828649
1007.669442,222.061783,-9918.759623,766.095498
1007.669766,592.164754,-9918.759623,459.657299
1007.670090,2368.659014,-10955.047942,459.657299
1007.670414,3404.947333,-11473.192101,383.047749
1007.670738,3108.864956,-11399.171507,1072.533697
1007.671062,1776.494261,-9844.739029,-459.657299
1007.671386,-296.082377,-10066.800811,0.000000
1007.671710,-1406.391290,-10658.965565,-766.095498
1007.672033,-296.082377,-10510.924376,-1149.143247
1007.672357,-370.102971,-9918.759623,-1455.581446
1007.672681,-1628.453072,-9474.636058,-842.705048
1007.673005,-1998.556043,-10066.800811,-306.438199
1007.673329,-740.205942,-9252.574275,-536.266849
1007.673653,592.164754,-8660.409521,919.314598
1007.673977,1258.350101,-9030.512492,536.266849
1007.674301,2220.617826,-9104.533087,153.219100
1007.674625,2368.659014,-10436.903782,919.314598
1007.674948,2442.679609,-10288.862594,383.047749
1007.675272,2072.576638,-9844.739029,383.047749
1007.675596,518.144159,-10510.924376,-229.828649
1007.675920,222.061783,-10288.862594,-995.924147
1007.676244,740.205942,-9474.636058,-612.876398
1007.676568,1480.411884,-9622.677246,-383.047749
1007.676892,1850.514855,-11103.089130,0.000000
1007.677216,1184.329507,-11621.233289,0.000000
1007.677540,592.164754,-10955.047942,459.657299
1007.677864,148.041188,-9770.718434,-383.047749
1007.678187,-222.061783,-9104.533087,153.219100
1007.678511,-518.144159,-9474.636058,0.000000
1007.678835,-1036.288319,-9696.697840,383.047749
1007.679159,-1406.391290,-9622.677246,689.485948
1007.679483,-1184.329507,-9030.512492,689.485948
1007.679807,148.041188,-8956.491898,536.266849
1007.680131,296.082377,-9104.533087,-766.095498
1007.680455,-1184.329507,-8216.285956,-536.266849
1007.680779,-1702.473667,-8290.306550,0.000000
1007.681103,-1480.411884,-8734.430116,-842.705048
1007.681426,-2220.617826,-8882.471304,689.485948
1007.681750,-1628.453072,-8956.491898,459.657299
1007.682074,-518.144159,-9252.574275,689.485948
1007.682398,666.185348,-10140.821405,383.047749
1007.682722,814.226536,-9548.656652,612.876398
1007.683046,888.247130,-9030.512492,383.047749
1007.683370,518.144159,-9104.533087,536.266849
1007.683694,148.041188,-9474.636058,-459.657299
1007.684018,-444.123565,-9030.512492,-459.657299
1007.684342,-1184.329507,-9400.615463,-536.266849
1007.684665,-1036.288319,-10807.006753,-1149.143247
1007.684989,-888.247130,-10140.821405,-1532.190996
1007.685313,-1332.370696,-8956.491898,-1225.752797
1007.685637,-1332.370696,-9474.636058,153.219100
1007.685961,74.020594,-11769.274478,-995.924147
1007.686285,1110.308913,-11843.295072,153.219100
1007.686609,1628.453072,-9252.574275,459.657299
1007.686933,370.102971,-9326.594869,536.266849
1007.687257,0.000000,-9992.780217,153.219100
1007.687580,444.123565,-10288.862594,383.047749
1007.687904,592.164754,-8438.347739,306.438199
1007.688228,888.247130,-7254.018232,-689.485948
1007.688552,592.164754,-7402.059420,-1302.362347
1007.688876,1628.453072,-8438.347739,-1072.533697
1007.689200,1924.535449,-9844.739029,-995.924147
1007.689524,1036.288319,-8956.491898,-1149.143247
1007.689848,518.144159,-9474.636058,-1455.581446
1007.690172,444.123565,-9252.574275,-1991.848295
1007.690496,1850.514855,-9252.574275,-1378.971896
1007.690819,2294.638420,-9770.718434,-1072.533697
1007.691143,2442.679609,-9992.780217,-1915.238745
1007.691467,2294.638420,-10288.862594,-1608.800546
1007.691791,2590.720797,-10066.800811,-1225.752797
1007.692115,3256.906145,-10288.862594,-1455.581446
1007.692439,3330.926739,-10510.924376,-1685.410096
1007.692763,2072.576638,-10436.903782,-1302.362347
1007.693087,962.267725,-10658.965565,-2451.505594
1007.693411,222.061783,-10214.842000,-3294.210641
1007.693735,0.000000,-11251.130318,-1378.971896
1007.694058,740.205942,-11547.212695,-2374.896044
1007.694382,1554.432478,-11103.089130,-1685.410096
1007.694706,2220.617826,-9844.739029,-1915.238745
1007.695030,2072.576638,-9104.533087,-2528.115143
1007.695354,2072.576638,-8734.430116,-3064.381992
1007.695678,2590.720797,-8586.388927,-2604.724693
1007.696002,2664.741391,-9030.512492,-2757.943793
1007.696326,2664.741391,-9770.718434,-2221.676944
1007.696650,2516.700203,-9770.718434,-1838.629195
1007.696973,1480.411884,-10658.965565,-1991.848295
1007.697297,518.144159,-10584.944971,-2451.505594
1007.697621,518.144159,-9770.718434,-2834.553343
1007.697945,1332.370696,-10066.800811,-1685.410096
1007.698269,2738.761985,-10732.986159,-2221.676944
1007.698593,3997.112087,-9770.718434,-2298.286494
1007.698917,3849.070898,-8586.388927,-1915.238745
1007.699241,2664.741391,-9030.512492,-2451.505594
1007.699565,2442.679609,-9844.739029,-3677.258390
1007.699889,2146.597232,-9400.615463,-4290.134789
1007.700212,1184.329507,-9474.636058,-3140.991542
1007.700536,962.267725,-9400.615463,-3983.696590
1007.700860,1258.350101,-9622.677246,-2987.772442
1007.701184,518.144159,-10436.903782,-2298.286494
1007.701508,1110.308913,-11177.109724,-2834.553343
1007.701832,1776.494261,-9622.677246,-2451.505594
1007.702156,2294.638420,-9326.594869,-1225.752797
1007.702480,3552.988522,-9252.574275,0.000000
1007.702804,4515.256246,-9474.636058,-153.219100
1007.703128,3775.050304,-9400.615463,-306.438199
1007.703452,2738.761985,-7698.141797,-842.705048
1007.703776,2812.782580,-7179.997637,-2221.676944
1007.704100,1702.473667,-8364.327145,-2451.505594
1007.704424,296.082377,-8290.306550,-2757.943793
1007.704748,-222.061783,-8364.327145,-2987.772442
1007.705072,-1184.329507,-8586.388927,-3983.696590
1007.705396,-1258.350101,-8882.471304,-3217.601092
1007.705720,0.000000,-9030.512492,-2681.334243
1007.706044,1776.494261,-9918.759623,-2604.724693
1007.706368,3182.885551,-10658.965565,-1608.800546
1007.706692,4293.194464,-10584.944971,-766.095498
1007.707016,4663.297435,-10584.944971,-689.485948
1007.707340,4367.215058,-10658.965565,76.609550
1007.707664,4737.318029,-10436.903782,995.924147
1007.707988,4589.276840,-11695.253884,-459.657299
1007.708312,3775.050304,-11695.253884,-1072.533697
1007.708636,2072.576638,-9918.759623,-842.705048
1007.708960,740.205942,-10288.862594,-1302.362347
1007.709283,-444.123565,-10584.944971,-2757.943793
1007.709607,-1480.411884,-8438.347739,-3294.210641
1007.709931,-1924.535449,-8586.388927,-3370.820191
1007.710255,-888.247130,-9326.594869,-4290.134789
1007.710579,888.247130,-7476.080014,-3753.867940
1007.710903,2072.576638,-7698.141797,-2451.505594
1007.711227,2516.700203,-9104.533087,-2374.896044
1007.711551,4071.132681,-8734.430116,-2451.505594
1007.711875,4885.359217,-8734.430116,-1455.581446
1007.712199,4737.318029,-10214.842000,-919.314598
1007.712523,5699.585753,-11251.130318,-1378.971896
1007.712847,5847.626942,-10955.047942,-766.095498
1007.713171,4737.318029,-11769.274478,-766.095498
1007.713495,2738.761985,-11251.130318,-1915.238745
1007.713819,1184.329507,-10140.821405,-2298.286494
1007.714143,0.000000,-11177.109724,-2068.457845
1007.714467,-814.226536,-10510.924376,-2834.553343
1007.714791,-518.144159,-9474.636058,-3217.601092
1007.715115,-740.205942,-9400.615463,-2451.505594
1007.715439,-592.164754,-10140.821405,-2911.162892
1007.715763,74.020594,-9252.574275,-3064.381992
1007.716087,74.020594,-9252.574275,-2374.896044
1007.716411,1184.329507,-9622.677246,-2604.724693
1007.716735,1480.411884,-9548.656652,-2681.334243
1007.717059,2590.720797,-9844.739029,-2451.505594
1007.717383,3775.050304,-11029.068536,-1378.971896
1007.717707,4367.215058,-10881.027347,-1838.629195
1007.718031,3701.029710,-9770.718434,-1762.019645
1007.718355,2664.741391,-10214.842000,-995.924147
1007.718679,3627.009116,-11029.068536,-766.095498
1007.719003,4071.132681,-9474.636058,-1991.848295
1007.719327,3182.885551,-8512.368333,-1378.971896
1007.719651,2220.617826,-9326.594869,-842.705048
1007.719975,2960.823768,-9326.594869,-1838.629195
1007.720299,2590.720797,-7624.121203,-2221.676944
1007.720623,222.061783,-7624.121203,-1838.629195
1007.720947,-1184.329507,-8438.347739,-2145.067394
1007.721270,-740.205942,-9326.594869,-2221.676944
1007.721594,370.102971,-8808.450710,-2604.724693
1007.721918,444.123565,-7772.162391,-2987.772442
1007.722242,1110.308913,-8586.388927,-2757.943793
1007.722566,2368.659014,-9770.718434,-2068.457845
1007.722890,4145.153275,-9326.594869,-1302.362347
1007.723214,4071.132681,-8290.306550,-1762.019645
1007.723538,2886.803174,-8882.471304,-1915.238745
1007.723862,2368.659014,-10214.842000,-919.314598
1007.724186,3478.967927,-10584.944971,-1378.971896
1007.724510,4293.194464,-9474.636058,-1378.971896
1007.724834,3849.070898,-9622.677246,-1378.971896
1007.725158,2220.617826,-10510.924376,-1762.019645
1007.725482,1554.432478,-9400.615463,-2298.286494
1007.725806,2294.638420,-8734.430116,-2528.115143
1007.726130,1924.535449,-8438.347739,-3140.991542
1007.726454,518.144159,-10140.821405,-3294.210641
1007.726778,-518.144159,-9992.780217,-3447.429741
1007.727102,-148.041188,-9030.512492,-3064.381992
1007.727426,1184.329507,-9326.594869,-2604.724693
1007.727750,2368.659014,-9770.718434,-2604.724693
1007.728074,3627.009116,-10288.862594,-1838.629195
1007.728398,3330.926739,-10362.883188,-1915.238745
1007.728722,3256.906145,-10881.027347,-1762.019645
1007.729046,3108.864956,-11399.171507,-842.705048
1007.729370,3478.967927,-11251.130318,-766.095498
1007.729694,3997.112087,-11399.171507,-1149.143247
1007.730018,3552.988522,-10658.965565,-1608.800546
1007.730342,2516.700203,-10214.842000,-2451.505594
1007.730666,0.000000,-10214.842000,-2757.943793
1007.730990,-1036.288319,-10807.006753,-3064.381992
1007.731314,-740.205942,-9400.615463,-3447.429741
1007.731638,740.205942,-7846.182985,-3217.601092
1007.731962,1776.494261,-8290.306550,-3294.210641
1007.732286,1554.432478,-9992.780217,-3524.039291
1007.732610,666.185348,-10732.986159,-3447.429741
1007.732934,444.123565,-9548.656652,-2604.724693
1007.733258,1258.350101,-8734.430116,-1915.238745
1007.733581,3701.029710,-9178.553681,-1072.533697
1007.733905,5403.503377,-10288.862594,-766.095498
1007.734229,5625.565159,-10584.944971,-995.924147
1007.734553,3997.112087,-10881.027347,-1762.019645
1007.734877,2516.700203,-10807.006753,-1685.410096
1007.735201,1332.370696,-10436.903782,-1915.238745
1007.735525,0.000000,-9696.697840,-2374.896044
1007.735849,-592.164754,-8290.306550,-2911.162892
1007.736173,-888.247130,-8438.347739,-3753.867940
1007.736497,370.102971,-8808.450710,-3524.039291
1007.736821,1776.494261,-9400.615463,-2987.772442
1007.737145,2442.679609,-9400.615463,-2604.724693
1007.737469,1998.556043,-8512.368333,-2451.505594
1007.737793,814.226536,-8290.306550,-2451.505594
1007.738117,1184.329507,-9030.512492,-1685.410096
1007.738441,1184.329507,-10362.883188,-1838.629195
1007.738765,2220.617826,-10510.924376,-1915.238745
1007.739089,3775.050304,-10140.821405,-1532.190996
1007.739413,5033.400406,-10140.821405,-995.924147
1007.739737,6217.729913,-10436.903782,-842.705048
1007.740061,5255.462188,-10214.842000,-1455.581446
1007.740385,2664.741391,-9252.574275,-2911.162892
1007.740709,592.164754,-9474.636058,-2987.772442
1007.741033,0.000000,-9548.656652,-3217.601092
1007.741357,74.020594,-9474.636058,-2681.334243
1007.741681,1036.288319,-9400.615463,-2298.286494
1007.742005,2146.597232,-9474.636058,-1838.629195
1007.742329,2442.679609,-9104.533087,-1225.752797
1007.742653,3182.885551,-9252.574275,-689.485948
1007.742977,3330.926739,-9326.594869,0.000000
1007.743301,2886.803174,-9474.636058,0.000000
1007.743625,2368.659014,-9770.718434,0.000000
1007.743949,1850.514855,-10288.862594,-1378.971896
1007.744273,1036.288319,-10214.842000,-2298.286494
1007.744597,222.061783,-10066.800811,-2834.553343
1007.744921,0.000000,-9622.677246,-2834.553343
1007.745245,0.000000,-9252.574275,-3830.477490
1007.745568,814.226536,-8512.368333,-2528.115143
1007.745892,1628.453072,-9400.615463,-2145.067394
1007.746216,2294.638420,-9622.677246,-1762.019645
1007.746540,2590.720797,-9474.636058,-689.485948
1007.746864,2812.782580,-9400.615463,76.609550
1007.747188,3404.947333,-9178.553681,842.705048
1007.747512,4071.132681,-10436.903782,1378.971896
1007.747836,3552.988522,-10066.800811,1302.362347
1007.748160,3108.864956,-10214.842000,383.047749
1007.748484,1258.350101,-10140.821405,-1378.971896
1007.748808,-518.144159,-9844.739029,-2451.505594
1007.749132,-1924.535449,-9918.759623,-3753.867940
1007.749456,-2590.720797,-9474.636058,-4903.011187
1007.749780,-2294.638420,-8734.430116,-4979.620737
1007.750104,-444.123565,-8438.347739,-4366.744339
1007.750428,1628.453072,-8364.327145,-3140.991542
1007.750752,4071.132681,-8438.347739,-2221.676944
1007.751076,5329.482782,-8956.491898,-1072.533697
1007.751400,6069.688724,-9622.677246,76.609550
1007.751724,6143.709319,-10807.006753,229.828649
1007.752048,6439.791695,-11399.171507,612.876398
1007.752372,5033.400406,-11547.212695,995.924147
1007.752696,3552.988522,-11473.192101,-612.876398
1007.753020,1850.514855,-11399.171507,-2145.067394
1007.753344,-444.123565,-11029.068536,-3677.258390
1007.753668,-2960.823768,-9918.759623,-4979.620737
1007.753992,-4515.256246,-8734.430116,-6665.030833
1007.754316,-4737.318029,-8660.409521,-5362.668486
1007.754640,-3552.988522,-9252.574275,-4290.134789
1007.754964,-1332.370696,-9770.718434,-2528.115143
1007.755288,592.164754,-9030.512492,-842.705048
1007.755612,2220.617826,-8882.471304,-2068.457845
1007.755936,3108.864956,-10288.862594,459.657299
1007.756260,4145.153275,-11473.192101,-306.438199
1007.756584,4367.215058,-11251.130318,-306.438199
1007.756908,3034.844362,-10510.924376,-153.219100
1007.757232,2812.782580,-10658.965565,-1532.190996
1007.757556,2220.617826,-11325.150913,-2374.896044
1007.757879,1406.391290,-11251.130318,-2451.505594
1007.758203,1628.453072,-10362.883188,-3064.381992
1007.758527,962.267725,-9030.512492,-2834.553343
1007.758851,1110.308913,-8068.244768,-2604.724693
1007.759175,1480.411884,-7179.997637,-2374.896044
1007.759499,2368.659014,-6587.832884,-1532.190996
1007.759823,3627.009116,-6809.894666,-1149.143247
1007.760147,5477.523971,-7476.080014,-459.657299
1007.760471,6143.709319,-7624.121203,306.438199
1007.760795,6217.729913,-7846.182985,153.219100
1007.761119,5329.482782,-7698.141797,0.000000
1007.761443,3997.112087,-8660.409521,-1455.581446
1007.761767,2590.720797,-9622.677246,-2221.676944
1007.762091,1776.494261,-9844.739029,-2911.162892
1007.762415,2146.597232,-9326.594869,-2451.505594
1007.762739,2516.700203,-9104.533087,-3294.210641
1007.763063,3034.844362,-9178.553681,-2987.772442
1007.763387,2516.700203,-8882.471304,-2757.943793
1007.763711,2220.617826,-8734.430116,-3064.381992
1007.764035,2146.597232,-8660.409521,-2374.896044
1007.764359,2072.576638,-8364.327145,-1685.410096
1007.764683,2220.617826,-8956.491898,-1302.362347
1007.765007,3478.967927,-10066.800811,-995.924147
1007.765331,3849.070898,-10584.944971,-1302.362347
1007.765655,3330.926739,-10732.986159,-1838.629195
1007.765979,2146.597232,-10584.944971,-3217.601092
1007.766303,1332.370696,-10807.006753,-3983.696590
1007.766627,740.205942,-10807.006753,-4596.572988
1007.766951,0.000000,-10658.965565,-5592.497135
1007.767275,-1036.288319,-10510.924376,-6205.373534
1007.767599,-1850.514855,-10732.986159,-6511.811733
1007.767923,-1998.556043,-10584.944971,-5745.716235
1007.768247,-1332.370696,-10288.862594,-4749.792088
1007.768571,814.226536,-10807.006753,-3447.429741
1007.768895,3404.947333,-10955.047942,-2451.505594
1007.769219,5477.523971,-11547.212695,-1455.581446
1007.769543,6513.812290,-11843.295072,-689.485948
1007.769866,6143.709319,-12435.459826,-766.095498
1007.770190,4737.318029,-13175.665768,-1685.410096
1007.770514,2886.803174,-12287.418637,-2298.286494
1007.770838,0.000000,-11843.295072,-3447.429741
1007.771162,-2072.576638,-11547.212695,-4903.011187
1007.771486,-3108.864956,-10881.027347,-5515.887586
1007.771810,-2368.659014,-9992.780217,-5286.058936
1007.772134,-370.102971,-9252.574275,-4903.011187
1007.772458,1998.556043,-8586.388927,-4060.306139
1007.772782,3034.844362,-8512.368333,-3064.381992
1007.773106,2886.803174,-8882.471304,-2221.676944
1007.773430,2664.741391,-8882.471304,-1225.752797
1007.773754,2960.823768,-8882.471304,-229.828649
1007.774078,4441.235652,-9104.533087,689.485948
1007.774402,6217.729913,-9474.636058,1149.143247
1007.774726,7105.977043,-9326.594869,1149.143247
1007.775050,6439.791695,-9622.677246,1455.581446
1007.775374,3330.926739,-9548.656652,0.000000
1007.775698,-296.082377,-8660.409521,-1378.971896
1007.776022,-2886.803174,-7476.080014,-2298.286494
1007.776346,-3701.029710,-6587.832884,-2528.115143
1007.776670,-2738.761985,-6439.791695,-2911.162892
1007.776994,-1110.308913,-6143.709319,-2604.724693
1007.777318,-296.082377,-6883.915261,-2451.505594
1007.777642,518.144159,-6661.853478,-766.095498
1007.777966,1258.350101,-6957.935855,459.657299
1007.778290,2590.720797,-7328.038826,1532.190996
1007.778614,4441.235652,-7698.141797,1838.629195
1007.778938,5995.668130,-8808.450710,2145.067394
1007.779262,6143.709319,-10510.924376,1685.410096
1007.779586,5107.421000,-11473.192101,1991.848295
1007.779910,4589.276840,-10658.965565,995.924147
1007.780234,3256.906145,-9696.697840,459.657299
1007.780558,2516.700203,-9252.574275,-1608.800546
1007.780882,666.185348,-9030.512492,-2834.553343
1007.781206,-1480.411884,-9474.636058,-4290.134789
1007.781530,-2442.679609,-10214.842000,-4826.401637
1007.781854,-1110.308913,-10066.800811,-3983.696590
1007.782177,1332.370696,-9548.656652,-2298.286494
1007.782501,3849.070898,-9400.615463,-1608.800546
1007.782825,4885.359217,-9992.780217,-1532.190996
1007.783149,4663.297435,-11547.212695,-1378.971896
1007.783473,4293.194464,-12509.480420,-1762.019645
1007.783797,5255.462188,-13101.645173,-1149.143247
1007.784121,6143.709319,-13693.809927,-842.705048
1007.784445,4811.338623,-13619.789333,-383.047749
1007.784769,2664.741391,-12805.562797,-1762.019645
1007.785093,592.164754,-12139.377449,-3217.601092
1007.785417,0.000000,-11695.253884,-4060.306139
1007.785741,-370.102971,-10510.924376,-4979.620737
1007.786065,-592.164754,-9252.574275,-4749.792088
1007.786389,-444.123565,-8586.388927,-3830.477490
1007.786713,296.082377,-8734.430116,-4519.963438
1007.787037,962.267725,-8364.327145,-4519.963438
1007.787361,1554.432478,-8142.265362,-4136.915689
1007.787685,1628.453072,-8068.244768,-3447.429741
1007.788009,2738.761985,-9104.533087,-2604.724693
1007.788333,4441.235652,-9696.697840,-2145.067394
1007.788657,5107.421000,-9400.615463,-1608.800546
1007.788981,4589.276840,-9400.615463,-1455.581446
1007.789305,4145.153275,-9918.759623,-1225.752797
1007.789629,3775.050304,-9696.697840,-1455.581446
1007.789953,2146.597232,-8808.450710,-1378.971896
1007.790277,-222.061783,-7920.203579,-2068.457845
1007.790601,-1480.411884,-7772.162391,-2911.162892
1007.790925,-592.164754,-7550.100608,-2528.115143
1007.791249,222.061783,-7031.956449,-2834.553343
1007.791573,-444.123565,-6439.791695,-3064.381992
1007.791897,-740.205942,-6883.915261,-2987.772442
1007.792221,-222.061783,-7624.121203,-2681.334243
1007.792545,2220.617826,-7624.121203,-3064.381992
1007.792869,1924.535449,-7550.100608,-3140.991542
1007.793193,1850.514855,-9844.739029,-2451.505594
1007.793517,2812.782580,-11325.150913,-2528.115143
1007.793841,4589.276840,-10807.006753,-2374.896044
1007.794164,5699.585753,-10362.883188,-1455.581446
1007.794488,5329.482782,-11251.130318,-2374.896044
1007.794812,4737.318029,-12731.542202,-1915.238745
1007.795136,2960.823768,-11695.253884,-2298.286494
1007.795460,1332.370696,-10510.924376,-2298.286494
1007.795784,962.267725,-10584.944971,-2374.896044
1007.796108,1110.308913,-10955.047942,-2298.286494
1007.796432,2294.638420,-10658.965565,-1991.848295
1007.796756,2738.761985,-9992.780217,-2145.067394
1007.797080,3182.885551,-10510.924376,-2221.676944
1007.797404,2664.741391,-10214.842000,-2068.457845
1007.797728,1184.329507,-10066.800811,-2451.505594
1007.798052,296.082377,-10288.862594,-3370.820191
1007.798376,740.205942,-11029.068536,-3677.258390
1007.798700,1776.494261,-11621.233289,-3830.477490
1007.799024,2368.659014,-11695.253884,-3447.429741
1007.799348,2738.761985,-11399.171507,-3217.601092
1007.799672,2960.823768,-11547.212695,-2068.457845
1007.799996,2738.761985,-10288.862594,-1838.629195
1007.800320,2442.679609,-9548.656652,-689.485948
1007.800644,2812.782580,-10362.883188,536.266849
1007.800968,3923.091493,-10658.965565,76.609550
1007.801292,4071.132681,-9474.636058,1378.971896
1007.801616,2664.741391,-8956.491898,1915.238745
1007.801946,1332.370696,-9474.636058,229.828649
1007.802270,888.247130,-7179.997637,-1225.752797
1007.802594,0.000000,-6069.688724,-1991.848295
1007.802918,-1332.370696,-6587.832884,-3677.258390
1007.803242,-962.267725,-7402.059420,-4443.353888
1007.803566,-1332.370696,-7031.956449,-4903.011187
1007.803890,-1998.556043,-7994.224174,-4903.011187
1007.804214,-666.185348,-7846.182985,-3753.867940
1007.804538,2738.761985,-7846.182985,-2604.724693
1007.804862,4737.318029,-10140.821405,-1072.533697
1007.805186,6661.853478,-9844.739029,-766.095498
1007.805510,7846.182985,-9622.677246,919.314598
1007.805834,7846.182985,-12361.439231,2604.724693
1007.806158,7772.162391,-12509.480420,2681.334243
1007.806481,6661.853478,-11177.109724,1915.238745
1007.806805,3182.885551,-11029.068536,1608.800546
1007.807129,666.185348,-10510.924376,-689.485948
1007.807453,-370.102971,-9548.656652,-2757.943793
1007.807777,-2516.700203,-8660.409521,-3447.429741
1007.808101,-4959.379811,-7994.224174,-5209.449386
1007.808425,-5995.668130,-7698.141797,-6511.811733
1007.808749,-5921.647536,-7402.059420,-5898.935335
1007.809073,-3849.070898,-8290.306550,-5362.668486
1007.809397,0.000000,-8734.430116,-4443.353888
1007.809721,2368.659014,-8290.306550,-3524.039291
1007.810045,3552.988522,-9104.533087,-1991.848295
1007.810369,5255.462188,-10584.944971,76.609550
1007.810693,7031.956449,-12361.439231,1149.143247
1007.811017,7624.121203,-13545.768739,1915.238745
1007.811341,6735.874072,-13471.748144,2757.943793
1007.811665,6513.812290,-13841.851115,2221.676944
1007.811988,5255.462188,-12953.603985,766.095498
1007.812312,2590.720797,-11769.274478,536.266849
1007.812636,0.000000,-10214.842000,-1378.971896
1007.812960,-1480.411884,-9252.574275,-3217.601092
1007.813284,-2516.700203,-7624.121203,-4749.792088
1007.813608,-4071.132681,-6661.853478,-4749.792088
1007.813932,-4885.359217,-6513.812290,-5669.106685
1007.814256,-4885.359217,-6587.832884,-6205.373534
1007.814580,-3627.009116,-7179.997637,-5132.839837
1007.814904,-592.164754,-8068.244768,-3064.381992
1007.815228,2738.761985,-9844.739029,-536.266849
1007.815552,5477.523971,-11473.192101,2298.286494
1007.815876,7105.977043,-12139.377449,2987.772442
1007.816200,6809.894666,-11621.233289,3140.991542
1007.816524,4811.338623,-11843.295072,4136.915689
1007.816848,2516.700203,-12435.459826,2911.162892
1007.817172,1554.432478,-11177.109724,2068.457845
1007.817495,592.164754,-8142.265362,612.876398
1007.817819,-888.247130,-7105.977043,-306.438199
1007.818143,-1924.535449,-6661.853478,-2681.334243
1007.818467,-2664.741391,-5551.544565,-4443.353888
1007.818791,-3627.009116,-5329.482782,-5592.497135
1007.819115,-4145.153275,-6513.812290,-5515.887586
1007.819439,-2664.741391,-9622.677246,-4136.915689
1007.819763,-1110.308913,-10510.924376,-2068.457845
1007.820087,-222.061783,-10807.006753,-383.047749
1007.820411,-666.185348,-10732.986159,-689.485948
1007.820735,-444.123565,-11843.295072,-1302.362347
1007.821059,962.267725,-12361.439231,536.266849
1007.821383,2812.782580,-12953.603985,2068.457845
1007.821707,4959.379811,-12731.542202,2528.115143
1007.822031,5625.565159,-11695.253884,3524.039291
1007.822355,5847.626942,-9918.759623,2528.115143
1007.822678,4737.318029,-9252.574275,1149.143247
1007.823002,1554.432478,-9770.718434,-459.657299
1007.823326,-1850.514855,-9030.512492,-2374.896044
1007.823650,-3552.988522,-9770.718434,-2451.505594
1007.823974,-3849.070898,-10140.821405,-2068.457845
1007.824298,-3997.112087,-10066.800811,-2374.896044
1007.824622,-4589.276840,-9918.759623,-2451.505594
1007.824946,-4589.276840,-9326.594869,-2374.896044
1007.825270,-3627.009116,-9104.533087,-1991.848295
1007.825594,-2442.679609,-8882.471304,-1378.971896
1007.825918,-518.144159,-8734.430116,306.438199
1007.826242,1332.370696,-9030.512492,2374.896044
1007.826566,3552.988522,-9548.656652,2451.505594
1007.826890,3849.070898,-9252.574275,3600.648841
1007.827214,3923.091493,-9918.759623,4749.792088
1007.827538,3849.070898,-11843.295072,4903.011187
1007.827862,3552.988522,-11325.150913,3830.477490
1007.828185,2442.679609,-9400.615463,4673.182538
1007.828509,740.205942,-7994.224174,1991.848295
1007.828833,-2220.617826,-7772.162391,-1838.629195
1007.829157,-5847.626942,-7994.224174,-3217.601092
1007.829481,-6809.894666,-7920.203579,-2987.772442
1007.829805,-5625.565159,-8290.306550,-4213.525239
1007.830129,-5625.565159,-7328.038826,-3370.820191
1007.830453,-4441.235652,-6957.935855,-1149.143247
1007.830777,-1480.411884,-7698.141797,-1762.019645
1007.831101,1924.535449,-8068.244768,-229.828649
1007.831425,4145.153275,-8808.450710,1685.410096
1007.831749,5921.647536,-10510.924376,4213.525239
1007.832073,6957.935855,-12953.603985,4749.792088
1007.832397,5329.482782,-12139.377449,4443.353888
1007.832721,2738.761985,-10881.027347,4443.353888
1007.833045,370.102971,-11843.295072,2221.676944
1007.833369,0.000000,-11325.150913,-76.609550
1007.833692,-2294.638420,-8660.409521,-1915.238745
1007.834016,-4071.132681,-7179.997637,-1915.238745
1007.834340,-2220.617826,-9474.636058,-1149.143247
1007.834664,296.082377,-10807.006753,-2298.286494
1007.834988,-666.185348,-8734.430116,-2834.553343
1007.835312,-3627.009116,-7105.977043,-3524.039291
1007.835636,-4959.379811,-7328.038826,-5056.230287
1007.835960,-3923.091493,-10140.821405,-3140.991542
1007.836284,-222.061783,-11399.171507,0.000000
1007.836608,3552.988522,-11991.336260,2298.286494
1007.836932,4589.276840,-12731.542202,2911.162892
1007.837256,4367.215058,-12287.418637,2987.772442
1007.837580,4737.318029,-11621.233289,2451.505594
1007.837904,4737.318029,-10214.842000,1838.629195
1007.838228,2146.597232,-10288.862594,766.095498
1007.838552,-518.144159,-9548.656652,-153.219100
1007.838876,-222.061783,-8660.409521,-153.219100
1007.839199,-296.082377,-8438.347739,-612.876398
1007.839523,-1702.473667,-9844.739029,-2221.676944
1007.839847,-3627.009116,-9326.594869,-4366.744339
1007.840171,-3330.926739,-7254.018232,-4366.744339
1007.840495,-2516.700203,-7105.977043,-2604.724693
1007.840819,-1702.473667,-9326.594869,-1838.629195
1007.841143,-2294.638420,-9622.677246,-383.047749
1007.841467,-1184.329507,-9474.636058,0.000000
1007.841791,-370.102971,-9696.697840,229.828649
1007.842115,1184.329507,-11325.150913,1378.971896
1007.842439,3478.967927,-10807.006753,2145.067394
1007.842763,3775.050304,-10584.944971,2451.505594
1007.843087,2072.576638,-10510.924376,1991.848295
1007.843411,222.061783,-10140.821405,1532.190996
1007.843735,0.000000,-10140.821405,229.828649
1007.844059,-222.061783,-9104.533087,-536.266849
1007.844383,-592.164754,-8956.491898,-1685.410096
1007.844706,-962.267725,-8808.450710,-2145.067394
1007.845030,-888.247130,-9548.656652,-2221.676944
1007.845354,-888.247130,-9844.739029,-2681.334243
1007.845678,-814.226536,-9030.512492,-2221.676944
1007.846002,-370.102971,-9252.574275,-1762.019645
1007.846326,-370.102971,-8956.491898,-1302.362347
1007.846650,0.000000,-9474.636058,0.000000
1007.846974,1258.350101,-9992.780217,383.047749
1007.847298,2220.617826,-10066.800811,689.485948
1007.847622,1258.350101,-10288.862594,1149.143247
1007.847946,740.205942,-9622.677246,1838.629195
1007.848270,1628.453072,-9252.574275,1915.238745
1007.848594,1110.308913,-8956.491898,1608.800546
1007.848918,-740.205942,-8808.450710,153.219100
1007.849242,-2664.741391,-8956.491898,-1149.143247
1007.849566,-3256.906145,-9252.574275,-1225.752797
1007.849890,-1480.411884,-9474.636058,-1762.019645
1007.850213,-296.082377,-10066.800811,-919.314598
1007.850537,-666.185348,-10288.862594,-1149.143247
1007.850861,-1480.411884,-9918.759623,-1149.143247
1007.851185,-1628.453072,-10584.944971,-536.266849
1007.851509,-1258.350101,-10955.047942,-612.876398
1007.851833,-1332.370696,-11621.233289,153.219100
1007.852157,-1554.432478,-10658.965565,-1378.971896
1007.852481,592.164754,-9844.739029,0.000000
1007.852805,2960.823768,-10955.047942,1302.362347
1007.853129,4145.153275,-11769.274478,1225.752797
1007.853453,1924.535449,-11399.171507,1225.752797
1007.853777,-1110.308913,-10436.903782,306.438199
1007.854101,-1554.432478,-10362.883188,153.219100
1007.854425,-962.267725,-10288.862594,-229.828649
1007.854749,-740.205942,-10214.842000,689.485948
1007.855073,-1036.288319,-9474.636058,-383.047749
1007.855396,-1184.329507,-8512.368333,0.000000
1007.855720,-888.247130,-8068.244768,0.000000
1007.856044,0.000000,-8142.265362,-919.314598
1007.856368,-296.082377,-8364.327145,383.047749
1007.856692,-518.144159,-8290.306550,-153.219100
1007.857016,148.041188,-8882.471304,919.314598
1007.857340,1406.391290,-8956.491898,1378.971896
1007.857664,2368.659014,-8660.409521,2145.067394
1007.857988,2590.720797,-9326.594869,1762.019645
1007.858312,2368.659014,-9622.677246,1532.190996
1007.858636,2590.720797,-10658.965565,2681.334243
1007.858960,2590.720797,-11251.130318,2451.505594
1007.859284,2368.659014,-9474.636058,1455.581446
1007.859608,222.061783,-8808.450710,1302.362347
1007.859932,-2294.638420,-9030.512492,-153.219100
1007.860256,-2960.823768,-9252.574275,-1225.752797
1007.860580,-2220.617826,-8068.244768,-1072.533697
1007.860903,-1258.350101,-7772.162391,-306.438199
1007.861227,-296.082377,-7550.100608,-1455.581446
1007.861551,74.020594,-7328.038826,-229.828649
1007.861875,740.205942,-8808.450710,995.924147
1007.862199,1184.329507,-9918.759623,76.609550
1007.862523,148.041188,-9622.677246,0.000000
1007.862847,-518.144159,-9474.636058,536.266849
1007.863171,-444.123565,-9992.780217,459.657299
1007.863495,518.144159,-10066.800811,0.000000
1007.863819,592.164754,-9400.615463,995.924147
1007.864143,74.020594,-10362.883188,229.828649
1007.864467,-740.205942,-10807.006753,-995.924147
1007.864791,-666.185348,-10436.903782,-459.657299
1007.865115,-222.061783,-9474.636058,-1455.581446
1007.865439,-370.102971,-9474.636058,-2068.457845
1007.865763,-1332.370696,-10140.821405,-2451.505594
1007.866087,-2220.617826,-10288.862594,-2298.286494
1007.866410,-1850.514855,-10658.965565,-842.705048
1007.866734,-296.082377,-10807.006753,-612.876398
1007.867058,148.041188,-11029.068536,-1149.143247
1007.867382,740.205942,-10658.965565,-842.705048
1007.867706,1554.432478,-10807.006753,-536.266849
1007.868030,1924.535449,-11917.315666,-919.314598
1007.868354,1406.391290,-11843.295072,-689.485948
1007.868678,-444.123565,-11029.068536,-306.438199
1007.869002,-962.267725,-11251.130318,-1072.533697
1007.869326,-1184.329507,-10807.006753,-1378.971896
1007.869650,-1258.350101,-9992.780217,-1378.971896
1007.869974,0.000000,-9696.697840,-1225.752797
1007.870298,0.000000,-11473.192101,-1072.533697
1007.870622,592.164754,-10881.027347,383.047749
1007.870946,1776.494261,-8734.430116,995.924147
1007.871270,1332.370696,-7846.182985,0.000000
1007.871594,-740.205942,-8216.285956,-995.924147
1007.871917,-2590.720797,-8512.368333,-1762.019645
1007.872241,-2442.679609,-8660.409521,-1532.190996
1007.872565,-1258.350101,-8290.306550,-1072.533697
1007.872889,444.123565,-8068.244768,0.000000
1007.873213,1554.432478,-9030.512492,689.485948
1007.873537,1702.473667,-9326.594869,153.219100
1007.873861,1110.308913,-8290.306550,459.657299
1007.874185,740.205942,-8142.265362,1225.752797
1007.874509,518.144159,-9252.574275,995.924147
1007.874833,814.226536,-9474.636058,536.266849
1007.875157,1406.391290,-8290.306550,1149.143247
1007.875481,2146.597232,-8142.265362,1991.848295
1007.875805,2294.638420,-9474.636058,1302.362347
1007.876129,1184.329507,-9326.594869,1302.362347
1007.876453,-740.205942,-7624.121203,459.657299
1007.876777,-1110.308913,-7402.059420,-306.438199
1007.877101,-888.247130,-8734.430116,-919.314598
1007.877424,296.082377,-9178.553681,-1225.752797
1007.877748,-518.144159,-10807.006753,0.000000
1007.878072,-370.102971,-10955.047942,-612.876398
1007.878396,0.000000,-9770.718434,-612.876398
1007.878720,-518.144159,-9178.553681,306.438199
1007.879044,-222.061783,-9622.677246,-536.266849
1007.879368,-592.164754,-11029.068536,-1455.581446
1007.879692,0.000000,-11399.171507,-766.095498
1007.880016,1776.494261,-11473.192101,689.485948
1007.880340,3849.070898,-11769.274478,1915.238745
1007.880664,3108.864956,-12213.398043,1762.019645
1007.880988,-222.061783,-11029.068536,842.705048
1007.881312,-2516.700203,-10214.842000,-383.047749
1007.881636,-2960.823768,-10658.965565,-1915.238745
1007.881960,-2812.782580,-10955.047942,-2528.115143
1007.882284,-2960.823768,-10362.883188,-2145.067394
1007.882608,-2146.597232,-9918.759623,-1302.362347
1007.882931,-370.102971,-10140.821405,0.000000
1007.883255,444.123565,-9474.636058,-459.657299
1007.883579,0.000000,-8660.409521,-612.876398
1007.883903,-1628.453072,-8512.368333,-2221.676944
1007.884227,-2294.638420,-8364.327145,-842.705048
1007.884551,-962.267725,-9474.636058,76.609550
1007.884875,1110.308913,-10807.006753,1532.190996
1007.885199,2072.576638,-10362.883188,2145.067394
1007.885523,2146.597232,-9252.574275,1302.362347
1007.885847,1258.350101,-8586.388927,1302.362347
1007.886171,1554.432478,-9474.636058,1072.533697
1007.886495,1332.370696,-10066.800811,1149.143247
1007.886819,0.000000,-9474.636058,1838.629195
1007.887143,-1480.411884,-8882.471304,229.828649
1007.887467,-2294.638420,-8364.327145,612.876398
1007.887791,-2146.597232,-9178.553681,0.000000
1007.888114,-1480.411884,-9400.615463,-766.095498
1007.888438,-1184.329507,-8808.450710,-383.047749
1007.888762,518.144159,-7920.203579,0.000000
1007.889086,2146.597232,-8956.491898,1455.581446
1007.889410,2368.659014,-9400.615463,1608.800546
1007.889734,2072.576638,-9326.594869,1149.143247
1007.890058,-370.102971,-9326.594869,1302.362347
1007.890382,-1110.308913,-9696.697840,536.266849
1007.890706,-296.082377,-9474.636058,536.266849
1007.891030,1036.288319,-9252.574275,1838.629195
1007.891354,1480.411884,-9474.636058,1915.238745
1007.891678,518.144159,-9844.739029,383.047749
1007.892002,-888.247130,-8512.368333,76.609550
1007.892326,-888.247130,-8364.327145,-612.876398
1007.892650,-1036.288319,-9400.615463,-689.485948
1007.892974,-1850.514855,-10140.821405,-766.095498
1007.893298,-1998.556043,-8882.471304,-842.705048
1007.893621,-1184.329507,-9030.512492,-306.438199
1007.893945,-740.205942,-9622.677246,-766.095498
1007.894269,-148.041188,-9992.780217,-153.219100
1007.894593,148.041188,-11029.068536,-306.438199
1007.894917,814.226536,-10510.924376,229.828649
1007.895241,1924.535449,-10955.047942,1608.800546
1007.895565,2368.659014,-11251.130318,919.314598
1007.895889,1998.556043,-11029.068536,-612.876398
1007.896213,-444.123565,-10288.862594,-153.219100
1007.896537,-1776.494261,-10362.883188,-1532.190996
1007.896861,-592.164754,-10436.903782,-1838.629195
1007.897185,148.041188,-9696.697840,-1915.238745
1007.897509,296.082377,-9622.677246,-1302.362347
1007.897833,296.082377,-9622.677246,-1838.629195
1007.898157,888.247130,-9548.656652,-2298.286494
1007.898481,1184.329507,-9474.636058,-1532.190996
1007.898805,1702.473667,-9696.697840,-536.266849
1007.899128,2294.638420,-10658.965565,0.000000
1007.899452,1850.514855,-10436.903782,-153.219100
1007.899776,740.205942,-10510.924376,612.876398
1007.900100,370.102971,-10214.842000,-153.219100
1007.900424,148.041188,-11103.089130,-612.876398
1007.900748,-740.205942,-10362.883188,-689.485948
1007.901072,-370.102971,-8512.368333,76.609550
1007.901396,-296.082377,-8586.388927,536.266849
1007.901720,-370.102971,-9548.656652,-689.485948
1007.902044,-1628.453072,-9178.553681,-689.485948
1007.902368,-2294.638420,-8364.327145,-766.095498
1007.902692,-1332.370696,-9030.512492,-766.095498
1007.903016,-1406.391290,-8734.430116,-153.219100
1007.903340,-296.082377,-7624.121203,-153.219100
1007.903664,-814.226536,-8438.347739,0.000000
1007.903988,-518.144159,-9104.533087,0.000000
1007.904312,592.164754,-9178.553681,766.095498
1007.904636,1628.453072,-9104.533087,1072.533697
1007.904960,1850.514855,-9178.553681,766.095498
1007.905284,888.247130,-9326.594869,919.314598
1007.905608,888.247130,-9622.677246,1302.362347
1007.905932,444.123565,-10288.862594,1378.971896
1007.906256,444.123565,-9992.780217,689.485948
1007.906580,-1036.288319,-9400.615463,-383.047749
1007.906904,-2516.700203,-8956.491898,153.219100
1007.907228,-1850.514855,-9474.636058,76.609550
1007.907552,-666.185348,-10881.027347,0.000000
1007.907876,-518.144159,-10807.006753,919.314598
1007.908200,-962.267725,-10140.821405,536.266849
1007.908524,-1702.473667,-9770.718434,-229.828649
1007.908848,-2220.617826,-10140.821405,459.657299
1007.909172,-1998.556043,-9918.759623,-306.438199
1007.909496,-2590.720797,-9548.656652,0.000000
1007.909820,-3108.864956,-10140.821405,-842.705048
1007.910144,-2368.659014,-10584.944971,76.609550
1007.910468,740.205942,-10807.006753,689.485948
1007.910792,2960.823768,-10140.821405,536.266849
1007.911116,1998.556043,-9622.677246,306.438199
1007.911440,518.144159,-10288.862594,153.219100
1007.911764,518.144159,-10732.986159,-229.828649
1007.912088,1406.391290,-10362.883188,0.000000
1007.912412,1480.411884,-9696.697840,306.438199
1007.912736,1258.350101,-10584.944971,-229.828649
1007.913060,592.164754,-9844.739029,-1685.410096
1007.913385,296.082377,-8438.347739,-1378.971896
1007.913709,666.185348,-8956.491898,-1149.143247
1007.914033,740.205942,-9400.615463,-1991.848295
1007.914357,-296.082377,-9474.636058,-1991.848295
1007.914681,-740.205942,-9326.594869,-766.095498
1007.915005,74.020594,-9992.780217,0.000000
1007.915329,888.247130,-10881.027347,306.438199
1007.915653,518.144159,-10140.821405,612.876398
1007.915977,518.144159,-9474.636058,-306.438199
1007.916301,2072.576638,-9400.615463,842.705048
1007.916625,3108.864956,-11177.109724,1685.410096
1007.916949,2516.700203,-11399.171507,1455.581446
1007.917273,888.247130,-10732.986159,1608.800546
1007.917597,-296.082377,-10214.842000,995.924147
1007.917921,74.020594,-10510.924376,919.314598
1007.918245,666.185348,-10288.862594,689.485948
1007.918569,888.247130,-9474.636058,766.095498
1007.918893,-740.205942,-8956.491898,-919.314598
1007.919217,-1924.535449,-8216.285956,-995.924147
1007.919541,-2368.659014,-8290.306550,-689.485948
1007.919865,-1776.494261,-8438.347739,-1532.190996
1007.920189,-1776.494261,-7772.162391,-1072.533697
1007.920513,-1924.535449,-7920.203579,0.000000
1007.920837,-962.267725,-8068.244768,459.657299
1007.921161,740.205942,-8660.409521,842.705048
1007.921485,1924.535449,-8808.450710,2451.505594
1007.921809,1776.494261,-9474.636058,2451.505594
1007.922133,1332.370696,-8660.409521,1302.362347
1007.922457,296.082377,-9252.574275,2451.505594
1007.922781,-222.061783,-9696.697840,2221.676944
1007.923105,-222.061783,-9400.615463,306.438199
1007.923429,-1776.494261,-8290.306550,689.485948
1007.923753,-4145.153275,-8364.327145,-919.314598
1007.924077,-4589.276840,-8882.471304,-1991.848295
1007.924401,-3552.988522,-9178.553681,-2298.286494
1007.924725,-2590.720797,-9326.594869,-1302.362347
1007.925049,-1480.411884,-10214.842000,-1225.752797
1007.925373,-592.164754,-9548.656652,0.000000
1007.925697,962.267725,-9918.759623,229.828649
1007.926021,2294.638420,-10584.944971,689.485948
1007.926345,2886.803174,-11695.253884,306.438199
1007.926669,2368.659014,-11991.336260,612.876398
1007.926993,1776.494261,-11473.192101,459.657299
1007.927317,1776.494261,-10658.965565,-306.438199
1007.927641,888.247130,-10214.842000,-536.266849
1007.927965,74.020594,-12139.377449,-1149.143247
1007.928289,-296.082377,-11399.171507,-1838.629195
1007.928613,444.123565,-10658.965565,-1302.362347
1007.928937,1702.473667,-10510.924376,-1762.019645
1007.929261,1184.329507,-10955.047942,-995.924147
1007.929585,222.061783,-11251.130318,-1608.800546
1007.929909,-1036.288319,-10288.862594,-1608.800546
1007.930233,-1998.556043,-10510.924376,-1455.581446
1007.930557,-1776.494261,-10288.862594,-1149.143247
1007.930881,-592.164754,-10510.924376,-842.705048
1007.931205,74.020594,-11103.089130,229.828649
1007.931529,1110.308913,-9548.656652,1072.533697
1007.931853,1110.308913,-9326.594869,229.828649
1007.932177,-370.102971,-9326.594869,-153.219100
