#time,accel_x,accel_y,accel_z
772.672838,4959.379811,-8660.409521,3140.991542
772.673163,4441.235652,-9474.636058,2528.115143
772.673487,1628.453072,-9992.780217,2374.896044
772.673811,-888.247130,-11695.253884,1838.629195
772.674135,-1184.329507,-12879.583391,1149.143247
772.674459,-2368.659014,-13989.892304,-536.266849
772.674784,-5921.647536,-11917.315666,-1149.143247
772.675108,-7772.162391,-9104.533087,-689.485948
772.675432,-7402.059420,-9474.636058,-229.828649
772.675756,-5995.668130,-10436.903782,459.657299
772.676080,-4737.318029,-10066.800811,0.000000
772.676405,-2812.782580,-7772.162391,-383.047749
772.676729,-666.185348,-5107.421000,0.000000
772.677053,0.000000,-5773.606348,919.314598
772.677377,74.020594,-6883.915261,1685.410096
772.677701,-518.144159,-6587.832884,1532.190996
772.678026,-2368.659014,-7179.997637,766.095498
772.678350,-1850.514855,-8882.471304,1838.629195
772.678674,-740.205942,-9696.697840,1455.581446
772.678998,666.185348,-10881.027347,1991.848295
772.679322,-222.061783,-10510.924376,842.705048
772.679647,-1924.535449,-11103.089130,459.657299
772.679971,-2960.823768,-11399.171507,766.095498
772.680295,-2294.638420,-10881.027347,612.876398
772.680619,-1776.494261,-10140.821405,1685.410096
772.680944,-1480.411884,-8808.450710,2145.067394
772.681268,-1258.350101,-8660.409521,1915.238745
772.681592,-1480.411884,-9104.533087,1608.800546
772.681916,-1998.556043,-9030.512492,1302.362347
772.682240,-3552.988522,-9474.636058,919.314598
772.682565,-5181.441594,-9770.718434,229.828649
772.682889,-5773.606348,-9696.697840,612.876398
772.683213,-4515.256246,-10510.924376,1608.800546
772.683537,-2664.741391,-10362.883188,919.314598
772.683861,-1998.556043,-10807.006753,1225.752797
772.684186,-1554.432478,-11251.130318,1608.800546
772.684510,296.082377,-10955.047942,1685.410096
772.684834,2220.617826,-9696.697840,2451.505594
772.685158,2738.761985,-9104.533087,2451.505594
772.685482,1850.514855,-9622.677246,2145.067394
772.685807,1184.329507,-11029.068536,1302.362347
772.686131,444.123565,-11473.192101,459.657299
772.686455,0.000000,-11251.130318,536.266849
772.686779,-1332.370696,-10881.027347,76.609550
772.687103,-1924.535449,-10955.047942,229.828649
772.687428,-2442.679609,-10584.944971,383.047749
772.687752,-1998.556043,-10288.862594,1072.533697
772.688076,-2146.597232,-10510.924376,1532.190996
772.688400,-2146.597232,-10881.027347,1991.848295
772.688724,-1776.494261,-10584.944971,3600.648841
772.689049,-1554.432478,-9992.780217,4596.572988
772.689373,-1776.494261,-10066.800811,4826.401637
772.689697,-2368.659014,-11103.089130,5439.278036
772.690021,-1258.350101,-11399.171507,5515.887586
772.690345,444.123565,-10214.842000,5898.935335
772.690670,2368.659014,-8882.471304,5745.716235
772.690994,2146.597232,-7031.956449,4903.011187
772.691318,1184.329507,-6143.709319,3983.696590
772.691642,296.082377,-4737.318029,1915.238745
772.691966,-1036.288319,-3923.091493,-1302.362347
772.692291,-3256.906145,-6735.874072,0.000000
772.692615,-2812.782580,-8586.388927,766.095498
772.692939,-518.144159,-8586.388927,536.266849
772.693263,-1850.514855,-7476.080014,3907.087040
772.693587,-1480.411884,-6291.750507,4673.182538
772.693912,-444.123565,-6883.915261,3370.820191
772.694236,1110.308913,-7254.018232,3600.648841
772.694560,3997.112087,-6883.915261,5362.668486
772.694884,7402.059420,-9178.553681,6741.640382
772.695209,8586.388927,-10214.842000,6358.592633
772.695533,5403.503377,-8512.368333,5898.935335
772.695857,2146.597232,-6439.791695,4136.915689
772.696181,-1554.432478,-6513.812290,383.047749
772.696505,-4589.276840,-7402.059420,-2681.334243
772.696830,-7031.956449,-3775.050304,-8350.440928
772.697154,-8512.368333,-6439.791695,-7584.345430
772.697478,-9474.636058,-15322.262999,-4443.353888
772.697802,-4515.256246,-17394.839637,-6665.030833
772.698126,-3404.947333,-13693.809927,-3677.258390
772.698451,-4219.173869,-10658.965565,995.924147
772.698775,148.041188,-11843.295072,-1762.019645
772.699099,2294.638420,-14878.139434,-2298.286494
772.699423,3997.112087,-13101.645173,0.000000
772.699747,7624.121203,-11621.233289,1762.019645
772.700072,8438.347739,-14063.912898,919.314598
772.700396,4737.318029,-12583.501014,-612.876398
772.700720,370.102971,-7402.059420,-2681.334243
772.701044,-2812.782580,-6883.915261,-7201.297681
772.701368,-5477.523971,-12361.439231,-8886.707777
772.701693,-6143.709319,-15692.365970,-10035.851024
772.702017,-3182.885551,-11769.274478,-9346.365076
772.702341,666.185348,-9474.636058,-5592.497135
772.702665,2886.803174,-10881.027347,-4826.401637
772.702989,3552.988522,-11917.315666,-4749.792088
772.703314,3108.864956,-10584.944971,-3524.039291
772.703638,2886.803174,-9030.512492,-3447.429741
772.703962,2516.700203,-9770.718434,-2145.067394
772.704286,2220.617826,-11547.212695,-1302.362347
772.704610,2294.638420,-10214.842000,-459.657299
772.704934,1258.350101,-9548.656652,-1991.848295
772.705259,-1924.535449,-10510.924376,-4519.963438
772.705583,-3404.947333,-10732.986159,-4213.525239
772.705907,-1850.514855,-10807.006753,-3447.429741
772.706231,370.102971,-10807.006753,-2528.115143
772.706555,1776.494261,-9918.759623,-1378.971896
772.706879,2590.720797,-9030.512492,-1072.533697
772.707204,3404.947333,-8882.471304,-1149.143247
772.707528,2442.679609,-8660.409521,-1532.190996
772.707852,1850.514855,-7179.997637,-1072.533697
772.708176,2146.597232,-6365.771101,766.095498
772.708500,1332.370696,-7550.100608,1149.143247
772.708824,-444.123565,-7772.162391,1072.533697
772.709149,-2812.782580,-6883.915261,76.609550
772.709473,-4515.256246,-7031.956449,153.219100
772.709797,-4885.359217,-7846.182985,842.705048
772.710121,-3627.009116,-7994.224174,1838.629195
772.710445,-1332.370696,-7476.080014,2528.115143
772.710769,740.205942,-7476.080014,4060.306139
772.711093,1406.391290,-9326.594869,3983.696590
772.711418,1702.473667,-9992.780217,3370.820191
772.711742,888.247130,-9548.656652,3140.991542
772.712066,-740.205942,-9548.656652,3140.991542
772.712390,-1332.370696,-10436.903782,2834.553343
772.712714,-1332.370696,-11029.068536,2451.505594
772.713038,-1258.350101,-10955.047942,2374.896044
772.713363,-2220.617826,-10732.986159,2528.115143
772.713687,-2442.679609,-10436.903782,2451.505594
772.714011,-2146.597232,-9104.533087,2987.772442
772.714335,-2072.576638,-8660.409521,3907.087040
772.714659,-1702.473667,-8956.491898,4290.134789
772.714983,-1036.288319,-9696.697840,4136.915689
772.715308,-370.102971,-9770.718434,4213.525239
772.715632,-222.061783,-9104.533087,3830.477490
772.715956,0.000000,-9548.656652,3370.820191
772.716280,0.000000,-9844.739029,2834.553343
772.716604,-222.061783,-10732.986159,2451.505594
772.716928,-666.185348,-11251.130318,1991.848295
772.717253,-962.267725,-11547.212695,1378.971896
772.717577,-444.123565,-11177.109724,1455.581446
772.717901,444.123565,-10584.944971,1378.971896
772.718225,2368.659014,-10584.944971,1838.629195
772.718549,2960.823768,-10658.965565,2145.067394
772.718873,2516.700203,-10807.006753,2451.505594
772.719198,1332.370696,-10510.924376,1991.848295
772.719522,-296.082377,-10140.821405,766.095498
772.719846,-1776.494261,-9474.636058,-689.485948
772.720170,-2442.679609,-9400.615463,-689.485948
772.720494,-2072.576638,-9548.656652,-919.314598
772.720818,-1406.391290,-9992.780217,-766.095498
772.721143,-592.164754,-9104.533087,-459.657299
772.721467,-296.082377,-7772.162391,-459.657299
772.721791,444.123565,-7179.997637,0.000000
772.722115,1998.556043,-7105.977043,153.219100
772.722439,3701.029710,-8364.327145,842.705048
772.722763,4293.194464,-8290.306550,1149.143247
772.723088,4293.194464,-8956.491898,995.924147
772.723412,3256.906145,-8512.368333,0.000000
772.723736,1332.370696,-8586.388927,-1532.190996
772.724060,-962.267725,-9030.512492,-2911.162892
772.724384,-2886.803174,-9104.533087,-3447.429741
772.724708,-3849.070898,-9030.512492,-4826.401637
772.725032,-3627.009116,-8734.430116,-4903.011187
772.725357,-2368.659014,-8734.430116,-3830.477490
772.725681,-1184.329507,-8216.285956,-3217.601092
772.726005,592.164754,-8660.409521,-2221.676944
772.726329,2072.576638,-9474.636058,-1685.410096
772.726653,2886.803174,-10214.842000,-919.314598
772.726977,2812.782580,-10510.924376,0.000000
772.727302,1776.494261,-10881.027347,-919.314598
772.727626,370.102971,-10807.006753,-1915.238745
772.727950,-592.164754,-11177.109724,-2757.943793
772.728274,-1776.494261,-11547.212695,-3830.477490
772.728598,-2368.659014,-11917.315666,-4136.915689
772.728922,-1998.556043,-11547.212695,-4290.134789
772.729247,-1036.288319,-10955.047942,-3677.258390
772.729571,-592.164754,-10140.821405,-3140.991542
772.729895,666.185348,-10140.821405,-2757.943793
772.730219,1258.350101,-11177.109724,-1455.581446
772.730543,1628.453072,-11621.233289,-1378.971896
772.730867,1480.411884,-11843.295072,-1149.143247
772.731192,1184.329507,-11917.315666,-919.314598
772.731516,518.144159,-11917.315666,-689.485948
772.731840,0.000000,-11843.295072,-1225.752797
772.732164,-1554.432478,-11695.253884,-1225.752797
772.732488,-2072.576638,-11399.171507,-1608.800546
772.732812,-2664.741391,-10881.027347,-2068.457845
772.733137,-2072.576638,-10140.821405,-2145.067394
772.733461,-814.226536,-9252.574275,-1225.752797
772.733785,592.164754,-9030.512492,-76.609550
772.734109,1850.514855,-9326.594869,153.219100
772.734433,2664.741391,-9326.594869,459.657299
772.734757,2516.700203,-9326.594869,459.657299
772.735082,1258.350101,-9548.656652,383.047749
772.735406,222.061783,-9918.759623,306.438199
772.735730,-148.041188,-9770.718434,536.266849
772.736054,-1258.350101,-9474.636058,306.438199
772.736378,-1998.556043,-9104.533087,153.219100
772.736702,-2072.576638,-8734.430116,612.876398
772.737027,-1480.411884,-7402.059420,1072.533697
772.737351,-444.123565,-7031.956449,2451.505594
772.737675,148.041188,-6809.894666,3447.429741
772.737999,1628.453072,-7179.997637,3907.087040
772.738323,1850.514855,-7846.182985,3370.820191
772.738647,1924.535449,-7920.203579,3064.381992
772.738971,740.205942,-8216.285956,2451.505594
772.739296,0.000000,-8660.409521,1838.629195
772.739620,-370.102971,-9178.553681,1685.410096
772.739944,-2072.576638,-8808.450710,306.438199
772.740268,-1998.556043,-9030.512492,536.266849
772.740592,-1702.473667,-9918.759623,-229.828649
772.740916,-1628.453072,-9252.574275,536.266849
772.741241,-666.185348,-8660.409521,1532.190996
772.741565,814.226536,-8512.368333,2298.286494
772.741889,1998.556043,-8808.450710,2987.772442
772.742213,3627.009116,-9474.636058,4290.134789
772.742537,3627.009116,-9844.739029,4366.744339
772.742861,2368.659014,-10362.883188,2757.943793
772.743186,592.164754,-10436.903782,2374.896044
772.743510,-1184.329507,-10658.965565,1225.752797
772.743834,-2368.659014,-11029.068536,229.828649
772.744158,-2812.782580,-10807.006753,-229.828649
772.744482,-2516.700203,-10510.924376,-842.705048
772.744806,-2442.679609,-9844.739029,-766.095498
772.745131,-1702.473667,-9326.594869,229.828649
772.745455,-888.247130,-9030.512492,459.657299
772.745779,370.102971,-9178.553681,1225.752797
772.746103,1628.453072,-9770.718434,2298.286494
772.746427,2220.617826,-10584.944971,2221.676944
772.746751,2368.659014,-10955.047942,2221.676944
772.747076,1110.308913,-10584.944971,2145.067394
772.747400,148.041188,-10584.944971,995.924147
772.747724,-1036.288319,-10584.944971,-153.219100
772.748048,-2516.700203,-10362.883188,-1225.752797
772.748372,-3182.885551,-10066.800811,-1915.238745
772.748696,-3478.967927,-9400.615463,-1991.848295
772.749021,-2368.659014,-8882.471304,-1838.629195
772.749345,-1184.329507,-8290.306550,-1072.533697
772.749669,1406.391290,-8142.265362,0.000000
772.749993,2960.823768,-8364.327145,306.438199
772.750317,3330.926739,-8660.409521,459.657299
772.750641,2664.741391,-9400.615463,76.609550
772.750965,2146.597232,-9918.759623,-306.438199
772.751290,444.123565,-10066.800811,-995.924147
772.751614,-740.205942,-10362.883188,-2298.286494
772.751938,-1258.350101,-10732.986159,-1608.800546
772.752262,-2590.720797,-10436.903782,-3370.820191
772.752586,-2516.700203,-10288.862594,-3064.381992
772.752910,-2146.597232,-9474.636058,-3064.381992
772.753235,-888.247130,-9030.512492,-2221.676944
772.753559,666.185348,-9030.512492,-1838.629195
772.753883,1998.556043,-9178.553681,-1302.362347
772.754207,2960.823768,-9992.780217,-459.657299
772.754531,2886.803174,-10362.883188,-383.047749
772.754855,2442.679609,-10807.006753,-1149.143247
772.755180,1850.514855,-11029.068536,-1455.581446
772.755504,962.267725,-11177.109724,-2298.286494
772.755828,0.000000,-10881.027347,-2757.943793
772.756152,-814.226536,-10732.986159,-2911.162892
772.756476,-1110.308913,-10658.965565,-2757.943793
772.756800,-1036.288319,-9548.656652,-2681.334243
772.757125,-370.102971,-9252.574275,-2298.286494
772.757449,1110.308913,-9178.553681,-1838.629195
772.757773,1998.556043,-9548.656652,-919.314598
772.758097,2294.638420,-10140.821405,-536.266849
772.758421,1924.535449,-10214.842000,-612.876398
772.758745,888.247130,-9770.718434,229.828649
772.759070,0.000000,-10214.842000,-459.657299
772.759394,-444.123565,-11103.089130,-995.924147
772.759718,-1406.391290,-10955.047942,-842.705048
772.760042,-2146.597232,-10510.924376,-842.705048
772.760366,-2368.659014,-10140.821405,-766.095498
772.760690,-1998.556043,-9548.656652,0.000000
772.761015,-1406.391290,-8808.450710,612.876398
772.761339,-296.082377,-8438.347739,1225.752797
772.761663,740.205942,-8808.450710,1838.629195
772.761987,1036.288319,-9030.512492,1762.019645
772.762311,592.164754,-9104.533087,1915.238745
772.762635,-222.061783,-8956.491898,1532.190996
772.762960,-1258.350101,-9400.615463,919.314598
772.763284,-1924.535449,-9474.636058,536.266849
772.763608,-2294.638420,-9252.574275,306.438199
772.763932,-2220.617826,-9400.615463,536.266849
772.764256,-2516.700203,-9252.574275,229.828649
772.764580,-1554.432478,-8586.388927,1149.143247
772.764904,-814.226536,-7994.224174,1838.629195
772.765229,444.123565,-7920.203579,2911.162892
772.765553,2368.659014,-8438.347739,3830.477490
772.765877,2960.823768,-8882.471304,4060.306139
772.766201,3404.947333,-9178.553681,4136.915689
772.766525,1776.494261,-9104.533087,2681.334243
772.766849,148.041188,-9178.553681,1838.629195
772.767174,-1258.350101,-10214.842000,459.657299
772.767498,-2368.659014,-9918.759623,-306.438199
772.767822,-3256.906145,-9992.780217,-995.924147
772.768146,-3182.885551,-9992.780217,-919.314598
772.768470,-2294.638420,-9474.636058,0.000000
772.768794,-1258.350101,-8660.409521,383.047749
772.769119,-296.082377,-8512.368333,1378.971896
772.769443,1480.411884,-9104.533087,1762.019645
772.769767,2442.679609,-9696.697840,2911.162892
772.770091,3034.844362,-10436.903782,3217.601092
772.770415,2590.720797,-10807.006753,3064.381992
772.770739,1628.453072,-10807.006753,2451.505594
772.771064,148.041188,-10807.006753,689.485948
772.771388,-1258.350101,-11103.089130,-766.095498
772.771712,-2738.761985,-9992.780217,-1685.410096
772.772036,-3034.844362,-9918.759623,-2374.896044
772.772360,-2368.659014,-9696.697840,-2528.115143
772.772684,-888.247130,-9252.574275,-2451.505594
772.773009,666.185348,-8734.430116,-1378.971896
772.773333,1998.556043,-8438.347739,-536.266849
772.773657,3034.844362,-9104.533087,76.609550
772.773981,3552.988522,-10288.862594,383.047749
772.774305,3108.864956,-10436.903782,919.314598
772.774629,2146.597232,-10955.047942,766.095498
772.774954,592.164754,-11029.068536,229.828649
772.775278,-888.247130,-10881.027347,-842.705048
772.775602,-1702.473667,-10584.944971,-1149.143247
772.775926,-2294.638420,-10436.903782,-1838.629195
772.776250,-2146.597232,-9918.759623,-2451.505594
772.776574,-1924.535449,-8882.471304,-1991.848295
772.776899,-740.205942,-8142.265362,-1302.362347
772.777223,666.185348,-8364.327145,-842.705048
772.777547,1406.391290,-9252.574275,-995.924147
772.777871,1776.494261,-9696.697840,-612.876398
772.778195,1554.432478,-9770.718434,-689.485948
772.778519,1184.329507,-10362.883188,-536.266849
772.778843,148.041188,-10436.903782,-1225.752797
772.779168,-888.247130,-10584.944971,-1991.848295
772.779492,-1554.432478,-10807.006753,-1762.019645
772.779816,-2590.720797,-10436.903782,-1838.629195
772.780140,-2368.659014,-10214.842000,-1302.362347
772.780464,-1480.411884,-9326.594869,-919.314598
772.780788,-370.102971,-8586.388927,-536.266849
772.781113,962.267725,-8586.388927,0.000000
772.781437,1776.494261,-8364.327145,229.828649
772.781761,2220.617826,-8364.327145,0.000000
772.782085,1554.432478,-9326.594869,-383.047749
772.782409,740.205942,-9030.512492,-1302.362347
772.782733,-296.082377,-9252.574275,-1149.143247
772.783058,-1184.329507,-9918.759623,-1685.410096
772.783382,-1406.391290,-10436.903782,-2068.457845
772.783706,-1850.514855,-10584.944971,-1915.238745
772.784030,-1850.514855,-10140.821405,-1302.362347
772.784354,-1628.453072,-9474.636058,-306.438199
772.784678,-666.185348,-8734.430116,919.314598
772.785003,370.102971,-9104.533087,842.705048
772.785327,1480.411884,-9252.574275,1378.971896
772.785651,1924.535449,-10140.821405,1991.848295
772.785975,1998.556043,-10362.883188,1608.800546
772.786299,1184.329507,-9844.739029,995.924147
772.786623,0.000000,-9474.636058,153.219100
772.786948,-1184.329507,-10288.862594,-842.705048
772.787272,-2146.597232,-10584.944971,-1225.752797
772.787596,-2664.741391,-10140.821405,-2068.457845
772.787920,-2442.679609,-10362.883188,-1685.410096
772.788244,-1554.432478,-9548.656652,-1072.533697
772.788568,148.041188,-9178.553681,-306.438199
772.788893,1702.473667,-8956.491898,842.705048
772.789217,3330.926739,-9548.656652,1991.848295
772.789541,3923.091493,-9474.636058,2374.896044
772.789865,3330.926739,-10066.800811,2528.115143
772.790189,1998.556043,-10288.862594,2451.505594
772.790513,148.041188,-9770.718434,1225.752797
772.790838,-1036.288319,-10214.842000,229.828649
772.791162,-2072.576638,-10362.883188,-459.657299
772.791486,-2886.803174,-10066.800811,-766.095498
772.791810,-2590.720797,-9104.533087,-1302.362347
772.792134,-2220.617826,-8734.430116,0.000000
772.792458,-1036.288319,-8364.327145,76.609550
772.792782,148.041188,-8438.347739,1149.143247
772.793107,1776.494261,-8586.388927,1991.848295
772.793431,2442.679609,-9178.553681,2451.505594
772.793755,2442.679609,-9622.677246,2528.115143
772.794079,1480.411884,-9844.739029,2451.505594
772.794403,444.123565,-9918.759623,1915.238745
772.794727,-1110.308913,-9770.718434,1225.752797
772.795052,-2220.617826,-9696.697840,-459.657299
772.795376,-2886.803174,-9992.780217,-612.876398
772.795700,-3256.906145,-9474.636058,-842.705048
772.796024,-2960.823768,-9030.512492,-459.657299
772.796348,-1850.514855,-8290.306550,229.828649
772.796672,0.000000,-7402.059420,1072.533697
772.796997,2072.576638,-7846.182985,1302.362347
772.797321,2960.823768,-8068.244768,1378.971896
772.797645,3256.906145,-9104.533087,1455.581446
772.797969,2442.679609,-9696.697840,1532.190996
772.798293,1184.329507,-10066.800811,306.438199
772.798617,0.000000,-10288.862594,-306.438199
772.798942,-1332.370696,-9770.718434,-1225.752797
772.799266,-2072.576638,-10288.862594,-1532.190996
772.799590,-2664.741391,-9992.780217,-1915.238745
772.799914,-2664.741391,-9770.718434,-1378.971896
772.800238,-2368.659014,-9400.615463,-842.705048
772.800562,-1258.350101,-8956.491898,-229.828649
772.800887,222.061783,-9104.533087,536.266849
772.801211,1850.514855,-9622.677246,689.485948
772.801535,2516.700203,-10362.883188,1149.143247
772.801859,2072.576638,-10658.965565,1072.533697
772.802183,1480.411884,-10658.965565,-306.438199
772.802507,444.123565,-10436.903782,-1149.143247
772.802832,-222.061783,-11029.068536,-1915.238745
772.803156,-1110.308913,-11103.089130,-2604.724693
772.803480,-1776.494261,-10955.047942,-2911.162892
772.803804,-1628.453072,-10362.883188,-2298.286494
772.804128,-296.082377,-9844.739029,-1532.190996
772.804452,1036.288319,-9104.533087,-842.705048
772.804777,2072.576638,-8882.471304,0.000000
772.805101,3034.844362,-9622.677246,459.657299
772.805425,3330.926739,-10066.800811,536.266849
772.805749,2368.659014,-10066.800811,612.876398
772.806073,1554.432478,-9844.739029,306.438199
772.806398,222.061783,-10436.903782,0.000000
772.806722,-296.082377,-10732.986159,-689.485948
772.807046,-1406.391290,-10436.903782,-1302.362347
772.807370,-1924.535449,-10362.883188,-1838.629195
772.807694,-1998.556043,-10214.842000,-1608.800546
772.808018,-1184.329507,-9252.574275,-995.924147
772.808343,-296.082377,-8512.368333,-536.266849
772.808667,518.144159,-8586.388927,76.609550
772.808991,1702.473667,-9474.636058,842.705048
772.809315,2294.638420,-9548.656652,1072.533697
772.809639,1850.514855,-9326.594869,1072.533697
772.809964,814.226536,-9844.739029,842.705048
772.810288,-148.041188,-9992.780217,0.000000
772.810612,-1702.473667,-9918.759623,-536.266849
772.810936,-1924.535449,-10362.883188,-1225.752797
772.811260,-3108.864956,-9918.759623,-1532.190996
772.811584,-2738.761985,-9844.739029,-689.485948
772.811909,-1702.473667,-8734.430116,-612.876398
772.812233,-518.144159,-8142.265362,76.609550
772.812557,1184.329507,-8068.244768,459.657299
772.812881,2368.659014,-8660.409521,1302.362347
772.813205,2812.782580,-9326.594869,1455.581446
772.813530,2664.741391,-9326.594869,1149.143247
772.813854,1406.391290,-10140.821405,995.924147
772.814178,148.041188,-9696.697840,229.828649
772.814502,-1184.329507,-9844.739029,-919.314598
772.814826,-2220.617826,-10362.883188,-995.924147
772.815150,-2812.782580,-10288.862594,-1149.143247
772.815475,-3034.844362,-10066.800811,-919.314598
772.815799,-2516.700203,-9474.636058,-612.876398
772.816123,-1702.473667,-8660.409521,229.828649
772.816447,-444.123565,-8512.368333,612.876398
772.816771,1702.473667,-9474.636058,1991.848295
772.817096,2294.638420,-10066.800811,1685.410096
772.817420,2146.597232,-10288.862594,1685.410096
772.817744,1480.411884,-10436.903782,1378.971896
772.818068,740.205942,-10807.006753,536.266849
772.818392,0.000000,-10955.047942,-153.219100
772.818717,-1332.370696,-10732.986159,-766.095498
772.819041,-1702.473667,-10510.924376,-1225.752797
772.819365,-1702.473667,-10288.862594,-1302.362347
772.819689,-1110.308913,-9474.636058,-919.314598
772.820013,0.000000,-8808.450710,-306.438199
772.820337,814.226536,-8438.347739,229.828649
772.820662,2146.597232,-8660.409521,766.095498
772.820986,2368.659014,-8956.491898,1608.800546
772.821310,2220.617826,-9474.636058,1378.971896
772.821634,1258.350101,-9474.636058,995.924147
772.821958,518.144159,-9770.718434,919.314598
772.822283,-666.185348,-10288.862594,153.219100
772.822607,-1258.350101,-10214.842000,-383.047749
772.822931,-2072.576638,-10140.821405,-766.095498
772.823255,-1924.535449,-9770.718434,-919.314598
772.823579,-962.267725,-9178.553681,-306.438199
772.823903,-592.164754,-8438.347739,153.219100
772.824228,222.061783,-7994.224174,919.314598
772.824552,1332.370696,-8882.471304,1072.533697
772.824876,1628.453072,-9400.615463,1302.362347
772.825200,1480.411884,-9474.636058,1455.581446
772.825524,888.247130,-9696.697840,306.438199
772.825849,0.000000,-9770.718434,383.047749
772.826173,-1110.308913,-9770.718434,153.219100
772.826497,-1480.411884,-10140.821405,-995.924147
772.826821,-2294.638420,-9548.656652,-1378.971896
772.827145,-2442.679609,-9326.594869,-1455.581446
772.827469,-1924.535449,-9252.574275,-1149.143247
772.827794,-740.205942,-8808.450710,-536.266849
772.828118,962.267725,-8290.306550,153.219100
772.828442,2072.576638,-8586.388927,689.485948
772.828766,3108.864956,-9178.553681,766.095498
772.829090,3256.906145,-9770.718434,1302.362347
772.829415,2220.617826,-10362.883188,689.485948
772.829739,888.247130,-10584.944971,0.000000
772.830063,-518.144159,-10584.944971,-383.047749
772.830387,-1628.453072,-10658.965565,-1455.581446
772.830711,-2220.617826,-10658.965565,-1608.800546
772.831036,-2886.803174,-10140.821405,-2145.067394
772.831360,-3034.844362,-9400.615463,-1455.581446
772.831684,-2516.700203,-9252.574275,-1225.752797
772.832008,-1184.329507,-8808.450710,-76.609550
772.832332,814.226536,-8956.491898,306.438199
772.832656,2072.576638,-9400.615463,842.705048
772.832981,2590.720797,-9696.697840,1225.752797
772.833305,1998.556043,-9844.739029,995.924147
772.833629,1036.288319,-10732.986159,76.609550
772.833953,222.061783,-10362.883188,-689.485948
772.834277,-1110.308913,-10732.986159,-1225.752797
772.834602,-1850.514855,-10807.006753,-1915.238745
772.834926,-2294.638420,-10658.965565,-2145.067394
772.835250,-1998.556043,-10362.883188,-2145.067394
772.835574,-1184.329507,-9178.553681,-689.485948
772.835898,592.164754,-8512.368333,-689.485948
772.836222,1702.473667,-8438.347739,306.438199
772.836547,2664.741391,-9030.512492,766.095498
772.836871,2664.741391,-9622.677246,995.924147
772.837195,2368.659014,-10066.800811,919.314598
772.837519,1036.288319,-9918.759623,689.485948
772.837843,0.000000,-10362.883188,306.438199
772.838168,-1184.329507,-9992.780217,0.000000
772.838492,-1998.556043,-10140.821405,-1225.752797
772.838816,-2442.679609,-10288.862594,-919.314598
772.839140,-2294.638420,-9696.697840,-995.924147
772.839464,-1850.514855,-9252.574275,-306.438199
772.839788,-444.123565,-9030.512492,383.047749
772.840113,592.164754,-8734.430116,1378.971896
772.840437,2072.576638,-8808.450710,1149.143247
772.840761,2590.720797,-9548.656652,1685.410096
772.841085,1776.494261,-9696.697840,1915.238745
772.841409,1184.329507,-10066.800811,842.705048
772.841734,0.000000,-10140.821405,229.828649
772.842058,-962.267725,-10140.821405,-229.828649
772.842382,-1924.535449,-10214.842000,-766.095498
772.842706,-2664.741391,-10288.862594,-1149.143247
772.843030,-2368.659014,-9918.759623,-612.876398
772.843355,-1702.473667,-8512.368333,0.000000
772.843679,-148.041188,-8216.285956,1149.143247
772.844003,962.267725,-8808.450710,1072.533697
772.844327,2146.597232,-9400.615463,1608.800546
772.844651,2590.720797,-9622.677246,1991.848295
772.844975,2368.659014,-10066.800811,1838.629195
772.845300,888.247130,-9622.677246,1225.752797
772.845624,-296.082377,-9844.739029,383.047749
772.845948,-1258.350101,-9918.759623,-766.095498
772.846272,-1702.473667,-10288.862594,-1225.752797
772.846596,-2368.659014,-10436.903782,-1455.581446
772.846921,-2072.576638,-10066.800811,-1455.581446
772.847245,-1628.453072,-9400.615463,-612.876398
772.847569,-888.247130,-8808.450710,0.000000
772.847893,0.000000,-8364.327145,995.924147
772.848217,666.185348,-9178.553681,1608.800546
772.848541,1628.453072,-10140.821405,1838.629195
772.848866,2072.576638,-10214.842000,1838.629195
772.849190,1628.453072,-9770.718434,1532.190996
772.849514,592.164754,-9770.718434,766.095498
772.849838,-518.144159,-9770.718434,-229.828649
772.850162,-1776.494261,-10140.821405,-1991.848295
772.850487,-2294.638420,-10214.842000,-2298.286494
772.850811,-2146.597232,-9696.697840,-2528.115143
772.851135,-1036.288319,-9474.636058,-2068.457845
772.851459,0.000000,-8956.491898,-1149.143247
772.851783,1184.329507,-8882.471304,-612.876398
772.852108,1998.556043,-9030.512492,-229.828649
772.852432,2516.700203,-9696.697840,459.657299
772.852756,2368.659014,-10214.842000,459.657299
772.853080,1702.473667,-10362.883188,1608.800546
772.853404,814.226536,-10140.821405,919.314598
772.853728,-296.082377,-10214.842000,153.219100
772.854053,-1554.432478,-10288.862594,-919.314598
772.854377,-2368.659014,-10214.842000,-1225.752797
772.854701,-2368.659014,-9770.718434,-1225.752797
772.855025,-1998.556043,-9178.553681,-766.095498
772.855349,-1110.308913,-8660.409521,-1072.533697
772.855674,-296.082377,-8290.306550,-306.438199
772.855998,1036.288319,-8660.409521,0.000000
772.856322,1850.514855,-9622.677246,76.609550
772.856646,1776.494261,-9992.780217,0.000000
772.856970,1332.370696,-9992.780217,0.000000
772.857294,444.123565,-9844.739029,0.000000
772.857619,-222.061783,-9844.739029,-612.876398
772.857943,-1332.370696,-10066.800811,-842.705048
772.858267,-1480.411884,-10214.842000,-1302.362347
772.858591,-2072.576638,-9992.780217,-1378.971896
772.858915,-1776.494261,-9548.656652,-612.876398
772.859240,-1110.308913,-8808.450710,-306.438199
772.859564,444.123565,-8364.327145,306.438199
772.859888,1332.370696,-8660.409521,612.876398
772.860212,2294.638420,-9104.533087,229.828649
772.860536,2072.576638,-9622.677246,0.000000
772.860860,1184.329507,-9548.656652,76.609550
772.861185,148.041188,-10214.842000,-689.485948
772.861509,-814.226536,-10436.903782,-1532.190996
772.861833,-1258.350101,-10214.842000,-1685.410096
772.862157,-1998.556043,-10214.842000,-1762.019645
772.862481,-1924.535449,-9918.759623,-1378.971896
772.862806,-1406.391290,-9548.656652,-1149.143247
772.863130,-888.247130,-9104.533087,0.000000
772.863454,148.041188,-8586.388927,689.485948
772.863778,1480.411884,-9400.615463,1685.410096
772.864102,2590.720797,-10066.800811,1991.848295
772.864427,2368.659014,-10214.842000,2145.067394
772.864751,1480.411884,-10066.800811,1915.238745
772.865075,296.082377,-10066.800811,995.924147
772.865399,-444.123565,-9696.697840,0.000000
772.865723,-962.267725,-10732.986159,-1149.143247
772.866047,-2368.659014,-10658.965565,-1838.629195
772.866372,-2590.720797,-10436.903782,-1991.848295
772.866696,-2072.576638,-9918.759623,-1532.190996
772.867020,-888.247130,-9178.553681,-689.485948
772.867344,222.061783,-8808.450710,76.609550
772.867668,1258.350101,-8882.471304,1225.752797
772.867993,2294.638420,-9252.574275,1838.629195
772.868317,2886.803174,-9992.780217,2221.676944
772.868641,2442.679609,-10140.821405,1991.848295
772.868965,1110.308913,-10214.842000,1455.581446
772.869289,-592.164754,-9770.718434,842.705048
772.869613,-1702.473667,-9844.739029,153.219100
772.869938,-3108.864956,-9770.718434,-459.657299
772.870262,-3627.009116,-9622.677246,-995.924147
772.870586,-3478.967927,-8734.430116,-919.314598
772.870910,-2146.597232,-8216.285956,-766.095498
772.871234,-592.164754,-7624.121203,383.047749
772.871559,444.123565,-7994.224174,383.047749
772.871883,1332.370696,-8586.388927,995.924147
772.872207,1998.556043,-9178.553681,1455.581446
772.872531,1924.535449,-9326.594869,1455.581446
772.872855,1036.288319,-9474.636058,1225.752797
772.873179,74.020594,-9844.739029,306.438199
772.873504,-666.185348,-10140.821405,306.438199
772.873828,-1850.514855,-9992.780217,-153.219100
772.874152,-2294.638420,-10510.924376,-995.924147
772.874476,-1924.535449,-9992.780217,-919.314598
772.874800,-1406.391290,-9326.594869,-612.876398
772.875125,0.000000,-8882.471304,-306.438199
772.875449,1480.411884,-8882.471304,306.438199
772.875773,2886.803174,-9622.677246,459.657299
772.876097,3923.091493,-10436.903782,383.047749
772.876421,3478.967927,-10066.800811,306.438199
772.876746,2072.576638,-10066.800811,229.828649
772.877070,888.247130,-10584.944971,-229.828649
772.877394,-296.082377,-10881.027347,-995.924147
772.877718,-962.267725,-11029.068536,-1378.971896
772.878042,-1702.473667,-10807.006753,-1532.190996
772.878366,-1998.556043,-9844.739029,-1455.581446
772.878691,-1258.350101,-9770.718434,-383.047749
772.879015,-592.164754,-9474.636058,0.000000
772.879339,370.102971,-9474.636058,766.095498
772.879663,1332.370696,-9696.697840,1378.971896
772.879987,1480.411884,-9770.718434,1149.143247
772.880312,1110.308913,-9622.677246,536.266849
772.880636,888.247130,-10140.821405,0.000000
772.880960,0.000000,-10807.006753,0.000000
772.881284,-592.164754,-10214.842000,-995.924147
772.881608,-1554.432478,-10214.842000,-1608.800546
772.881932,-2146.597232,-9844.739029,-2068.457845
772.882257,-1924.535449,-9474.636058,-2068.457845
772.882581,-1554.432478,-8956.491898,-1532.190996
772.882905,-518.144159,-8290.306550,-229.828649
772.883229,518.144159,-7920.203579,-153.219100
772.883553,1628.453072,-8142.265362,766.095498
772.883878,1924.535449,-8734.430116,1225.752797
772.884202,1998.556043,-9326.594869,1225.752797
772.884526,1110.308913,-9548.656652,689.485948
772.884850,-74.020594,-9622.677246,306.438199
772.885174,-1036.288319,-9770.718434,-153.219100
772.885498,-2146.597232,-9622.677246,-1149.143247
772.885823,-2590.720797,-10066.800811,-1378.971896
772.886147,-2812.782580,-9622.677246,-2068.457845
772.886471,-2146.597232,-9178.553681,-1302.362347
772.886795,-666.185348,-8808.450710,-383.047749
772.887119,370.102971,-8808.450710,0.000000
772.887444,1480.411884,-9178.553681,536.266849
772.887768,2220.617826,-9400.615463,1149.143247
772.888092,1998.556043,-10140.821405,842.705048
772.888416,1110.308913,-10288.862594,612.876398
772.888740,0.000000,-10510.924376,0.000000
772.889065,-962.267725,-10732.986159,-612.876398
772.889389,-1332.370696,-10881.027347,-1149.143247
772.889713,-1998.556043,-10584.944971,-1072.533697
772.890037,-2072.576638,-10732.986159,-1149.143247
772.890361,-1554.432478,-9844.739029,-1685.410096
772.890685,-370.102971,-9178.553681,-612.876398
772.891010,1184.329507,-9104.533087,229.828649
772.891334,2886.803174,-9474.636058,689.485948
772.891658,3775.050304,-9918.759623,1225.752797
772.891982,3701.029710,-10214.842000,1072.533697
772.892306,2664.741391,-10214.842000,766.095498
772.892631,1110.308913,-10436.903782,306.438199
772.892955,444.123565,-10955.047942,-689.485948
772.893279,-740.205942,-10807.006753,-995.924147
772.893603,-1850.514855,-10658.965565,-1225.752797
772.893927,-2368.659014,-10214.842000,-1302.362347
772.894251,-2220.617826,-9622.677246,-689.485948
772.894576,-1628.453072,-9030.512492,-383.047749
772.894900,-370.102971,-8586.388927,536.266849
772.895224,1110.308913,-9030.512492,1455.581446
772.895548,2294.638420,-9400.615463,1378.971896
772.895872,2146.597232,-9474.636058,1532.190996
772.896197,1258.350101,-9696.697840,1608.800546
772.896521,148.041188,-9696.697840,919.314598
772.896845,-444.123565,-9918.759623,0.000000
772.897169,-1036.288319,-10066.800811,-842.705048
772.897493,-1628.453072,-9844.739029,-689.485948
772.897817,-2146.597232,-9622.677246,-1072.533697
772.898142,-1850.514855,-9622.677246,-612.876398
772.898466,-1332.370696,-8586.388927,-383.047749
772.898790,-296.082377,-8068.244768,229.828649
772.899114,1184.329507,-8142.265362,766.095498
772.899438,1924.535449,-8586.388927,1455.581446
772.899763,2220.617826,-8882.471304,1455.581446
772.900087,1702.473667,-9696.697840,1072.533697
772.900411,666.185348,-10288.862594,689.485948
772.900735,-444.123565,-9770.718434,76.609550
772.901059,-1924.535449,-10214.842000,-995.924147
772.901384,-2812.782580,-10362.883188,-1532.190996
772.901708,-2886.803174,-10732.986159,-1608.800546
772.902032,-2590.720797,-9622.677246,-1378.971896
772.902356,-1184.329507,-9252.574275,-306.438199
772.902680,0.000000,-9030.512492,-153.219100
772.903004,1406.391290,-9104.533087,919.314598
772.903329,2368.659014,-9770.718434,995.924147
772.903653,2516.700203,-10288.862594,919.314598
772.903977,1628.453072,-10658.965565,536.266849
772.904301,888.247130,-10807.006753,153.219100
772.904625,0.000000,-10584.944971,-766.095498
772.904950,-370.102971,-11399.171507,-1378.971896
772.905274,-1998.556043,-10881.027347,-1991.848295
772.905598,-1702.473667,-11029.068536,-1762.019645
772.905922,-1628.453072,-10436.903782,-1685.410096
772.906246,-740.205942,-9474.636058,-842.705048
772.906571,518.144159,-8882.471304,-306.438199
772.906895,1628.453072,-8512.368333,1072.533697
772.907219,3108.864956,-9252.574275,766.095498
772.907543,3775.050304,-9770.718434,1608.800546
772.907867,2812.782580,-9696.697840,1149.143247
772.908191,1628.453072,-9770.718434,919.314598
772.908516,148.041188,-9992.780217,0.000000
772.908840,-1332.370696,-9844.739029,-919.314598
772.909164,-2294.638420,-9992.780217,-1608.800546
772.909488,-2590.720797,-9770.718434,-2145.067394
772.909812,-2960.823768,-9622.677246,-1455.581446
772.910137,-2368.659014,-8660.409521,-612.876398
772.910461,-1110.308913,-8438.347739,-383.047749
772.910785,0.000000,-7920.203579,536.266849
772.911109,1332.370696,-8734.430116,1149.143247
772.911433,2146.597232,-9400.615463,1762.019645
772.911758,1998.556043,-9474.636058,1685.410096
772.912082,1110.308913,-9548.656652,1838.629195
772.912406,370.102971,-9918.759623,689.485948
772.912730,-518.144159,-9918.759623,153.219100
772.913054,-1554.432478,-10362.883188,-1225.752797
772.913379,-2516.700203,-9992.780217,-1915.238745
772.913703,-2812.782580,-9992.780217,-1762.019645
772.914027,-2146.597232,-9178.553681,-1455.581446
772.914351,-814.226536,-8660.409521,-1149.143247
772.914675,740.205942,-8438.347739,-383.047749
772.915000,2220.617826,-9178.553681,229.828649
772.915324,2738.761985,-9918.759623,459.657299
772.915648,2738.761985,-10510.924376,766.095498
772.915972,2072.576638,-10288.862594,766.095498
772.916296,740.205942,-10732.986159,306.438199
772.916620,-148.041188,-11177.109724,0.000000
772.916945,-1406.391290,-11177.109724,-842.705048
772.917269,-2146.597232,-10807.006753,-1072.533697
772.917593,-2368.659014,-11103.089130,-919.314598
772.917917,-1998.556043,-9992.780217,-612.876398
772.918241,-1258.350101,-9326.594869,-306.438199
772.918566,0.000000,-9178.553681,536.266849
772.918890,962.267725,-9474.636058,689.485948
772.919214,1702.473667,-9548.656652,842.705048
772.919538,1480.411884,-9622.677246,1225.752797
772.919862,888.247130,-9548.656652,383.047749
772.920187,74.020594,-9770.718434,153.219100
772.920511,-518.144159,-10362.883188,-536.266849
772.920835,-1332.370696,-10584.944971,-842.705048
772.921159,-1776.494261,-10214.842000,-1149.143247
772.921483,-1924.535449,-9918.759623,-842.705048
772.921808,-740.205942,-9104.533087,-383.047749
772.922132,-296.082377,-8364.327145,76.609550
772.922456,814.226536,-8068.244768,842.705048
772.922780,2220.617826,-8586.388927,1455.581446
772.923104,2738.761985,-8808.450710,1915.238745
772.923428,2368.659014,-8882.471304,1685.410096
772.923753,1110.308913,-9474.636058,919.314598
772.924077,74.020594,-9474.636058,459.657299
772.924401,-1036.288319,-9474.636058,0.000000
772.924725,-1998.556043,-9474.636058,-766.095498
772.925049,-2442.679609,-9622.677246,-1991.848295
772.925374,-2294.638420,-9474.636058,-1378.971896
772.925698,-1924.535449,-8882.471304,-766.095498
772.926022,-1036.288319,-8512.368333,0.000000
772.926346,0.000000,-8290.306550,919.314598
772.926670,1480.411884,-8808.450710,1762.019645
772.926995,2294.638420,-9474.636058,2221.676944
772.927319,2738.761985,-9992.780217,2145.067394
772.927643,1702.473667,-10288.862594,1532.190996
772.927967,518.144159,-10584.944971,766.095498
772.928291,-666.185348,-10658.965565,-153.219100
772.928616,-1554.432478,-10732.986159,-995.924147
772.928940,-2220.617826,-10807.006753,-2374.896044
772.929264,-2516.700203,-10436.903782,-2834.553343
772.929588,-2220.617826,-9992.780217,-2298.286494
772.929912,-740.205942,-9326.594869,-1608.800546
772.930236,370.102971,-9030.512492,-766.095498
772.930561,1628.453072,-8956.491898,153.219100
772.930885,3108.864956,-9696.697840,766.095498
772.931209,4367.215058,-10214.842000,1072.533697
772.931533,3404.947333,-10510.924376,995.924147
772.931857,1480.411884,-10658.965565,383.047749
772.932182,-148.041188,-10807.006753,536.266849
772.932506,-1628.453072,-10807.006753,-766.095498
772.932830,-2368.659014,-10732.986159,-919.314598
772.933154,-2516.700203,-10584.944971,-1762.019645
772.933478,-2664.741391,-9770.718434,-1455.581446
772.933803,-1924.535449,-9326.594869,-1149.143247
772.934127,-444.123565,-7994.224174,0.000000
772.934451,666.185348,-8216.285956,153.219100
772.934775,1554.432478,-8956.491898,76.609550
772.935099,1702.473667,-9474.636058,612.876398
772.935424,1480.411884,-9844.739029,766.095498
772.935748,740.205942,-9992.780217,306.438199
772.936072,74.020594,-10658.965565,0.000000
772.936396,-814.226536,-10436.903782,-153.219100
772.936720,-1628.453072,-9770.718434,-766.095498
772.937045,-1998.556043,-9622.677246,-689.485948
772.937369,-2442.679609,-9178.553681,-1302.362347
772.937693,-1628.453072,-9030.512492,-459.657299
772.938017,0.000000,-8290.306550,153.219100
772.938341,1480.411884,-7920.203579,459.657299
772.938665,2368.659014,-7994.224174,842.705048
772.938990,3034.844362,-9104.533087,766.095498
772.939314,2368.659014,-9104.533087,0.000000
772.939638,1406.391290,-9992.780217,0.000000
772.939962,74.020594,-10214.842000,-612.876398
772.940286,-1110.308913,-9992.780217,-1532.190996
772.940611,-1554.432478,-10140.821405,-1685.410096
772.940935,-1998.556043,-9992.780217,-1608.800546
772.941259,-1850.514855,-9918.759623,-766.095498
772.941583,-1110.308913,-9326.594869,-383.047749
772.941907,-666.185348,-8882.471304,306.438199
772.942232,222.061783,-9178.553681,1149.143247
772.942556,1554.432478,-9548.656652,1378.971896
772.942880,2072.576638,-10288.862594,1302.362347
772.943204,1924.535449,-10436.903782,1072.533697
772.943528,1036.288319,-10288.862594,689.485948
772.943853,0.000000,-10658.965565,0.000000
772.944177,-592.164754,-11177.109724,-995.924147
772.944501,-1406.391290,-10584.944971,-1608.800546
772.944825,-2072.576638,-11103.089130,-2145.067394
772.945149,-1998.556043,-10658.965565,-2221.676944
772.945473,-1406.391290,-9992.780217,-1685.410096
772.945798,-592.164754,-8882.471304,-766.095498
772.946122,740.205942,-8882.471304,229.828649
772.946446,2146.597232,-8956.491898,919.314598
772.946770,3034.844362,-9474.636058,1915.238745
772.947094,2368.659014,-9326.594869,1072.533697
772.947419,1776.494261,-9844.739029,1532.190996
772.947743,0.000000,-9622.677246,1225.752797
772.948067,-1480.411884,-9918.759623,0.000000
772.948391,-2442.679609,-10066.800811,-459.657299
772.948715,-3182.885551,-10214.842000,-842.705048
772.949040,-2812.782580,-9918.759623,-1225.752797
772.949364,-2368.659014,-9474.636058,-536.266849
772.949688,-888.247130,-8512.368333,766.095498
772.950012,592.164754,-8364.327145,229.828649
772.950336,1184.329507,-8586.388927,1225.752797
772.950661,1998.556043,-8882.471304,1762.019645
772.950985,1702.473667,-9178.553681,1532.190996
772.951309,740.205942,-9548.656652,919.314598
772.951633,0.000000,-9622.677246,919.314598
772.951957,-814.226536,-9844.739029,612.876398
772.952282,-1554.432478,-9696.697840,0.000000
772.952606,-2220.617826,-10140.821405,-612.876398
772.952930,-2442.679609,-9844.739029,-689.485948
772.953254,-2146.597232,-9178.553681,-229.828649
772.953578,-592.164754,-8586.388927,0.000000
772.953902,1258.350101,-8068.244768,612.876398
772.954227,2368.659014,-7920.203579,995.924147
772.954551,3182.885551,-8956.491898,1532.190996
772.954875,3701.029710,-9770.718434,842.705048
772.955199,2442.679609,-9844.739029,536.266849
772.955523,814.226536,-10214.842000,0.000000
772.955848,-370.102971,-10436.903782,-689.485948
772.956172,-1332.370696,-10658.965565,-1378.971896
772.956496,-1998.556043,-10362.883188,-1302.362347
772.956820,-2072.576638,-10362.883188,-1378.971896
772.957144,-1480.411884,-10288.862594,-536.266849
772.957469,-814.226536,-9474.636058,-153.219100
772.957793,74.020594,-9030.512492,76.609550
772.958117,962.267725,-9326.594869,842.705048
772.958441,1628.453072,-10066.800811,995.924147
772.958765,1998.556043,-10584.944971,1455.581446
772.959090,1332.370696,-10288.862594,919.314598
772.959414,888.247130,-10214.842000,-153.219100
772.959738,0.000000,-10584.944971,-919.314598
772.960062,-814.226536,-10658.965565,-1762.019645
772.960386,-1332.370696,-10584.944971,-2451.505594
772.960710,-1628.453072,-10214.842000,-2451.505594
772.961035,-1258.350101,-9770.718434,-2451.505594
772.961359,-296.082377,-8956.491898,-766.095498
772.961683,666.185348,-8660.409521,383.047749
772.962007,1628.453072,-8734.430116,919.314598
772.962331,2590.720797,-9326.594869,1302.362347
772.962656,2516.700203,-9844.739029,1072.533697
772.962980,1628.453072,-9844.739029,1302.362347
772.963304,370.102971,-9992.780217,612.876398
772.963628,-666.185348,-10288.862594,-689.485948
772.963952,-1702.473667,-10214.842000,-842.705048
772.964277,-2886.803174,-10214.842000,-1685.410096
772.964601,-2590.720797,-10510.924376,-1915.238745
772.964925,-2368.659014,-9474.636058,-1455.581446
772.965249,-1480.411884,-8956.491898,-1149.143247
772.965573,-296.082377,-8438.347739,-306.438199
772.965898,814.226536,-8734.430116,306.438199
772.966222,1406.391290,-9474.636058,1225.752797
772.966546,1776.494261,-9696.697840,1685.410096
772.966870,1110.308913,-9844.739029,1149.143247
772.967194,444.123565,-9918.759623,919.314598
772.967518,-444.123565,-10140.821405,459.657299
772.967843,-1184.329507,-9918.759623,-306.438199
772.968167,-1998.556043,-9918.759623,-842.705048
772.968491,-2220.617826,-9992.780217,-1762.019645
772.968815,-1850.514855,-9326.594869,-766.095498
772.969139,-1184.329507,-8586.388927,-612.876398
772.969464,888.247130,-8290.306550,0.000000
772.969788,1850.514855,-8438.347739,536.266849
772.970112,2442.679609,-9178.553681,842.705048
772.970436,2812.782580,-9622.677246,842.705048
772.970760,2442.679609,-9992.780217,919.314598
772.971085,1702.473667,-9918.759623,689.485948
772.971409,148.041188,-10214.842000,153.219100
772.971733,-888.247130,-10214.842000,-612.876398
772.972057,-2220.617826,-10214.842000,-919.314598
772.972381,-2368.659014,-10362.883188,-1225.752797
772.972706,-2294.638420,-9918.759623,-1072.533697
772.973030,-1258.350101,-9474.636058,-766.095498
772.973354,0.000000,-8808.450710,229.828649
772.973678,888.247130,-8882.471304,1072.533697
772.974002,1924.535449,-9178.553681,1149.143247
772.974327,2294.638420,-9770.718434,995.924147
772.974651,1850.514855,-9992.780217,612.876398
772.974975,1184.329507,-10732.986159,842.705048
772.975299,740.205942,-10955.047942,229.828649
772.975623,148.041188,-11029.068536,-229.828649
772.975947,-740.205942,-10288.862594,-1149.143247
772.976272,-1258.350101,-10436.903782,-1378.971896
772.976596,-1332.370696,-9770.718434,-1685.410096
772.976920,-666.185348,-9844.739029,-766.095498
772.977244,-222.061783,-8956.491898,-153.219100
772.977568,740.205942,-8660.409521,306.438199
772.977893,1628.453072,-9030.512492,383.047749
772.978217,2072.576638,-9178.553681,766.095498
772.978541,1258.350101,-9548.656652,842.705048
772.978865,592.164754,-9770.718434,842.705048
772.979189,-222.061783,-9770.718434,153.219100
772.979514,-1406.391290,-10362.883188,-383.047749
772.979838,-1850.514855,-10362.883188,-766.095498
772.980162,-2368.659014,-10362.883188,-919.314598
772.980486,-2442.679609,-9844.739029,-536.266849
772.980810,-1924.535449,-9252.574275,-153.219100
772.981135,-962.267725,-8512.368333,229.828649
772.981459,222.061783,-8586.388927,766.095498
772.981783,666.185348,-8290.306550,1149.143247
772.982107,1480.411884,-9252.574275,1149.143247
772.982431,1036.288319,-9622.677246,766.095498
772.982755,-148.041188,-9474.636058,459.657299
772.983080,-740.205942,-9844.739029,153.219100
772.983404,-1184.329507,-9992.780217,-153.219100
772.983728,-1850.514855,-9696.697840,-536.266849
772.984052,-1776.494261,-9844.739029,-1378.971896
772.984376,-2146.597232,-9696.697840,-995.924147
772.984701,-1332.370696,-9104.533087,-766.095498
772.985025,-222.061783,-8512.368333,0.000000
772.985349,1184.329507,-8290.306550,536.266849
772.985673,2738.761985,-8734.430116,1072.533697
772.985997,3404.947333,-9474.636058,1072.533697
772.986322,2812.782580,-9622.677246,842.705048
772.986646,1406.391290,-9622.677246,0.000000
772.986970,518.144159,-10436.903782,-229.828649
772.987294,-296.082377,-10658.965565,-612.876398
772.987618,-1332.370696,-10584.944971,-1378.971896
772.987943,-1850.514855,-10436.903782,-1455.581446
772.988267,-2072.576638,-9844.739029,-1915.238745
772.988591,-1554.432478,-9918.759623,-1072.533697
772.988915,-666.185348,-9178.553681,-383.047749
772.989239,296.082377,-9030.512492,306.438199
772.989563,1554.432478,-9326.594869,612.876398
772.989888,1998.556043,-9844.739029,1149.143247
772.990212,2368.659014,-10362.883188,1302.362347
772.990536,1776.494261,-10584.944971,766.095498
772.990860,1258.350101,-10584.944971,459.657299
772.991184,296.082377,-10584.944971,-153.219100
772.991509,-740.205942,-10436.903782,-995.924147
772.991833,-1480.411884,-10436.903782,-1685.410096
772.992157,-1998.556043,-10436.903782,-1915.238745
772.992481,-1998.556043,-9548.656652,-1608.800546
772.992805,-666.185348,-8956.491898,-536.266849
772.993130,444.123565,-8068.244768,0.000000
772.993454,1998.556043,-8364.327145,153.219100
772.993778,2664.741391,-9104.533087,536.266849
772.994102,2368.659014,-9548.656652,919.314598
772.994426,1554.432478,-9844.739029,842.705048
772.994751,0.000000,-10140.821405,689.485948
772.995075,-1036.288319,-10066.800811,459.657299
772.995399,-1924.535449,-10288.862594,0.000000
772.995723,-2442.679609,-9770.718434,-1455.581446
772.996047,-2960.823768,-9918.759623,-1225.752797
772.996372,-2368.659014,-9178.553681,-76.609550
772.996696,-1924.535449,-8438.347739,306.438199
772.997020,-814.226536,-8142.265362,1072.533697
772.997344,592.164754,-8364.327145,1378.971896
772.997668,1332.370696,-9104.533087,1225.752797
772.997992,1110.308913,-9104.533087,842.705048
772.998317,888.247130,-9474.636058,995.924147
772.998641,0.000000,-9918.759623,689.485948
772.998965,-814.226536,-10066.800811,0.000000
772.999289,-1480.411884,-10140.821405,-383.047749
772.999613,-2146.597232,-10436.903782,-766.095498
772.999938,-2146.597232,-10140.821405,-766.095498
773.000262,-1110.308913,-9326.594869,-383.047749
773.000586,-518.144159,-8808.450710,0.000000
773.000910,740.205942,-8660.409521,459.657299
773.001234,1998.556043,-8290.306550,1378.971896
773.001559,2738.761985,-8956.491898,1532.190996
773.001883,2886.803174,-9696.697840,1378.971896
773.002207,2294.638420,-9918.759623,536.266849
773.002531,814.226536,-9474.636058,0.000000
773.002855,-148.041188,-10066.800811,-919.314598
773.003180,-1110.308913,-10436.903782,-1302.362347
773.003504,-2072.576638,-10362.883188,-1762.019645
773.003828,-2294.638420,-10584.944971,-2145.067394
773.004152,-1776.494261,-9918.759623,-1915.238745
773.004476,-592.164754,-9474.636058,-995.924147
773.004800,444.123565,-9178.553681,229.828649
773.005125,1628.453072,-9178.553681,1455.581446
773.005449,2664.741391,-9178.553681,1532.190996
773.005773,3182.885551,-10066.800811,1149.143247
773.006097,2664.741391,-9992.780217,536.266849
773.006421,1480.411884,-10436.903782,536.266849
773.006746,222.061783,-10658.965565,0.000000
773.007070,-666.185348,-10955.047942,-1302.362347
773.007394,-1258.350101,-10584.944971,-1915.238745
773.007718,-2516.700203,-9770.718434,-2145.067394
773.008042,-2146.597232,-9770.718434,-2757.943793
773.008367,-1184.329507,-9400.615463,-1685.410096
773.008691,-296.082377,-8956.491898,-1225.752797
773.009015,1184.329507,-8364.327145,-536.266849
773.009339,2146.597232,-8808.450710,153.219100
773.009663,2812.782580,-9548.656652,842.705048
773.009987,2516.700203,-10066.800811,995.924147
773.010312,1332.370696,-10140.821405,459.657299
773.010636,-222.061783,-10362.883188,459.657299
773.010960,-1702.473667,-10436.903782,-383.047749
773.011284,-2368.659014,-10436.903782,-919.314598
773.011608,-2960.823768,-10288.862594,-1225.752797
773.011933,-2886.803174,-9770.718434,-1225.752797
773.012257,-2146.597232,-9326.594869,-1225.752797
773.012581,-740.205942,-8068.244768,-306.438199
773.012905,222.061783,-7846.182985,-306.438199
773.013229,888.247130,-8068.244768,306.438199
773.013553,1332.370696,-9474.636058,306.438199
773.013878,1258.350101,-9918.759623,306.438199
773.014202,814.226536,-9918.759623,306.438199
773.014526,74.020594,-10066.800811,-153.219100
773.014850,-962.267725,-9770.718434,-229.828649
773.015174,-1258.350101,-9844.739029,-842.705048
773.015499,-2072.576638,-10140.821405,-766.095498
773.015823,-2146.597232,-9622.677246,0.000000
773.016147,-1554.432478,-9104.533087,-306.438199
773.016471,-666.185348,-8512.368333,459.657299
773.016795,1110.308913,-8364.327145,1225.752797
773.017119,2516.700203,-8956.491898,1302.362347
773.017444,3627.009116,-9474.636058,1378.971896
773.017768,3108.864956,-9992.780217,766.095498
773.018092,1850.514855,-10066.800811,459.657299
773.018416,1036.288319,-10066.800811,0.000000
773.018740,-370.102971,-10510.924376,-612.876398
773.019065,-1554.432478,-10732.986159,-919.314598
773.019389,-1924.535449,-10510.924376,-1225.752797
773.019713,-1554.432478,-10066.800811,-536.266849
773.020037,-1258.350101,-9474.636058,0.000000
773.020361,-740.205942,-8438.347739,536.266849
773.020685,0.000000,-8660.409521,1302.362347
773.021010,518.144159,-9178.553681,1991.848295
773.021334,1480.411884,-9992.780217,2145.067394
773.021658,1850.514855,-9844.739029,2221.676944
773.021982,1406.391290,-10066.800811,1838.629195
773.022306,370.102971,-10362.883188,919.314598
773.022630,-962.267725,-10140.821405,-689.485948
773.022955,-1776.494261,-9992.780217,-1072.533697
773.023279,-2368.659014,-10584.944971,-1532.190996
773.023603,-2294.638420,-10140.821405,-1762.019645
773.023927,-1332.370696,-9474.636058,-1455.581446
773.024251,-296.082377,-8882.471304,-536.266849
773.024576,1184.329507,-8216.285956,153.219100
773.024900,1776.494261,-8660.409521,383.047749
773.025224,2590.720797,-8956.491898,1608.800546
773.025548,2294.638420,-9770.718434,1302.362347
773.025872,1702.473667,-10140.821405,1225.752797
773.026196,370.102971,-10288.862594,842.705048
773.026521,-1036.288319,-10510.924376,459.657299
773.026845,-2146.597232,-10436.903782,-689.485948
773.027169,-2738.761985,-10362.883188,-1225.752797
773.027493,-2738.761985,-9992.780217,-919.314598
773.027817,-2368.659014,-9844.739029,-1378.971896
773.028142,-1702.473667,-8956.491898,-766.095498
773.028466,-296.082377,-8660.409521,-306.438199
773.028790,814.226536,-8808.450710,0.000000
773.029114,1406.391290,-9400.615463,229.828649
773.029438,1554.432478,-9622.677246,383.047749
773.029762,1406.391290,-9696.697840,842.705048
773.030087,518.144159,-9696.697840,153.219100
773.030411,74.020594,-10510.924376,-306.438199
773.030735,-740.205942,-10510.924376,-536.266849
773.031059,-1480.411884,-10288.862594,-1072.533697
773.031383,-2146.597232,-10066.800811,-1225.752797
773.031708,-2072.576638,-9400.615463,-995.924147
773.032032,-1110.308913,-9178.553681,-612.876398
773.032356,74.020594,-8068.244768,153.219100
773.032680,1850.514855,-8216.285956,919.314598
773.033004,2886.803174,-8734.430116,536.266849
773.033328,3256.906145,-9622.677246,842.705048
773.033653,3108.864956,-10288.862594,689.485948
773.033977,1628.453072,-10214.842000,153.219100
773.034301,222.061783,-10362.883188,-612.876398
773.034625,-1480.411884,-10362.883188,-1149.143247
773.034949,-2146.597232,-10140.821405,-2068.457845
773.035274,-2886.803174,-9622.677246,-995.924147
773.035598,-2146.597232,-9918.759623,-1149.143247
773.035922,-1628.453072,-8956.491898,153.219100
773.036246,-370.102971,-8882.471304,612.876398
773.036570,740.205942,-8438.347739,1225.752797
773.036894,1406.391290,-9178.553681,1532.190996
773.037219,1776.494261,-9770.718434,1225.752797
773.037543,1406.391290,-9770.718434,1149.143247
773.037867,444.123565,-9918.759623,459.657299
773.038191,-740.205942,-9696.697840,-229.828649
773.038515,-1554.432478,-10066.800811,-1225.752797
773.038839,-1554.432478,-10362.883188,-2068.457845
773.039164,-1628.453072,-10288.862594,-2451.505594
773.039488,-962.267725,-9474.636058,-1762.019645
773.039812,74.020594,-8882.471304,-842.705048
773.040136,592.164754,-8142.265362,229.828649
773.040460,1850.514855,-8512.368333,689.485948
773.040785,2664.741391,-9104.533087,1378.971896
773.041109,2664.741391,-9918.759623,1225.752797
773.041433,2072.576638,-10214.842000,919.314598
773.041757,740.205942,-10436.903782,612.876398
773.042081,-444.123565,-10658.965565,0.000000
773.042405,-1258.350101,-10584.944971,-459.657299
773.042730,-2220.617826,-10732.986159,-1608.800546
773.043054,-2960.823768,-10288.862594,-2145.067394
773.043378,-2368.659014,-10288.862594,-1762.019645
773.043702,-1776.494261,-9622.677246,-995.924147
773.044026,-666.185348,-8956.491898,-383.047749
773.044351,444.123565,-8586.388927,383.047749
773.044675,1702.473667,-9104.533087,1302.362347
773.044999,2590.720797,-10140.821405,1378.971896
773.045323,1924.535449,-9696.697840,919.314598
773.045647,1184.329507,-9696.697840,1225.752797
773.045971,222.061783,-10362.883188,766.095498
773.046296,-888.247130,-10436.903782,0.000000
773.046620,-1998.556043,-10288.862594,-612.876398
773.046944,-2738.761985,-9844.739029,-1302.362347
773.047268,-2664.741391,-9178.553681,-1378.971896
773.047592,-1628.453072,-8808.450710,-229.828649
773.047917,222.061783,-8142.265362,229.828649
773.048241,1406.391290,-8216.285956,459.657299
773.048565,2368.659014,-8290.306550,1149.143247
773.048889,2590.720797,-9252.574275,842.705048
773.049213,1998.556043,-9548.656652,1149.143247
773.049537,1332.370696,-9992.780217,766.095498
773.049862,296.082377,-10140.821405,689.485948
773.050186,-1110.308913,-9622.677246,0.000000
773.050510,-1258.350101,-9992.780217,0.000000
773.050834,-1998.556043,-10140.821405,-919.314598
773.051158,-2516.700203,-9918.759623,-766.095498
773.051483,-2368.659014,-9326.594869,-229.828649
773.051807,-1702.473667,-8142.265362,0.000000
773.052131,74.020594,-8142.265362,995.924147
773.052455,1110.308913,-8734.430116,1302.362347
773.052779,1776.494261,-9622.677246,1225.752797
773.053103,2072.576638,-9918.759623,1149.143247
773.053428,1406.391290,-10214.842000,766.095498
773.053752,888.247130,-10362.883188,229.828649
773.054076,74.020594,-10510.924376,-536.266849
773.054400,-518.144159,-10436.903782,-1072.533697
773.054724,-814.226536,-10362.883188,-1532.190996
773.055049,-962.267725,-9844.739029,-1378.971896
773.055373,-444.123565,-9252.574275,-1149.143247
773.055697,518.144159,-8660.409521,-689.485948
773.056021,1332.370696,-8586.388927,229.828649
773.056345,2146.597232,-9030.512492,383.047749
773.056669,2368.659014,-9696.697840,689.485948
773.056994,2146.597232,-10362.883188,689.485948
773.057318,1184.329507,-10584.944971,153.219100
773.057642,222.061783,-10732.986159,-229.828649
773.057966,-814.226536,-10732.986159,-919.314598
773.058290,-1776.494261,-10881.027347,-1762.019645
773.058614,-2294.638420,-10955.047942,-1915.238745
773.058939,-2220.617826,-10658.965565,-1455.581446
773.059263,-1258.350101,-9844.739029,-995.924147
773.059587,-962.267725,-8956.491898,0.000000
773.059911,296.082377,-8882.471304,229.828649
773.060235,1628.453072,-9104.533087,612.876398
773.060560,1850.514855,-9770.718434,1149.143247
773.060884,1406.391290,-10362.883188,1072.533697
773.061208,740.205942,-10436.903782,842.705048
773.061532,-370.102971,-10066.800811,-383.047749
773.061856,-1480.411884,-10214.842000,-766.095498
773.062180,-2368.659014,-9992.780217,-689.485948
773.062505,-2886.803174,-9918.759623,-1685.410096
773.062829,-2664.741391,-9548.656652,-1302.362347
773.063153,-1998.556043,-8956.491898,-1225.752797
773.063477,-370.102971,-8290.306550,-536.266849
773.063801,1036.288319,-7920.203579,76.609550
773.064126,2442.679609,-8068.244768,766.095498
773.064450,3330.926739,-9400.615463,1532.190996
773.064774,3034.844362,-9696.697840,1378.971896
773.065098,2368.659014,-9918.759623,1685.410096
773.065422,888.247130,-10658.965565,383.047749
773.065746,-444.123565,-10807.006753,153.219100
773.066071,-1554.432478,-10658.965565,-689.485948
773.066395,-2590.720797,-10436.903782,-919.314598
773.066719,-3034.844362,-10140.821405,-1532.190996
773.067043,-2368.659014,-9474.636058,-1532.190996
773.067367,-1554.432478,-8512.368333,0.000000
773.067692,-444.123565,-8068.244768,689.485948
773.068016,370.102971,-8512.368333,919.314598
773.068340,1628.453072,-9030.512492,1378.971896
773.068664,2294.638420,-9622.677246,1608.800546
773.068988,2072.576638,-9548.656652,1685.410096
773.069312,1036.288319,-9622.677246,1149.143247
773.069637,444.123565,-10584.944971,612.876398
773.069961,-1110.308913,-10288.862594,-612.876398
773.070285,-1628.453072,-10362.883188,-919.314598
773.070609,-2072.576638,-10066.800811,-1378.971896
773.070933,-1702.473667,-9474.636058,-995.924147
773.071258,-740.205942,-8660.409521,0.000000
773.071582,444.123565,-8290.306550,689.485948
773.071906,1924.535449,-8068.244768,766.095498
773.072230,2812.782580,-8956.491898,1455.581446
773.072554,3034.844362,-9992.780217,1455.581446
773.072878,2368.659014,-10066.800811,1302.362347
773.073203,1110.308913,-10288.862594,995.924147
773.073527,0.000000,-10807.006753,306.438199
773.073851,-1036.288319,-10881.027347,-383.047749
773.074175,-2220.617826,-10955.047942,-995.924147
773.074499,-2294.638420,-10584.944971,-1225.752797
773.074823,-2812.782580,-9474.636058,-1532.190996
773.075148,-2146.597232,-9178.553681,-842.705048
773.075472,-1258.350101,-8512.368333,0.000000
773.075796,0.000000,-8438.347739,842.705048
773.076120,962.267725,-8956.491898,1149.143247
773.076444,1702.473667,-9400.615463,1149.143247
773.076769,1184.329507,-9918.759623,1455.581446
773.077093,888.247130,-10362.883188,995.924147
773.077417,0.000000,-10436.903782,-153.219100
773.077741,-740.205942,-10732.986159,-689.485948
773.078065,-1776.494261,-10362.883188,-1072.533697
773.078389,-2220.617826,-10140.821405,-1762.019645
773.078714,-2368.659014,-9992.780217,-1149.143247
773.079038,-1184.329507,-9104.533087,-1378.971896
773.079362,0.000000,-8956.491898,-689.485948
773.079686,1406.391290,-8734.430116,153.219100
773.080010,2368.659014,-9326.594869,689.485948
773.080335,2886.803174,-9548.656652,1072.533697
773.080659,2220.617826,-10140.821405,689.485948
773.080983,740.205942,-10658.965565,689.485948
773.081307,-518.144159,-10584.944971,-383.047749
773.081631,-1184.329507,-11103.089130,-1149.143247
773.081955,-2442.679609,-10140.821405,-1378.971896
773.082280,-2812.782580,-9770.718434,-1838.629195
773.082604,-2738.761985,-9770.718434,-1915.238745
773.082928,-1924.535449,-9474.636058,-1225.752797
773.083252,-962.267725,-8586.388927,-229.828649
773.083576,592.164754,-8142.265362,459.657299
773.083901,2368.659014,-8956.491898,1455.581446
773.084225,3330.926739,-9844.739029,1762.019645
773.084549,3478.967927,-10214.842000,1762.019645
773.084873,2294.638420,-9918.759623,1302.362347
773.085197,1036.288319,-9992.780217,383.047749
773.085521,-370.102971,-10140.821405,-612.876398
773.085846,-1258.350101,-9992.780217,-1378.971896
773.086170,-1776.494261,-9918.759623,-2068.457845
773.086494,-2146.597232,-9548.656652,-2298.286494
773.086818,-1628.453072,-9030.512492,-1455.581446
773.087142,-370.102971,-7994.224174,-383.047749
773.087467,814.226536,-7846.182985,-229.828649
773.087791,2072.576638,-8438.347739,689.485948
773.088115,2886.803174,-9326.594869,1149.143247
773.088439,3034.844362,-10066.800811,1378.971896
773.088763,2220.617826,-10436.903782,1455.581446
773.089087,888.247130,-10881.027347,689.485948
773.089412,-518.144159,-10807.006753,0.000000
773.089736,-1850.514855,-10807.006753,-689.485948
773.090060,-2442.679609,-10658.965565,-1532.190996
773.090384,-2664.741391,-9696.697840,-1685.410096
773.090708,-2146.597232,-9770.718434,-919.314598
773.091032,-1554.432478,-8438.347739,-919.314598
773.091357,-296.082377,-8660.409521,0.000000
773.091681,814.226536,-8586.388927,383.047749
773.092005,1406.391290,-9252.574275,842.705048
773.092329,1850.514855,-9622.677246,1072.533697
773.092653,1480.411884,-10436.903782,919.314598
773.092978,0.000000,-9918.759623,153.219100
773.093302,-666.185348,-10436.903782,0.000000
773.093626,-1480.411884,-10214.842000,-612.876398
773.093950,-1924.535449,-10436.903782,-689.485948
773.094274,-2146.597232,-10362.883188,-995.924147
773.094598,-1998.556043,-9696.697840,-1149.143247
773.094923,-1332.370696,-8586.388927,-766.095498
773.095247,74.020594,-8512.368333,0.000000
773.095571,1406.391290,-8586.388927,306.438199
773.095895,2220.617826,-9400.615463,766.095498
773.096219,1998.556043,-9622.677246,766.095498
773.096544,1332.370696,-9918.759623,383.047749
773.096868,444.123565,-10066.800811,0.000000
773.097192,-592.164754,-9696.697840,-459.657299
773.097516,-1258.350101,-10066.800811,-766.095498
773.097840,-1776.494261,-10510.924376,-1685.410096
773.098164,-2442.679609,-9918.759623,-766.095498
773.098489,-1924.535449,-9622.677246,-383.047749
773.098813,-1554.432478,-8882.471304,229.828649
773.099137,-296.082377,-8660.409521,1072.533697
773.099461,1184.329507,-8956.491898,1455.581446
773.099785,2368.659014,-9178.553681,1991.848295
773.100110,2516.700203,-9696.697840,1685.410096
773.100434,1406.391290,-9252.574275,995.924147
773.100758,888.247130,-9474.636058,383.047749
773.101082,-222.061783,-9844.739029,-689.485948
773.101406,-1036.288319,-9918.759623,-1685.410096
773.101730,-1480.411884,-10288.862594,-2068.457845
773.102055,-1628.453072,-10214.842000,-1685.410096
773.102379,-1184.329507,-9548.656652,-1455.581446
773.102703,0.000000,-8956.491898,-842.705048
773.103027,888.247130,-8734.430116,766.095498
773.103351,1850.514855,-9252.574275,919.314598
773.103676,2886.803174,-9696.697840,2145.067394
773.104000,3182.885551,-10214.842000,2298.286494
773.104324,2738.761985,-10362.883188,2451.505594
773.104648,1406.391290,-10140.821405,1532.190996
773.104972,296.082377,-10066.800811,0.000000
773.105296,-1184.329507,-10066.800811,-919.314598
773.105621,-2738.761985,-10066.800811,-1838.629195
773.105945,-2960.823768,-10214.842000,-2374.896044
773.106269,-2738.761985,-9622.677246,-2298.286494
773.106593,-2220.617826,-8808.450710,-1685.410096
773.106917,-592.164754,-8364.327145,-919.314598
773.107241,740.205942,-8808.450710,919.314598
773.107566,1702.473667,-9474.636058,766.095498
773.107890,2220.617826,-9474.636058,1762.019645
773.108214,2146.597232,-10362.883188,1838.629195
773.108538,1110.308913,-10807.006753,1762.019645
773.108862,0.000000,-10732.986159,1225.752797
773.109186,-1258.350101,-10436.903782,153.219100
773.109511,-1850.514855,-10732.986159,-536.266849
773.109835,-2886.803174,-10362.883188,-1225.752797
773.110159,-2664.741391,-9770.718434,-1532.190996
773.110483,-1776.494261,-9326.594869,-1532.190996
773.110807,-1332.370696,-8512.368333,-1302.362347
773.111131,518.144159,-8660.409521,-689.485948
773.111455,1776.494261,-9252.574275,-153.219100
773.111779,2368.659014,-9844.739029,0.000000
773.112104,2368.659014,-9918.759623,0.000000
773.112428,1924.535449,-10436.903782,0.000000
773.112752,814.226536,-10214.842000,76.609550
773.113076,0.000000,-10362.883188,0.000000
773.113400,-1258.350101,-10584.944971,-383.047749
773.113724,-1998.556043,-10214.842000,-766.095498
773.114048,-2220.617826,-9844.739029,-612.876398
773.114372,-1924.535449,-8586.388927,-459.657299
773.114697,-814.226536,-8364.327145,459.657299
773.115021,148.041188,-8364.327145,536.266849
773.115345,1406.391290,-8586.388927,1225.752797
773.115669,1998.556043,-9104.533087,919.314598
773.115993,1776.494261,-9326.594869,536.266849
773.116317,1184.329507,-9548.656652,229.828649
773.116641,222.061783,-10066.800811,-306.438199
773.116965,-222.061783,-10362.883188,-383.047749
773.117290,-518.144159,-10288.862594,-1378.971896
773.117614,-1332.370696,-10140.821405,-1532.190996
773.117938,-888.247130,-9770.718434,-1378.971896
773.118262,-296.082377,-9474.636058,-229.828649
773.118586,370.102971,-9178.553681,76.609550
773.118910,1110.308913,-9030.512492,919.314598
773.119234,1924.535449,-9252.574275,1532.190996
773.119558,2442.679609,-9696.697840,2145.067394
773.119883,2220.617826,-9844.739029,1532.190996
773.120207,1480.411884,-9844.739029,536.266849
773.120531,0.000000,-10288.862594,153.219100
773.120855,-1184.329507,-10214.842000,-536.266849
773.121179,-2368.659014,-9770.718434,-1225.752797
773.121503,-2738.761985,-9696.697840,-1762.019645
773.121827,-2738.761985,-9548.656652,-1608.800546
773.122151,-2220.617826,-8882.471304,-1532.190996
773.122476,-962.267725,-8660.409521,-153.219100
773.122800,370.102971,-8808.450710,459.657299
773.123124,1924.535449,-9030.512492,1378.971896
773.123448,2220.617826,-9770.718434,1225.752797
773.123772,1924.535449,-10584.944971,1838.629195
773.124096,888.247130,-10362.883188,1532.190996
773.124420,0.000000,-10658.965565,995.924147
773.124744,-1184.329507,-10584.944971,0.000000
773.125069,-2220.617826,-10362.883188,-919.314598
773.125393,-2442.679609,-10658.965565,-1532.190996
773.125717,-2516.700203,-10066.800811,-1991.848295
773.126041,-2590.720797,-9252.574275,-1991.848295
773.126365,-1110.308913,-9178.553681,-995.924147
773.126689,444.123565,-8586.388927,-229.828649
773.127013,2072.576638,-8734.430116,76.609550
773.127337,3701.029710,-9474.636058,766.095498
773.127662,3552.988522,-9622.677246,1225.752797
773.127986,2590.720797,-9770.718434,689.485948
773.128310,1110.308913,-10436.903782,689.485948
773.128634,0.000000,-10510.924376,-153.219100
773.128958,-1332.370696,-10510.924376,-612.876398
773.129282,-2072.576638,-10362.883188,-1302.362347
773.129606,-2590.720797,-10214.842000,-1455.581446
773.129930,-2368.659014,-9326.594869,-919.314598
773.130255,-1554.432478,-8660.409521,-383.047749
773.130579,0.000000,-8068.244768,76.609550
773.130903,1850.514855,-8290.306550,306.438199
773.131227,2442.679609,-8956.491898,919.314598
773.131551,2516.700203,-9474.636058,1149.143247
773.131875,1998.556043,-9770.718434,766.095498
773.132199,1036.288319,-10140.821405,76.609550
773.132523,222.061783,-10362.883188,-612.876398
773.132848,-1110.308913,-10288.862594,-1149.143247
773.133172,-1776.494261,-10214.842000,-1225.752797
773.133496,-2368.659014,-10288.862594,-1302.362347
773.133820,-2072.576638,-9696.697840,-1378.971896
773.134144,-1332.370696,-9252.574275,-612.876398
773.134468,148.041188,-8808.450710,0.000000
773.134792,1628.453072,-8882.471304,689.485948
773.135116,2590.720797,-9104.533087,1378.971896
773.135441,2812.782580,-9770.718434,1072.533697
773.135765,2220.617826,-9918.759623,612.876398
773.136089,1184.329507,-10214.842000,306.438199
773.136413,0.000000,-10214.842000,0.000000
773.136737,-740.205942,-10436.903782,-1149.143247
773.137061,-1850.514855,-10140.821405,-1685.410096
773.137385,-2294.638420,-10066.800811,-1685.410096
773.137710,-2146.597232,-9844.739029,-1225.752797
773.138034,-1776.494261,-9178.553681,-536.266849
773.138358,-518.144159,-8882.471304,306.438199
773.138682,0.000000,-8660.409521,1225.752797
773.139006,1110.308913,-9474.636058,919.314598
773.139330,1480.411884,-9844.739029,1302.362347
773.139654,1258.350101,-10288.862594,1532.190996
773.139978,222.061783,-10436.903782,1302.362347
773.140303,-666.185348,-10584.944971,229.828649
773.140627,-1776.494261,-10584.944971,-842.705048
773.140951,-1924.535449,-10658.965565,-1532.190996
773.141275,-1776.494261,-10288.862594,-995.924147
773.141599,-1554.432478,-10362.883188,-1685.410096
773.141923,-962.267725,-9474.636058,-919.314598
773.142247,148.041188,-8956.491898,0.000000
773.142571,1702.473667,-8882.471304,995.924147
773.142896,2960.823768,-9104.533087,1378.971896
773.143220,3404.947333,-9400.615463,1685.410096
773.143544,2590.720797,-10066.800811,2528.115143
773.143868,962.267725,-10288.862594,1455.581446
773.144192,0.000000,-10214.842000,766.095498
773.144516,-1628.453072,-9844.739029,-306.438199
773.144840,-2516.700203,-9844.739029,-842.705048
773.145164,-2812.782580,-9770.718434,-1149.143247
773.145489,-2368.659014,-9252.574275,-1225.752797
773.145813,-1776.494261,-8438.347739,-536.266849
773.146137,-888.247130,-7772.162391,0.000000
773.146461,740.205942,-8142.265362,459.657299
773.146785,2294.638420,-8586.388927,1072.533697
773.147109,2442.679609,-9326.594869,1149.143247
773.147433,2368.659014,-9844.739029,1225.752797
773.147757,1110.308913,-9918.759623,919.314598
773.148082,444.123565,-10140.821405,612.876398
773.148406,-444.123565,-10214.842000,-459.657299
773.148730,-1702.473667,-10066.800811,-919.314598
773.149054,-2516.700203,-10214.842000,-1685.410096
773.149378,-2368.659014,-9992.780217,-1685.410096
773.149702,-1776.494261,-9474.636058,-995.924147
773.150026,-518.144159,-8586.388927,-612.876398
773.150350,888.247130,-8216.285956,153.219100
773.150675,2146.597232,-8808.450710,153.219100
773.150999,3182.885551,-9622.677246,229.828649
773.151323,3108.864956,-10140.821405,76.609550
773.151647,1998.556043,-10510.924376,306.438199
773.151971,444.123565,-10732.986159,-383.047749
773.152295,-1036.288319,-10584.944971,-919.314598
773.152619,-1776.494261,-10732.986159,-1302.362347
773.152943,-2146.597232,-10732.986159,-2145.067394
773.153268,-2664.741391,-10584.944971,-1608.800546
773.153592,-2220.617826,-9474.636058,-842.705048
773.153916,-666.185348,-8734.430116,-612.876398
773.154240,222.061783,-8512.368333,459.657299
773.154564,962.267725,-9030.512492,766.095498
773.154888,1702.473667,-9992.780217,1072.533697
773.155212,1554.432478,-10288.862594,1149.143247
773.155536,1332.370696,-10436.903782,306.438199
773.155861,148.041188,-9844.739029,0.000000
773.156185,-666.185348,-10658.965565,-536.266849
773.156509,-1258.350101,-10732.986159,-1532.190996
773.156833,-2072.576638,-10436.903782,-1991.848295
773.157157,-2516.700203,-10214.842000,-1915.238745
773.157481,-2146.597232,-9326.594869,-1685.410096
773.157805,-296.082377,-8660.409521,-306.438199
773.158129,1332.370696,-8438.347739,383.047749
773.158454,1776.494261,-8364.327145,842.705048
773.158778,2516.700203,-9252.574275,1149.143247
773.159102,2442.679609,-9844.739029,1378.971896
773.159426,1776.494261,-9770.718434,1455.581446
773.159750,518.144159,-9696.697840,919.314598
773.160074,-444.123565,-9844.739029,-76.609550
773.160398,-1480.411884,-10066.800811,-306.438199
773.160722,-2664.741391,-9844.739029,-1149.143247
773.161047,-2738.761985,-9770.718434,-1762.019645
773.161371,-2146.597232,-9104.533087,-612.876398
773.161695,-1184.329507,-8068.244768,-229.828649
773.162019,222.061783,-8068.244768,459.657299
773.162343,1480.411884,-8290.306550,1378.971896
773.162667,2368.659014,-9548.656652,1455.581446
773.162991,2368.659014,-9770.718434,1838.629195
773.163315,1628.453072,-9992.780217,2068.457845
773.163640,740.205942,-10362.883188,1149.143247
773.163964,-296.082377,-10066.800811,153.219100
773.164288,-1480.411884,-10288.862594,-766.095498
773.164612,-2294.638420,-10658.965565,-1378.971896
773.164936,-2442.679609,-10288.862594,-1762.019645
773.165260,-1924.535449,-9548.656652,-1072.533697
773.165584,-962.267725,-8586.388927,-612.876398
773.165908,740.205942,-8364.327145,0.000000
773.166233,1628.453072,-8808.450710,383.047749
773.166557,2664.741391,-9548.656652,1072.533697
773.166881,2960.823768,-10140.821405,995.924147
773.167205,2442.679609,-9992.780217,919.314598
773.167529,1184.329507,-10140.821405,459.657299
773.167853,444.123565,-10510.924376,0.000000
773.168177,-1184.329507,-10436.903782,-995.924147
773.168501,-2294.638420,-10510.924376,-1455.581446
773.168826,-2738.761985,-10214.842000,-1762.019645
773.169150,-2442.679609,-9548.656652,-1532.190996
773.169474,-1480.411884,-8956.491898,-919.314598
773.169798,-222.061783,-8512.368333,0.000000
773.170122,518.144159,-8808.450710,229.828649
773.170446,1702.473667,-9474.636058,995.924147
773.170770,1776.494261,-9844.739029,919.314598
773.171094,1628.453072,-10362.883188,766.095498
773.171419,888.247130,-10658.965565,612.876398
773.171743,0.000000,-10658.965565,229.828649
773.172067,-740.205942,-10436.903782,-612.876398
773.172391,-1554.432478,-10066.800811,-1378.971896
773.172715,-1924.535449,-9918.759623,-1455.581446
773.173039,-2294.638420,-9252.574275,-1838.629195
773.173363,-1406.391290,-9104.533087,-1149.143247
773.173687,0.000000,-8364.327145,-383.047749
773.174012,1554.432478,-8364.327145,383.047749
773.174336,2220.617826,-8808.450710,919.314598
773.174660,2886.803174,-9326.594869,842.705048
773.174984,2294.638420,-9030.512492,1225.752797
773.175308,962.267725,-9770.718434,1072.533697
773.175632,-74.020594,-10140.821405,383.047749
773.175956,-740.205942,-10066.800811,-536.266849
773.176280,-1776.494261,-9696.697840,-1225.752797
773.176605,-2294.638420,-9770.718434,-1532.190996
773.176929,-2368.659014,-9400.615463,-689.485948
773.177253,-1480.411884,-9104.533087,-383.047749
773.177577,-888.247130,-8734.430116,229.828649
773.177901,666.185348,-8808.450710,1455.581446
773.178225,1554.432478,-9178.553681,919.314598
773.178549,1924.535449,-9770.718434,1072.533697
773.178874,1850.514855,-10436.903782,1149.143247
773.179198,888.247130,-10584.944971,766.095498
773.179522,-148.041188,-10288.862594,-229.828649
773.179846,-1628.453072,-9992.780217,-689.485948
773.180170,-1776.494261,-10214.842000,-1532.190996
773.180494,-2220.617826,-10510.924376,-1838.629195
773.180818,-2294.638420,-10510.924376,-1915.238745
773.181142,-1850.514855,-9474.636058,-1378.971896
773.181467,-592.164754,-8808.450710,-459.657299
773.181791,1036.288319,-8586.388927,612.876398
773.182115,2516.700203,-9030.512492,995.924147
773.182439,3182.885551,-9622.677246,1455.581446
773.182763,3034.844362,-9992.780217,1225.752797
773.183087,2146.597232,-10362.883188,1225.752797
773.183411,370.102971,-10584.944971,306.438199
773.183735,-666.185348,-10436.903782,-536.266849
773.184060,-1850.514855,-10288.862594,-1762.019645
773.184384,-2368.659014,-10658.965565,-1991.848295
773.184708,-2442.679609,-9992.780217,-1532.190996
773.185032,-2442.679609,-9474.636058,-1455.581446
773.185356,-1480.411884,-8438.347739,-153.219100
773.185680,0.000000,-8660.409521,766.095498
773.186004,1258.350101,-8734.430116,1149.143247
773.186328,2072.576638,-9474.636058,1838.629195
773.186653,2664.741391,-10436.903782,2374.896044
773.186977,2368.659014,-9622.677246,1838.629195
773.187301,1036.288319,-10288.862594,1225.752797
773.187625,-148.041188,-9844.739029,536.266849
773.187949,-1554.432478,-10362.883188,-383.047749
773.188273,-2368.659014,-10140.821405,-1072.533697
773.188597,-2590.720797,-9696.697840,-1302.362347
773.188921,-2146.597232,-8808.450710,-766.095498
773.189246,-1258.350101,-8068.244768,-229.828649
773.189570,222.061783,-7476.080014,0.000000
773.189894,1998.556043,-8142.265362,1302.362347
773.190218,2368.659014,-8882.471304,1302.362347
773.190542,2368.659014,-9400.615463,1378.971896
773.190866,1480.411884,-9474.636058,1302.362347
773.191190,518.144159,-9770.718434,1149.143247
773.191514,-592.164754,-9918.759623,0.000000
773.191839,-1628.453072,-10584.944971,-995.924147
773.192163,-2146.597232,-10732.986159,-766.095498
773.192487,-2442.679609,-10288.862594,-1225.752797
773.192811,-2146.597232,-9770.718434,-766.095498
773.193135,-1480.411884,-9104.533087,-536.266849
773.193459,-296.082377,-8586.388927,153.219100
773.193783,1258.350101,-9178.553681,995.924147
773.194107,2146.597232,-9770.718434,1072.533697
773.194432,2294.638420,-9992.780217,766.095498
773.194756,1702.473667,-9918.759623,995.924147
773.195080,666.185348,-10732.986159,0.000000
773.195404,-296.082377,-11029.068536,-306.438199
773.195728,-1480.411884,-11029.068536,-1378.971896
773.196052,-2294.638420,-10732.986159,-1762.019645
773.196376,-2368.659014,-10288.862594,-1685.410096
773.196700,-1480.411884,-9474.636058,-1378.971896
773.197025,-814.226536,-8438.347739,-995.924147
773.197349,518.144159,-8216.285956,0.000000
773.197673,1850.514855,-8586.388927,76.609550
773.197997,2738.761985,-9252.574275,689.485948
773.198321,2886.803174,-9844.739029,536.266849
773.198645,2368.659014,-10140.821405,842.705048
773.198969,666.185348,-10140.821405,-229.828649
773.199293,0.000000,-10214.842000,-383.047749
773.199618,-1110.308913,-10140.821405,-1762.019645
773.199942,-1554.432478,-10732.986159,-1685.410096
773.200266,-2072.576638,-10362.883188,-1762.019645
773.200590,-1776.494261,-9548.656652,-1608.800546
773.200914,-1184.329507,-9030.512492,-689.485948
773.201238,0.000000,-8216.285956,0.000000
773.201562,888.247130,-8290.306550,766.095498
773.201886,2294.638420,-9104.533087,1149.143247
773.202211,2220.617826,-9474.636058,1072.533697
773.202535,1776.494261,-9622.677246,919.314598
773.202859,888.247130,-10066.800811,612.876398
773.203183,-296.082377,-10066.800811,-153.219100
773.203507,-1184.329507,-10436.903782,-995.924147
773.203831,-1924.535449,-10214.842000,-1455.581446
773.204155,-2294.638420,-9622.677246,-1378.971896
773.204479,-2294.638420,-9474.636058,-1149.143247
773.204804,-1110.308913,-8734.430116,-766.095498
773.205128,148.041188,-8216.285956,-153.219100
773.205452,1628.453072,-8438.347739,536.266849
773.205776,2812.782580,-8956.491898,1149.143247
773.206100,3478.967927,-9548.656652,1762.019645
773.206424,2368.659014,-9918.759623,1915.238745
773.206748,1258.350101,-10658.965565,1072.533697
773.207072,-370.102971,-10436.903782,229.828649
773.207397,-1924.535449,-10362.883188,-459.657299
773.207721,-2664.741391,-10436.903782,-1149.143247
773.208045,-3034.844362,-10510.924376,-1762.019645
773.208369,-2590.720797,-10066.800811,-1302.362347
773.208693,-1924.535449,-8734.430116,-536.266849
773.209017,-666.185348,-8068.244768,153.219100
773.209341,370.102971,-8364.327145,766.095498
773.209665,1480.411884,-9474.636058,842.705048
773.209989,1850.514855,-9992.780217,1072.533697
773.210314,2072.576638,-10436.903782,1378.971896
773.210638,1258.350101,-10658.965565,919.314598
773.210962,444.123565,-10288.862594,459.657299
773.211286,-518.144159,-10362.883188,0.000000
773.211610,-1110.308913,-10807.006753,-995.924147
773.211934,-2072.576638,-10436.903782,-995.924147
773.212258,-1998.556043,-9844.739029,-1378.971896
773.212582,-1258.350101,-8956.491898,-689.485948
773.212907,0.000000,-8216.285956,-306.438199
773.213231,1554.432478,-8290.306550,229.828649
773.213555,2442.679609,-8808.450710,1072.533697
773.213879,3478.967927,-10066.800811,689.485948
773.214203,2368.659014,-9548.656652,689.485948
773.214527,1628.453072,-10214.842000,306.438199
773.214851,148.041188,-10436.903782,0.000000
773.215175,-1036.288319,-10658.965565,-536.266849
773.215500,-2146.597232,-10362.883188,-1225.752797
773.215824,-2368.659014,-10140.821405,-1149.143247
773.216148,-2146.597232,-9326.594869,-1608.800546
773.216472,-1702.473667,-9104.533087,-995.924147
773.216796,-888.247130,-8438.347739,0.000000
773.217120,74.020594,-8734.430116,842.705048
773.217444,1184.329507,-8956.491898,1302.362347
773.217768,1776.494261,-9622.677246,1378.971896
773.218092,1628.453072,-9844.739029,1225.752797
773.218417,666.185348,-9844.739029,229.828649
773.218741,444.123565,-10807.006753,0.000000
773.219065,-962.267725,-10510.924376,-919.314598
773.219389,-2072.576638,-10584.944971,-1532.190996
773.219713,-2294.638420,-10066.800811,-1838.629195
773.220037,-1998.556043,-9770.718434,-2221.676944
773.220361,-1332.370696,-9326.594869,-1225.752797
773.220685,0.000000,-8216.285956,-306.438199
773.221010,1110.308913,-8142.265362,229.828649
773.221334,2442.679609,-8734.430116,1149.143247
773.221658,3108.864956,-9474.636058,1685.410096
773.221982,2886.803174,-10288.862594,1838.629195
773.222306,2072.576638,-10436.903782,1532.190996
773.222630,370.102971,-10732.986159,459.657299
773.222954,-1184.329507,-10214.842000,-612.876398
773.223278,-2146.597232,-10510.924376,-1149.143247
773.223602,-2738.761985,-9770.718434,-1915.238745
773.223927,-3034.844362,-9918.759623,-2298.286494
773.224251,-2368.659014,-9548.656652,-1532.190996
773.224575,-1184.329507,-8882.471304,-995.924147
773.224899,0.000000,-8512.368333,0.000000
773.225223,1332.370696,-9030.512492,612.876398
773.225547,2368.659014,-9992.780217,1532.190996
773.225871,2664.741391,-10066.800811,1532.190996
773.226195,2072.576638,-10955.047942,1455.581446
773.226520,888.247130,-10510.924376,1072.533697
773.226844,-148.041188,-10658.965565,229.828649
773.227168,-1332.370696,-10362.883188,-612.876398
773.227492,-2368.659014,-10288.862594,-1378.971896
773.227816,-2294.638420,-9770.718434,-1532.190996
773.228140,-1924.535449,-9326.594869,-1532.190996
773.228464,-1332.370696,-8290.306550,-919.314598
773.228788,592.164754,-7846.182985,0.000000
773.229112,2220.617826,-8290.306550,306.438199
773.229437,3256.906145,-9104.533087,612.876398
773.229761,3182.885551,-9474.636058,919.314598
773.230085,2812.782580,-10066.800811,1225.752797
773.230409,1332.370696,-10066.800811,459.657299
773.230733,296.082377,-10436.903782,-689.485948
773.231057,-814.226536,-10658.965565,-612.876398
773.231381,-2294.638420,-10584.944971,-919.314598
773.231705,-2738.761985,-10362.883188,-995.924147
773.232030,-2368.659014,-9770.718434,-612.876398
773.232354,-1924.535449,-8734.430116,0.000000
773.232678,-740.205942,-8290.306550,536.266849
773.233002,962.267725,-8438.347739,842.705048
773.233326,1702.473667,-8586.388927,1302.362347
773.233650,2368.659014,-9548.656652,919.314598
773.233974,1480.411884,-9770.718434,766.095498
773.234298,592.164754,-10066.800811,0.000000
773.234622,-148.041188,-10436.903782,-766.095498
773.234947,-1332.370696,-10436.903782,-1378.971896
773.235271,-1998.556043,-10436.903782,-1991.848295
773.235595,-1998.556043,-10362.883188,-1838.629195
773.235919,-1924.535449,-9992.780217,-1532.190996
773.236243,-1110.308913,-9104.533087,-459.657299
773.236567,0.000000,-8808.450710,306.438199
773.236891,1110.308913,-8808.450710,1149.143247
773.237215,2368.659014,-9474.636058,1685.410096
773.237540,2738.761985,-9992.780217,1608.800546
773.237864,2590.720797,-10214.842000,1608.800546
773.238188,1184.329507,-9992.780217,766.095498
773.238512,-444.123565,-9992.780217,-536.266849
773.238836,-1924.535449,-10140.821405,-1685.410096
773.239160,-2812.782580,-10140.821405,-2221.676944
773.239484,-2738.761985,-10288.862594,-2451.505594
773.239808,-2368.659014,-9918.759623,-1991.848295
773.240133,-1184.329507,-8808.450710,-1378.971896
773.240457,-518.144159,-8290.306550,-383.047749
773.240781,962.267725,-8364.327145,995.924147
773.241105,1998.556043,-9030.512492,1532.190996
773.241429,2960.823768,-10066.800811,1838.629195
773.241753,2812.782580,-10807.006753,2145.067394
773.242077,1924.535449,-10658.965565,1915.238745
773.242401,592.164754,-10288.862594,1532.190996
773.242725,-592.164754,-9992.780217,76.609550
773.243050,-2146.597232,-9622.677246,-1455.581446
773.243374,-2516.700203,-9992.780217,-1915.238745
773.243698,-2442.679609,-9622.677246,-2145.067394
773.244022,-1554.432478,-9030.512492,-1685.410096
773.244346,0.000000,-8068.244768,-919.314598
773.244670,1628.453072,-8068.244768,-306.438199
773.244994,2812.782580,-8808.450710,0.000000
773.245318,3182.885551,-9178.553681,1072.533697
773.245643,2516.700203,-9548.656652,842.705048
773.245967,1776.494261,-10140.821405,1149.143247
773.246291,370.102971,-10288.862594,612.876398
773.246615,-666.185348,-10732.986159,76.609550
773.246939,-1850.514855,-10955.047942,-459.657299
773.247263,-2738.761985,-10955.047942,-842.705048
773.247587,-2812.782580,-9918.759623,-766.095498
773.247911,-2442.679609,-8956.491898,-229.828649
773.248235,-1554.432478,-8660.409521,459.657299
773.248560,0.000000,-8364.327145,383.047749
773.248884,888.247130,-8438.347739,536.266849
773.249208,1776.494261,-9474.636058,995.924147
773.249532,1998.556043,-9844.739029,766.095498
773.249856,1332.370696,-9844.739029,766.095498
773.250180,444.123565,-9696.697840,-306.438199
773.250504,-444.123565,-10140.821405,-995.924147
773.250828,-1554.432478,-10140.821405,-919.314598
773.251153,-2368.659014,-10436.903782,-1455.581446
773.251477,-2220.617826,-10140.821405,-1302.362347
773.251801,-1924.535449,-9622.677246,-689.485948
773.252125,-740.205942,-8734.430116,459.657299
773.252449,592.164754,-8734.430116,919.314598
773.252773,1776.494261,-9474.636058,1225.752797
773.253097,3108.864956,-9844.739029,2068.457845
773.253421,3034.844362,-9992.780217,1838.629195
773.253745,2146.597232,-10140.821405,995.924147
773.254070,888.247130,-10288.862594,229.828649
773.254394,-888.247130,-10362.883188,-995.924147
773.254718,-1702.473667,-10066.800811,-2145.067394
773.255042,-2146.597232,-10214.842000,-1915.238745
773.255366,-2368.659014,-9844.739029,-2451.505594
773.255690,-1628.453072,-9474.636058,-1838.629195
773.256014,-888.247130,-8734.430116,-766.095498
773.256338,74.020594,-8660.409521,0.000000
773.256663,1110.308913,-9030.512492,995.924147
773.256987,2220.617826,-9548.656652,1608.800546
773.257311,1998.556043,-10140.821405,2221.676944
773.257635,1850.514855,-9918.759623,2145.067394
773.257959,962.267725,-10214.842000,1455.581446
773.258283,0.000000,-10436.903782,459.657299
773.258607,-1480.411884,-10436.903782,-995.924147
773.258931,-2368.659014,-10288.862594,-1762.019645
773.259255,-2368.659014,-9992.780217,-2145.067394
773.259580,-1776.494261,-9770.718434,-1915.238745
773.259904,-444.123565,-9400.615463,-1225.752797
773.260228,518.144159,-8734.430116,-919.314598
773.260552,2294.638420,-8882.471304,153.219100
773.260876,2590.720797,-8956.491898,536.266849
773.261200,2812.782580,-9844.739029,689.485948
773.261524,2368.659014,-10288.862594,1072.533697
773.261848,1184.329507,-10214.842000,919.314598
773.262173,-296.082377,-10066.800811,306.438199
773.262497,-1776.494261,-10288.862594,-306.438199
773.262821,-2664.741391,-10288.862594,-1072.533697
773.263145,-2960.823768,-10140.821405,-1455.581446
773.263469,-2590.720797,-9548.656652,-766.095498
773.263793,-1702.473667,-8956.491898,-459.657299
773.264117,-592.164754,-8512.368333,383.047749
773.264441,962.267725,-8734.430116,612.876398
773.264765,1924.535449,-9400.615463,995.924147
773.265090,2368.659014,-9696.697840,995.924147
773.265414,1554.432478,-9770.718434,1302.362347
773.265738,888.247130,-10288.862594,383.047749
773.266062,0.000000,-10436.903782,-306.438199
773.266386,-1332.370696,-10140.821405,-1302.362347
773.266710,-2516.700203,-10510.924376,-1455.581446
773.267034,-2442.679609,-10288.862594,-1915.238745
773.267358,-2516.700203,-9770.718434,-1149.143247
773.267683,-1924.535449,-9104.533087,0.000000
773.268007,-592.164754,-8586.388927,153.219100
773.268331,814.226536,-8586.388927,919.314598
773.268655,2368.659014,-9400.615463,1532.190996
773.268979,3182.885551,-9548.656652,1762.019645
773.269303,3108.864956,-9548.656652,2221.676944
773.269627,1998.556043,-9918.759623,1532.190996
773.269951,222.061783,-9844.739029,536.266849
773.270276,-1258.350101,-10140.821405,-766.095498
773.270600,-1998.556043,-10436.903782,-1685.410096
773.270924,-2368.659014,-10584.944971,-1532.190996
773.271248,-2146.597232,-9992.780217,-1302.362347
773.271572,-1332.370696,-9104.533087,-919.314598
773.271896,74.020594,-8364.327145,306.438199
773.272220,740.205942,-8290.306550,919.314598
773.272544,1554.432478,-9400.615463,1762.019645
773.272868,2368.659014,-9696.697840,1762.019645
773.273193,2294.638420,-9918.759623,1991.848295
773.273517,1406.391290,-10140.821405,1762.019645
773.273841,444.123565,-10436.903782,1225.752797
773.274165,-740.205942,-10288.862594,153.219100
773.274489,-1924.535449,-10658.965565,-1149.143247
773.274813,-2664.741391,-10362.883188,-1685.410096
773.275137,-2664.741391,-10140.821405,-1838.629195
773.275461,-1850.514855,-9326.594869,-1225.752797
773.275786,-296.082377,-8438.347739,-612.876398
773.276110,1110.308913,-8290.306550,-153.219100
773.276434,2220.617826,-8290.306550,0.000000
773.276758,2442.679609,-9104.533087,766.095498
773.277082,2368.659014,-9770.718434,919.314598
773.277406,1406.391290,-9992.780217,153.219100
773.277730,74.020594,-10288.862594,0.000000
773.278054,-1258.350101,-10288.862594,-536.266849
773.278378,-2220.617826,-11177.109724,-995.924147
773.278703,-2738.761985,-10955.047942,-995.924147
773.279027,-2886.803174,-10510.924376,-766.095498
773.279351,-2146.597232,-9474.636058,-612.876398
773.279675,-1554.432478,-8660.409521,0.000000
773.279999,444.123565,-9030.512492,383.047749
773.280323,1332.370696,-8956.491898,842.705048
773.280647,2368.659014,-9252.574275,1149.143247
773.280971,2220.617826,-9770.718434,842.705048
773.281296,1628.453072,-9696.697840,459.657299
773.281620,592.164754,-9622.677246,-612.876398
773.281944,-518.144159,-10510.924376,-1149.143247
773.282268,-1480.411884,-10658.965565,-2145.067394
773.282592,-1924.535449,-10807.006753,-2451.505594
773.282916,-2146.597232,-10510.924376,-1991.848295
773.283240,-1554.432478,-9696.697840,-1225.752797
773.283564,0.000000,-9178.553681,-536.266849
773.283888,1332.370696,-8660.409521,76.609550
773.284213,2812.782580,-8956.491898,1685.410096
773.284537,3627.009116,-9474.636058,1838.629195
773.284861,3849.070898,-10288.862594,1915.238745
773.285185,2590.720797,-9918.759623,1532.190996
773.285509,1332.370696,-10066.800811,689.485948
773.285833,-222.061783,-10214.842000,-536.266849
773.286157,-1480.411884,-9844.739029,-1378.971896
773.286481,-2294.638420,-9696.697840,-1991.848295
773.286806,-2146.597232,-9622.677246,-2451.505594
773.287130,-1776.494261,-9770.718434,-2451.505594
773.287454,-1184.329507,-8808.450710,-1149.143247
773.287778,-148.041188,-8290.306550,0.000000
773.288102,1110.308913,-8882.471304,689.485948
773.288426,1998.556043,-9474.636058,1455.581446
773.288750,1924.535449,-10214.842000,1302.362347
773.289074,1554.432478,-9844.739029,1149.143247
773.289398,518.144159,-10658.965565,1455.581446
773.289723,222.061783,-10732.986159,229.828649
773.290047,-962.267725,-10732.986159,0.000000
773.290371,-1998.556043,-10658.965565,-766.095498
773.290695,-2516.700203,-10214.842000,-1302.362347
773.291019,-2294.638420,-9326.594869,-1685.410096
773.291343,-1332.370696,-8512.368333,-1149.143247
773.291667,74.020594,-8512.368333,-612.876398
773.291991,1406.391290,-8438.347739,-306.438199
773.292316,2294.638420,-8882.471304,306.438199
773.292640,1998.556043,-9030.512492,0.000000
773.292964,1184.329507,-9474.636058,536.266849
773.293288,74.020594,-10288.862594,153.219100
773.293612,-666.185348,-10584.944971,-229.828649
773.293936,-1554.432478,-10658.965565,-612.876398
773.294260,-2146.597232,-10658.965565,-459.657299
773.294584,-2146.597232,-10436.903782,-689.485948
773.294909,-1924.535449,-9992.780217,76.609550
773.295233,-1554.432478,-9104.533087,459.657299
773.295557,-814.226536,-8956.491898,766.095498
773.295881,1184.329507,-9178.553681,1455.581446
773.296205,2294.638420,-9844.739029,1532.190996
773.296529,2590.720797,-10140.821405,1532.190996
773.296853,1554.432478,-9918.759623,1072.533697
773.297177,296.082377,-9918.759623,76.609550
773.297501,-666.185348,-9992.780217,-919.314598
773.297826,-1628.453072,-9992.780217,-1915.238745
773.298150,-2368.659014,-10436.903782,-2221.676944
773.298474,-2738.761985,-10288.862594,-2374.896044
773.298798,-1998.556043,-9770.718434,-1455.581446
773.299122,-962.267725,-8956.491898,0.000000
773.299446,518.144159,-8660.409521,383.047749
773.299770,1998.556043,-8586.388927,1685.410096
773.300094,3552.988522,-9252.574275,2604.724693
773.300419,4145.153275,-9770.718434,2834.553343
773.300743,3404.947333,-9770.718434,2528.115143
773.301067,1850.514855,-9696.697840,1685.410096
773.301391,-222.061783,-9844.739029,612.876398
773.301715,-1406.391290,-9844.739029,-1149.143247
773.302039,-2368.659014,-10214.842000,-1838.629195
773.302363,-3627.009116,-9622.677246,-2221.676944
773.302687,-3404.947333,-9030.512492,-2374.896044
773.303011,-2368.659014,-8438.347739,-1838.629195
773.303336,-1332.370696,-7994.224174,-919.314598
773.303660,0.000000,-8290.306550,153.219100
773.303984,1628.453072,-9104.533087,995.924147
773.304308,2664.741391,-9326.594869,1685.410096
773.304632,2442.679609,-9918.759623,2681.334243
773.304956,1702.473667,-10362.883188,2451.505594
773.305280,444.123565,-10807.006753,1455.581446
773.305604,-740.205942,-10658.965565,459.657299
773.305929,-1924.535449,-10288.862594,-919.314598
773.306253,-3182.885551,-10140.821405,-1685.410096
773.306577,-3256.906145,-9696.697840,-2374.896044
773.306901,-2368.659014,-9252.574275,-2068.457845
773.307225,-592.164754,-8586.388927,-1532.190996
773.307549,1332.370696,-8734.430116,-995.924147
773.307873,2072.576638,-9178.553681,-536.266849
773.308197,2812.782580,-9696.697840,-153.219100
773.308521,2812.782580,-10140.821405,0.000000
773.308846,2294.638420,-10140.821405,0.000000
773.309170,1184.329507,-11177.109724,0.000000
773.309494,74.020594,-11325.150913,229.828649
773.309818,-740.205942,-11251.130318,-383.047749
773.310142,-1406.391290,-11399.171507,-459.657299
773.310466,-2072.576638,-10955.047942,-536.266849
773.310790,-1924.535449,-10288.862594,0.000000
773.311114,-888.247130,-9178.553681,459.657299
773.311438,296.082377,-8586.388927,919.314598
773.311762,1554.432478,-9104.533087,919.314598
773.312087,2072.576638,-9178.553681,1072.533697
773.312411,1776.494261,-9178.553681,306.438199
773.312735,814.226536,-9696.697840,-306.438199
773.313059,-296.082377,-9696.697840,-766.095498
773.313383,-1406.391290,-9992.780217,-1455.581446
773.313707,-1702.473667,-9918.759623,-1455.581446
773.314031,-1924.535449,-9844.739029,-1455.581446
773.314355,-1480.411884,-9770.718434,-459.657299
773.314679,-1184.329507,-9104.533087,-306.438199
773.315003,0.000000,-8660.409521,229.828649
773.315327,1258.350101,-8290.306550,1762.019645
773.315651,2368.659014,-8956.491898,2451.505594
773.315976,2960.823768,-9474.636058,2451.505594
773.316300,2442.679609,-9104.533087,2451.505594
773.316624,1258.350101,-9252.574275,1762.019645
773.316948,74.020594,-9400.615463,306.438199
773.317272,-1702.473667,-9030.512492,-689.485948
773.317596,-3330.926739,-9104.533087,-1991.848295
773.317920,-3627.009116,-9326.594869,-2374.896044
773.318244,-3034.844362,-9474.636058,-2451.505594
773.318568,-2442.679609,-8956.491898,-1532.190996
773.318892,-1184.329507,-8364.327145,-689.485948
773.319216,370.102971,-8290.306550,0.000000
773.319541,1702.473667,-8438.347739,1378.971896
773.319865,2590.720797,-9844.739029,2145.067394
773.320189,2738.761985,-10436.903782,2681.334243
773.320513,2368.659014,-10807.006753,2681.334243
773.320837,1702.473667,-11029.068536,1838.629195
773.321161,0.000000,-10362.883188,1225.752797
773.321485,-1332.370696,-10436.903782,-459.657299
773.321809,-3330.926739,-10362.883188,-1685.410096
773.322133,-3330.926739,-10436.903782,-2451.505594
773.322457,-2738.761985,-9622.677246,-2451.505594
773.322781,-1554.432478,-9178.553681,-1991.848295
773.323106,222.061783,-8660.409521,-1225.752797
773.323430,2146.597232,-8660.409521,-383.047749
773.323754,3182.885551,-9252.574275,306.438199
773.324078,3923.091493,-9918.759623,689.485948
773.324402,3627.009116,-10658.965565,1608.800546
773.324726,2220.617826,-11029.068536,536.266849
773.325050,814.226536,-10881.027347,612.876398
773.325374,-370.102971,-11177.109724,229.828649
773.325698,-1924.535449,-11103.089130,-612.876398
773.326022,-2812.782580,-10584.944971,-459.657299
773.326346,-2886.803174,-10584.944971,-1072.533697
773.326671,-2146.597232,-9474.636058,-383.047749
773.326995,-1110.308913,-8660.409521,-383.047749
773.327319,370.102971,-8438.347739,0.000000
773.327643,1554.432478,-8364.327145,459.657299
773.327967,1850.514855,-8882.471304,153.219100
773.328291,1406.391290,-9326.594869,0.000000
773.328615,888.247130,-9400.615463,229.828649
773.328939,0.000000,-9548.656652,0.000000
773.329263,-888.247130,-9770.718434,-1072.533697
773.329587,-1628.453072,-9918.759623,-1608.800546
773.329911,-2072.576638,-9844.739029,-1149.143247
773.330235,-1998.556043,-9918.759623,-919.314598
773.330560,-1258.350101,-9400.615463,-229.828649
773.330884,0.000000,-8808.450710,229.828649
773.331208,1406.391290,-8586.388927,1225.752797
773.331532,2442.679609,-8808.450710,1302.362347
773.331856,3034.844362,-9104.533087,1762.019645
773.332180,2368.659014,-9400.615463,995.924147
773.332504,1036.288319,-9548.656652,-229.828649
773.332828,-296.082377,-9474.636058,-919.314598
773.333152,-1258.350101,-9696.697840,-1915.238745
773.333476,-1998.556043,-10362.883188,-2604.724693
773.333800,-2664.741391,-10140.821405,-2451.505594
773.334125,-2516.700203,-9918.759623,-2068.457845
773.334449,-1184.329507,-9474.636058,-612.876398
773.334773,0.000000,-9252.574275,229.828649
773.335097,888.247130,-9474.636058,842.705048
773.335421,2294.638420,-9918.759623,1762.019645
773.335745,2664.741391,-10584.944971,2068.457845
773.336069,2516.700203,-10658.965565,2451.505594
773.336393,1628.453072,-10807.006753,1608.800546
773.336717,0.000000,-10510.924376,76.609550
773.337041,-888.247130,-10436.903782,-995.924147
773.337365,-2368.659014,-10436.903782,-1838.629195
773.337690,-2812.782580,-10436.903782,-2528.115143
773.338014,-2516.700203,-10362.883188,-2298.286494
773.338338,-1702.473667,-9474.636058,-1838.629195
773.338662,-296.082377,-8142.265362,-383.047749
773.338986,1554.432478,-8586.388927,-306.438199
773.339310,2590.720797,-9030.512492,689.485948
773.339634,3478.967927,-9622.677246,1455.581446
773.339958,2664.741391,-10140.821405,1991.848295
773.340282,1924.535449,-10214.842000,1838.629195
773.340606,518.144159,-10584.944971,1302.362347
773.340930,-1184.329507,-10140.821405,766.095498
773.341255,-2368.659014,-10214.842000,459.657299
773.341579,-3701.029710,-10066.800811,-612.876398
773.341903,-3330.926739,-9548.656652,-536.266849
773.342227,-3034.844362,-9178.553681,-229.828649
773.342551,-1850.514855,-8438.347739,229.828649
773.342875,0.000000,-8142.265362,1072.533697
773.343199,1332.370696,-8364.327145,1378.971896
773.343523,1998.556043,-8882.471304,1378.971896
773.343847,1628.453072,-9030.512492,1378.971896
773.344171,1184.329507,-9400.615463,1378.971896
773.344495,592.164754,-9474.636058,1149.143247
773.344819,-444.123565,-9622.677246,459.657299
773.345144,-1628.453072,-9622.677246,-383.047749
773.345468,-2368.659014,-9992.780217,-689.485948
773.345792,-2664.741391,-9770.718434,-919.314598
773.346116,-2220.617826,-8882.471304,-459.657299
773.346440,-814.226536,-8956.491898,306.438199
773.346764,148.041188,-8364.327145,1225.752797
773.347088,1924.535449,-8586.388927,1608.800546
773.347412,3034.844362,-9326.594869,1762.019645
773.347736,3256.906145,-9992.780217,1915.238745
773.348060,2442.679609,-10288.862594,1378.971896
773.348384,1406.391290,-9992.780217,1149.143247
773.348709,-148.041188,-9474.636058,-612.876398
773.349033,-1110.308913,-10066.800811,-1378.971896
773.349357,-2516.700203,-10288.862594,-1838.629195
773.349681,-2664.741391,-10214.842000,-2374.896044
773.350005,-2220.617826,-9992.780217,-1608.800546
773.350329,-1036.288319,-9474.636058,-919.314598
773.350653,0.000000,-9104.533087,0.000000
773.350977,1110.308913,-9474.636058,766.095498
773.351301,1776.494261,-10066.800811,1302.362347
773.351625,1776.494261,-10658.965565,842.705048
773.351949,1406.391290,-10807.006753,1072.533697
773.352274,962.267725,-10807.006753,766.095498
773.352598,370.102971,-10510.924376,0.000000
773.352922,-740.205942,-10288.862594,-1072.533697
773.353246,-1924.535449,-10362.883188,-2221.676944
773.353570,-2368.659014,-10436.903782,-2604.724693
773.353894,-1480.411884,-9696.697840,-2221.676944
773.354218,-296.082377,-8660.409521,-1762.019645
773.354542,740.205942,-8290.306550,-919.314598
773.354866,1998.556043,-8512.368333,-153.219100
773.355190,2664.741391,-9030.512492,383.047749
773.355514,2812.782580,-9548.656652,766.095498
773.355839,1924.535449,-9770.718434,536.266849
773.356163,666.185348,-10436.903782,536.266849
773.356487,-444.123565,-10288.862594,383.047749
773.356811,-1332.370696,-10214.842000,-689.485948
773.357135,-2368.659014,-10584.944971,-1072.533697
773.357459,-3256.906145,-10066.800811,-1532.190996
773.357783,-2664.741391,-9622.677246,-1149.143247
773.358107,-1110.308913,-8956.491898,-612.876398
773.358431,296.082377,-8216.285956,919.314598
773.358755,962.267725,-8586.388927,919.314598
773.359079,2220.617826,-9030.512492,919.314598
773.359403,1628.453072,-9474.636058,383.047749
773.359728,962.267725,-9696.697840,153.219100
773.360052,74.020594,-10214.842000,0.000000
773.360376,-592.164754,-10066.800811,-459.657299
773.360700,-1406.391290,-9696.697840,-1149.143247
773.361024,-2220.617826,-10066.800811,-1608.800546
773.361348,-2146.597232,-9770.718434,-1685.410096
773.361672,-2220.617826,-9770.718434,-1302.362347
773.361996,-1036.288319,-9104.533087,-383.047749
773.362320,222.061783,-8438.347739,306.438199
773.362644,1850.514855,-8586.388927,995.924147
773.362968,3182.885551,-9474.636058,1225.752797
773.363293,3552.988522,-9474.636058,1532.190996
773.363617,3627.009116,-9918.759623,1455.581446
773.363941,1850.514855,-9844.739029,536.266849
773.364265,0.000000,-10288.862594,-306.438199
773.364589,-1628.453072,-10510.924376,-1378.971896
773.364913,-2516.700203,-10436.903782,-2298.286494
773.365237,-2442.679609,-11029.068536,-2451.505594
773.365561,-2294.638420,-10140.821405,-1455.581446
773.365885,-1628.453072,-9178.553681,-995.924147
773.366209,0.000000,-8586.388927,76.609550
773.366533,962.267725,-8734.430116,842.705048
773.366858,1850.514855,-9622.677246,1838.629195
773.367182,2442.679609,-10140.821405,2145.067394
773.367506,2220.617826,-10436.903782,1991.848295
773.367830,1406.391290,-10066.800811,1685.410096
773.368154,148.041188,-10362.883188,153.219100
773.368478,-1036.288319,-10362.883188,-919.314598
773.368802,-1554.432478,-10066.800811,-1378.971896
773.369126,-2294.638420,-10214.842000,-1915.238745
773.369450,-2368.659014,-9474.636058,-1532.190996
773.369774,-1480.411884,-8734.430116,-1072.533697
773.370098,-296.082377,-7994.224174,-459.657299
773.370423,1184.329507,-8068.244768,76.609550
773.370747,2294.638420,-8438.347739,995.924147
773.371071,2516.700203,-9178.553681,919.314598
773.371395,1998.556043,-9696.697840,1532.190996
773.371719,888.247130,-10214.842000,1225.752797
773.372043,-296.082377,-10584.944971,689.485948
773.372367,-1554.432478,-10658.965565,0.000000
773.372691,-2368.659014,-10436.903782,-612.876398
773.373015,-2294.638420,-10288.862594,-306.438199
773.373339,-2146.597232,-10066.800811,-766.095498
773.373663,-1554.432478,-9252.574275,-229.828649
773.373987,-592.164754,-8586.388927,306.438199
773.374312,74.020594,-8068.244768,842.705048
773.374636,1036.288319,-8956.491898,995.924147
773.374960,1110.308913,-9474.636058,1302.362347
773.375284,888.247130,-9918.759623,842.705048
773.375608,0.000000,-9844.739029,229.828649
773.375932,-592.164754,-9844.739029,-612.876398
773.376256,-1036.288319,-10066.800811,-459.657299
773.376580,-1998.556043,-10140.821405,-1378.971896
773.376904,-2146.597232,-10288.862594,-1378.971896
773.377228,-1924.535449,-10066.800811,-1302.362347
773.377552,-962.267725,-9548.656652,-459.657299
773.377877,0.000000,-8808.450710,76.609550
773.378201,1258.350101,-8216.285956,1225.752797
773.378525,2664.741391,-8734.430116,1762.019645
773.378849,4071.132681,-9844.739029,2221.676944
773.379173,4071.132681,-10288.862594,1685.410096
773.379497,2442.679609,-10510.924376,1225.752797
773.379821,888.247130,-10436.903782,0.000000
773.380145,-888.247130,-10288.862594,-1302.362347
773.380469,-2220.617826,-10214.842000,-2221.676944
773.380793,-3182.885551,-10066.800811,-2604.724693
773.381117,-2516.700203,-9844.739029,-2451.505594
773.381442,-1628.453072,-9030.512492,-1608.800546
773.381766,-444.123565,-8586.388927,-536.266849
773.382090,666.185348,-8734.430116,0.000000
773.382414,1554.432478,-9252.574275,1072.533697
773.382738,2442.679609,-10066.800811,1838.629195
773.383062,2960.823768,-10807.006753,1915.238745
773.383386,2220.617826,-10807.006753,2374.896044
773.383710,1110.308913,-10955.047942,1302.362347
773.384034,370.102971,-10807.006753,612.876398
773.384358,-888.247130,-10436.903782,-306.438199
773.384682,-2220.617826,-9992.780217,-1608.800546
773.385007,-2960.823768,-9400.615463,-2298.286494
773.385331,-2590.720797,-9030.512492,-2298.286494
773.385655,-1184.329507,-7772.162391,-1608.800546
773.385979,222.061783,-7254.018232,-229.828649
773.386303,1998.556043,-7846.182985,383.047749
773.386627,2516.700203,-8882.471304,306.438199
773.386951,2590.720797,-9474.636058,995.924147
773.387275,2220.617826,-9844.739029,1072.533697
773.387599,1110.308913,-10066.800811,919.314598
773.387923,0.000000,-10807.006753,536.266849
773.388247,-1702.473667,-10214.842000,0.000000
773.388571,-2516.700203,-10584.944971,-306.438199
773.388896,-3108.864956,-10436.903782,-842.705048
773.389220,-3182.885551,-9548.656652,-919.314598
773.389544,-2146.597232,-9104.533087,-383.047749
773.389868,-888.247130,-8586.388927,0.000000
773.390192,592.164754,-8586.388927,383.047749
773.390516,1332.370696,-9252.574275,919.314598
773.390840,888.247130,-9696.697840,306.438199
773.391164,814.226536,-10066.800811,0.000000
773.391488,0.000000,-10362.883188,-536.266849
773.391812,-740.205942,-10362.883188,-1225.752797
773.392136,-1554.432478,-10436.903782,-1608.800546
773.392461,-1924.535449,-11103.089130,-1991.848295
773.392785,-1850.514855,-10807.006753,-1608.800546
773.393109,-1628.453072,-9992.780217,-919.314598
773.393433,-444.123565,-9178.553681,153.219100
773.393757,1036.288319,-9326.594869,689.485948
773.394081,2664.741391,-9474.636058,1532.190996
773.394405,4145.153275,-10066.800811,1685.410096
773.394729,3849.070898,-10066.800811,1455.581446
773.395053,2886.803174,-10214.842000,689.485948
773.395377,1332.370696,-9992.780217,229.828649
773.395701,-370.102971,-10214.842000,-1225.752797
773.396026,-1702.473667,-9696.697840,-2068.457845
773.396350,-2442.679609,-9918.759623,-2911.162892
773.396674,-2294.638420,-10362.883188,-2681.334243
773.396998,-1702.473667,-9622.677246,-1991.848295
773.397322,-296.082377,-8734.430116,-306.438199
773.397646,1036.288319,-8364.327145,459.657299
773.397970,1776.494261,-8290.306550,1762.019645
773.398294,2664.741391,-9178.553681,2911.162892
773.398618,3404.947333,-10066.800811,2834.553343
773.398942,2664.741391,-10066.800811,2911.162892
773.399266,1554.432478,-9992.780217,2374.896044
773.399591,296.082377,-9770.718434,919.314598
773.399915,-1184.329507,-9030.512492,0.000000
773.400239,-2664.741391,-9474.636058,-1762.019645
773.400563,-3478.967927,-9104.533087,-2987.772442
773.400887,-3108.864956,-8586.388927,-2757.943793
773.401211,-1924.535449,-7994.224174,-2068.457845
773.401535,-444.123565,-7402.059420,-919.314598
773.401859,1406.391290,-7624.121203,-153.219100
773.402183,2368.659014,-8438.347739,842.705048
773.402507,3330.926739,-9030.512492,1991.848295
773.402831,3330.926739,-10140.821405,2451.505594
773.403155,2886.803174,-10510.924376,2298.286494
773.403480,888.247130,-10732.986159,1608.800546
773.403804,-962.267725,-10881.027347,536.266849
773.404128,-2738.761985,-11029.068536,-229.828649
773.404452,-4219.173869,-10807.006753,-1149.143247
773.404776,-4071.132681,-10288.862594,-1532.190996
773.405100,-3627.009116,-9104.533087,-1532.190996
773.405424,-2072.576638,-8956.491898,-1378.971896
773.405748,-1258.350101,-8364.327145,-766.095498
773.406072,370.102971,-9252.574275,-306.438199
773.406396,888.247130,-9474.636058,0.000000
773.406720,1184.329507,-10214.842000,0.000000
773.407045,1036.288319,-10510.924376,842.705048
773.407369,444.123565,-10955.047942,0.000000
773.407693,222.061783,-11325.150913,-153.219100
773.408017,-1110.308913,-11547.212695,-229.828649
773.408341,-2146.597232,-11177.109724,-919.314598
773.408665,-2294.638420,-11325.150913,-919.314598
773.408989,-1776.494261,-10510.924376,-306.438199
773.409313,-814.226536,-9622.677246,153.219100
773.409637,518.144159,-9104.533087,536.266849
773.409961,2220.617826,-9030.512492,1455.581446
773.410285,2516.700203,-9474.636058,766.095498
773.410609,2886.803174,-9326.594869,842.705048
773.410933,2146.597232,-9252.574275,306.438199
773.411258,740.205942,-9622.677246,-459.657299
773.411582,-370.102971,-9844.739029,-1685.410096
773.411906,-1036.288319,-9622.677246,-2145.067394
773.412230,-1480.411884,-9622.677246,-2145.067394
773.412554,-1628.453072,-9844.739029,-1455.581446
773.412878,-1110.308913,-9548.656652,-612.876398
773.413202,-518.144159,-8586.388927,536.266849
773.413526,814.226536,-8290.306550,1532.190996
773.413850,1776.494261,-8808.450710,2298.286494
773.414174,2590.720797,-9696.697840,2528.115143
773.414498,2664.741391,-9844.739029,2834.553343
773.414822,1776.494261,-9622.677246,2528.115143
773.415146,518.144159,-9622.677246,1225.752797
773.415470,-962.267725,-9474.636058,-229.828649
773.415794,-2146.597232,-9252.574275,-1532.190996
773.416118,-2590.720797,-9252.574275,-2374.896044
773.416442,-2738.761985,-9548.656652,-2834.553343
773.416766,-2146.597232,-8882.471304,-2451.505594
773.417090,-1110.308913,-8364.327145,-1532.190996
773.417414,222.061783,-8068.244768,-689.485948
773.417739,2368.659014,-8512.368333,-229.828649
773.418063,3997.112087,-9326.594869,1762.019645
773.418387,3849.070898,-9548.656652,1762.019645
773.418711,3256.906145,-10066.800811,2298.286494
773.419035,1332.370696,-10807.006753,1762.019645
773.419359,0.000000,-10732.986159,766.095498
773.419683,-1776.494261,-10955.047942,0.000000
773.420007,-3330.926739,-11103.089130,-919.314598
773.420331,-4071.132681,-10658.965565,-1608.800546
773.420655,-3627.009116,-9770.718434,-1762.019645
773.420979,-2368.659014,-9918.759623,-1225.752797
773.421303,-666.185348,-9252.574275,-612.876398
773.421627,518.144159,-8956.491898,-229.828649
773.421951,1702.473667,-9696.697840,383.047749
773.422275,1998.556043,-10066.800811,536.266849
773.422599,1628.453072,-10066.800811,459.657299
773.422923,1184.329507,-10362.883188,383.047749
773.423247,0.000000,-10584.944971,0.000000
773.423571,-740.205942,-10955.047942,-689.485948
773.423896,-2146.597232,-10807.006753,-842.705048
773.424220,-2516.700203,-10955.047942,-1302.362347
773.424544,-2664.741391,-10066.800811,-766.095498
773.424868,-1998.556043,-9400.615463,-689.485948
773.425192,0.000000,-8882.471304,383.047749
773.425516,1332.370696,-8808.450710,536.266849
773.425840,2960.823768,-8956.491898,1455.581446
773.426164,3627.009116,-9474.636058,1225.752797
773.426488,3034.844362,-9474.636058,1225.752797
773.426812,1628.453072,-9474.636058,76.609550
773.427136,74.020594,-9770.718434,-612.876398
773.427460,-1110.308913,-9548.656652,-1149.143247
773.427784,-1702.473667,-9622.677246,-1838.629195
773.428108,-2442.679609,-9844.739029,-1838.629195
773.428432,-2368.659014,-9400.615463,-1302.362347
773.428756,-1480.411884,-9104.533087,-459.657299
773.429080,-592.164754,-8586.388927,306.438199
773.429404,444.123565,-8586.388927,1302.362347
773.429728,1998.556043,-9400.615463,2068.457845
773.430052,2368.659014,-9992.780217,2604.724693
773.430377,1998.556043,-9770.718434,2145.067394
773.430701,1554.432478,-9326.594869,1532.190996
773.431025,222.061783,-9104.533087,0.000000
773.431349,-962.267725,-9548.656652,-1149.143247
773.431673,-1406.391290,-9844.739029,-1991.848295
773.431997,-1924.535449,-9918.759623,-2451.505594
773.432321,-1628.453072,-9696.697840,-2298.286494
773.432645,-740.205942,-8808.450710,-1532.190996
773.432969,370.102971,-8438.347739,-689.485948
773.433293,1628.453072,-8956.491898,229.828649
773.433617,2664.741391,-9474.636058,919.314598
773.433941,3552.988522,-10214.842000,1455.581446
773.434265,3108.864956,-10732.986159,1838.629195
773.434589,1850.514855,-10658.965565,1685.410096
773.434913,592.164754,-10584.944971,842.705048
773.435237,-888.247130,-10807.006753,-153.219100
773.435561,-2442.679609,-11251.130318,-1149.143247
773.435885,-3849.070898,-11103.089130,-1762.019645
773.436209,-3923.091493,-10658.965565,-2145.067394
773.436534,-2960.823768,-9622.677246,-1378.971896
773.436858,-1480.411884,-8882.471304,-459.657299
773.437182,296.082377,-8364.327145,229.828649
773.437506,1998.556043,-9474.636058,766.095498
773.437830,2442.679609,-9770.718434,842.705048
773.438154,2442.679609,-9696.697840,842.705048
773.438478,1406.391290,-9992.780217,842.705048
773.438802,296.082377,-10362.883188,306.438199
773.439126,-814.226536,-10140.821405,0.000000
773.439450,-1776.494261,-10066.800811,-536.266849
773.439774,-2590.720797,-9844.739029,-1455.581446
773.440098,-2886.803174,-9918.759623,-1378.971896
773.440422,-2516.700203,-9104.533087,-536.266849
773.440746,-1184.329507,-8882.471304,-306.438199
773.441070,592.164754,-8216.285956,842.705048
773.441394,2368.659014,-8586.388927,1225.752797
773.441718,3108.864956,-9030.512492,1532.190996
773.442042,3034.844362,-9104.533087,1149.143247
773.442366,2442.679609,-9104.533087,766.095498
773.442690,1036.288319,-9474.636058,-383.047749
773.443015,-444.123565,-9622.677246,-919.314598
773.443339,-1702.473667,-9992.780217,-1608.800546
773.443663,-2738.761985,-9992.780217,-1915.238745
773.443987,-2960.823768,-9992.780217,-1838.629195
773.444311,-2442.679609,-9474.636058,-1072.533697
773.444635,-2072.576638,-8586.388927,-842.705048
773.444959,0.000000,-8512.368333,919.314598
773.445283,1110.308913,-9104.533087,1302.362347
773.445607,2220.617826,-9548.656652,2068.457845
773.445931,2442.679609,-9844.739029,1915.238745
773.446255,2146.597232,-10362.883188,1838.629195
773.446579,814.226536,-9770.718434,919.314598
773.446903,0.000000,-9844.739029,-153.219100
773.447227,-1184.329507,-9844.739029,-995.924147
773.447551,-1850.514855,-10510.924376,-2451.505594
773.447875,-2368.659014,-10288.862594,-2604.724693
773.448199,-1628.453072,-9992.780217,-2221.676944
773.448523,-592.164754,-9030.512492,-1378.971896
773.448847,888.247130,-8882.471304,-612.876398
773.449172,2590.720797,-9326.594869,0.000000
773.449496,3478.967927,-9696.697840,1302.362347
773.449820,3330.926739,-10658.965565,1225.752797
773.450144,2664.741391,-11177.109724,1225.752797
773.450468,1184.329507,-11103.089130,919.314598
773.450792,-370.102971,-10881.027347,153.219100
773.451116,-1924.535449,-11029.068536,-995.924147
773.451440,-2886.803174,-11399.171507,-1149.143247
773.451764,-3108.864956,-10436.903782,-1378.971896
773.452088,-2368.659014,-9844.739029,-1991.848295
773.452412,-1332.370696,-9030.512492,-459.657299
773.452736,74.020594,-8438.347739,0.000000
773.453060,1480.411884,-8734.430116,459.657299
773.453384,2368.659014,-9252.574275,995.924147
773.453708,2294.638420,-9622.677246,1072.533697
773.454032,1184.329507,-9326.594869,995.924147
773.454356,148.041188,-9918.759623,229.828649
773.454680,-740.205942,-10140.821405,0.000000
773.455004,-1998.556043,-9992.780217,-842.705048
773.455328,-2368.659014,-10214.842000,-1455.581446
773.455653,-2664.741391,-10066.800811,-1532.190996
773.455977,-2294.638420,-9252.574275,-1149.143247
773.456301,-1110.308913,-8734.430116,-153.219100
773.456625,0.000000,-7476.080014,536.266849
773.456949,1628.453072,-8290.306550,1455.581446
773.457273,3108.864956,-8956.491898,1762.019645
773.457597,3330.926739,-8956.491898,1838.629195
773.457921,2516.700203,-9400.615463,1455.581446
773.458245,1184.329507,-9844.739029,536.266849
773.458569,-296.082377,-9992.780217,-153.219100
773.458893,-1924.535449,-9918.759623,-919.314598
773.459217,-2590.720797,-9992.780217,-1915.238745
773.459541,-2960.823768,-9992.780217,-2221.676944
773.459865,-2812.782580,-9770.718434,-1378.971896
773.460189,-1924.535449,-9030.512492,-612.876398
773.460513,-888.247130,-8290.306550,76.609550
773.460837,666.185348,-8808.450710,919.314598
773.461161,1702.473667,-9400.615463,1072.533697
773.461485,2442.679609,-9770.718434,1991.848295
773.461809,2146.597232,-10140.821405,2451.505594
773.462134,1628.453072,-10066.800811,1378.971896
773.462458,518.144159,-10436.903782,76.609550
773.462782,-814.226536,-10436.903782,-842.705048
773.463106,-1850.514855,-10732.986159,-1838.629195
773.463430,-2220.617826,-10658.965565,-2145.067394
773.463754,-2294.638420,-10140.821405,-2145.067394
773.464078,-1184.329507,-9104.533087,-1915.238745
773.464402,518.144159,-8734.430116,-1608.800546
773.464726,1850.514855,-8660.409521,-153.219100
773.465050,2664.741391,-9326.594869,689.485948
773.465374,3182.885551,-10066.800811,995.924147
773.465698,2812.782580,-10362.883188,1149.143247
773.466022,2146.597232,-10584.944971,842.705048
773.466346,518.144159,-10807.006753,1225.752797
773.466670,-814.226536,-10658.965565,-536.266849
773.466994,-2442.679609,-10881.027347,-612.876398
773.467318,-2960.823768,-10658.965565,-1455.581446
773.467642,-2960.823768,-10214.842000,-1378.971896
773.467966,-2368.659014,-9030.512492,-919.314598
773.468291,-962.267725,-8660.409521,0.000000
773.468615,666.185348,-8512.368333,689.485948
773.468939,1776.494261,-8882.471304,689.485948
773.469263,2220.617826,-9400.615463,1455.581446
773.469587,1850.514855,-9622.677246,1072.533697
773.469911,592.164754,-9918.759623,536.266849
773.470235,-370.102971,-10214.842000,306.438199
773.470559,-962.267725,-10362.883188,0.000000
773.470883,-1998.556043,-10288.862594,-383.047749
773.471207,-2886.803174,-10362.883188,-229.828649
773.471531,-2442.679609,-9622.677246,-229.828649
773.471855,-1776.494261,-9030.512492,0.000000
773.472179,-666.185348,-8808.450710,536.266849
773.472503,740.205942,-8290.306550,1302.362347
773.472827,2072.576638,-8734.430116,2145.067394
773.473151,3330.926739,-9030.512492,2221.676944
773.473475,3256.906145,-9178.553681,2068.457845
773.473799,1924.535449,-9252.574275,842.705048
773.474123,0.000000,-9030.512492,-153.219100
773.474447,-1776.494261,-9474.636058,-919.314598
773.474772,-2812.782580,-9696.697840,-1915.238745
773.475096,-3552.988522,-9622.677246,-1991.848295
773.475420,-3330.926739,-9992.780217,-1838.629195
773.475744,-2220.617826,-9474.636058,-1455.581446
773.476068,-666.185348,-8290.306550,153.219100
773.476392,370.102971,-8290.306550,995.924147
773.476716,2368.659014,-9326.594869,2221.676944
773.477040,2960.823768,-9992.780217,2528.115143
773.477364,3404.947333,-10288.862594,2604.724693
