#time,accel_x,accel_y,accel_z
969.040220,296.082377,-9770.718434,76.609550
969.040544,148.041188,-9474.636058,306.438199
969.040868,222.061783,-9844.739029,0.000000
969.041192,-370.102971,-9400.615463,0.000000
969.041517,0.000000,-9326.594869,-76.609550
969.041841,-666.185348,-9696.697840,76.609550
969.042165,-370.102971,-9770.718434,0.000000
969.042489,-222.061783,-9770.718434,0.000000
969.042813,-222.061783,-9622.677246,0.000000
969.043137,0.000000,-9474.636058,-153.219100
969.043462,148.041188,-9400.615463,153.219100
969.043786,-518.144159,-9400.615463,0.000000
969.044110,-148.041188,-9918.759623,306.438199
969.044434,-148.041188,-9844.739029,229.828649
969.044758,-74.020594,-9992.780217,383.047749
969.045082,-370.102971,-9474.636058,229.828649
969.045407,-444.123565,-9474.636058,229.828649
969.045731,-222.061783,-9474.636058,383.047749
969.046055,0.000000,-9474.636058,76.609550
969.046379,-148.041188,-9770.718434,0.000000
969.046703,0.000000,-9696.697840,0.000000
969.047027,0.000000,-9622.677246,0.000000
969.047351,0.000000,-9622.677246,229.828649
969.047676,0.000000,-9770.718434,0.000000
969.048000,0.000000,-9696.697840,76.609550
969.048324,-370.102971,-9178.553681,229.828649
969.048648,-296.082377,-9548.656652,536.266849
969.048972,0.000000,-10066.800811,-76.609550
969.049296,222.061783,-9622.677246,0.000000
969.049621,0.000000,-9474.636058,229.828649
969.049945,-222.061783,-9474.636058,-153.219100
969.050269,148.041188,-9992.780217,-306.438199
969.050593,370.102971,-9918.759623,0.000000
969.050917,222.061783,-10140.821405,383.047749
969.051241,-370.102971,-9104.533087,153.219100
969.051566,-592.164754,-9548.656652,306.438199
969.051890,-1184.329507,-9548.656652,306.438199
969.052214,-1258.350101,-9918.759623,0.000000
969.052538,-1258.350101,-8956.491898,229.828649
969.052862,-444.123565,-8364.327145,766.095498
969.053186,592.164754,-8956.491898,612.876398
969.053511,962.267725,-9770.718434,842.705048
969.053835,518.144159,-10066.800811,842.705048
969.054159,-370.102971,-10807.006753,459.657299
969.054483,-1850.514855,-10510.924376,306.438199
969.054807,-2516.700203,-10732.986159,459.657299
969.055131,-2960.823768,-10584.944971,0.000000
969.055456,-2442.679609,-10658.965565,1072.533697
969.055780,-2368.659014,-10214.842000,1072.533697
969.056104,-962.267725,-9400.615463,1072.533697
969.056428,-592.164754,-8734.430116,1302.362347
969.056752,-222.061783,-8734.430116,1455.581446
969.057076,0.000000,-9104.533087,1302.362347
969.057401,-962.267725,-9400.615463,766.095498
969.057725,-2368.659014,-9252.574275,1302.362347
969.058049,-3330.926739,-10732.986159,1532.190996
969.058373,-3256.906145,-10881.027347,1072.533697
969.058697,-3478.967927,-10510.924376,1685.410096
969.059021,-3552.988522,-10807.006753,2145.067394
969.059346,-3108.864956,-10955.047942,1915.238745
969.059670,-2368.659014,-10362.883188,2068.457845
969.059994,-1998.556043,-8512.368333,2451.505594
969.060318,-666.185348,-8512.368333,2757.943793
969.060642,0.000000,-8882.471304,2681.334243
969.060966,0.000000,-9400.615463,2987.772442
969.061290,-296.082377,-9178.553681,2757.943793
969.061615,-1554.432478,-9548.656652,2528.115143
969.061939,-2960.823768,-9844.739029,2145.067394
969.062263,-4219.173869,-10436.903782,2068.457845
969.062587,-5329.482782,-10732.986159,2451.505594
969.062911,-6143.709319,-10214.842000,3600.648841
969.063235,-6069.688724,-9918.759623,2911.162892
969.063560,-5477.523971,-9400.615463,2528.115143
969.063884,-5255.462188,-9178.553681,2834.553343
969.064208,-4293.194464,-9622.677246,3294.210641
969.064532,-2516.700203,-9844.739029,3983.696590
969.064856,-740.205942,-9548.656652,5209.449386
969.065180,1406.391290,-9178.553681,5592.497135
969.065505,2072.576638,-8586.388927,5209.449386
969.065829,2368.659014,-8438.347739,4596.572988
969.066153,1258.350101,-8364.327145,3753.867940
969.066477,148.041188,-9252.574275,3753.867940
969.066801,-1628.453072,-9030.512492,2757.943793
969.067125,-3552.988522,-8438.347739,2604.724693
969.067450,-5181.441594,-7920.203579,1455.581446
969.067774,-7179.997637,-7550.100608,229.828649
969.068098,-8586.388927,-9622.677246,-383.047749
969.068422,-8364.327145,-11325.150913,1838.629195
969.068746,-4811.338623,-11177.109724,2451.505594
969.069070,-444.123565,-9548.656652,4136.915689
969.069395,2072.576638,-8734.430116,5745.716235
969.069719,4071.132681,-8882.471304,5209.449386
969.070043,4293.194464,-10066.800811,4443.353888
969.070367,3627.009116,-11177.109724,4213.525239
969.070691,2516.700203,-10214.842000,4213.525239
969.071015,666.185348,-9400.615463,1762.019645
969.071340,-1924.535449,-9326.594869,229.828649
969.071664,-4737.318029,-9844.739029,-612.876398
969.071988,-5699.585753,-10732.986159,-1915.238745
969.072312,-5107.421000,-11029.068536,-1685.410096
969.072636,-4737.318029,-9992.780217,76.609550
969.072960,-3404.947333,-8882.471304,306.438199
969.073284,-2294.638420,-8808.450710,919.314598
969.073609,-2960.823768,-8882.471304,1455.581446
969.073933,-3627.009116,-9770.718434,2068.457845
969.074257,-2664.741391,-11769.274478,2604.724693
969.074581,444.123565,-12287.418637,3064.381992
969.074905,3849.070898,-11325.150913,5362.668486
969.075229,5699.585753,-10436.903782,5439.278036
969.075554,4737.318029,-10066.800811,3370.820191
969.075878,888.247130,-10584.944971,1072.533697
969.076202,-3330.926739,-9918.759623,-383.047749
969.076526,-5107.421000,-8216.285956,-1149.143247
969.076850,-5255.462188,-7402.059420,-842.705048
969.077174,-5033.400406,-7031.956449,-1302.362347
969.077499,-5329.482782,-9474.636058,-1072.533697
969.077823,-5403.503377,-11621.233289,-919.314598
969.078147,-5551.544565,-11177.109724,-1149.143247
969.078471,-7105.977043,-9178.553681,459.657299
969.078795,-6365.771101,-7994.224174,995.924147
969.079119,-3108.864956,-8364.327145,1225.752797
969.079444,-1110.308913,-10214.842000,2298.286494
969.079768,740.205942,-10881.027347,3140.991542
969.080092,1924.535449,-11991.336260,3294.210641
969.080416,1628.453072,-11695.253884,3140.991542
969.080740,518.144159,-9696.697840,2911.162892
969.081064,-148.041188,-8586.388927,2298.286494
969.081389,-592.164754,-8438.347739,1378.971896
969.081713,-2146.597232,-9474.636058,0.000000
969.082037,-4441.235652,-10732.986159,306.438199
969.082361,-4811.338623,-9696.697840,536.266849
969.082685,-3330.926739,-8660.409521,1072.533697
969.083009,-2442.679609,-8364.327145,1455.581446
969.083334,-2812.782580,-8142.265362,1302.362347
969.083658,-4885.359217,-9178.553681,919.314598
969.083982,-7105.977043,-10214.842000,842.705048
969.084306,-6587.832884,-10658.965565,1915.238745
969.084630,-2812.782580,-10140.821405,2221.676944
969.084954,592.164754,-8660.409521,2757.943793
969.085278,666.185348,-9178.553681,3447.429741
969.085603,-666.185348,-10807.006753,3447.429741
969.085927,-888.247130,-11621.233289,3677.258390
969.086251,518.144159,-10955.047942,3753.867940
969.086575,1406.391290,-9252.574275,3217.601092
969.086899,-740.205942,-9178.553681,3294.210641
969.087223,-2442.679609,-10807.006753,3370.820191
969.087548,-2812.782580,-10955.047942,2987.772442
969.087872,-3478.967927,-10140.821405,2681.334243
969.088196,-3627.009116,-7550.100608,2374.896044
969.088520,-4293.194464,-6735.874072,2221.676944
969.088844,-4071.132681,-8068.244768,3294.210641
969.089168,-2516.700203,-8364.327145,3370.820191
969.089493,-2146.597232,-8956.491898,2298.286494
969.089817,-3923.091493,-8956.491898,1532.190996
969.090141,-4737.318029,-9622.677246,2374.896044
969.090465,-1554.432478,-10510.924376,3830.477490
969.090789,1110.308913,-10436.903782,4213.525239
969.091113,888.247130,-10955.047942,4366.744339
969.091438,-592.164754,-11695.253884,3677.258390
969.091762,148.041188,-11399.171507,3140.991542
969.092086,814.226536,-11029.068536,3600.648841
969.092410,0.000000,-9844.739029,4136.915689
969.092734,-3182.885551,-9918.759623,3907.087040
969.093058,-4885.359217,-10140.821405,2451.505594
969.093383,-4737.318029,-8808.450710,1915.238745
969.093707,-3849.070898,-7698.141797,2298.286494
969.094031,-3997.112087,-8660.409521,1915.238745
969.094355,-3775.050304,-9178.553681,2068.457845
969.094679,-3182.885551,-7550.100608,1455.581446
969.095003,-1628.453072,-6291.750507,995.924147
969.095328,-814.226536,-9030.512492,1685.410096
969.095652,-1628.453072,-10955.047942,1302.362347
969.095976,-1406.391290,-9622.677246,1455.581446
969.096300,0.000000,-9104.533087,3217.601092
969.096624,1850.514855,-10510.924376,3294.210641
969.096948,2072.576638,-11029.068536,2604.724693
969.097272,74.020594,-10066.800811,3140.991542
969.097597,-1850.514855,-9474.636058,2987.772442
969.097921,-2664.741391,-11473.192101,1378.971896
969.098245,-3108.864956,-9474.636058,1378.971896
969.098569,-3775.050304,-7254.018232,2681.334243
969.098893,-4293.194464,-8734.430116,1762.019645
969.099217,-4367.215058,-9696.697840,-383.047749
969.099542,-4441.235652,-8364.327145,766.095498
969.099866,-4071.132681,-8734.430116,1378.971896
969.100190,-3108.864956,-9326.594869,536.266849
969.100514,-3108.864956,-8660.409521,919.314598
969.100838,-2368.659014,-8512.368333,2374.896044
969.101162,-962.267725,-10436.903782,1685.410096
969.101486,0.000000,-11325.150913,1455.581446
969.101810,74.020594,-10362.883188,2298.286494
969.102134,0.000000,-9474.636058,1378.971896
969.102458,-888.247130,-9326.594869,1455.581446
969.102782,-740.205942,-9474.636058,1302.362347
969.103106,-1480.411884,-11103.089130,-306.438199
969.103430,-2960.823768,-11917.315666,0.000000
969.103754,-3701.029710,-10955.047942,0.000000
969.104078,-3034.844362,-10214.842000,-842.705048
969.104402,-3627.009116,-10436.903782,306.438199
969.104726,-3256.906145,-10436.903782,383.047749
969.105050,-2516.700203,-10732.986159,-766.095498
969.105374,-2516.700203,-10658.965565,0.000000
969.105698,-2220.617826,-9252.574275,1149.143247
969.106022,-1702.473667,-9474.636058,76.609550
969.106346,-1924.535449,-8956.491898,-306.438199
969.106670,-1258.350101,-8438.347739,1762.019645
969.106994,1776.494261,-10510.924376,2068.457845
969.107319,2812.782580,-10584.944971,842.705048
969.107643,592.164754,-8586.388927,1455.581446
969.107967,-2146.597232,-7994.224174,-919.314598
969.108291,-2960.823768,-9178.553681,-2451.505594
969.108615,-3108.864956,-11547.212695,-459.657299
969.108939,-2368.659014,-12879.583391,-229.828649
969.109263,-1480.411884,-11769.274478,0.000000
969.109587,-1036.288319,-10214.842000,2068.457845
969.109911,-1184.329507,-9918.759623,1762.019645
969.110235,-370.102971,-10955.047942,1378.971896
969.110559,814.226536,-9696.697840,1608.800546
969.110883,1628.453072,-8364.327145,1532.190996
969.111207,2294.638420,-8882.471304,1302.362347
969.111531,2220.617826,-9770.718434,2451.505594
969.111855,1924.535449,-9104.533087,3294.210641
969.112179,74.020594,-9030.512492,1532.190996
969.112503,-2072.576638,-8808.450710,-1225.752797
969.112827,-3701.029710,-9474.636058,-1072.533697
969.113151,-3404.947333,-11399.171507,-689.485948
969.113475,-2590.720797,-10362.883188,-1225.752797
969.113799,-3404.947333,-6735.874072,0.000000
969.114123,-2146.597232,-6439.791695,-76.609550
969.114447,-222.061783,-9326.594869,-383.047749
969.114771,-592.164754,-10436.903782,1149.143247
969.115095,74.020594,-9104.533087,2298.286494
969.115419,1480.411884,-8586.388927,2374.896044
969.115743,2738.761985,-9844.739029,3140.991542
969.116067,3997.112087,-10436.903782,2911.162892
969.116391,3775.050304,-10140.821405,3294.210641
969.116715,888.247130,-11177.109724,3447.429741
969.117039,-148.041188,-11547.212695,1762.019645
969.117363,-1332.370696,-9622.677246,1455.581446
969.117687,-814.226536,-7476.080014,1608.800546
969.118011,74.020594,-6809.894666,153.219100
969.118335,-1036.288319,-7624.121203,153.219100
969.118659,-2442.679609,-7994.224174,0.000000
969.118983,-2146.597232,-7031.956449,-1302.362347
969.119307,-1110.308913,-6587.832884,-1608.800546
969.119631,0.000000,-5921.647536,-1608.800546
969.119955,0.000000,-7624.121203,0.000000
969.120279,74.020594,-10807.006753,842.705048
969.120603,592.164754,-11843.295072,612.876398
969.120927,444.123565,-11177.109724,1915.238745
969.121251,1184.329507,-11695.253884,1455.581446
969.121575,1998.556043,-12139.377449,1149.143247
969.121899,1702.473667,-12287.418637,1455.581446
969.122223,1628.453072,-12287.418637,1608.800546
969.122547,1110.308913,-11991.336260,1072.533697
969.122871,1184.329507,-11029.068536,0.000000
969.123195,1406.391290,-9178.553681,-919.314598
969.123519,370.102971,-9474.636058,-1302.362347
969.123843,-1332.370696,-10214.842000,-2451.505594
969.124167,-2960.823768,-10362.883188,-2987.772442
969.124491,-3701.029710,-10066.800811,-3753.867940
969.124815,-3701.029710,-9252.574275,-3140.991542
969.125139,-3108.864956,-10288.862594,-2374.896044
969.125463,-2738.761985,-11325.150913,-1532.190996
969.125787,-1480.411884,-10955.047942,-306.438199
969.126111,370.102971,-9622.677246,-383.047749
969.126435,1924.535449,-9696.697840,536.266849
969.126759,2886.803174,-9104.533087,229.828649
969.127083,2886.803174,-9178.553681,1225.752797
969.127407,3108.864956,-9992.780217,1762.019645
969.127731,3552.988522,-10362.883188,1455.581446
969.128055,3034.844362,-8956.491898,536.266849
969.128379,1258.350101,-7402.059420,-995.924147
969.128703,-1110.308913,-8512.368333,-1302.362347
969.129027,-2664.741391,-10214.842000,-1991.848295
969.129351,-4071.132681,-10140.821405,-2528.115143
969.129675,-4663.297435,-8586.388927,-2834.553343
969.129999,-4145.153275,-8142.265362,-2911.162892
969.130323,-2738.761985,-9400.615463,-2221.676944
969.130647,-592.164754,-10214.842000,-1532.190996
969.130971,592.164754,-9326.594869,229.828649
969.131295,962.267725,-9252.574275,1378.971896
969.131619,1554.432478,-9474.636058,689.485948
969.131943,1480.411884,-8734.430116,1378.971896
969.132267,2368.659014,-9326.594869,2145.067394
969.132591,3552.988522,-9844.739029,2451.505594
969.132915,3775.050304,-10955.047942,1991.848295
969.133239,2368.659014,-10214.842000,1149.143247
969.133563,1258.350101,-9178.553681,-536.266849
969.133887,74.020594,-9252.574275,-1378.971896
969.134211,-592.164754,-9918.759623,-1838.629195
969.134535,-518.144159,-9474.636058,-2604.724693
969.134860,-1110.308913,-8586.388927,-1685.410096
969.135184,-1184.329507,-8068.244768,-1915.238745
969.135508,-592.164754,-8586.388927,-1378.971896
969.135832,-444.123565,-9696.697840,-919.314598
969.136156,222.061783,-10140.821405,-306.438199
969.136480,962.267725,-9992.780217,383.047749
969.136804,592.164754,-9696.697840,1149.143247
969.137128,1776.494261,-10066.800811,2451.505594
969.137452,2516.700203,-11103.089130,3140.991542
969.137776,2072.576638,-11621.233289,1838.629195
969.138100,518.144159,-10214.842000,536.266849
969.138424,-962.267725,-9770.718434,-306.438199
969.138748,-444.123565,-10140.821405,76.609550
969.139072,-666.185348,-10362.883188,-383.047749
969.139396,-1702.473667,-9474.636058,-1072.533697
969.139720,-2146.597232,-7994.224174,-1378.971896
969.140044,-1554.432478,-8660.409521,-2374.896044
969.140368,-444.123565,-9548.656652,-2451.505594
969.140692,-444.123565,-9400.615463,-689.485948
969.141016,-444.123565,-9474.636058,0.000000
969.141340,-296.082377,-9474.636058,383.047749
969.141664,0.000000,-9474.636058,0.000000
969.141988,592.164754,-9622.677246,153.219100
969.142312,1036.288319,-10362.883188,1455.581446
969.142636,962.267725,-11399.171507,1302.362347
969.142960,444.123565,-10288.862594,1455.581446
969.143284,370.102971,-8290.306550,1302.362347
969.143608,74.020594,-7994.224174,536.266849
969.143932,222.061783,-8882.471304,-306.438199
969.144256,-222.061783,-9104.533087,0.000000
969.144580,-1110.308913,-10214.842000,-459.657299
969.144904,-1924.535449,-10510.924376,-1149.143247
969.145228,-1998.556043,-9622.677246,-766.095498
969.145552,-1702.473667,-9474.636058,-459.657299
969.145876,-1998.556043,-10436.903782,-689.485948
969.146200,-2812.782580,-10881.027347,-766.095498
969.146524,-2664.741391,-10436.903782,1225.752797
969.146848,-814.226536,-10362.883188,1838.629195
969.147172,814.226536,-10658.965565,2145.067394
969.147496,1332.370696,-9770.718434,1532.190996
969.147820,962.267725,-9548.656652,1762.019645
969.148144,370.102971,-10288.862594,459.657299
969.148468,370.102971,-9770.718434,689.485948
969.148792,222.061783,-8586.388927,459.657299
969.149116,370.102971,-8438.347739,-383.047749
969.149440,0.000000,-9400.615463,-229.828649
969.149764,-740.205942,-9918.759623,-1225.752797
969.150088,-962.267725,-9474.636058,-842.705048
969.150412,0.000000,-7550.100608,-689.485948
969.150736,1332.370696,-8882.471304,459.657299
969.151060,1406.391290,-10214.842000,1149.143247
969.151384,1850.514855,-9474.636058,536.266849
969.151708,1110.308913,-8734.430116,1225.752797
969.152032,814.226536,-8808.450710,1149.143247
969.152356,1184.329507,-9030.512492,383.047749
969.152680,296.082377,-9474.636058,536.266849
969.153004,-1036.288319,-9918.759623,536.266849
969.153328,-296.082377,-10362.883188,229.828649
969.153652,1184.329507,-10288.862594,-229.828649
969.153976,148.041188,-9474.636058,-1685.410096
969.154300,-962.267725,-8808.450710,-1378.971896
969.154624,-296.082377,-8956.491898,-1225.752797
969.154948,962.267725,-9992.780217,-1149.143247
969.155272,444.123565,-10732.986159,-612.876398
969.155596,518.144159,-9918.759623,-612.876398
969.155920,1184.329507,-8290.306550,-1302.362347
969.156244,666.185348,-8290.306550,-842.705048
969.156568,740.205942,-9696.697840,-536.266849
969.156892,370.102971,-10214.842000,-383.047749
969.157216,296.082377,-10436.903782,-842.705048
969.157540,444.123565,-9474.636058,-766.095498
969.157864,1184.329507,-9548.656652,-536.266849
969.158188,1184.329507,-10214.842000,-689.485948
969.158512,148.041188,-11029.068536,-689.485948
969.158836,-370.102971,-10214.842000,-229.828649
969.159160,-370.102971,-8660.409521,-1838.629195
969.159484,-814.226536,-8808.450710,-2298.286494
969.159808,-1628.453072,-10066.800811,-1455.581446
969.160132,-740.205942,-11547.212695,-842.705048
969.160456,148.041188,-11251.130318,-459.657299
969.160780,-888.247130,-9548.656652,0.000000
969.161104,-1628.453072,-9400.615463,-766.095498
969.161428,-1110.308913,-10881.027347,-766.095498
969.161752,-962.267725,-12213.398043,-766.095498
969.162076,-1480.411884,-11325.150913,-612.876398
969.162401,-2146.597232,-9918.759623,-536.266849
969.162725,-2072.576638,-9696.697840,-1302.362347
969.163049,-1776.494261,-9992.780217,-459.657299
969.163373,-1480.411884,-10658.965565,459.657299
969.163697,-1036.288319,-10362.883188,0.000000
969.164021,-814.226536,-9178.553681,153.219100
969.164345,-296.082377,-9030.512492,459.657299
969.164669,740.205942,-8882.471304,689.485948
969.164993,1110.308913,-9326.594869,1685.410096
969.165317,592.164754,-9474.636058,1608.800546
969.165641,1110.308913,-8808.450710,1455.581446
969.165965,814.226536,-8364.327145,1225.752797
969.166289,814.226536,-8068.244768,76.609550
969.166613,-444.123565,-8290.306550,76.609550
969.166937,-962.267725,-9030.512492,-383.047749
969.167261,-740.205942,-9030.512492,-383.047749
969.167585,0.000000,-9548.656652,459.657299
969.167909,666.185348,-8956.491898,0.000000
969.168233,1406.391290,-8438.347739,1302.362347
969.168557,1554.432478,-9474.636058,1149.143247
969.168881,962.267725,-10140.821405,842.705048
969.169205,888.247130,-9474.636058,1149.143247
969.169529,1406.391290,-8586.388927,1072.533697
969.169853,1258.350101,-8734.430116,842.705048
969.170177,444.123565,-9474.636058,842.705048
969.170501,-148.041188,-9844.739029,0.000000
969.170825,-296.082377,-9844.739029,153.219100
969.171149,296.082377,-9770.718434,0.000000
969.171473,1332.370696,-8586.388927,-459.657299
969.171797,1110.308913,-9548.656652,-153.219100
969.172121,0.000000,-10584.944971,-842.705048
969.172445,-370.102971,-10288.862594,-689.485948
969.172769,888.247130,-9474.636058,-536.266849
969.173093,1406.391290,-9400.615463,-612.876398
969.173417,1110.308913,-9844.739029,-383.047749
969.173741,962.267725,-10214.842000,383.047749
969.174065,888.247130,-10066.800811,-153.219100
969.174389,888.247130,-9844.739029,-153.219100
969.174713,74.020594,-9474.636058,-1072.533697
969.175037,-296.082377,-9326.594869,-1149.143247
969.175361,-1036.288319,-9918.759623,-612.876398
969.175685,-1110.308913,-10436.903782,-842.705048
969.176009,-1110.308913,-10288.862594,-536.266849
969.176333,-1110.308913,-9400.615463,-383.047749
969.176657,-740.205942,-9622.677246,-612.876398
969.176981,0.000000,-10288.862594,-306.438199
969.177305,-370.102971,-10584.944971,-459.657299
969.177629,-962.267725,-10807.006753,-229.828649
969.177953,-1406.391290,-10732.986159,0.000000
969.178277,-740.205942,-10214.842000,0.000000
969.178601,-1628.453072,-9770.718434,-153.219100
969.178925,-2738.761985,-10658.965565,-689.485948
969.179249,-3627.009116,-10510.924376,-995.924147
969.179573,-3552.988522,-10510.924376,-536.266849
969.179897,-2812.782580,-10584.944971,153.219100
969.180221,-2220.617826,-9918.759623,-153.219100
969.180545,-2368.659014,-8882.471304,229.828649
969.180869,-2368.659014,-8808.450710,229.828649
969.181193,-592.164754,-9696.697840,689.485948
969.181517,740.205942,-9696.697840,1378.971896
969.181841,1332.370696,-8512.368333,1225.752797
969.182165,1924.535449,-8586.388927,1302.362347
969.182489,2072.576638,-9474.636058,383.047749
969.182813,2146.597232,-9844.739029,0.000000
969.183137,1702.473667,-9474.636058,459.657299
969.183461,1406.391290,-9178.553681,-153.219100
969.183785,1036.288319,-9474.636058,0.000000
969.184109,148.041188,-9770.718434,229.828649
969.184433,0.000000,-9474.636058,-229.828649
969.184757,0.000000,-9178.553681,383.047749
969.185081,814.226536,-9474.636058,0.000000
969.185405,1184.329507,-9474.636058,459.657299
969.185729,1184.329507,-9770.718434,1685.410096
969.186053,222.061783,-9622.677246,1072.533697
969.186377,148.041188,-9548.656652,459.657299
969.186701,370.102971,-9474.636058,306.438199
969.187025,1110.308913,-9252.574275,-229.828649
969.187349,1110.308913,-9622.677246,0.000000
969.187673,740.205942,-9400.615463,-153.219100
969.187997,1776.494261,-8882.471304,-612.876398
969.188321,2368.659014,-8734.430116,-306.438199
969.188645,1924.535449,-8956.491898,-842.705048
969.188969,1258.350101,-8882.471304,-766.095498
969.189293,888.247130,-9770.718434,-229.828649
969.189617,666.185348,-9770.718434,-995.924147
969.189941,444.123565,-9326.594869,-536.266849
969.190266,222.061783,-9178.553681,-842.705048
969.190590,814.226536,-9474.636058,-995.924147
969.190914,444.123565,-10066.800811,-153.219100
969.191238,-370.102971,-10214.842000,-459.657299
969.191562,-962.267725,-9178.553681,-842.705048
969.191886,-296.082377,-8808.450710,-1608.800546
969.192210,-518.144159,-10362.883188,-995.924147
969.192534,-1332.370696,-11695.253884,-766.095498
969.192858,-1850.514855,-11621.233289,-383.047749
969.193182,-1924.535449,-10658.965565,-536.266849
969.193506,-296.082377,-10288.862594,-689.485948
969.193830,148.041188,-9696.697840,-1378.971896
969.194154,0.000000,-10510.924376,-766.095498
969.194478,-962.267725,-10584.944971,-842.705048
969.194802,-1332.370696,-9992.780217,-766.095498
969.195126,-1332.370696,-9622.677246,-459.657299
969.195450,-962.267725,-8956.491898,-842.705048
969.195774,-592.164754,-9030.512492,-689.485948
969.196098,-592.164754,-9992.780217,-536.266849
969.196422,-1332.370696,-9918.759623,-1455.581446
969.196746,-1776.494261,-9844.739029,-766.095498
969.197070,-1998.556043,-10140.821405,76.609550
969.197394,-666.185348,-10584.944971,0.000000
969.197718,-370.102971,-9992.780217,689.485948
969.198042,-814.226536,-10510.924376,689.485948
969.198366,74.020594,-10658.965565,1149.143247
969.198690,444.123565,-10881.027347,536.266849
969.199014,370.102971,-9770.718434,383.047749
969.199338,-370.102971,-9252.574275,842.705048
969.199662,-888.247130,-10807.006753,689.485948
969.199986,-1184.329507,-10732.986159,229.828649
969.200310,-1036.288319,-9548.656652,1378.971896
969.200634,-962.267725,-9104.533087,306.438199
969.200958,-1258.350101,-8364.327145,0.000000
969.201282,-1776.494261,-9622.677246,-76.609550
969.201606,-1258.350101,-9548.656652,76.609550
969.201930,-222.061783,-8512.368333,689.485948
969.202254,666.185348,-7698.141797,383.047749
969.202577,1554.432478,-7994.224174,1378.971896
969.202901,1850.514855,-9104.533087,2221.676944
969.203225,2072.576638,-9252.574275,842.705048
969.203549,1924.535449,-7994.224174,1302.362347
969.203873,2812.782580,-8290.306550,1685.410096
969.204197,2664.741391,-8290.306550,0.000000
969.204521,1110.308913,-8290.306550,-689.485948
969.204845,-962.267725,-9326.594869,229.828649
969.205168,-148.041188,-9770.718434,0.000000
969.205492,1702.473667,-10362.883188,-1455.581446
969.205816,1184.329507,-9474.636058,536.266849
969.206140,740.205942,-8364.327145,536.266849
969.206464,888.247130,-9622.677246,-383.047749
969.206788,296.082377,-10955.047942,-459.657299
969.207112,0.000000,-10140.821405,-153.219100
969.207436,148.041188,-9400.615463,-306.438199
969.207760,0.000000,-9844.739029,-229.828649
969.208083,-148.041188,-11103.089130,-459.657299
969.208407,148.041188,-11103.089130,-1072.533697
969.208731,814.226536,-10732.986159,-919.314598
969.209055,1036.288319,-11251.130318,-1225.752797
969.209379,1332.370696,-10881.027347,-1072.533697
969.209703,2072.576638,-9770.718434,-153.219100
969.210027,1480.411884,-10436.903782,-306.438199
969.210351,222.061783,-10955.047942,-1072.533697
969.210674,-740.205942,-9992.780217,-919.314598
969.210998,-296.082377,-9622.677246,-919.314598
969.211322,0.000000,-9474.636058,-766.095498
969.211646,-370.102971,-9918.759623,-306.438199
969.211970,-592.164754,-9326.594869,-536.266849
969.212294,-666.185348,-8586.388927,-995.924147
969.212618,-296.082377,-8660.409521,-1225.752797
969.212942,-1110.308913,-8734.430116,-306.438199
969.213266,-962.267725,-9326.594869,-306.438199
969.213589,-1924.535449,-9844.739029,-306.438199
969.213913,-1998.556043,-10140.821405,0.000000
969.214237,-1258.350101,-9992.780217,-153.219100
969.214561,-1184.329507,-9992.780217,-229.828649
969.214885,-2072.576638,-10362.883188,0.000000
969.215209,-2738.761985,-11177.109724,-612.876398
969.215533,-2368.659014,-11103.089130,-229.828649
969.215857,-1924.535449,-11325.150913,229.828649
969.216180,-2220.617826,-10510.924376,-536.266849
969.216504,-2368.659014,-9030.512492,-842.705048
969.216828,-2220.617826,-9474.636058,-153.219100
969.217152,-1110.308913,-10436.903782,0.000000
969.217476,74.020594,-10066.800811,536.266849
969.217800,666.185348,-8438.347739,153.219100
969.218124,0.000000,-7698.141797,-459.657299
969.218448,-444.123565,-9622.677246,-536.266849
969.218772,-296.082377,-10140.821405,-459.657299
969.219095,444.123565,-9252.574275,612.876398
969.219419,1850.514855,-8808.450710,1302.362347
969.219743,3256.906145,-8882.471304,766.095498
969.220067,2516.700203,-9474.636058,919.314598
969.220391,1480.411884,-9030.512492,229.828649
969.220715,1110.308913,-9400.615463,229.828649
969.221039,444.123565,-10214.842000,0.000000
969.221363,222.061783,-9252.574275,-919.314598
969.221686,-740.205942,-8660.409521,-689.485948
969.222010,-1036.288319,-9474.636058,-612.876398
969.222334,0.000000,-9992.780217,-1149.143247
969.222658,444.123565,-10140.821405,-229.828649
969.222982,1036.288319,-9844.739029,-766.095498
969.223306,592.164754,-9178.553681,-536.266849
969.223630,1036.288319,-9918.759623,-306.438199
969.223954,888.247130,-10214.842000,-536.266849
969.224278,888.247130,-10436.903782,0.000000
969.224601,1258.350101,-10066.800811,0.000000
969.224925,1924.535449,-9696.697840,229.828649
969.225249,1776.494261,-9104.533087,383.047749
969.225573,2590.720797,-9400.615463,-383.047749
969.225897,2368.659014,-8956.491898,-306.438199
969.226221,2368.659014,-9252.574275,-612.876398
969.226545,1628.453072,-8808.450710,-1072.533697
969.226869,1332.370696,-8660.409521,-153.219100
969.227192,1184.329507,-9548.656652,383.047749
969.227516,1406.391290,-10066.800811,0.000000
969.227840,148.041188,-9178.553681,-766.095498
969.228164,-888.247130,-8956.491898,-306.438199
969.228488,-592.164754,-9696.697840,153.219100
969.228812,-592.164754,-10658.965565,-459.657299
969.229136,-1850.514855,-10362.883188,-306.438199
969.229460,-2812.782580,-9622.677246,306.438199
969.229784,-2294.638420,-9992.780217,-459.657299
969.230107,-1110.308913,-10510.924376,-229.828649
969.230431,-1480.411884,-9400.615463,-306.438199
969.230755,-2368.659014,-10140.821405,229.828649
969.231079,-2516.700203,-11103.089130,0.000000
969.231403,-1850.514855,-11029.068536,229.828649
969.231727,-1184.329507,-10066.800811,306.438199
969.232051,-1776.494261,-9992.780217,0.000000
969.232375,-2960.823768,-10288.862594,153.219100
969.232698,-2146.597232,-10214.842000,0.000000
969.233022,-962.267725,-9992.780217,995.924147
969.233346,0.000000,-9918.759623,919.314598
969.233670,0.000000,-8438.347739,0.000000
969.233994,-1480.411884,-9030.512492,689.485948
969.234318,-2146.597232,-8956.491898,-459.657299
969.234642,-1554.432478,-7846.182985,-383.047749
969.234966,-666.185348,-8660.409521,229.828649
969.235290,0.000000,-8586.388927,-766.095498
969.235613,0.000000,-8438.347739,-306.438199
969.235937,-592.164754,-9252.574275,-383.047749
969.236261,-518.144159,-9696.697840,-153.219100
969.236585,888.247130,-10807.006753,1072.533697
969.236909,2294.638420,-9844.739029,842.705048
969.237233,1628.453072,-9770.718434,1608.800546
969.237557,148.041188,-9918.759623,383.047749
969.237881,74.020594,-10362.883188,-536.266849
969.238204,888.247130,-10436.903782,-229.828649
969.238528,1628.453072,-11103.089130,-306.438199
969.238852,1850.514855,-10658.965565,766.095498
969.239176,740.205942,-9918.759623,919.314598
969.239500,0.000000,-9622.677246,-306.438199
969.239824,-444.123565,-9844.739029,-919.314598
969.240148,0.000000,-9770.718434,-2068.457845
969.240472,888.247130,-9030.512492,-1302.362347
969.240795,1332.370696,-9400.615463,-153.219100
969.241119,1998.556043,-9548.656652,-459.657299
969.241443,1998.556043,-8660.409521,-383.047749
969.241767,2368.659014,-9030.512492,0.000000
969.242091,2738.761985,-10066.800811,0.000000
969.242415,2590.720797,-9770.718434,229.828649
969.242739,1406.391290,-9252.574275,-153.219100
969.243063,1036.288319,-7920.203579,0.000000
969.243387,1554.432478,-8882.471304,-153.219100
969.243710,1850.514855,-9696.697840,-459.657299
969.244034,1554.432478,-9400.615463,-1302.362347
969.244358,-148.041188,-8734.430116,-1532.190996
969.244682,-1776.494261,-9252.574275,-1302.362347
969.245006,-1702.473667,-9030.512492,-1915.238745
969.245330,-1628.453072,-9548.656652,-995.924147
969.245654,-1480.411884,-10140.821405,-1149.143247
969.245978,-2442.679609,-11251.130318,-766.095498
969.246301,-2516.700203,-10807.006753,-842.705048
969.246625,-1776.494261,-9474.636058,-229.828649
969.246949,-1554.432478,-9770.718434,153.219100
969.247273,-1480.411884,-10436.903782,76.609550
969.247597,-1776.494261,-10732.986159,919.314598
969.247921,-1258.350101,-11177.109724,612.876398
969.248245,-1036.288319,-9992.780217,0.000000
969.248569,-1332.370696,-8586.388927,766.095498
969.248893,-592.164754,-8586.388927,-153.219100
969.249216,0.000000,-10140.821405,0.000000
969.249540,-888.247130,-10288.862594,383.047749
969.249864,-1184.329507,-8882.471304,0.000000
969.250188,-1406.391290,-8882.471304,76.609550
969.250512,-888.247130,-9400.615463,-459.657299
969.250836,-444.123565,-9178.553681,-306.438199
969.251160,-1036.288319,-9326.594869,842.705048
969.251484,0.000000,-10288.862594,153.219100
969.251807,592.164754,-9474.636058,0.000000
969.252131,1406.391290,-9474.636058,1991.848295
969.252455,1332.370696,-10214.842000,1378.971896
969.252779,0.000000,-10510.924376,153.219100
969.253103,-1628.453072,-9770.718434,-153.219100
969.253427,-1776.494261,-9474.636058,0.000000
969.253751,-296.082377,-10510.924376,0.000000
969.254075,592.164754,-10066.800811,229.828649
969.254399,1258.350101,-9474.636058,1225.752797
969.254722,1406.391290,-9992.780217,919.314598
969.255046,740.205942,-10955.047942,-306.438199
969.255370,-148.041188,-9992.780217,0.000000
969.255694,592.164754,-8364.327145,229.828649
969.256018,1036.288319,-8512.368333,306.438199
969.256342,444.123565,-9696.697840,383.047749
969.256666,222.061783,-9030.512492,612.876398
969.256990,0.000000,-8216.285956,306.438199
969.257313,1036.288319,-8734.430116,-153.219100
969.257637,1110.308913,-8734.430116,383.047749
969.257961,1332.370696,-8882.471304,229.828649
969.258285,888.247130,-9178.553681,0.000000
969.258609,740.205942,-8290.306550,-306.438199
969.258933,1184.329507,-8586.388927,-383.047749
969.259257,1258.350101,-9030.512492,-612.876398
969.259581,1702.473667,-9696.697840,-459.657299
969.259905,888.247130,-9400.615463,-306.438199
969.260228,666.185348,-9178.553681,-612.876398
969.260552,962.267725,-9918.759623,-689.485948
969.260876,1258.350101,-10807.006753,0.000000
969.261200,1110.308913,-10288.862594,-306.438199
969.261524,444.123565,-9844.739029,0.000000
969.261848,-1184.329507,-9400.615463,-995.924147
969.262172,-1776.494261,-9622.677246,-995.924147
969.262496,-666.185348,-10066.800811,-612.876398
969.262819,148.041188,-9992.780217,-1072.533697
969.263143,-740.205942,-9770.718434,-536.266849
969.263467,-1554.432478,-9992.780217,-689.485948
969.263791,-1184.329507,-9918.759623,-612.876398
969.264115,-444.123565,-10214.842000,76.609550
969.264439,0.000000,-10214.842000,-1149.143247
969.264763,-592.164754,-9474.636058,-766.095498
969.265087,-1702.473667,-9400.615463,-1225.752797
969.265411,-2294.638420,-10140.821405,-1455.581446
969.265734,-1406.391290,-10362.883188,0.000000
969.266058,0.000000,-10436.903782,153.219100
969.266382,666.185348,-10214.842000,-766.095498
969.266706,0.000000,-10510.924376,0.000000
969.267030,-1184.329507,-11399.171507,-229.828649
969.267354,-1036.288319,-11399.171507,-153.219100
969.267678,-592.164754,-11399.171507,383.047749
969.268002,-148.041188,-10732.986159,0.000000
969.268325,-1036.288319,-9474.636058,0.000000
969.268649,-2146.597232,-9918.759623,-766.095498
969.268973,-1702.473667,-10066.800811,0.000000
969.269297,-814.226536,-10436.903782,229.828649
969.269621,-1110.308913,-9326.594869,-1072.533697
969.269945,-2072.576638,-8216.285956,-689.485948
969.270269,-2516.700203,-8808.450710,-689.485948
969.270593,-1332.370696,-9326.594869,-229.828649
969.270917,444.123565,-9400.615463,1225.752797
969.271240,888.247130,-8956.491898,1455.581446
969.271564,1036.288319,-7698.141797,1072.533697
969.271888,666.185348,-8290.306550,1532.190996
969.272212,1258.350101,-9252.574275,1302.362347
969.272536,1628.453072,-8808.450710,1149.143247
969.272860,1258.350101,-8216.285956,689.485948
969.273184,962.267725,-7846.182985,1149.143247
969.273508,814.226536,-8586.388927,995.924147
969.273831,1110.308913,-8882.471304,1149.143247
969.274155,592.164754,-8290.306550,459.657299
969.274479,444.123565,-9326.594869,229.828649
969.274803,592.164754,-9400.615463,229.828649
969.275127,1184.329507,-9252.574275,919.314598
969.275451,1110.308913,-9622.677246,919.314598
969.275775,592.164754,-9844.739029,1302.362347
969.276099,222.061783,-10510.924376,1302.362347
969.276423,962.267725,-10214.842000,-153.219100
969.276746,296.082377,-9326.594869,-383.047749
969.277070,-296.082377,-8882.471304,0.000000
969.277394,370.102971,-9770.718434,-459.657299
969.277718,518.144159,-10658.965565,153.219100
969.278042,740.205942,-10140.821405,306.438199
969.278366,1480.411884,-8808.450710,919.314598
969.278690,1110.308913,-9770.718434,612.876398
969.279014,296.082377,-11029.068536,-306.438199
969.279337,0.000000,-10732.986159,0.000000
969.279661,1110.308913,-9992.780217,76.609550
969.279985,1258.350101,-9548.656652,-306.438199
969.280309,148.041188,-9030.512492,-153.219100
969.280633,-1258.350101,-9030.512492,-536.266849
969.280957,-1850.514855,-9696.697840,-1072.533697
969.281281,-1850.514855,-10140.821405,-612.876398
969.281605,-814.226536,-9474.636058,-919.314598
969.281929,-518.144159,-8734.430116,-306.438199
969.282252,-1850.514855,-10436.903782,-229.828649
969.282576,-2960.823768,-11473.192101,-766.095498
969.282900,-2590.720797,-10584.944971,153.219100
969.283224,-2590.720797,-10510.924376,-689.485948
969.283548,-2220.617826,-10955.047942,229.828649
969.283872,-1924.535449,-10584.944971,-153.219100
969.284196,-1406.391290,-10436.903782,229.828649
969.284520,-814.226536,-10732.986159,459.657299
969.284843,74.020594,-10584.944971,0.000000
969.285167,518.144159,-9178.553681,-306.438199
969.285491,74.020594,-8808.450710,153.219100
969.285815,-444.123565,-9770.718434,0.000000
969.286139,-962.267725,-9400.615463,-1072.533697
969.286463,-1184.329507,-8808.450710,-383.047749
969.286787,-518.144159,-9104.533087,-919.314598
969.287111,-518.144159,-8734.430116,-1149.143247
969.287434,-592.164754,-8808.450710,153.219100
969.287758,74.020594,-8882.471304,306.438199
969.288082,962.267725,-9474.636058,0.000000
969.288406,1406.391290,-8586.388927,689.485948
969.288730,2368.659014,-7624.121203,919.314598
969.289054,2146.597232,-8956.491898,1685.410096
969.289378,1702.473667,-10066.800811,1149.143247
969.289702,1332.370696,-9178.553681,766.095498
969.290026,444.123565,-8216.285956,536.266849
969.290349,444.123565,-8364.327145,-536.266849
969.290673,148.041188,-9474.636058,76.609550
969.290997,-962.267725,-9844.739029,-995.924147
969.291321,-814.226536,-9474.636058,-536.266849
969.291645,666.185348,-9178.553681,-1225.752797
969.291969,814.226536,-9770.718434,-459.657299
969.292293,1702.473667,-9474.636058,76.609550
969.292617,1850.514855,-10066.800811,-229.828649
969.292940,1110.308913,-10807.006753,0.000000
969.293264,1406.391290,-10214.842000,-459.657299
969.293588,1776.494261,-10066.800811,-153.219100
969.293912,1850.514855,-9918.759623,306.438199
969.294236,1554.432478,-10214.842000,0.000000
969.294560,888.247130,-10732.986159,-306.438199
969.294884,296.082377,-10288.862594,-766.095498
969.295208,222.061783,-9696.697840,-842.705048
969.295532,148.041188,-9474.636058,-1532.190996
969.295855,0.000000,-9252.574275,-995.924147
969.296179,-148.041188,-9918.759623,-1149.143247
969.296503,-962.267725,-9844.739029,-1685.410096
969.296827,-1332.370696,-9474.636058,-1532.190996
969.297151,-592.164754,-9548.656652,-2068.457845
969.297475,0.000000,-9178.553681,-1455.581446
969.297799,74.020594,-9918.759623,-153.219100
969.298123,148.041188,-10066.800811,229.828649
969.298446,296.082377,-9770.718434,76.609550
969.298770,370.102971,-10362.883188,229.828649
969.299094,296.082377,-9770.718434,-153.219100
969.299418,74.020594,-9622.677246,0.000000
969.299742,-592.164754,-10584.944971,-306.438199
969.300066,-1258.350101,-10214.842000,-153.219100
969.300390,-1480.411884,-10066.800811,-383.047749
969.300714,-1850.514855,-9770.718434,-1149.143247
969.301038,-2812.782580,-10584.944971,-536.266849
969.301361,-3034.844362,-11473.192101,-995.924147
969.301685,-2368.659014,-10436.903782,-1072.533697
969.302009,-1776.494261,-9844.739029,-383.047749
969.302333,-962.267725,-10066.800811,459.657299
969.302657,296.082377,-10955.047942,919.314598
969.302981,592.164754,-10584.944971,1225.752797
969.303305,444.123565,-9992.780217,995.924147
969.303629,-592.164754,-8956.491898,766.095498
969.303953,-888.247130,-9474.636058,76.609550
969.304277,-1480.411884,-9400.615463,459.657299
969.304601,-1184.329507,-9548.656652,1225.752797
969.304925,-1036.288319,-9622.677246,919.314598
969.305249,-592.164754,-8586.388927,1225.752797
969.305573,74.020594,-7698.141797,1302.362347
969.305897,1110.308913,-8068.244768,1608.800546
969.306221,666.185348,-8216.285956,1378.971896
969.306545,74.020594,-8142.265362,1608.800546
969.306869,-148.041188,-8364.327145,1455.581446
969.307193,0.000000,-8290.306550,919.314598
969.307517,814.226536,-8364.327145,1149.143247
969.307840,1406.391290,-9104.533087,1762.019645
969.308164,962.267725,-9548.656652,1149.143247
969.308488,222.061783,-9844.739029,536.266849
969.308812,0.000000,-9030.512492,229.828649
969.309136,1406.391290,-9474.636058,612.876398
969.309460,2072.576638,-9770.718434,1149.143247
969.309784,2146.597232,-10140.821405,1838.629195
969.310108,1702.473667,-10732.986159,1685.410096
969.310432,962.267725,-10140.821405,1072.533697
969.310756,962.267725,-9696.697840,383.047749
969.311080,1332.370696,-9400.615463,383.047749
969.311404,1184.329507,-10140.821405,536.266849
969.311728,222.061783,-10510.924376,0.000000
969.312052,148.041188,-8438.347739,-306.438199
969.312376,962.267725,-8734.430116,0.000000
969.312700,1776.494261,-9326.594869,-766.095498
969.313024,1406.391290,-9474.636058,-536.266849
969.313348,666.185348,-9474.636058,153.219100
969.313672,296.082377,-10214.842000,383.047749
969.313996,592.164754,-10140.821405,-1378.971896
969.314320,-148.041188,-9252.574275,-1378.971896
969.314644,-1110.308913,-9326.594869,-1302.362347
969.314968,-1332.370696,-10732.986159,-842.705048
969.315292,-370.102971,-11399.171507,-919.314598
969.315615,-444.123565,-9992.780217,229.828649
969.315939,-888.247130,-9548.656652,-612.876398
969.316263,-444.123565,-9548.656652,-1378.971896
969.316587,-296.082377,-11103.089130,-612.876398
969.316911,-370.102971,-11843.295072,-383.047749
969.317235,-444.123565,-10881.027347,-842.705048
969.317559,-814.226536,-9326.594869,-536.266849
969.317883,-1184.329507,-9770.718434,-1149.143247
969.318207,-1628.453072,-10584.944971,-1225.752797
969.318531,-2960.823768,-10881.027347,-1378.971896
969.318855,-2812.782580,-10807.006753,-383.047749
969.319179,-2516.700203,-10510.924376,-536.266849
969.319503,-2072.576638,-9326.594869,-1838.629195
969.319827,-1998.556043,-8068.244768,-1608.800546
969.320151,-2072.576638,-9474.636058,-1072.533697
969.320475,-888.247130,-10881.027347,-612.876398
969.320799,370.102971,-10436.903782,-153.219100
969.321123,444.123565,-9252.574275,76.609550
969.321447,-444.123565,-8512.368333,-306.438199
969.321771,-1184.329507,-9474.636058,-459.657299
969.322095,-962.267725,-10807.006753,-766.095498
969.322419,-666.185348,-9696.697840,-536.266849
969.322743,0.000000,-8586.388927,-1225.752797
969.323066,1184.329507,-8364.327145,-536.266849
969.323390,2368.659014,-8512.368333,1378.971896
969.323714,3108.864956,-9474.636058,919.314598
969.324038,1702.473667,-9770.718434,536.266849
969.324362,740.205942,-9104.533087,459.657299
969.324686,1258.350101,-9104.533087,459.657299
969.325010,1776.494261,-9548.656652,536.266849
969.325334,1258.350101,-9400.615463,536.266849
969.325658,296.082377,-9030.512492,842.705048
969.325982,0.000000,-9178.553681,76.609550
969.326306,0.000000,-8956.491898,229.828649
969.326630,0.000000,-8882.471304,306.438199
969.326954,0.000000,-9252.574275,766.095498
969.327278,296.082377,-9326.594869,1072.533697
969.327602,1702.473667,-8734.430116,0.000000
969.327926,2368.659014,-9030.512492,1072.533697
969.328250,2368.659014,-9844.739029,1072.533697
969.328574,2368.659014,-10066.800811,0.000000
969.328898,962.267725,-10288.862594,306.438199
969.329222,222.061783,-10214.842000,0.000000
969.329546,592.164754,-10066.800811,-306.438199
969.329870,1258.350101,-10362.883188,-229.828649
969.330194,1480.411884,-9918.759623,842.705048
969.330518,296.082377,-10066.800811,0.000000
969.330841,-518.144159,-10140.821405,0.000000
969.331165,-888.247130,-9548.656652,0.000000
969.331489,-666.185348,-9474.636058,-229.828649
969.331813,-1110.308913,-9622.677246,-536.266849
969.332137,-1850.514855,-9770.718434,-689.485948
969.332461,-2146.597232,-10214.842000,-689.485948
969.332785,-2072.576638,-10066.800811,153.219100
969.333109,0.000000,-10288.862594,459.657299
969.333433,296.082377,-9918.759623,612.876398
969.333757,0.000000,-10436.903782,229.828649
969.334081,-370.102971,-11029.068536,-306.438199
969.334405,-370.102971,-10807.006753,229.828649
969.334729,148.041188,-10288.862594,229.828649
969.335053,814.226536,-10066.800811,0.000000
969.335377,-814.226536,-9474.636058,229.828649
969.335701,-1628.453072,-10362.883188,153.219100
969.336025,-2072.576638,-9548.656652,-919.314598
969.336349,-1258.350101,-9252.574275,383.047749
969.336673,-666.185348,-9030.512492,383.047749
969.336997,-592.164754,-8956.491898,306.438199
969.337321,-1406.391290,-8808.450710,612.876398
969.337645,-1332.370696,-9104.533087,689.485948
969.337969,-740.205942,-9030.512492,0.000000
969.338292,-518.144159,-8956.491898,-689.485948
969.338616,-740.205942,-8808.450710,-459.657299
969.338940,-444.123565,-9400.615463,76.609550
969.339264,814.226536,-10214.842000,229.828649
969.339588,592.164754,-10436.903782,536.266849
969.339912,-592.164754,-10584.944971,153.219100
969.340236,-740.205942,-9622.677246,0.000000
969.340560,-222.061783,-9622.677246,459.657299
969.340884,-518.144159,-10066.800811,459.657299
969.341208,-666.185348,-10362.883188,459.657299
969.341532,-962.267725,-9548.656652,919.314598
969.341856,-666.185348,-9030.512492,1225.752797
969.342180,444.123565,-8734.430116,842.705048
969.342504,-296.082377,-8734.430116,153.219100
969.342828,-1332.370696,-8586.388927,-229.828649
969.343152,-1258.350101,-8438.347739,76.609550
969.343476,296.082377,-8364.327145,0.000000
969.343800,666.185348,-8956.491898,76.609550
969.344124,1036.288319,-8808.450710,689.485948
969.344448,1258.350101,-9844.739029,536.266849
969.344772,2294.638420,-10066.800811,306.438199
969.345096,3182.885551,-9252.574275,76.609550
969.345420,2590.720797,-8956.491898,153.219100
969.345744,2146.597232,-9918.759623,689.485948
969.346067,1924.535449,-10066.800811,76.609550
969.346391,1628.453072,-9770.718434,76.609550
969.346715,592.164754,-9474.636058,153.219100
969.347039,0.000000,-9696.697840,-306.438199
969.347363,-370.102971,-9474.636058,-1072.533697
969.347687,-518.144159,-9992.780217,-689.485948
969.348011,-518.144159,-10066.800811,-766.095498
969.348335,-74.020594,-10214.842000,-1225.752797
969.348659,444.123565,-9400.615463,306.438199
969.348983,962.267725,-9918.759623,0.000000
969.349307,592.164754,-10214.842000,-459.657299
969.349631,-296.082377,-10510.924376,-383.047749
969.349955,-296.082377,-10214.842000,0.000000
969.350279,296.082377,-10881.027347,-766.095498
969.350603,1110.308913,-9474.636058,0.000000
969.350927,666.185348,-9030.512492,76.609550
969.351251,-444.123565,-10510.924376,-459.657299
969.351575,-1258.350101,-10807.006753,-1378.971896
969.351899,-1554.432478,-9622.677246,-995.924147
969.352223,-1702.473667,-9104.533087,-1072.533697
969.352547,-1258.350101,-8438.347739,-689.485948
969.352871,-1406.391290,-9400.615463,-229.828649
969.353195,-1480.411884,-9844.739029,-689.485948
969.353518,-1628.453072,-10288.862594,-306.438199
969.353842,-666.185348,-10658.965565,-229.828649
969.354166,1702.473667,-9992.780217,-153.219100
969.354490,2368.659014,-9326.594869,229.828649
969.354814,1332.370696,-10288.862594,459.657299
969.355138,-444.123565,-10807.006753,306.438199
969.355462,-1480.411884,-10584.944971,-536.266849
969.355786,-1184.329507,-8882.471304,0.000000
969.356110,-1776.494261,-8956.491898,-153.219100
969.356434,-2368.659014,-10066.800811,-995.924147
969.356758,-3034.844362,-10288.862594,-306.438199
969.357082,-3108.864956,-10510.924376,459.657299
969.357406,-1702.473667,-10658.965565,-153.219100
969.357730,-1258.350101,-8660.409521,76.609550
969.358054,-1184.329507,-8734.430116,842.705048
969.358378,74.020594,-9696.697840,1302.362347
969.358702,1110.308913,-9474.636058,1149.143247
969.359026,1628.453072,-8660.409521,842.705048
969.359350,1258.350101,-8660.409521,229.828649
969.359674,1332.370696,-9474.636058,229.828649
969.359998,888.247130,-9252.574275,1225.752797
969.360322,962.267725,-8660.409521,1149.143247
969.360646,1406.391290,-8586.388927,842.705048
969.360970,296.082377,-9178.553681,76.609550
969.361293,-592.164754,-8956.491898,459.657299
969.361617,-962.267725,-8808.450710,229.828649
969.361941,-1184.329507,-8808.450710,0.000000
969.362265,-148.041188,-8808.450710,689.485948
969.362589,1702.473667,-8808.450710,1838.629195
969.362913,2516.700203,-9252.574275,1685.410096
969.363237,2220.617826,-8438.347739,919.314598
969.363561,592.164754,-9104.533087,306.438199
969.363885,74.020594,-9918.759623,76.609550
969.364209,962.267725,-10510.924376,-383.047749
969.364533,1702.473667,-10436.903782,0.000000
969.364857,1110.308913,-9918.759623,229.828649
969.365181,592.164754,-10066.800811,0.000000
969.365505,-962.267725,-10658.965565,-612.876398
969.365829,-592.164754,-10436.903782,-383.047749
969.366153,740.205942,-9992.780217,0.000000
969.366477,1702.473667,-9696.697840,0.000000
969.366801,1184.329507,-9918.759623,536.266849
969.367125,666.185348,-9844.739029,536.266849
969.367449,1036.288319,-9400.615463,383.047749
969.367773,1184.329507,-9622.677246,229.828649
969.368097,444.123565,-9474.636058,153.219100
969.368421,-666.185348,-9992.780217,-153.219100
969.368744,-1406.391290,-10140.821405,-919.314598
969.369068,-1332.370696,-9252.574275,-1532.190996
969.369392,-1332.370696,-9178.553681,-1532.190996
969.369716,-1406.391290,-10066.800811,-995.924147
969.370040,-2072.576638,-10362.883188,-689.485948
969.370364,-1480.411884,-11251.130318,-536.266849
969.370688,-1406.391290,-9844.739029,0.000000
969.371012,74.020594,-9992.780217,-229.828649
969.371336,296.082377,-10436.903782,-383.047749
969.371660,370.102971,-9548.656652,76.609550
969.371984,-370.102971,-10066.800811,306.438199
969.372308,-1702.473667,-11103.089130,0.000000
969.372632,-1924.535449,-10214.842000,-383.047749
969.372956,-1184.329507,-9548.656652,-383.047749
969.373280,-814.226536,-9400.615463,-612.876398
969.373604,-814.226536,-10807.006753,0.000000
969.373928,-1406.391290,-11399.171507,306.438199
969.374252,-518.144159,-9622.677246,0.000000
969.374576,0.000000,-8364.327145,76.609550
969.374900,148.041188,-8068.244768,-306.438199
969.375224,444.123565,-8808.450710,153.219100
969.375548,0.000000,-10214.842000,842.705048
969.375872,740.205942,-9622.677246,1072.533697
969.376195,1258.350101,-8438.347739,612.876398
969.376519,888.247130,-8142.265362,229.828649
969.376843,592.164754,-8808.450710,766.095498
969.377167,222.061783,-9992.780217,766.095498
969.377491,296.082377,-9548.656652,0.000000
969.377815,0.000000,-8734.430116,76.609550
969.378139,0.000000,-9326.594869,766.095498
969.378463,1110.308913,-9770.718434,689.485948
969.378787,1480.411884,-9770.718434,459.657299
969.379111,962.267725,-10214.842000,766.095498
969.379435,370.102971,-9770.718434,612.876398
969.379759,888.247130,-9918.759623,-153.219100
969.380083,888.247130,-8290.306550,-995.924147
969.380407,518.144159,-8216.285956,-306.438199
969.380731,74.020594,-10214.842000,-612.876398
969.381055,296.082377,-11103.089130,0.000000
969.381379,740.205942,-10214.842000,-153.219100
969.381703,1332.370696,-8438.347739,-459.657299
969.382027,1480.411884,-7994.224174,-919.314598
969.382351,518.144159,-9400.615463,-1532.190996
969.382675,-370.102971,-10140.821405,-1149.143247
969.382999,-444.123565,-9474.636058,0.000000
969.383323,74.020594,-9178.553681,-229.828649
969.383647,370.102971,-8956.491898,-229.828649
969.383970,-296.082377,-9400.615463,-153.219100
969.384294,-962.267725,-9918.759623,-383.047749
969.384618,-296.082377,-10288.862594,0.000000
969.384942,74.020594,-10140.821405,-383.047749
969.385266,370.102971,-9178.553681,0.000000
969.385590,-296.082377,-8438.347739,536.266849
969.385914,-1036.288319,-9992.780217,-153.219100
969.386238,-1628.453072,-10510.924376,-306.438199
969.386562,-962.267725,-9844.739029,229.828649
969.386886,-370.102971,-9474.636058,0.000000
969.387210,148.041188,-9622.677246,76.609550
969.387534,74.020594,-10140.821405,-383.047749
969.387858,-222.061783,-9770.718434,306.438199
969.388182,-740.205942,-10288.862594,459.657299
969.388506,-888.247130,-10584.944971,0.000000
969.388830,-1110.308913,-9400.615463,-383.047749
969.389154,-1332.370696,-8808.450710,-306.438199
969.389478,-1036.288319,-9622.677246,0.000000
969.389802,-370.102971,-10436.903782,76.609550
969.390126,-740.205942,-9622.677246,-306.438199
969.390450,-444.123565,-9696.697840,-76.609550
969.390774,-1110.308913,-10140.821405,76.609550
969.391098,-370.102971,-10658.965565,-689.485948
969.391421,148.041188,-10214.842000,-229.828649
969.391745,0.000000,-10436.903782,306.438199
969.392069,888.247130,-10140.821405,0.000000
969.392393,740.205942,-9474.636058,689.485948
969.392717,1184.329507,-10140.821405,1072.533697
969.393041,444.123565,-9918.759623,459.657299
969.393365,-592.164754,-9918.759623,0.000000
969.393689,-1332.370696,-9030.512492,-229.828649
969.394013,-1480.411884,-9104.533087,153.219100
969.394337,-1628.453072,-10288.862594,-383.047749
969.394661,-1554.432478,-9474.636058,-842.705048
969.394985,-1702.473667,-8882.471304,76.609550
969.395309,-592.164754,-9030.512492,0.000000
969.395633,1628.453072,-9326.594869,0.000000
969.395957,1332.370696,-8882.471304,1302.362347
969.396281,1480.411884,-9178.553681,1225.752797
969.396605,2072.576638,-9622.677246,842.705048
969.396929,1924.535449,-9770.718434,1225.752797
969.397253,2146.597232,-8586.388927,1532.190996
969.397577,2368.659014,-8956.491898,536.266849
969.397901,1184.329507,-9178.553681,536.266849
969.398225,592.164754,-8512.368333,76.609550
969.398549,666.185348,-8216.285956,-459.657299
969.398873,444.123565,-8808.450710,-766.095498
969.399196,518.144159,-9030.512492,76.609550
969.399520,592.164754,-8808.450710,0.000000
969.399844,518.144159,-8734.430116,0.000000
969.400168,-296.082377,-8364.327145,-689.485948
969.400492,-444.123565,-8660.409521,-1225.752797
969.400816,0.000000,-9770.718434,-383.047749
969.401140,-814.226536,-10807.006753,229.828649
969.401464,-1480.411884,-10732.986159,306.438199
969.401788,-1480.411884,-10288.862594,1302.362347
969.402112,-592.164754,-10214.842000,919.314598
969.402436,518.144159,-10807.006753,-153.219100
969.402760,148.041188,-11103.089130,536.266849
969.403084,-1480.411884,-11547.212695,-306.438199
969.403408,-2220.617826,-10732.986159,-766.095498
969.403732,-2146.597232,-9548.656652,-1149.143247
969.404056,-1628.453072,-9252.574275,-1838.629195
969.404380,-1258.350101,-9474.636058,-1915.238745
969.404704,-1702.473667,-10510.924376,-1455.581446
969.405028,-1850.514855,-10362.883188,-766.095498
969.405352,-740.205942,-10140.821405,0.000000
969.405676,0.000000,-10140.821405,-459.657299
969.406000,592.164754,-10436.903782,229.828649
969.406324,1110.308913,-10807.006753,689.485948
969.406648,1258.350101,-10881.027347,0.000000
969.406972,444.123565,-10510.924376,1072.533697
969.407296,444.123565,-9992.780217,612.876398
969.407620,1036.288319,-9622.677246,306.438199
969.407944,0.000000,-10140.821405,153.219100
969.408268,-888.247130,-10140.821405,-1072.533697
969.408592,-1628.453072,-9104.533087,-1072.533697
969.408916,-1480.411884,-9400.615463,-919.314598
969.409240,-666.185348,-9030.512492,-689.485948
969.409564,74.020594,-9030.512492,229.828649
969.409888,592.164754,-9474.636058,0.000000
969.410212,1702.473667,-10362.883188,536.266849
969.410536,1998.556043,-9548.656652,842.705048
969.410860,2072.576638,-8586.388927,536.266849
969.411184,1850.514855,-8512.368333,842.705048
969.411508,888.247130,-9918.759623,1378.971896
969.411832,148.041188,-10066.800811,1072.533697
969.412157,592.164754,-8660.409521,383.047749
969.412481,222.061783,-7179.997637,0.000000
969.412805,888.247130,-7846.182985,-383.047749
969.413129,1110.308913,-8660.409521,-536.266849
969.413453,296.082377,-9474.636058,0.000000
969.413777,0.000000,-9252.574275,76.609550
969.414101,222.061783,-8882.471304,153.219100
969.414425,962.267725,-8882.471304,-1302.362347
969.414749,-222.061783,-8586.388927,-919.314598
969.415073,-1184.329507,-9622.677246,-459.657299
969.415397,-962.267725,-10732.986159,-1072.533697
969.415721,-222.061783,-10881.027347,-536.266849
969.416045,666.185348,-10066.800811,-153.219100
969.416369,740.205942,-9104.533087,0.000000
969.416693,222.061783,-9474.636058,-1225.752797
969.417017,-1110.308913,-10881.027347,-536.266849
969.417341,-592.164754,-11103.089130,-153.219100
969.417665,148.041188,-10732.986159,-229.828649
969.417989,518.144159,-9770.718434,-306.438199
969.418313,-222.061783,-9770.718434,0.000000
969.418637,-1036.288319,-10510.924376,-1225.752797
969.418961,-1184.329507,-9918.759623,-612.876398
969.419285,-222.061783,-9844.739029,-689.485948
969.419609,-444.123565,-9400.615463,-995.924147
969.419933,-296.082377,-8808.450710,-689.485948
969.420257,-814.226536,-9844.739029,0.000000
969.420581,0.000000,-10584.944971,0.000000
969.420905,222.061783,-9622.677246,-383.047749
969.421229,222.061783,-8808.450710,-536.266849
969.421553,0.000000,-9178.553681,919.314598
969.421877,0.000000,-10214.842000,842.705048
969.422201,296.082377,-10807.006753,612.876398
969.422525,-296.082377,-9252.574275,919.314598
969.422849,-444.123565,-9400.615463,-306.438199
969.423173,-592.164754,-9992.780217,-383.047749
969.423497,-814.226536,-9844.739029,306.438199
969.423821,-1184.329507,-9844.739029,459.657299
969.424145,-1406.391290,-9992.780217,-306.438199
969.424469,-1036.288319,-9548.656652,-459.657299
969.424793,-444.123565,-9474.636058,-229.828649
969.425117,-296.082377,-10066.800811,229.828649
969.425441,-444.123565,-10807.006753,306.438199
969.425765,-740.205942,-9844.739029,306.438199
969.426089,-666.185348,-9252.574275,612.876398
969.426413,148.041188,-9104.533087,306.438199
969.426737,1406.391290,-8808.450710,229.828649
969.427061,1184.329507,-9622.677246,1072.533697
969.427385,666.185348,-10066.800811,995.924147
969.427709,222.061783,-8882.471304,536.266849
969.428033,666.185348,-7920.203579,383.047749
969.428357,666.185348,-8290.306550,0.000000
969.428681,296.082377,-9622.677246,0.000000
969.429005,-370.102971,-10140.821405,-383.047749
969.429329,-148.041188,-9030.512492,153.219100
969.429653,888.247130,-8956.491898,0.000000
969.429977,1406.391290,-8290.306550,-153.219100
969.430301,1258.350101,-8734.430116,383.047749
969.430625,148.041188,-10584.944971,306.438199
969.430949,0.000000,-10510.924376,76.609550
969.431273,740.205942,-9918.759623,153.219100
969.431597,962.267725,-9844.739029,459.657299
969.431921,1110.308913,-10066.800811,0.000000
969.432245,74.020594,-10584.944971,-153.219100
969.432569,-592.164754,-10140.821405,-306.438199
969.432893,-518.144159,-10881.027347,0.000000
969.433217,296.082377,-11325.150913,-612.876398
969.433541,222.061783,-9918.759623,-766.095498
969.433865,-1184.329507,-9252.574275,-842.705048
969.434189,-1332.370696,-9992.780217,-1302.362347
969.434513,-148.041188,-9992.780217,-1685.410096
969.434837,74.020594,-9696.697840,-1072.533697
969.435161,888.247130,-9474.636058,0.000000
969.435485,1258.350101,-9548.656652,306.438199
969.435810,1036.288319,-9918.759623,0.000000
969.436134,0.000000,-9400.615463,-536.266849
969.436458,-222.061783,-9770.718434,0.000000
969.436782,0.000000,-10066.800811,-612.876398
969.437106,444.123565,-9474.636058,-306.438199
969.437430,-666.185348,-8660.409521,0.000000
969.437754,-1258.350101,-9178.553681,0.000000
969.438078,-962.267725,-9918.759623,-306.438199
969.438402,-1480.411884,-9622.677246,-766.095498
969.438726,-2368.659014,-9104.533087,-689.485948
969.439050,-2442.679609,-9918.759623,0.000000
969.439374,-2072.576638,-10584.944971,153.219100
969.439698,-1554.432478,-9474.636058,459.657299
969.440022,-962.267725,-8956.491898,0.000000
969.440346,-1110.308913,-8882.471304,-536.266849
969.440670,-814.226536,-9474.636058,-536.266849
969.440994,-592.164754,-10214.842000,-766.095498
969.441318,-666.185348,-9622.677246,-306.438199
969.441642,74.020594,-9030.512492,0.000000
969.441966,0.000000,-9326.594869,-689.485948
969.442290,0.000000,-9770.718434,-536.266849
969.442614,296.082377,-9918.759623,-536.266849
969.442938,296.082377,-9844.739029,0.000000
969.443262,740.205942,-9844.739029,383.047749
969.443586,1184.329507,-9844.739029,536.266849
969.443910,1776.494261,-9474.636058,1455.581446
969.444234,1850.514855,-9844.739029,2374.896044
969.444558,1258.350101,-10732.986159,766.095498
969.444882,740.205942,-10140.821405,0.000000
969.445206,74.020594,-9548.656652,0.000000
969.445530,592.164754,-10510.924376,0.000000
969.445854,444.123565,-10436.903782,-229.828649
969.446178,0.000000,-10140.821405,0.000000
969.446502,-518.144159,-10214.842000,-536.266849
969.446826,-444.123565,-9992.780217,-1378.971896
969.447150,518.144159,-9696.697840,-229.828649
969.447474,814.226536,-9548.656652,536.266849
969.447798,888.247130,-10881.027347,919.314598
969.448122,592.164754,-9992.780217,153.219100
969.448446,592.164754,-8438.347739,229.828649
969.448770,666.185348,-8808.450710,306.438199
969.449094,666.185348,-9326.594869,0.000000
969.449418,222.061783,-9770.718434,229.828649
969.449742,148.041188,-9252.574275,153.219100
969.450066,518.144159,-7698.141797,-153.219100
969.450390,592.164754,-8290.306550,-919.314598
969.450714,148.041188,-8586.388927,-1149.143247
969.451038,-222.061783,-8808.450710,-1225.752797
969.451362,-740.205942,-8956.491898,-1149.143247
969.451686,-74.020594,-9326.594869,-842.705048
969.452010,370.102971,-9622.677246,76.609550
969.452334,1480.411884,-9400.615463,0.000000
969.452658,592.164754,-9548.656652,-153.219100
969.452982,-740.205942,-9622.677246,-306.438199
969.453306,-962.267725,-10066.800811,-612.876398
969.453630,-592.164754,-10584.944971,612.876398
969.453954,444.123565,-10288.862594,612.876398
969.454278,370.102971,-9178.553681,383.047749
969.454602,-1258.350101,-9326.594869,0.000000
969.454926,-2664.741391,-9696.697840,-1532.190996
969.455250,-3627.009116,-9474.636058,-1608.800546
969.455574,-3330.926739,-9030.512492,-1685.410096
969.455898,-1998.556043,-8808.450710,-1532.190996
969.456222,-962.267725,-9474.636058,459.657299
969.456546,-740.205942,-10658.965565,-689.485948
969.456870,-444.123565,-9844.739029,-612.876398
969.457194,0.000000,-9622.677246,-689.485948
969.457518,518.144159,-9992.780217,-383.047749
969.457842,1258.350101,-11399.171507,0.000000
969.458166,1184.329507,-11547.212695,0.000000
969.458490,740.205942,-11029.068536,995.924147
969.458814,370.102971,-10584.944971,229.828649
969.459138,0.000000,-10510.924376,-1532.190996
969.459463,-1036.288319,-10658.965565,-842.705048
969.459787,-2590.720797,-10732.986159,-689.485948
969.460111,-2368.659014,-10214.842000,-842.705048
969.460435,-1480.411884,-9844.739029,383.047749
969.460759,222.061783,-10436.903782,766.095498
969.461083,814.226536,-10066.800811,383.047749
969.461407,666.185348,-9622.677246,689.485948
969.461731,0.000000,-9474.636058,536.266849
969.462055,148.041188,-9696.697840,459.657299
969.462379,444.123565,-9474.636058,1302.362347
969.462703,148.041188,-9030.512492,536.266849
969.463027,148.041188,-7994.224174,229.828649
969.463351,222.061783,-8734.430116,153.219100
969.463675,592.164754,-9548.656652,229.828649
969.463999,814.226536,-9474.636058,153.219100
969.464323,1554.432478,-8438.347739,842.705048
969.464647,2442.679609,-8290.306550,1608.800546
969.464971,2664.741391,-9400.615463,1532.190996
969.465295,1998.556043,-9770.718434,1302.362347
969.465619,888.247130,-8882.471304,766.095498
969.465943,814.226536,-8290.306550,-76.609550
969.466267,888.247130,-9326.594869,-306.438199
969.466591,0.000000,-9696.697840,459.657299
969.466915,-888.247130,-9770.718434,0.000000
969.467239,-1480.411884,-9104.533087,-306.438199
969.467563,-666.185348,-8734.430116,-306.438199
969.467887,444.123565,-9030.512492,-766.095498
969.468211,1184.329507,-9326.594869,-612.876398
969.468535,962.267725,-9474.636058,-153.219100
969.468859,592.164754,-9992.780217,0.000000
969.469183,518.144159,-10066.800811,-306.438199
969.469507,0.000000,-10214.842000,-689.485948
969.469831,-444.123565,-9844.739029,-153.219100
969.470155,-814.226536,-9696.697840,-995.924147
969.470479,-962.267725,-10807.006753,-1149.143247
969.470803,148.041188,-10436.903782,-842.705048
969.471127,1258.350101,-9992.780217,0.000000
969.471451,1628.453072,-10510.924376,459.657299
969.471775,-296.082377,-10214.842000,-612.876398
969.472099,-2442.679609,-9474.636058,-2145.067394
969.472423,-3256.906145,-9548.656652,-1762.019645
969.472747,-3182.885551,-9622.677246,-2221.676944
969.473071,-2072.576638,-10066.800811,-1762.019645
969.473395,-1332.370696,-9622.677246,-1378.971896
969.473719,-1998.556043,-9622.677246,-842.705048
969.474043,-1776.494261,-9696.697840,-1608.800546
969.474367,-666.185348,-9178.553681,-1991.848295
969.474691,0.000000,-9844.739029,-1302.362347
969.475015,1036.288319,-10288.862594,0.000000
969.475339,666.185348,-10732.986159,306.438199
969.475663,370.102971,-11177.109724,306.438199
969.475987,-962.267725,-10288.862594,-153.219100
969.476311,-1406.391290,-9696.697840,-1838.629195
969.476635,-1850.514855,-9474.636058,-1532.190996
969.476959,-2146.597232,-9326.594869,-1455.581446
969.477283,-1998.556043,-10584.944971,-842.705048
969.477607,-888.247130,-9622.677246,-229.828649
969.477931,444.123565,-9178.553681,-612.876398
969.478255,962.267725,-9474.636058,0.000000
969.478579,1702.473667,-9548.656652,0.000000
969.478903,2368.659014,-9992.780217,536.266849
969.479227,2072.576638,-10140.821405,1149.143247
969.479551,2072.576638,-9030.512492,1608.800546
969.479875,1406.391290,-9252.574275,1532.190996
969.480199,740.205942,-9548.656652,612.876398
969.480523,0.000000,-9474.636058,-383.047749
969.480847,-962.267725,-9252.574275,-459.657299
969.481171,-148.041188,-8216.285956,-306.438199
969.481495,814.226536,-7994.224174,0.000000
969.481819,1036.288319,-7846.182985,612.876398
969.482143,1258.350101,-8734.430116,1991.848295
969.482467,444.123565,-9548.656652,0.000000
969.482791,0.000000,-9474.636058,0.000000
969.483116,74.020594,-9474.636058,612.876398
969.483440,1036.288319,-9548.656652,459.657299
969.483764,1998.556043,-9400.615463,919.314598
969.484088,1776.494261,-10362.883188,919.314598
969.484412,1036.288319,-10066.800811,306.438199
969.484736,962.267725,-9474.636058,-612.876398
969.485060,-222.061783,-9918.759623,-536.266849
969.485384,222.061783,-9474.636058,-459.657299
969.485708,592.164754,-9770.718434,-383.047749
969.486032,222.061783,-9770.718434,-306.438199
969.486356,-518.144159,-9548.656652,76.609550
969.486680,222.061783,-10066.800811,0.000000
969.487004,296.082377,-10436.903782,-153.219100
969.487328,-518.144159,-10214.842000,-153.219100
969.487652,-1554.432478,-9918.759623,-995.924147
969.487976,-2368.659014,-9400.615463,-1225.752797
969.488300,-2294.638420,-9622.677246,-842.705048
969.488624,-814.226536,-9992.780217,-689.485948
969.488948,0.000000,-10288.862594,0.000000
969.489272,-222.061783,-10214.842000,-842.705048
969.489596,148.041188,-10214.842000,0.000000
969.489920,222.061783,-10066.800811,-306.438199
969.490244,814.226536,-10510.924376,-689.485948
969.490568,222.061783,-10732.986159,-153.219100
969.490892,-962.267725,-10955.047942,-995.924147
969.491216,-1776.494261,-10362.883188,-1455.581446
969.491540,-1406.391290,-9844.739029,76.609550
969.491864,-148.041188,-10362.883188,229.828649
969.492188,740.205942,-10658.965565,766.095498
969.492512,296.082377,-10362.883188,229.828649
969.492836,-1110.308913,-9548.656652,-153.219100
969.493160,-1480.411884,-8660.409521,-153.219100
969.493484,-592.164754,-8734.430116,-689.485948
969.493808,74.020594,-9104.533087,0.000000
969.494132,-740.205942,-8808.450710,76.609550
969.494456,-1776.494261,-8956.491898,-536.266849
969.494780,-2368.659014,-7994.224174,-306.438199
969.495104,-1258.350101,-8290.306550,0.000000
969.495428,148.041188,-9178.553681,-153.219100
969.495752,888.247130,-8364.327145,306.438199
969.496076,1036.288319,-7920.203579,1302.362347
969.496400,1554.432478,-9252.574275,1991.848295
969.496724,2442.679609,-9770.718434,1838.629195
969.497048,2664.741391,-9252.574275,1762.019645
969.497372,1850.514855,-8660.409521,1149.143247
969.497696,0.000000,-9030.512492,459.657299
969.498020,-888.247130,-9918.759623,0.000000
969.498344,-740.205942,-9548.656652,153.219100
969.498668,74.020594,-9030.512492,-1302.362347
969.498992,666.185348,-8734.430116,-919.314598
969.499316,592.164754,-9104.533087,-153.219100
969.499640,740.205942,-10510.924376,306.438199
969.499964,962.267725,-10881.027347,459.657299
969.500288,370.102971,-9844.739029,689.485948
969.500612,370.102971,-10214.842000,229.828649
969.500936,0.000000,-9474.636058,-306.438199
969.501260,0.000000,-9992.780217,153.219100
969.501584,0.000000,-10362.883188,153.219100
969.501908,370.102971,-10807.006753,459.657299
969.502232,1036.288319,-10732.986159,-612.876398
969.502556,518.144159,-9474.636058,-612.876398
969.502880,222.061783,-9400.615463,-1149.143247
969.503204,370.102971,-11103.089130,-1378.971896
969.503528,0.000000,-11473.192101,-1072.533697
969.503852,0.000000,-10955.047942,-1455.581446
969.504177,740.205942,-9696.697840,-919.314598
969.504501,814.226536,-10140.821405,-766.095498
969.504825,888.247130,-11029.068536,-995.924147
969.505149,444.123565,-11325.150913,-306.438199
969.505473,148.041188,-11251.130318,-689.485948
969.505797,-444.123565,-10214.842000,-1532.190996
969.506121,-296.082377,-9770.718434,-306.438199
969.506445,-962.267725,-9326.594869,-842.705048
969.506769,-1332.370696,-9474.636058,-842.705048
969.507093,-1184.329507,-9696.697840,-1378.971896
969.507417,-962.267725,-9178.553681,-1838.629195
969.507741,-814.226536,-9178.553681,-1072.533697
969.508065,-1406.391290,-9400.615463,-1072.533697
969.508389,-1850.514855,-9548.656652,-1532.190996
969.508713,-2294.638420,-8956.491898,-919.314598
969.509037,-1406.391290,-9178.553681,-1608.800546
969.509361,-444.123565,-9474.636058,0.000000
969.509685,0.000000,-9178.553681,-612.876398
969.510009,-296.082377,-8734.430116,-229.828649
969.510333,-222.061783,-9178.553681,459.657299
969.510657,740.205942,-9622.677246,306.438199
969.510981,1036.288319,-9326.594869,-229.828649
969.511305,148.041188,-7920.203579,459.657299
969.511629,74.020594,-8660.409521,229.828649
969.511953,148.041188,-8734.430116,-612.876398
969.512277,-296.082377,-9104.533087,76.609550
969.512601,-518.144159,-9252.574275,0.000000
969.512925,0.000000,-8956.491898,229.828649
969.513250,370.102971,-8734.430116,0.000000
969.513574,370.102971,-9252.574275,1072.533697
969.513898,740.205942,-9918.759623,1225.752797
969.514222,1554.432478,-9474.636058,612.876398
969.514546,1332.370696,-9252.574275,459.657299
969.514870,666.185348,-8956.491898,919.314598
969.515194,296.082377,-10214.842000,383.047749
969.515518,-296.082377,-9770.718434,919.314598
969.515842,148.041188,-9252.574275,76.609550
969.516166,74.020594,-9030.512492,229.828649
969.516490,-518.144159,-10288.862594,306.438199
969.516814,-666.185348,-10584.944971,919.314598
969.517138,-518.144159,-10584.944971,76.609550
969.517462,-148.041188,-9918.759623,-229.828649
969.517786,370.102971,-10214.842000,0.000000
969.518110,888.247130,-10807.006753,306.438199
969.518434,0.000000,-11177.109724,842.705048
969.518758,-740.205942,-10584.944971,229.828649
969.519082,-1184.329507,-9696.697840,-153.219100
969.519406,-592.164754,-10436.903782,-766.095498
969.519730,-370.102971,-10214.842000,-612.876398
969.520054,-444.123565,-9918.759623,-689.485948
969.520378,-1406.391290,-9548.656652,-536.266849
969.520702,-1554.432478,-9548.656652,-306.438199
969.521026,-444.123565,-10807.006753,842.705048
969.521350,962.267725,-10436.903782,536.266849
969.521674,2516.700203,-9696.697840,76.609550
969.521999,2442.679609,-10658.965565,1455.581446
969.522323,2072.576638,-10955.047942,612.876398
969.522647,1628.453072,-9918.759623,153.219100
969.522971,666.185348,-8808.450710,153.219100
969.523295,0.000000,-9030.512492,-153.219100
969.523619,-370.102971,-10140.821405,-995.924147
969.523943,-1332.370696,-9400.615463,-919.314598
969.524267,-1258.350101,-8808.450710,-612.876398
969.524591,-888.247130,-8734.430116,-1225.752797
969.524915,-962.267725,-9622.677246,153.219100
969.525239,-1036.288319,-10288.862594,766.095498
969.525563,-1406.391290,-10214.842000,76.609550
969.525887,-1480.411884,-9030.512492,0.000000
969.526211,-888.247130,-8956.491898,306.438199
969.526535,222.061783,-10066.800811,0.000000
969.526859,888.247130,-9844.739029,689.485948
969.527183,666.185348,-9548.656652,919.314598
969.527507,-444.123565,-9770.718434,842.705048
969.527831,-222.061783,-9252.574275,0.000000
969.528155,74.020594,-9030.512492,-459.657299
969.528479,-222.061783,-9178.553681,-766.095498
969.528803,-740.205942,-8734.430116,-1072.533697
969.529127,-1332.370696,-9252.574275,-612.876398
969.529451,-444.123565,-8956.491898,-306.438199
969.529775,444.123565,-9030.512492,0.000000
969.530099,814.226536,-8734.430116,0.000000
969.530423,814.226536,-8660.409521,0.000000
969.530748,148.041188,-9474.636058,842.705048
969.531072,888.247130,-9474.636058,919.314598
969.531396,962.267725,-8438.347739,1302.362347
969.531720,370.102971,-9104.533087,1149.143247
969.532044,-518.144159,-9474.636058,76.609550
969.532368,-1184.329507,-9992.780217,0.000000
969.532692,-1480.411884,-9548.656652,76.609550
969.533016,-1036.288319,-8734.430116,-459.657299
969.533340,-148.041188,-9252.574275,-1685.410096
969.533664,74.020594,-9474.636058,-383.047749
969.533988,0.000000,-10584.944971,76.609550
969.534312,-296.082377,-11103.089130,-229.828649
969.534636,74.020594,-10288.862594,-459.657299
969.534960,1110.308913,-9992.780217,459.657299
969.535284,2294.638420,-10881.027347,153.219100
969.535608,2368.659014,-11325.150913,1149.143247
969.535932,1332.370696,-11695.253884,306.438199
969.536256,592.164754,-10955.047942,842.705048
969.536580,296.082377,-10510.924376,153.219100
969.536904,888.247130,-9844.739029,-306.438199
969.537228,1184.329507,-9622.677246,-383.047749
969.537552,148.041188,-9844.739029,-1838.629195
969.537876,-814.226536,-9548.656652,-1302.362347
969.538200,-814.226536,-9474.636058,-919.314598
969.538524,444.123565,-9844.739029,-1685.410096
969.538848,0.000000,-8734.430116,-919.314598
969.539172,-740.205942,-9104.533087,-995.924147
969.539497,-888.247130,-10362.883188,-995.924147
969.539821,0.000000,-10066.800811,-612.876398
969.540145,888.247130,-9844.739029,-153.219100
969.540469,592.164754,-9400.615463,1302.362347
969.540793,148.041188,-9326.594869,-229.828649
969.541117,-1184.329507,-9696.697840,-1149.143247
969.541441,-1998.556043,-9844.739029,-612.876398
969.541765,-2146.597232,-10658.965565,-1838.629195
969.542089,-1776.494261,-10436.903782,-1991.848295
969.542413,-1776.494261,-9474.636058,-766.095498
969.542737,-962.267725,-10140.821405,-536.266849
969.543061,0.000000,-10732.986159,-306.438199
969.543385,962.267725,-9696.697840,-459.657299
969.543709,1110.308913,-9622.677246,0.000000
969.544033,370.102971,-9770.718434,153.219100
969.544357,-518.144159,-9992.780217,76.609550
969.544681,-962.267725,-10214.842000,536.266849
969.545005,-222.061783,-9178.553681,306.438199
969.545329,148.041188,-9178.553681,-153.219100
969.545653,-444.123565,-9030.512492,-153.219100
969.545977,-2220.617826,-9030.512492,-153.219100
969.546301,-2146.597232,-9770.718434,0.000000
969.546625,-1036.288319,-9252.574275,842.705048
969.546949,666.185348,-8216.285956,612.876398
969.547273,1702.473667,-8290.306550,383.047749
969.547597,1480.411884,-8364.327145,995.924147
969.547921,1184.329507,-9252.574275,995.924147
969.548245,1702.473667,-9622.677246,1072.533697
969.548570,1850.514855,-8660.409521,919.314598
969.548894,1480.411884,-8512.368333,612.876398
969.549218,814.226536,-9252.574275,919.314598
969.549542,518.144159,-10362.883188,612.876398
969.549866,296.082377,-10658.965565,1072.533697
969.550190,0.000000,-9622.677246,1302.362347
969.550514,-370.102971,-9326.594869,536.266849
969.550838,0.000000,-9030.512492,1149.143247
969.551162,-148.041188,-9326.594869,995.924147
969.551486,-222.061783,-10140.821405,612.876398
969.551810,-296.082377,-10214.842000,306.438199
969.552134,0.000000,-9770.718434,689.485948
969.552458,518.144159,-9104.533087,689.485948
969.552782,444.123565,-9252.574275,383.047749
969.553106,740.205942,-10214.842000,229.828649
969.553430,148.041188,-10510.924376,-153.219100
969.553754,962.267725,-9770.718434,-306.438199
969.554078,814.226536,-9992.780217,459.657299
969.554402,962.267725,-10436.903782,612.876398
969.554726,74.020594,-10955.047942,-383.047749
969.555050,-592.164754,-10658.965565,-919.314598
969.555374,-1036.288319,-10140.821405,0.000000
969.555698,-740.205942,-10510.924376,-1225.752797
969.556022,-370.102971,-10436.903782,-306.438199
969.556346,-1184.329507,-9844.739029,1072.533697
969.556670,-1184.329507,-10510.924376,612.876398
969.556994,-740.205942,-10140.821405,-229.828649
969.557319,296.082377,-9252.574275,-536.266849
969.557643,666.185348,-8882.471304,0.000000
969.557967,-592.164754,-8882.471304,-536.266849
969.558291,-1332.370696,-9178.553681,-842.705048
969.558615,-1998.556043,-9622.677246,0.000000
969.558939,-2664.741391,-9400.615463,-1225.752797
969.559263,-2072.576638,-8956.491898,-1608.800546
969.559587,-1924.535449,-8660.409521,-919.314598
969.559911,-1480.411884,-10214.842000,-153.219100
969.560235,-370.102971,-10881.027347,-459.657299
969.560559,1480.411884,-9178.553681,0.000000
969.560883,2368.659014,-9326.594869,919.314598
969.561207,2738.761985,-10658.965565,306.438199
969.561531,1924.535449,-11029.068536,-383.047749
969.561855,1110.308913,-10436.903782,-229.828649
969.562179,370.102971,-9770.718434,-153.219100
969.562503,0.000000,-10881.027347,-1378.971896
969.562827,-518.144159,-10140.821405,-1838.629195
969.563151,-1702.473667,-9030.512492,-1532.190996
969.563475,-1554.432478,-9918.759623,-1532.190996
969.563799,-962.267725,-9844.739029,-1455.581446
969.564123,-888.247130,-9622.677246,-1225.752797
969.564447,-888.247130,-9326.594869,-689.485948
969.564771,518.144159,-8882.471304,-383.047749
969.565095,1110.308913,-9844.739029,0.000000
969.565419,1036.288319,-10436.903782,689.485948
969.565743,1406.391290,-9326.594869,842.705048
969.566068,1628.453072,-8660.409521,0.000000
969.566392,1406.391290,-8290.306550,-229.828649
969.566716,148.041188,-9030.512492,459.657299
969.567040,74.020594,-10510.924376,153.219100
969.567364,296.082377,-9844.739029,842.705048
969.567688,1110.308913,-9400.615463,612.876398
969.568012,1480.411884,-8438.347739,153.219100
969.568336,1406.391290,-8586.388927,766.095498
969.568660,888.247130,-9474.636058,689.485948
969.568984,370.102971,-10066.800811,995.924147
969.569308,148.041188,-9622.677246,612.876398
969.569632,-148.041188,-9104.533087,306.438199
969.569956,-222.061783,-9104.533087,842.705048
969.570280,0.000000,-10066.800811,306.438199
969.570604,0.000000,-11103.089130,0.000000
969.570928,0.000000,-9326.594869,153.219100
969.571252,444.123565,-9770.718434,0.000000
969.571576,444.123565,-9622.677246,306.438199
969.571900,-592.164754,-9770.718434,153.219100
969.572224,-1628.453072,-9770.718434,-306.438199
969.572548,-1850.514855,-9474.636058,-383.047749
969.572872,-1110.308913,-9844.739029,306.438199
969.573196,148.041188,-9696.697840,383.047749
969.573520,222.061783,-9548.656652,229.828649
969.573844,0.000000,-9548.656652,383.047749
969.574168,0.000000,-9844.739029,0.000000
969.574492,-444.123565,-9844.739029,0.000000
969.574816,0.000000,-9696.697840,153.219100
969.575141,-148.041188,-9252.574275,612.876398
969.575465,-148.041188,-9474.636058,76.609550
969.575789,-814.226536,-9474.636058,383.047749
969.576113,-592.164754,-10510.924376,-459.657299
969.576437,-740.205942,-9770.718434,-1762.019645
969.576761,-1480.411884,-8882.471304,-842.705048
969.577085,-1628.453072,-10658.965565,0.000000
969.577409,-1554.432478,-12139.377449,0.000000
969.577733,-1628.453072,-10584.944971,383.047749
969.578057,-1184.329507,-9178.553681,306.438199
969.578381,-518.144159,-9696.697840,-459.657299
969.578705,-74.020594,-10288.862594,-153.219100
969.579029,592.164754,-10584.944971,383.047749
969.579353,1332.370696,-10510.924376,689.485948
969.579677,1480.411884,-9918.759623,0.000000
969.580001,962.267725,-10140.821405,0.000000
969.580325,-592.164754,-10658.965565,229.828649
969.580649,-592.164754,-11325.150913,-459.657299
969.580973,-1036.288319,-9918.759623,-612.876398
969.581297,-814.226536,-8882.471304,383.047749
969.581621,370.102971,-8586.388927,76.609550
969.581945,1628.453072,-8586.388927,306.438199
969.582269,1702.473667,-8734.430116,1532.190996
969.582593,814.226536,-8956.491898,1225.752797
969.582917,962.267725,-8660.409521,995.924147
969.583241,592.164754,-8364.327145,1149.143247
969.583565,0.000000,-7920.203579,612.876398
969.583890,-962.267725,-7846.182985,0.000000
969.584214,-2072.576638,-9252.574275,-919.314598
969.584538,-1406.391290,-9030.512492,-689.485948
969.584862,0.000000,-9622.677246,229.828649
969.585186,148.041188,-9400.615463,153.219100
969.585510,0.000000,-8216.285956,0.000000
969.585834,0.000000,-8882.471304,612.876398
969.586158,814.226536,-10362.883188,766.095498
969.586482,2146.597232,-10658.965565,689.485948
969.586806,1850.514855,-9992.780217,766.095498
969.587130,1184.329507,-8290.306550,459.657299
969.587454,592.164754,-9326.594869,-383.047749
969.587778,-592.164754,-10362.883188,-995.924147
969.588102,-444.123565,-9918.759623,-612.876398
969.588426,0.000000,-10066.800811,-995.924147
969.588750,222.061783,-9622.677246,-1378.971896
969.589074,-518.144159,-9326.594869,-1072.533697
969.589398,-296.082377,-10066.800811,-1608.800546
969.589722,444.123565,-9918.759623,-842.705048
969.590046,814.226536,-10066.800811,-689.485948
969.590370,1036.288319,-10436.903782,-229.828649
969.590694,888.247130,-10362.883188,153.219100
969.591018,296.082377,-11399.171507,153.219100
969.591342,74.020594,-11103.089130,0.000000
969.591666,-296.082377,-10584.944971,-612.876398
969.591990,148.041188,-10214.842000,-1225.752797
969.592314,74.020594,-9918.759623,-383.047749
969.592639,-518.144159,-10584.944971,153.219100
969.592963,-592.164754,-10214.842000,-153.219100
969.593287,-1554.432478,-9770.718434,-612.876398
969.593611,-1406.391290,-9844.739029,-1225.752797
969.593935,-592.164754,-9252.574275,-995.924147
969.594259,-444.123565,-9918.759623,76.609550
969.594583,-888.247130,-10658.965565,-306.438199
969.594907,-1332.370696,-9474.636058,0.000000
969.595231,-1110.308913,-8734.430116,-536.266849
969.595555,-444.123565,-9326.594869,-919.314598
969.595879,0.000000,-8956.491898,0.000000
969.596203,296.082377,-9770.718434,229.828649
969.596527,0.000000,-9622.677246,306.438199
969.596851,-222.061783,-9400.615463,229.828649
969.597175,0.000000,-8512.368333,-536.266849
969.597499,0.000000,-7846.182985,-689.485948
969.597823,-592.164754,-8956.491898,-1149.143247
969.598147,-1554.432478,-9548.656652,-1225.752797
969.598471,-1332.370696,-9696.697840,-612.876398
969.598795,-814.226536,-9918.759623,536.266849
969.599119,518.144159,-9104.533087,383.047749
969.599443,1258.350101,-9326.594869,0.000000
969.599767,814.226536,-10066.800811,-229.828649
969.600091,1036.288319,-9474.636058,536.266849
969.600415,2368.659014,-10140.821405,612.876398
969.600739,2072.576638,-9992.780217,536.266849
969.601063,1258.350101,-9030.512492,1685.410096
969.601388,0.000000,-9326.594869,0.000000
969.601712,-1036.288319,-9104.533087,-766.095498
969.602036,-740.205942,-9696.697840,-536.266849
969.602360,0.000000,-9696.697840,-919.314598
969.602684,0.000000,-9030.512492,-995.924147
969.603008,148.041188,-8956.491898,-153.219100
969.603332,444.123565,-9474.636058,76.609550
969.603656,370.102971,-10288.862594,76.609550
969.603980,518.144159,-10732.986159,76.609550
969.604304,1258.350101,-10584.944971,995.924147
969.604628,2146.597232,-10955.047942,2145.067394
969.604952,2146.597232,-10955.047942,1532.190996
969.605276,1036.288319,-9548.656652,919.314598
969.605600,0.000000,-10436.903782,536.266849
969.605924,-296.082377,-10436.903782,459.657299
969.606248,0.000000,-10140.821405,0.000000
969.606572,-1110.308913,-9548.656652,306.438199
969.606896,-2072.576638,-9178.553681,612.876398
969.607220,-1924.535449,-9622.677246,76.609550
969.607544,-1110.308913,-9918.759623,0.000000
969.607869,-1110.308913,-8808.450710,612.876398
969.608193,-1258.350101,-8438.347739,383.047749
969.608517,-814.226536,-8660.409521,766.095498
969.608841,0.000000,-8956.491898,919.314598
969.609165,296.082377,-8808.450710,459.657299
969.609489,222.061783,-8142.265362,766.095498
969.609813,0.000000,-8882.471304,536.266849
969.610137,0.000000,-9622.677246,383.047749
969.610461,0.000000,-8734.430116,1225.752797
969.610785,-148.041188,-8586.388927,459.657299
969.611109,-1110.308913,-8808.450710,-306.438199
969.611433,-2072.576638,-10140.821405,0.000000
969.611757,-2146.597232,-11103.089130,-306.438199
969.612081,-2368.659014,-10362.883188,0.000000
969.612405,-2072.576638,-9622.677246,76.609550
969.612729,-666.185348,-9252.574275,0.000000
969.613053,148.041188,-9474.636058,0.000000
969.613377,74.020594,-9918.759623,-612.876398
969.613702,0.000000,-10288.862594,-383.047749
969.614026,0.000000,-10584.944971,-229.828649
969.614350,740.205942,-10658.965565,-1072.533697
969.614674,592.164754,-9474.636058,-1685.410096
969.614998,-444.123565,-10288.862594,-1302.362347
969.615322,-444.123565,-10807.006753,-1991.848295
969.615646,222.061783,-10807.006753,-842.705048
969.615970,1036.288319,-10955.047942,0.000000
969.616294,2072.576638,-10066.800811,0.000000
969.616618,1406.391290,-9474.636058,-612.876398
969.616942,0.000000,-9992.780217,-842.705048
969.617266,-222.061783,-10066.800811,-1072.533697
969.617590,740.205942,-10510.924376,-919.314598
969.617914,518.144159,-9474.636058,-306.438199
969.618238,-222.061783,-8290.306550,766.095498
969.618562,0.000000,-8808.450710,0.000000
969.618886,592.164754,-8660.409521,-536.266849
969.619210,592.164754,-8956.491898,0.000000
969.619535,962.267725,-9622.677246,0.000000
969.619859,1036.288319,-8882.471304,383.047749
969.620183,814.226536,-9030.512492,766.095498
969.620507,518.144159,-9178.553681,612.876398
969.620831,444.123565,-9770.718434,0.000000
969.621155,0.000000,-9696.697840,-842.705048
969.621479,0.000000,-9104.533087,0.000000
969.621803,666.185348,-9474.636058,536.266849
969.622127,1258.350101,-9326.594869,536.266849
969.622451,518.144159,-8364.327145,689.485948
969.622775,148.041188,-8808.450710,536.266849
969.623099,0.000000,-8586.388927,0.000000
969.623423,666.185348,-9474.636058,0.000000
969.623747,0.000000,-10140.821405,383.047749
969.624071,-740.205942,-9474.636058,76.609550
969.624395,-1332.370696,-8438.347739,306.438199
969.624719,-2294.638420,-9918.759623,229.828649
969.625043,-1850.514855,-9770.718434,-536.266849
969.625367,-1258.350101,-9326.594869,-689.485948
969.625692,-1184.329507,-10807.006753,536.266849
969.626016,0.000000,-10881.027347,919.314598
969.626340,814.226536,-10881.027347,842.705048
969.626664,370.102971,-9992.780217,995.924147
969.626988,-814.226536,-9770.718434,76.609550
969.627312,-1406.391290,-10881.027347,-612.876398
969.627636,-592.164754,-10955.047942,-229.828649
969.627960,-962.267725,-11029.068536,459.657299
969.628284,-592.164754,-10807.006753,612.876398
969.628608,0.000000,-10436.903782,842.705048
969.628932,-222.061783,-10584.944971,76.609550
969.629256,-962.267725,-10584.944971,-76.609550
969.629580,-1332.370696,-9992.780217,383.047749
969.629904,-814.226536,-9918.759623,76.609550
969.630228,-444.123565,-9474.636058,459.657299
969.630552,-296.082377,-9252.574275,-459.657299
969.630876,-666.185348,-9400.615463,-153.219100
969.631200,-666.185348,-9030.512492,-306.438199
969.631525,0.000000,-9474.636058,-306.438199
969.631849,1036.288319,-9030.512492,306.438199
969.632173,1036.288319,-9474.636058,766.095498
969.632497,0.000000,-9474.636058,0.000000
969.632821,222.061783,-9104.533087,306.438199
969.633145,888.247130,-9622.677246,306.438199
969.633469,1702.473667,-9992.780217,153.219100
969.633793,1184.329507,-9252.574275,76.609550
969.634117,0.000000,-8808.450710,306.438199
969.634441,518.144159,-9178.553681,612.876398
969.634765,1258.350101,-9178.553681,766.095498
969.635089,666.185348,-9474.636058,153.219100
969.635413,-370.102971,-8734.430116,-306.438199
969.635737,-1924.535449,-9030.512492,0.000000
969.636061,-1258.350101,-9104.533087,-766.095498
969.636385,-740.205942,-8956.491898,383.047749
969.636709,-148.041188,-9474.636058,536.266849
969.637033,74.020594,-8956.491898,-536.266849
969.637358,592.164754,-9030.512492,536.266849
969.637682,1480.411884,-9622.677246,536.266849
969.638006,1110.308913,-9770.718434,1762.019645
969.638330,740.205942,-9474.636058,-229.828649
969.638654,74.020594,-8438.347739,-1072.533697
969.638978,-296.082377,-8734.430116,-383.047749
969.639302,444.123565,-10955.047942,-842.705048
969.639626,1184.329507,-10288.862594,-383.047749
969.639950,1406.391290,-9474.636058,689.485948
969.640274,2590.720797,-9252.574275,-76.609550
969.640598,3182.885551,-9696.697840,-383.047749
969.640922,1110.308913,-10214.842000,-612.876398
969.641246,-370.102971,-11029.068536,-229.828649
969.641570,-666.185348,-11251.130318,0.000000
969.641894,-740.205942,-10732.986159,-766.095498
969.642218,-1332.370696,-9326.594869,-383.047749
969.642542,-1998.556043,-8882.471304,-919.314598
969.642866,-2516.700203,-10214.842000,-1915.238745
969.643191,-1702.473667,-10955.047942,-842.705048
969.643515,-962.267725,-10436.903782,-1149.143247
969.643839,-370.102971,-9622.677246,-536.266849
969.644163,-296.082377,-9622.677246,0.000000
969.644487,-148.041188,-11029.068536,-229.828649
969.644811,-148.041188,-11473.192101,229.828649
969.645135,-370.102971,-11695.253884,306.438199
969.645459,-370.102971,-11177.109724,-383.047749
969.645783,74.020594,-10288.862594,-76.609550
969.646107,-148.041188,-10066.800811,76.609550
969.646431,-1036.288319,-10288.862594,383.047749
969.646755,-888.247130,-10140.821405,-229.828649
969.647079,-592.164754,-9918.759623,0.000000
969.647403,-222.061783,-8808.450710,76.609550
969.647727,-296.082377,-8290.306550,76.609550
969.648051,-592.164754,-8660.409521,-612.876398
969.648375,0.000000,-9178.553681,-153.219100
969.648699,148.041188,-8882.471304,-459.657299
969.649024,74.020594,-8956.491898,-536.266849
969.649348,-444.123565,-8882.471304,0.000000
969.649672,-370.102971,-9030.512492,76.609550
969.649996,148.041188,-9178.553681,-383.047749
969.650320,1554.432478,-10362.883188,612.876398
969.650644,1998.556043,-9696.697840,459.657299
969.650968,2072.576638,-9400.615463,689.485948
969.651292,2072.576638,-9622.677246,995.924147
969.651616,814.226536,-9992.780217,766.095498
969.651940,-518.144159,-9696.697840,0.000000
969.652264,-1850.514855,-9104.533087,-842.705048
969.652588,-2368.659014,-7698.141797,-1532.190996
969.652912,-2146.597232,-8216.285956,-1915.238745
969.653236,-1628.453072,-8956.491898,-1915.238745
969.653560,-1110.308913,-8586.388927,-536.266849
969.653884,-148.041188,-8734.430116,0.000000
969.654208,814.226536,-8216.285956,0.000000
969.654532,1406.391290,-8364.327145,536.266849
969.654857,1702.473667,-9252.574275,383.047749
969.655181,1998.556043,-9548.656652,306.438199
969.655505,2590.720797,-10214.842000,153.219100
969.655829,3404.947333,-9992.780217,842.705048
969.656153,3034.844362,-10140.821405,842.705048
969.656477,1110.308913,-11325.150913,229.828649
969.656801,0.000000,-11103.089130,383.047749
969.657125,0.000000,-10362.883188,-306.438199
969.657449,-1184.329507,-10436.903782,-612.876398
969.657773,-1110.308913,-9622.677246,-306.438199
969.658097,-1036.288319,-9770.718434,-306.438199
969.658421,-1554.432478,-10436.903782,-612.876398
969.658745,-2294.638420,-10881.027347,306.438199
969.659069,-2072.576638,-11843.295072,76.609550
969.659393,-2220.617826,-10362.883188,-689.485948
969.659717,-1924.535449,-8956.491898,536.266849
969.660041,-1036.288319,-9104.533087,0.000000
969.660365,0.000000,-9696.697840,-306.438199
969.660690,740.205942,-10436.903782,76.609550
969.661014,1184.329507,-9548.656652,459.657299
969.661338,2146.597232,-8512.368333,459.657299
969.661662,2368.659014,-8734.430116,0.000000
969.661986,1554.432478,-9178.553681,-766.095498
969.662310,0.000000,-9548.656652,-842.705048
969.662634,0.000000,-10066.800811,-1378.971896
969.662958,-74.020594,-9992.780217,-1149.143247
969.663282,-666.185348,-9548.656652,-306.438199
969.663606,-740.205942,-9918.759623,0.000000
969.663930,666.185348,-9770.718434,0.000000
969.664254,2738.761985,-9326.594869,-459.657299
969.664578,3182.885551,-8586.388927,-919.314598
969.664902,2368.659014,-8586.388927,-229.828649
969.665226,1406.391290,-9474.636058,-1302.362347
969.665550,1184.329507,-9178.553681,-1915.238745
969.665874,296.082377,-9400.615463,-2451.505594
969.666198,-370.102971,-9844.739029,-2911.162892
969.666523,-296.082377,-9844.739029,-3600.648841
969.666847,0.000000,-9918.759623,-3524.039291
969.667171,-222.061783,-9400.615463,-2987.772442
969.667495,666.185348,-9474.636058,-3064.381992
969.667819,2072.576638,-9992.780217,-2834.553343
969.668143,3552.988522,-9992.780217,-2145.067394
969.668467,4737.318029,-9326.594869,-1072.533697
969.668791,6217.729913,-9474.636058,306.438199
969.669115,6513.812290,-9844.739029,-383.047749
969.669439,5847.626942,-9178.553681,-766.095498
969.669763,4959.379811,-9104.533087,-1302.362347
969.670087,4071.132681,-9400.615463,-3217.601092
969.670411,740.205942,-10214.842000,-4443.353888
969.670735,-1924.535449,-9844.739029,-4596.572988
969.671059,-2368.659014,-9918.759623,-5439.278036
969.671383,-1110.308913,-9326.594869,-5362.668486
969.671707,444.123565,-8808.450710,-5209.449386
969.672031,2442.679609,-8882.471304,-4826.401637
969.672355,3034.844362,-9252.574275,-3830.477490
969.672680,4219.173869,-9844.739029,-1685.410096
969.673004,4811.338623,-10584.944971,-1378.971896
969.673328,5847.626942,-11029.068536,-383.047749
969.673652,5995.668130,-11473.192101,536.266849
969.673976,5551.544565,-12139.377449,0.000000
969.674300,4737.318029,-11917.315666,-1072.533697
969.674624,2960.823768,-11103.089130,-1149.143247
969.674948,592.164754,-11177.109724,-2834.553343
969.675272,-962.267725,-9992.780217,-3983.696590
969.675596,-2146.597232,-8142.265362,-3600.648841
969.675920,-2220.617826,-8734.430116,-4673.182538
969.676244,-1998.556043,-8956.491898,-4673.182538
969.676568,-592.164754,-7328.038826,-4290.134789
969.676892,666.185348,-7402.059420,-2834.553343
969.677216,3108.864956,-8882.471304,-1302.362347
969.677540,5625.565159,-8660.409521,-1225.752797
969.677864,6661.853478,-8808.450710,612.876398
969.678188,5773.606348,-10140.821405,689.485948
969.678513,5699.585753,-11325.150913,-842.705048
969.678837,3849.070898,-11029.068536,-383.047749
969.679161,1702.473667,-10658.965565,-842.705048
969.679485,296.082377,-9918.759623,-2528.115143
969.679809,-740.205942,-9030.512492,-2987.772442
969.680133,-1924.535449,-9252.574275,-3677.258390
969.680457,-1628.453072,-8512.368333,-3677.258390
969.680781,-1036.288319,-8364.327145,-4136.915689
969.681105,-1184.329507,-9548.656652,-2834.553343
969.681429,74.020594,-9178.553681,-2298.286494
969.681753,1628.453072,-9178.553681,-1685.410096
969.682077,1850.514855,-10140.821405,-1302.362347
969.682401,2368.659014,-9622.677246,-1225.752797
969.682725,3108.864956,-9474.636058,-1378.971896
969.683049,3552.988522,-11325.150913,76.609550
969.683373,3256.906145,-11917.315666,-229.828649
969.683697,3034.844362,-10214.842000,-1378.971896
969.684021,518.144159,-9104.533087,-1915.238745
969.684346,-1258.350101,-9696.697840,-2604.724693
969.684670,-1110.308913,-9548.656652,-3753.867940
969.684994,-222.061783,-8808.450710,-2911.162892
969.685318,0.000000,-7328.038826,-2451.505594
969.685642,1258.350101,-8734.430116,-2298.286494
969.685966,3034.844362,-9696.697840,-1762.019645
969.686290,4219.173869,-8956.491898,-2221.676944
969.686614,2664.741391,-8216.285956,-2068.457845
969.686938,2072.576638,-9918.759623,-919.314598
969.687262,3775.050304,-11473.192101,-1455.581446
969.687586,5181.441594,-10584.944971,-842.705048
969.687910,3923.091493,-9622.677246,-1532.190996
969.688234,3404.947333,-9918.759623,-1915.238745
969.688558,4071.132681,-11103.089130,-1915.238745
969.688882,4145.153275,-10955.047942,-1685.410096
969.689206,3330.926739,-9474.636058,-1838.629195
969.689530,1184.329507,-8734.430116,-1991.848295
969.689854,296.082377,-9918.759623,-2221.676944
969.690179,962.267725,-10214.842000,-1455.581446
969.690503,2072.576638,-9104.533087,-1685.410096
969.690827,2368.659014,-9030.512492,-1608.800546
969.691151,2294.638420,-9770.718434,-1225.752797
969.691475,2960.823768,-9104.533087,-689.485948
969.691799,4663.297435,-7624.121203,-1072.533697
969.692123,4663.297435,-8586.388927,-1838.629195
969.692447,2664.741391,-8808.450710,-1838.629195
969.692771,1776.494261,-8882.471304,-2068.457845
969.693095,1332.370696,-8586.388927,-2451.505594
969.693419,2220.617826,-9252.574275,-2681.334243
969.693743,2738.761985,-9104.533087,-2528.115143
969.694067,3182.885551,-8882.471304,-2451.505594
969.694391,3034.844362,-9030.512492,-2145.067394
969.694715,2368.659014,-9474.636058,-1762.019645
969.695039,2516.700203,-9474.636058,-1072.533697
969.695363,2368.659014,-9474.636058,-1455.581446
969.695687,3108.864956,-9622.677246,-1455.581446
969.696012,3701.029710,-9918.759623,-1455.581446
969.696336,2516.700203,-10288.862594,-1608.800546
969.696660,444.123565,-10658.965565,-1838.629195
969.696984,-1406.391290,-10436.903782,-2528.115143
969.697308,-1776.494261,-9622.677246,-2757.943793
969.697632,-518.144159,-8660.409521,-2911.162892
969.697956,592.164754,-9622.677246,-3370.820191
969.698280,666.185348,-11103.089130,-3753.867940
969.698604,-148.041188,-11325.150913,-3830.477490
969.698928,-370.102971,-10214.842000,-3600.648841
969.699252,592.164754,-9104.533087,-2987.772442
969.699576,2442.679609,-9548.656652,-2987.772442
969.699900,4219.173869,-10214.842000,-2221.676944
969.700224,4145.153275,-10881.027347,-3064.381992
969.700548,3627.009116,-11251.130318,-3140.991542
969.700872,2590.720797,-11621.233289,-3064.381992
969.701196,2072.576638,-11251.130318,-2834.553343
969.701520,888.247130,-10214.842000,-2834.553343
969.701845,-148.041188,-9474.636058,-4060.306139
969.702169,222.061783,-9474.636058,-3907.087040
969.702493,1480.411884,-9474.636058,-3600.648841
969.702817,2368.659014,-9992.780217,-2451.505594
969.703141,2738.761985,-10214.842000,-2298.286494
969.703465,1776.494261,-9252.574275,-2221.676944
969.703786,666.185348,-8438.347739,-2834.553343
969.704110,0.000000,-8734.430116,-2911.162892
969.704434,296.082377,-9918.759623,-2987.772442
969.704759,1480.411884,-10066.800811,-3140.991542
969.705083,2886.803174,-9696.697840,-2834.553343
969.705407,4441.235652,-9548.656652,-2221.676944
969.705731,5329.482782,-9474.636058,-2298.286494
969.706055,4737.318029,-9474.636058,-2757.943793
969.706379,3627.009116,-9326.594869,-2221.676944
969.706703,2738.761985,-9326.594869,-2604.724693
969.707027,2368.659014,-9326.594869,-2145.067394
969.707351,2812.782580,-9400.615463,-1149.143247
969.707675,2812.782580,-9326.594869,-536.266849
969.707999,3108.864956,-9474.636058,0.000000
969.708323,3256.906145,-9400.615463,383.047749
969.708647,3627.009116,-9030.512492,536.266849
969.708971,2590.720797,-8142.265362,766.095498
969.709295,1554.432478,-7920.203579,153.219100
969.709619,1406.391290,-8808.450710,-842.705048
969.709943,74.020594,-9030.512492,-2374.896044
969.710267,-740.205942,-9252.574275,-3447.429741
969.710591,-1110.308913,-9178.553681,-3907.087040
969.710915,-740.205942,-9030.512492,-4213.525239
969.711239,1036.288319,-9252.574275,-2911.162892
969.711563,2590.720797,-9178.553681,-1685.410096
969.711887,4441.235652,-9622.677246,-995.924147
969.712211,5181.441594,-10436.903782,0.000000
969.712535,4959.379811,-10881.027347,842.705048
969.712859,4737.318029,-10510.924376,1532.190996
969.713183,4293.194464,-10881.027347,1915.238745
969.713507,3552.988522,-11251.130318,1455.581446
969.713831,2368.659014,-10955.047942,1072.533697
969.714155,740.205942,-10955.047942,-612.876398
969.714479,-1332.370696,-9992.780217,-2068.457845
969.714803,-2664.741391,-9474.636058,-3830.477490
969.715127,-3775.050304,-9178.553681,-5286.058936
969.715451,-4219.173869,-8808.450710,-6128.763984
969.715775,-3552.988522,-8216.285956,-6281.983084
969.716100,-1184.329507,-7846.182985,-5745.716235
969.716424,2072.576638,-7846.182985,-3753.867940
969.716748,5255.462188,-8808.450710,-1608.800546
969.717072,7698.141797,-9918.759623,-459.657299
969.717396,8068.244768,-10881.027347,689.485948
969.717720,7920.203579,-11991.336260,536.266849
969.718044,7031.956449,-12731.542202,153.219100
969.718368,5847.626942,-12657.521608,0.000000
969.718692,4367.215058,-12509.480420,-1072.533697
969.719016,1184.329507,-11695.253884,-2451.505594
969.719340,-1850.514855,-10955.047942,-4443.353888
969.719664,-4737.318029,-9622.677246,-5822.325785
969.719988,-6143.709319,-8142.265362,-7431.126331
969.720312,-6513.812290,-6735.874072,-7048.078582
969.720636,-4885.359217,-6661.853478,-5132.839837
969.720960,-2220.617826,-7772.162391,-2987.772442
969.721284,666.185348,-9030.512492,-1532.190996
969.721608,3034.844362,-9326.594869,-536.266849
969.721932,4737.318029,-9844.739029,612.876398
969.722256,5181.441594,-11843.295072,1149.143247
969.722580,5403.503377,-12953.603985,0.000000
969.722904,4663.297435,-10658.965565,-383.047749
969.723228,3182.885551,-10140.821405,-1608.800546
969.723552,2072.576638,-12361.439231,-2757.943793
969.723876,1184.329507,-12731.542202,-3140.991542
969.724200,1258.350101,-10510.924376,-3524.039291
969.724524,666.185348,-8882.471304,-3064.381992
969.724848,222.061783,-8142.265362,-3600.648841
969.725172,296.082377,-7328.038826,-3677.258390
969.725496,1554.432478,-6365.771101,-2374.896044
969.725820,3478.967927,-6217.729913,-1225.752797
969.726144,6217.729913,-7476.080014,0.000000
969.726468,7179.997637,-8290.306550,536.266849
969.726792,7550.100608,-8364.327145,689.485948
969.727116,6587.832884,-8660.409521,229.828649
969.727440,5107.421000,-9326.594869,-1225.752797
969.727765,2886.803174,-10066.800811,-2604.724693
969.728089,1406.391290,-10362.883188,-3524.039291
969.728413,2442.679609,-10362.883188,-3600.648841
969.728737,3330.926739,-10140.821405,-3677.258390
969.729061,3775.050304,-9326.594869,-2528.115143
969.729385,2516.700203,-8586.388927,-3524.039291
969.729709,2590.720797,-8808.450710,-3370.820191
969.730033,3256.906145,-8364.327145,-2604.724693
969.730357,3108.864956,-8216.285956,-1532.190996
969.730681,3256.906145,-8586.388927,-1072.533697
969.731005,3849.070898,-9474.636058,-995.924147
969.731329,3923.091493,-10510.924376,-995.924147
969.731653,3256.906145,-10658.965565,-1532.190996
969.731977,2072.576638,-10436.903782,-2911.162892
969.732301,1036.288319,-10510.924376,-3294.210641
969.732625,0.000000,-10807.006753,-4443.353888
969.732949,-1036.288319,-10658.965565,-5745.716235
969.733273,-1998.556043,-10288.862594,-6205.373534
969.733597,-2812.782580,-10510.924376,-6588.421283
969.733921,-2368.659014,-10066.800811,-6128.763984
969.734245,-740.205942,-10288.862594,-4826.401637
969.734569,740.205942,-9770.718434,-3677.258390
969.734893,3478.967927,-10436.903782,-2068.457845
969.735217,6069.688724,-11399.171507,-1225.752797
969.735541,7105.977043,-12435.459826,-612.876398
969.735865,6587.832884,-13175.665768,-459.657299
969.736189,4737.318029,-12805.562797,-1072.533697
969.736513,2220.617826,-11991.336260,-2451.505594
969.736837,-1110.308913,-11473.192101,-3983.696590
969.737161,-3404.947333,-10881.027347,-5286.058936
969.737485,-4737.318029,-10288.862594,-5822.325785
969.737809,-3775.050304,-9770.718434,-5592.497135
969.738133,-1776.494261,-8808.450710,-5362.668486
969.738457,740.205942,-7994.224174,-3983.696590
969.738781,2220.617826,-8512.368333,-3370.820191
969.739106,2368.659014,-8364.327145,-2528.115143
969.739430,2442.679609,-8660.409521,-1455.581446
969.739754,2738.761985,-9030.512492,-306.438199
969.740078,4589.276840,-9548.656652,919.314598
969.740402,6735.874072,-9918.759623,1455.581446
969.740726,7624.121203,-10362.883188,1149.143247
969.741050,6291.750507,-10362.883188,766.095498
969.741374,3256.906145,-10288.862594,-612.876398
969.741698,-592.164754,-9400.615463,-1762.019645
969.742022,-2368.659014,-8216.285956,-2604.724693
969.742346,-2590.720797,-6957.935855,-2451.505594
969.742670,-1702.473667,-6883.915261,-2528.115143
969.742994,-370.102971,-7031.956449,-2528.115143
969.743318,74.020594,-7105.977043,-1915.238745
969.743642,296.082377,-6883.915261,-842.705048
969.743966,1628.453072,-7254.018232,689.485948
969.744290,3256.906145,-7105.977043,1225.752797
969.744614,5329.482782,-7994.224174,2374.896044
969.744938,6143.709319,-8956.491898,2221.676944
969.745262,6587.832884,-10658.965565,1685.410096
969.745586,5847.626942,-11473.192101,1455.581446
969.745910,4515.256246,-10436.903782,766.095498
969.746234,3478.967927,-8438.347739,0.000000
969.746558,2516.700203,-8142.265362,-1455.581446
969.746882,1406.391290,-8956.491898,-2834.553343
969.747206,-444.123565,-9770.718434,-4673.182538
969.747530,-1480.411884,-9918.759623,-4443.353888
969.747854,-444.123565,-9548.656652,-3370.820191
969.748178,1850.514855,-9548.656652,-1991.848295
969.748502,4367.215058,-9918.759623,-1225.752797
969.748826,5033.400406,-10288.862594,-1532.190996
969.749150,4737.318029,-11251.130318,-1302.362347
969.749474,3775.050304,-12065.356855,-1838.629195
969.749798,4737.318029,-13101.645173,-995.924147
969.750122,5255.462188,-13471.748144,-536.266849
969.750447,3775.050304,-12953.603985,-995.924147
969.750771,814.226536,-11991.336260,-2298.286494
969.751095,-1036.288319,-11547.212695,-3600.648841
969.751419,-1036.288319,-11177.109724,-5056.230287
969.751743,-740.205942,-9474.636058,-5286.058936
969.752067,0.000000,-8956.491898,-4519.963438
969.752391,296.082377,-8734.430116,-4290.134789
969.752715,1184.329507,-9252.574275,-4443.353888
969.753039,1702.473667,-9252.574275,-4443.353888
969.753363,1406.391290,-8438.347739,-3983.696590
969.753687,2072.576638,-8660.409521,-3524.039291
969.754011,3256.906145,-9918.759623,-1455.581446
969.754335,4811.338623,-10658.965565,-2145.067394
969.754659,4959.379811,-10066.800811,-2145.067394
969.754983,3997.112087,-10732.986159,-1685.410096
969.755307,3404.947333,-11621.233289,-1991.848295
969.755631,2738.761985,-10732.986159,-2757.943793
969.755955,666.185348,-9178.553681,-2911.162892
969.756279,-1628.453072,-8142.265362,-3983.696590
969.756603,-3034.844362,-8808.450710,-4290.134789
969.756927,-1924.535449,-8660.409521,-3600.648841
969.757251,-592.164754,-7550.100608,-3294.210641
969.757575,-222.061783,-7105.977043,-2987.772442
969.757899,-222.061783,-8142.265362,-3217.601092
969.758223,518.144159,-8808.450710,-2911.162892
969.758547,2886.803174,-7624.121203,-2757.943793
969.758871,2886.803174,-8068.244768,-2528.115143
969.759195,2516.700203,-10140.821405,-2298.286494
969.759519,2812.782580,-10955.047942,-2681.334243
969.759843,4145.153275,-9548.656652,-1915.238745
969.760167,5329.482782,-9252.574275,-1378.971896
969.760491,5699.585753,-10658.965565,-1915.238745
969.760815,4367.215058,-11251.130318,-2221.676944
969.761139,2516.700203,-9400.615463,-2834.553343
969.761463,1406.391290,-8438.347739,-2451.505594
969.761787,2146.597232,-9400.615463,-2298.286494
969.762112,2368.659014,-9992.780217,-1378.971896
969.762436,2368.659014,-9918.759623,-1608.800546
969.762760,2368.659014,-9548.656652,-2374.896044
969.763084,2146.597232,-9696.697840,-2451.505594
969.763408,2220.617826,-10362.883188,-2451.505594
969.763732,1628.453072,-10510.924376,-2451.505594
969.764056,962.267725,-10066.800811,-3217.601092
969.764380,1110.308913,-10214.842000,-2911.162892
969.764704,1998.556043,-10658.965565,-3064.381992
969.765028,2072.576638,-11473.192101,-3294.210641
969.765352,1998.556043,-11769.274478,-2987.772442
969.765676,2368.659014,-11325.150913,-2145.067394
969.766000,3404.947333,-10214.842000,-1915.238745
969.766324,3182.885551,-9474.636058,-766.095498
969.766648,3034.844362,-9992.780217,-536.266849
969.766972,3182.885551,-11103.089130,-612.876398
969.767296,2738.761985,-10214.842000,612.876398
969.767620,2220.617826,-10214.842000,1378.971896
969.767944,2664.741391,-10214.842000,76.609550
969.768268,2590.720797,-8290.306550,-383.047749
969.768592,1258.350101,-7328.038826,-1225.752797
969.768916,-370.102971,-8142.265362,-3447.429741
969.769240,-1776.494261,-7846.182985,-3294.210641
969.769564,-2368.659014,-7179.997637,-3064.381992
969.769888,-3256.906145,-8808.450710,-4366.744339
969.770212,-2960.823768,-8956.491898,-3600.648841
969.770536,-518.144159,-8290.306550,-2604.724693
969.770860,888.247130,-10214.842000,-2528.115143
969.771184,1702.473667,-10436.903782,-1838.629195
969.771508,2812.782580,-9992.780217,0.000000
969.771832,4811.338623,-12287.418637,2374.896044
969.772156,6291.750507,-12361.439231,2068.457845
969.772480,5847.626942,-10436.903782,2451.505594
969.772804,4071.132681,-10066.800811,1838.629195
969.773128,3034.844362,-11843.295072,0.000000
969.773453,1776.494261,-11177.109724,-689.485948
969.773777,-296.082377,-8882.471304,-766.095498
969.774101,-2368.659014,-8660.409521,-2068.457845
969.774425,-3775.050304,-8660.409521,-3753.867940
969.774749,-5181.441594,-8068.244768,-4366.744339
969.775073,-6143.709319,-7920.203579,-3140.991542
969.775397,-4515.256246,-7920.203579,-3370.820191
969.775721,-1480.411884,-8068.244768,-1991.848295
969.776045,1480.411884,-7846.182985,0.000000
969.776369,4219.173869,-7402.059420,766.095498
969.776693,4811.338623,-8290.306550,919.314598
969.777017,4219.173869,-10214.842000,1608.800546
969.777341,2738.761985,-10510.924376,2298.286494
969.777665,3182.885551,-10732.986159,2221.676944
969.777989,2664.741391,-11251.130318,1762.019645
969.778313,1480.411884,-10658.965565,919.314598
969.778637,-296.082377,-10066.800811,995.924147
969.778961,-1554.432478,-11029.068536,-306.438199
969.779285,-2368.659014,-10658.965565,-919.314598
969.779609,-2886.803174,-8808.450710,-1378.971896
969.779933,-3108.864956,-8142.265362,-689.485948
969.780257,-2516.700203,-7698.141797,-1991.848295
969.780581,-2146.597232,-8216.285956,-1608.800546
969.780905,-1332.370696,-8586.388927,-612.876398
969.781229,148.041188,-7550.100608,-1378.971896
969.781553,1406.391290,-9178.553681,-229.828649
969.781877,2220.617826,-10510.924376,919.314598
969.782201,3182.885551,-11251.130318,1608.800546
969.782525,3256.906145,-11843.295072,1915.238745
969.782849,2220.617826,-11621.233289,1455.581446
969.783173,1554.432478,-11325.150913,1149.143247
969.783497,666.185348,-10732.986159,689.485948
969.783821,-222.061783,-10807.006753,842.705048
969.784145,-1036.288319,-10214.842000,0.000000
969.784469,-962.267725,-9104.533087,-612.876398
969.784794,-814.226536,-8438.347739,-842.705048
969.785118,-1036.288319,-8956.491898,-1991.848295
969.785442,-1332.370696,-8364.327145,-1991.848295
969.785766,-1850.514855,-8512.368333,-2451.505594
969.786090,-1480.411884,-9992.780217,-2374.896044
969.786414,518.144159,-11621.233289,-1149.143247
969.786738,1924.535449,-12361.439231,459.657299
969.787062,2294.638420,-12139.377449,229.828649
969.787386,148.041188,-11769.274478,229.828649
969.787710,-1702.473667,-11843.295072,-306.438199
969.788034,-1110.308913,-10881.027347,-306.438199
969.788358,0.000000,-9844.739029,229.828649
969.788682,222.061783,-9400.615463,306.438199
969.789006,148.041188,-8512.368333,919.314598
969.789330,296.082377,-8956.491898,-383.047749
969.789654,740.205942,-7550.100608,-536.266849
969.789978,1258.350101,-7772.162391,0.000000
969.790302,1332.370696,-8586.388927,-919.314598
969.790626,74.020594,-8142.265362,-1302.362347
969.790950,-1924.535449,-8142.265362,-1532.190996
969.791274,-2294.638420,-8734.430116,-2298.286494
969.791598,-1332.370696,-8364.327145,-1685.410096
969.791922,-666.185348,-9770.718434,-1532.190996
969.792246,-296.082377,-9548.656652,-1072.533697
969.792570,74.020594,-8956.491898,-229.828649
969.792894,888.247130,-9622.677246,689.485948
969.793218,1628.453072,-10362.883188,1378.971896
969.793542,1332.370696,-10066.800811,689.485948
969.793866,1702.473667,-9622.677246,1378.971896
969.794190,1036.288319,-10140.821405,1072.533697
969.794514,370.102971,-10436.903782,766.095498
969.794838,-592.164754,-10436.903782,919.314598
969.795162,-1258.350101,-10288.862594,689.485948
969.795486,-1924.535449,-9844.739029,-612.876398
969.795810,-2960.823768,-9326.594869,-1225.752797
969.796135,-3256.906145,-9918.759623,-995.924147
969.796459,-2516.700203,-8956.491898,-2068.457845
969.796783,-1850.514855,-7994.224174,-1302.362347
969.797107,-1110.308913,-7476.080014,-612.876398
969.797431,148.041188,-8438.347739,-459.657299
969.797755,1406.391290,-9252.574275,0.000000
969.798079,2368.659014,-10140.821405,1225.752797
969.798403,2960.823768,-9844.739029,1455.581446
969.798727,2886.803174,-10807.006753,1608.800546
969.799051,1628.453072,-10584.944971,1838.629195
969.799375,1332.370696,-9992.780217,1532.190996
969.799699,1110.308913,-11399.171507,1608.800546
969.800023,1110.308913,-11325.150913,536.266849
969.800347,1628.453072,-11103.089130,1149.143247
969.800671,518.144159,-11325.150913,1149.143247
969.800995,-814.226536,-8808.450710,-766.095498
969.801319,-3256.906145,-7994.224174,-766.095498
969.801643,-5329.482782,-9474.636058,-1378.971896
969.801967,-4441.235652,-9104.533087,-2911.162892
969.802291,-3552.988522,-8956.491898,-1762.019645
969.802615,-2516.700203,-8882.471304,-1149.143247
969.802939,-1406.391290,-8734.430116,-229.828649
969.803263,1184.329507,-10288.862594,153.219100
969.803587,3627.009116,-10214.842000,1838.629195
969.803911,4219.173869,-10362.883188,1838.629195
969.804235,3701.029710,-10658.965565,1072.533697
969.804559,1998.556043,-10362.883188,919.314598
969.804883,592.164754,-10658.965565,459.657299
969.805207,962.267725,-9326.594869,-229.828649
969.805531,1776.494261,-9178.553681,306.438199
969.805855,1850.514855,-8956.491898,-842.705048
969.806179,1554.432478,-9104.533087,-383.047749
969.806503,1406.391290,-9770.718434,153.219100
969.806827,1406.391290,-8956.491898,-1991.848295
969.807151,814.226536,-8142.265362,-1915.238745
969.807475,-814.226536,-9252.574275,-1455.581446
969.807800,-1110.308913,-10362.883188,-1838.629195
969.808124,-1776.494261,-10807.006753,-1608.800546
969.808448,-2220.617826,-10807.006753,-919.314598
969.808772,-2072.576638,-11103.089130,-459.657299
969.809096,-1258.350101,-10732.986159,-1532.190996
969.809420,-888.247130,-9622.677246,-995.924147
969.809744,-1184.329507,-9548.656652,459.657299
969.810068,-1628.453072,-10955.047942,0.000000
969.810392,-1184.329507,-10510.924376,-612.876398
969.810716,-666.185348,-8808.450710,-383.047749
969.811040,444.123565,-8438.347739,-536.266849
969.811364,962.267725,-9030.512492,-306.438199
969.811688,74.020594,-9918.759623,-612.876398
969.812012,-296.082377,-8956.491898,-459.657299
969.812336,592.164754,-8734.430116,-153.219100
969.812660,1924.535449,-9918.759623,-153.219100
969.812984,1628.453072,-9696.697840,306.438199
969.813308,222.061783,-9252.574275,0.000000
969.813632,-592.164754,-9252.574275,229.828649
969.813956,-222.061783,-9400.615463,229.828649
969.814280,148.041188,-9992.780217,306.438199
969.814604,148.041188,-9030.512492,383.047749
969.814928,0.000000,-8364.327145,766.095498
969.815252,-1110.308913,-9622.677246,842.705048
969.815576,-814.226536,-9622.677246,0.000000
969.815900,0.000000,-8956.491898,76.609550
969.816224,444.123565,-9474.636058,689.485948
969.816548,444.123565,-9992.780217,0.000000
969.816872,0.000000,-10214.842000,919.314598
969.817196,-296.082377,-9992.780217,766.095498
969.817520,0.000000,-10066.800811,919.314598
969.817844,296.082377,-10436.903782,0.000000
969.818168,148.041188,-9252.574275,0.000000
969.818492,-666.185348,-9252.574275,153.219100
969.818816,-814.226536,-11029.068536,229.828649
969.819140,-1036.288319,-9696.697840,0.000000
969.819465,-814.226536,-8882.471304,-306.438199
969.819789,-1184.329507,-9178.553681,-536.266849
969.820113,-1184.329507,-10436.903782,-459.657299
969.820437,-740.205942,-10955.047942,-995.924147
969.820761,-222.061783,-9622.677246,-383.047749
969.821085,666.185348,-9326.594869,-383.047749
969.821409,1332.370696,-10140.821405,-1225.752797
969.821733,1036.288319,-10140.821405,-612.876398
969.822057,-518.144159,-9548.656652,-1608.800546
969.822381,-814.226536,-10288.862594,-1378.971896
969.822705,0.000000,-10881.027347,-766.095498
969.823029,222.061783,-10881.027347,-459.657299
969.823353,814.226536,-10214.842000,-612.876398
969.823677,74.020594,-9326.594869,-1072.533697
969.824001,74.020594,-10658.965565,-229.828649
969.824325,1406.391290,-11695.253884,153.219100
969.824649,1776.494261,-11177.109724,842.705048
969.824973,1332.370696,-9474.636058,383.047749
969.825297,148.041188,-8660.409521,-459.657299
969.825621,-1036.288319,-9474.636058,-383.047749
969.825945,-740.205942,-8882.471304,-919.314598
969.826269,-296.082377,-8364.327145,-842.705048
969.826593,-370.102971,-8216.285956,-383.047749
969.826917,740.205942,-8068.244768,0.000000
969.827241,1628.453072,-8734.430116,229.828649
969.827565,1110.308913,-9030.512492,383.047749
969.827889,74.020594,-8068.244768,383.047749
969.828213,-222.061783,-8956.491898,306.438199
969.828537,74.020594,-9326.594869,1455.581446
969.828861,518.144159,-9844.739029,1302.362347
969.829185,148.041188,-9104.533087,1378.971896
969.829509,-370.102971,-8586.388927,689.485948
969.829833,-666.185348,-9548.656652,229.828649
969.830157,-592.164754,-10436.903782,766.095498
969.830481,-1110.308913,-10140.821405,536.266849
969.830806,-1924.535449,-9770.718434,689.485948
969.831130,-1554.432478,-8956.491898,995.924147
969.831454,222.061783,-9770.718434,995.924147
969.831778,814.226536,-10066.800811,612.876398
969.832102,0.000000,-9252.574275,0.000000
969.832426,-1554.432478,-9252.574275,76.609550
969.832750,-1924.535449,-9844.739029,0.000000
969.833074,-444.123565,-8808.450710,153.219100
969.833398,1184.329507,-9104.533087,842.705048
969.833722,1702.473667,-9548.656652,536.266849
969.834046,1554.432478,-9844.739029,1149.143247
969.834370,1110.308913,-10288.862594,1455.581446
969.834694,962.267725,-9548.656652,995.924147
969.835018,740.205942,-9178.553681,306.438199
969.835342,-296.082377,-9770.718434,76.609550
969.835666,-2812.782580,-9622.677246,0.000000
969.835990,-4441.235652,-10658.965565,-612.876398
969.836314,-3627.009116,-9992.780217,-995.924147
969.836638,-2368.659014,-8882.471304,-612.876398
969.836962,-1480.411884,-9548.656652,-1455.581446
969.837286,-740.205942,-9178.553681,-919.314598
969.837610,74.020594,-9770.718434,0.000000
969.837934,888.247130,-10214.842000,0.000000
969.838258,2220.617826,-8734.430116,0.000000
969.838582,1628.453072,-9474.636058,-689.485948
969.838906,666.185348,-10436.903782,-919.314598
969.839230,0.000000,-11325.150913,-1149.143247
969.839554,-1036.288319,-11843.295072,-1149.143247
969.839878,-518.144159,-10732.986159,-1532.190996
969.840202,74.020594,-10436.903782,-2068.457845
969.840526,74.020594,-9918.759623,-1532.190996
969.840850,1628.453072,-9992.780217,-1225.752797
969.841174,2368.659014,-11251.130318,-842.705048
969.841498,2294.638420,-11103.089130,-459.657299
969.841822,2072.576638,-10584.944971,-919.314598
969.842146,1702.473667,-10288.862594,-1532.190996
969.842471,1332.370696,-9548.656652,-1532.190996
969.842795,222.061783,-10436.903782,-1838.629195
969.843119,888.247130,-10881.027347,-1455.581446
969.843443,962.267725,-9178.553681,-1532.190996
969.843767,1258.350101,-9252.574275,-689.485948
969.844091,1406.391290,-9770.718434,153.219100
969.844415,888.247130,-9770.718434,-153.219100
969.844739,-222.061783,-9474.636058,0.000000
969.845063,-740.205942,-9104.533087,0.000000
969.845387,-1480.411884,-9178.553681,459.657299
969.845711,-1702.473667,-8290.306550,919.314598
969.846035,-1702.473667,-8216.285956,536.266849
969.846359,-2220.617826,-8808.450710,383.047749
969.846683,-1628.453072,-8364.327145,383.047749
969.847007,-370.102971,-8364.327145,536.266849
969.847331,222.061783,-8216.285956,612.876398
969.847655,0.000000,-8142.265362,1225.752797
969.847979,-666.185348,-8438.347739,919.314598
969.848303,-148.041188,-8438.347739,383.047749
969.848627,666.185348,-7550.100608,689.485948
969.848951,740.205942,-8438.347739,1072.533697
969.849275,296.082377,-9918.759623,1225.752797
969.849599,-962.267725,-9992.780217,1072.533697
969.849923,-1332.370696,-9474.636058,1149.143247
969.850247,-222.061783,-9326.594869,1762.019645
969.850571,444.123565,-9252.574275,1762.019645
969.850895,222.061783,-9622.677246,1685.410096
969.851219,-888.247130,-9918.759623,1762.019645
969.851543,-444.123565,-10066.800811,153.219100
969.851867,-444.123565,-9104.533087,842.705048
969.852191,222.061783,-9992.780217,1072.533697
969.852515,370.102971,-10658.965565,383.047749
969.852839,-888.247130,-10288.862594,0.000000
969.853163,-3701.029710,-10436.903782,-459.657299
969.853487,-4145.153275,-10436.903782,-1915.238745
969.853811,-2294.638420,-10140.821405,-1072.533697
969.854136,-296.082377,-11029.068536,-995.924147
969.854460,1110.308913,-10955.047942,306.438199
969.854784,1628.453072,-10955.047942,842.705048
