#time,accel_x,accel_y,accel_z
523.240237,-370.102971,-9326.594869,-612.876398
523.240561,-148.041188,-9548.656652,0.000000
523.240886,0.000000,-9474.636058,0.000000
523.241210,74.020594,-9622.677246,0.000000
523.241535,148.041188,-9918.759623,0.000000
523.241859,0.000000,-9696.697840,153.219100
523.242183,0.000000,-9400.615463,0.000000
523.242508,74.020594,-9474.636058,229.828649
523.242832,0.000000,-9474.636058,0.000000
523.243157,0.000000,-9844.739029,-306.438199
523.243481,-222.061783,-9918.759623,0.000000
523.243805,0.000000,-9770.718434,0.000000
523.244130,-74.020594,-9844.739029,0.000000
523.244454,-370.102971,-9474.636058,153.219100
523.244779,-222.061783,-9474.636058,-153.219100
523.245103,-148.041188,-9326.594869,306.438199
523.245427,-148.041188,-9622.677246,383.047749
523.245752,-148.041188,-9770.718434,76.609550
523.246076,-222.061783,-9770.718434,76.609550
523.246401,-222.061783,-9844.739029,0.000000
523.246725,-148.041188,-9474.636058,0.000000
523.247049,0.000000,-9252.574275,-383.047749
523.247374,0.000000,-9400.615463,0.000000
523.247698,-148.041188,-9696.697840,0.000000
523.248022,296.082377,-9844.739029,0.000000
523.248347,74.020594,-9622.677246,0.000000
523.248671,0.000000,-9622.677246,0.000000
523.248996,0.000000,-9474.636058,-229.828649
523.249320,222.061783,-9548.656652,0.000000
523.249644,222.061783,-10214.842000,153.219100
523.249969,518.144159,-10214.842000,459.657299
523.250293,74.020594,-10066.800811,153.219100
523.250618,-444.123565,-9770.718434,76.609550
523.250942,-740.205942,-9474.636058,0.000000
523.251266,-592.164754,-9622.677246,76.609550
523.251591,296.082377,-9918.759623,383.047749
523.251915,1184.329507,-9770.718434,536.266849
523.252240,1036.288319,-9252.574275,766.095498
523.252564,1258.350101,-9326.594869,306.438199
523.252888,962.267725,-9918.759623,-306.438199
523.253213,1036.288319,-9844.739029,229.828649
523.253537,814.226536,-9622.677246,0.000000
523.253862,0.000000,-9696.697840,-153.219100
523.254186,-592.164754,-9844.739029,0.000000
523.254510,-518.144159,-10436.903782,153.219100
523.254835,0.000000,-9844.739029,995.924147
523.255159,888.247130,-9918.759623,919.314598
523.255484,1480.411884,-9548.656652,1532.190996
523.255808,2590.720797,-9474.636058,1608.800546
523.256132,2886.803174,-9622.677246,1685.410096
523.256457,2590.720797,-9622.677246,1532.190996
523.256781,2220.617826,-9474.636058,1072.533697
523.257105,1332.370696,-9474.636058,306.438199
523.257430,370.102971,-9548.656652,0.000000
523.257754,-222.061783,-9770.718434,76.609550
523.258079,-592.164754,-9918.759623,0.000000
523.258403,0.000000,-9622.677246,229.828649
523.258727,1258.350101,-9622.677246,995.924147
523.259052,2886.803174,-9548.656652,2298.286494
523.259376,4441.235652,-9474.636058,2451.505594
523.259701,4959.379811,-9770.718434,2987.772442
523.260025,4885.359217,-10584.944971,3064.381992
523.260349,4441.235652,-10362.883188,2911.162892
523.260674,3627.009116,-10288.862594,2298.286494
523.260998,2442.679609,-9992.780217,1685.410096
523.261323,1258.350101,-10510.924376,1302.362347
523.261647,444.123565,-10436.903782,689.485948
523.261971,148.041188,-9992.780217,1378.971896
523.262296,1036.288319,-9770.718434,2298.286494
523.262620,2294.638420,-9548.656652,2374.896044
523.262945,3997.112087,-9326.594869,2987.772442
523.263269,4589.276840,-9252.574275,4060.306139
523.263593,4367.215058,-9622.677246,4366.744339
523.263918,4145.153275,-9918.759623,4903.011187
523.264242,2738.761985,-9770.718434,4443.353888
523.264566,1628.453072,-8808.450710,4213.525239
523.264891,-148.041188,-8956.491898,2987.772442
523.265215,-814.226536,-9178.553681,2298.286494
523.265540,-1628.453072,-8438.347739,1762.019645
523.265864,-1184.329507,-7476.080014,1685.410096
523.266188,-296.082377,-6661.853478,1762.019645
523.266513,888.247130,-6587.832884,2374.896044
523.266837,2368.659014,-6809.894666,2604.724693
523.267162,3330.926739,-7179.997637,3753.867940
523.267486,4367.215058,-8290.306550,3830.477490
523.267810,4737.318029,-9474.636058,3983.696590
523.268135,4737.318029,-10881.027347,4060.306139
523.268459,3997.112087,-11843.295072,4290.134789
523.268784,1998.556043,-12583.501014,3217.601092
523.269108,148.041188,-12435.459826,2604.724693
523.269432,-1554.432478,-11399.171507,1455.581446
523.269757,-1924.535449,-10955.047942,383.047749
523.270081,-1258.350101,-9400.615463,919.314598
523.270406,592.164754,-8586.388927,842.705048
523.270730,2220.617826,-7994.224174,842.705048
523.271054,3478.967927,-7698.141797,1072.533697
523.271379,4441.235652,-7402.059420,1532.190996
523.271703,4441.235652,-8512.368333,1838.629195
523.272028,3478.967927,-10584.944971,2221.676944
523.272352,2220.617826,-12435.459826,2451.505594
523.272676,592.164754,-12509.480420,2451.505594
523.273001,-222.061783,-11843.295072,1991.848295
523.273325,0.000000,-11473.192101,1685.410096
523.273649,592.164754,-11251.130318,1532.190996
523.273974,1998.556043,-10288.862594,919.314598
523.274298,2738.761985,-9400.615463,842.705048
523.274623,2960.823768,-8512.368333,689.485948
523.274947,3256.906145,-8882.471304,536.266849
523.275271,2368.659014,-8512.368333,229.828649
523.275596,1998.556043,-8216.285956,0.000000
523.275920,2442.679609,-8216.285956,76.609550
523.276245,3997.112087,-9104.533087,1072.533697
523.276569,5773.606348,-10955.047942,2374.896044
523.276893,6587.832884,-12213.398043,2911.162892
523.277218,5033.400406,-12435.459826,2681.334243
523.277542,1850.514855,-11991.336260,1838.629195
523.277867,-962.267725,-11621.233289,1302.362347
523.278191,-2516.700203,-10955.047942,995.924147
523.278515,-1998.556043,-9548.656652,689.485948
523.278840,370.102971,-7920.203579,1378.971896
523.279164,2294.638420,-7698.141797,1685.410096
523.279489,2590.720797,-7476.080014,1685.410096
523.279813,1850.514855,-6217.729913,766.095498
523.280137,1554.432478,-5477.523971,383.047749
523.280462,2220.617826,-6513.812290,306.438199
523.280786,3552.988522,-8438.347739,1225.752797
523.281111,4441.235652,-9844.739029,3064.381992
523.281435,3627.009116,-11103.089130,2911.162892
523.281759,2664.741391,-10732.986159,2374.896044
523.282084,1628.453072,-10288.862594,2145.067394
523.282408,1184.329507,-10362.883188,2298.286494
523.282732,1776.494261,-10881.027347,2681.334243
523.283057,1258.350101,-10807.006753,2757.943793
523.283381,0.000000,-10214.842000,2604.724693
523.283706,148.041188,-8734.430116,1302.362347
523.284030,1554.432478,-7772.162391,919.314598
523.284354,3182.885551,-7254.018232,1685.410096
523.284679,3997.112087,-8734.430116,1685.410096
523.285003,2960.823768,-10214.842000,1685.410096
523.285328,814.226536,-10140.821405,1225.752797
523.285652,-592.164754,-9992.780217,919.314598
523.285976,148.041188,-9844.739029,1378.971896
523.286301,2368.659014,-11399.171507,2145.067394
523.286625,3627.009116,-11917.315666,3217.601092
523.286950,3923.091493,-11251.130318,3600.648841
523.287274,3701.029710,-10362.883188,3600.648841
523.287598,3256.906145,-10732.986159,3677.258390
523.287923,1998.556043,-11029.068536,3294.210641
523.288247,148.041188,-9696.697840,2681.334243
523.288572,-888.247130,-8734.430116,2145.067394
523.288896,148.041188,-7698.141797,1225.752797
523.289220,1924.535449,-8364.327145,1532.190996
523.289545,3256.906145,-9252.574275,2145.067394
523.289869,3627.009116,-8438.347739,1685.410096
523.290194,2590.720797,-6957.935855,1225.752797
523.290518,2442.679609,-7624.121203,1302.362347
523.290842,2886.803174,-9918.759623,2068.457845
523.291167,2294.638420,-10955.047942,1991.848295
523.291491,1036.288319,-10362.883188,2451.505594
523.291815,222.061783,-9474.636058,2681.334243
523.292140,370.102971,-9918.759623,2834.553343
523.292464,666.185348,-11029.068536,2834.553343
523.292789,1258.350101,-10955.047942,3064.381992
523.293113,2072.576638,-9770.718434,2604.724693
523.293437,2368.659014,-8956.491898,2528.115143
523.293762,1850.514855,-8808.450710,1608.800546
523.294086,0.000000,-8438.347739,1149.143247
523.294411,-1110.308913,-7846.182985,-306.438199
523.294735,-740.205942,-7476.080014,-612.876398
523.295059,0.000000,-8142.265362,-995.924147
523.295384,518.144159,-8882.471304,-459.657299
523.295708,1628.453072,-8734.430116,306.438199
523.296033,2738.761985,-7846.182985,1149.143247
523.296357,2812.782580,-8734.430116,2145.067394
523.296681,1998.556043,-10658.965565,2451.505594
523.297006,962.267725,-11325.150913,2374.896044
523.297330,1036.288319,-11251.130318,2681.334243
523.297655,1776.494261,-10510.924376,1838.629195
523.297979,1036.288319,-9696.697840,842.705048
523.298303,-370.102971,-11029.068536,76.609550
523.298628,-1036.288319,-11769.274478,-459.657299
523.298952,-1702.473667,-10807.006753,-2068.457845
523.299277,-4441.235652,-8734.430116,-3524.039291
523.299601,-6291.750507,-9252.574275,-3677.258390
523.299925,-4441.235652,-10732.986159,-3064.381992
523.300250,-592.164754,-10658.965565,-1991.848295
523.300574,2738.761985,-9178.553681,-383.047749
523.300898,4663.297435,-9622.677246,1225.752797
523.301215,6143.709319,-10658.965565,2451.505594
523.301539,6439.791695,-11399.171507,2604.724693
523.301864,3256.906145,-10362.883188,1685.410096
523.302188,-1110.308913,-10881.027347,229.828649
523.302512,-4515.256246,-11991.336260,-1455.581446
523.302836,-4367.215058,-10510.924376,-2834.553343
523.303160,-4367.215058,-8216.285956,-3064.381992
523.303484,-4441.235652,-9548.656652,-3677.258390
523.303808,-3923.091493,-10436.903782,-3217.601092
523.304132,-2590.720797,-8956.491898,-2221.676944
523.304457,-1776.494261,-6883.915261,-1991.848295
523.304781,-518.144159,-7179.997637,-1762.019645
523.305105,1184.329507,-9178.553681,-612.876398
523.305429,3849.070898,-8956.491898,-153.219100
523.305753,4663.297435,-7994.224174,1378.971896
523.306077,4441.235652,-9622.677246,2451.505594
523.306401,4293.194464,-11621.233289,1302.362347
523.306726,1628.453072,-10362.883188,-306.438199
523.307050,-1924.535449,-8660.409521,-689.485948
523.307374,-4589.276840,-10066.800811,-1685.410096
523.307698,-5107.421000,-12213.398043,-3370.820191
523.308022,-4885.359217,-10955.047942,-3370.820191
523.308346,-3108.864956,-9474.636058,-1685.410096
523.308670,-740.205942,-9474.636058,-842.705048
523.308994,444.123565,-10658.965565,-1378.971896
523.309319,0.000000,-9400.615463,-1378.971896
523.309643,148.041188,-7920.203579,-842.705048
523.309967,2368.659014,-9622.677246,-383.047749
523.310291,3404.947333,-10362.883188,-612.876398
523.310615,2516.700203,-9326.594869,76.609550
523.310939,2220.617826,-8882.471304,919.314598
523.311263,3701.029710,-9474.636058,0.000000
523.311588,3552.988522,-9770.718434,306.438199
523.311912,1258.350101,-9252.574275,-306.438199
523.312236,-592.164754,-9104.533087,229.828649
523.312560,-592.164754,-10288.862594,0.000000
523.312884,-666.185348,-9992.780217,383.047749
523.313208,-1184.329507,-9326.594869,536.266849
523.313532,-1850.514855,-10140.821405,842.705048
523.313856,-1110.308913,-11251.130318,-229.828649
523.314181,-444.123565,-9696.697840,-459.657299
523.314505,-1628.453072,-8364.327145,0.000000
523.314829,-2368.659014,-9622.677246,-153.219100
523.315153,-1480.411884,-10510.924376,0.000000
523.315477,-592.164754,-9326.594869,0.000000
523.315801,74.020594,-7846.182985,689.485948
523.316125,1924.535449,-8586.388927,1149.143247
523.316450,3552.988522,-9844.739029,1302.362347
523.316774,3849.070898,-9030.512492,1991.848295
523.317098,3108.864956,-8438.347739,3140.991542
523.317422,1554.432478,-9992.780217,2604.724693
523.317746,592.164754,-10955.047942,2068.457845
523.318070,-296.082377,-9770.718434,2068.457845
523.318394,-1332.370696,-9844.739029,2068.457845
523.318718,-2220.617826,-10807.006753,1378.971896
523.319043,-2664.741391,-10214.842000,-153.219100
523.319367,-3849.070898,-8438.347739,383.047749
523.319691,-4589.276840,-8586.388927,-229.828649
523.320015,-3701.029710,-9474.636058,-919.314598
523.320339,-1998.556043,-8142.265362,-383.047749
523.320663,-518.144159,-6809.894666,459.657299
523.320987,1036.288319,-7624.121203,995.924147
523.321312,3256.906145,-9030.512492,1378.971896
523.321636,4219.173869,-8808.450710,1762.019645
523.321960,3404.947333,-8734.430116,2298.286494
523.322284,1924.535449,-10955.047942,1991.848295
523.322608,1702.473667,-12213.398043,1991.848295
523.322932,1184.329507,-11695.253884,1915.238745
523.323256,-370.102971,-11325.150913,1608.800546
523.323580,-2516.700203,-12139.377449,995.924147
523.323905,-2590.720797,-12287.418637,-612.876398
523.324229,-3478.967927,-10658.965565,-1378.971896
523.324553,-3997.112087,-9400.615463,-1225.752797
523.324877,-2960.823768,-9474.636058,-1225.752797
523.325201,-1258.350101,-9474.636058,-1532.190996
523.325525,518.144159,-7994.224174,-1762.019645
523.325849,2072.576638,-7698.141797,-536.266849
523.326174,3478.967927,-8882.471304,0.000000
523.326498,4219.173869,-8808.450710,-919.314598
523.326822,3552.988522,-7846.182985,-536.266849
523.327146,2516.700203,-8586.388927,536.266849
523.327470,2886.803174,-10510.924376,229.828649
523.327794,2442.679609,-11103.089130,306.438199
523.328118,592.164754,-10214.842000,612.876398
523.328442,-888.247130,-11325.150913,766.095498
523.328767,-1480.411884,-12287.418637,-919.314598
523.329091,-2368.659014,-10584.944971,-1915.238745
523.329415,-4219.173869,-9622.677246,-995.924147
523.329739,-4663.297435,-10584.944971,-1838.629195
523.330063,-3330.926739,-10955.047942,-3140.991542
523.330387,-1998.556043,-8734.430116,-3600.648841
523.330711,-148.041188,-7772.162391,-3140.991542
523.331036,1628.453072,-9252.574275,-2834.553343
523.331360,3034.844362,-10066.800811,-2374.896044
523.331684,3404.947333,-8734.430116,-919.314598
523.332008,2590.720797,-8660.409521,536.266849
523.332332,3330.926739,-10584.944971,536.266849
523.332656,3552.988522,-11103.089130,612.876398
523.332980,2146.597232,-10140.821405,919.314598
523.333304,370.102971,-9474.636058,1915.238745
523.333629,-1332.370696,-10955.047942,536.266849
523.333953,-3034.844362,-10214.842000,-689.485948
523.334277,-4885.359217,-8216.285956,-612.876398
523.334601,-5403.503377,-8438.347739,-612.876398
523.334925,-4219.173869,-9474.636058,-2068.457845
523.335249,-2886.803174,-7994.224174,-2451.505594
523.335573,-2590.720797,-6069.688724,-2145.067394
523.335897,-740.205942,-7772.162391,-2374.896044
523.336222,888.247130,-9474.636058,-2757.943793
523.336546,2220.617826,-8956.491898,-1225.752797
523.336870,2294.638420,-8586.388927,306.438199
523.337194,2960.823768,-10436.903782,842.705048
523.337518,3552.988522,-11769.274478,612.876398
523.337842,3256.906145,-11325.150913,1455.581446
523.338166,2442.679609,-11547.212695,2451.505594
523.338491,1480.411884,-13323.706956,2604.724693
523.338815,-1110.308913,-13027.624579,689.485948
523.339139,-3034.844362,-10288.862594,-306.438199
523.339463,-5107.421000,-9178.553681,-306.438199
523.339787,-4959.379811,-10658.965565,-1685.410096
523.340111,-3627.009116,-10584.944971,-2145.067394
523.340435,-2368.659014,-8364.327145,-1455.581446
523.340759,-1110.308913,-8068.244768,-1149.143247
523.341084,814.226536,-9326.594869,-1608.800546
523.341408,1628.453072,-7920.203579,-1532.190996
523.341732,1554.432478,-7402.059420,-612.876398
523.342056,1702.473667,-9178.553681,306.438199
523.342380,2960.823768,-11029.068536,1149.143247
523.342704,3701.029710,-10881.027347,2757.943793
523.343028,3034.844362,-10066.800811,3294.210641
523.343353,2738.761985,-11029.068536,3600.648841
523.343677,1554.432478,-11843.295072,2451.505594
523.344001,-814.226536,-10436.903782,1302.362347
523.344325,-3627.009116,-9474.636058,1149.143247
523.344649,-4293.194464,-10362.883188,842.705048
523.344973,-2812.782580,-10807.006753,0.000000
523.345297,-2368.659014,-9400.615463,-153.219100
523.345621,-2294.638420,-7402.059420,-1149.143247
523.345946,-1924.535449,-7254.018232,-2451.505594
523.346270,-222.061783,-7698.141797,-2298.286494
523.346594,296.082377,-6809.894666,-1225.752797
523.346918,1332.370696,-7402.059420,612.876398
523.347242,3552.988522,-9400.615463,2068.457845
523.347566,5255.462188,-9400.615463,3064.381992
523.347890,5033.400406,-8734.430116,3753.867940
523.348215,4441.235652,-10436.903782,4596.572988
523.348539,2516.700203,-11843.295072,3677.258390
523.348863,888.247130,-11325.150913,2987.772442
523.349187,-1998.556043,-9622.677246,1991.848295
523.349511,-4293.194464,-9992.780217,995.924147
523.349835,-4293.194464,-10807.006753,-229.828649
523.350159,-3404.947333,-9474.636058,-1762.019645
523.350483,-3627.009116,-8586.388927,-1685.410096
523.350808,-3478.967927,-8882.471304,-2757.943793
523.351132,-1184.329507,-8882.471304,-3064.381992
523.351456,74.020594,-8290.306550,-2451.505594
523.351780,888.247130,-8290.306550,-1378.971896
523.352104,2590.720797,-9622.677246,0.000000
523.352428,4515.256246,-11251.130318,1455.581446
523.352752,5773.606348,-10584.944971,2451.505594
523.353077,5329.482782,-10658.965565,3294.210641
523.353401,4441.235652,-11695.253884,2987.772442
523.353725,2442.679609,-12213.398043,2221.676944
523.354049,-296.082377,-11769.274478,1455.581446
523.354373,-2738.761985,-10955.047942,689.485948
523.354697,-3997.112087,-11103.089130,-766.095498
523.355021,-4737.318029,-10140.821405,-2987.772442
523.355345,-4737.318029,-8586.388927,-2068.457845
523.355670,-4515.256246,-8660.409521,-2681.334243
523.355994,-3034.844362,-8956.491898,-4136.915689
523.356318,-2368.659014,-7105.977043,-4213.525239
523.356642,-1554.432478,-5773.606348,-3217.601092
523.356966,888.247130,-7402.059420,-1378.971896
523.357290,4145.153275,-9548.656652,306.438199
523.357614,5403.503377,-9474.636058,1378.971896
523.357939,4737.318029,-7920.203579,1762.019645
523.358263,3552.988522,-9992.780217,1915.238745
523.358587,2294.638420,-12435.459826,1685.410096
523.358911,1036.288319,-11843.295072,1072.533697
523.359235,-1406.391290,-10510.924376,229.828649
523.359559,-3997.112087,-10955.047942,-919.314598
523.359883,-5033.400406,-11621.233289,-2604.724693
523.360207,-4293.194464,-10510.924376,-3294.210641
523.360532,-4145.153275,-9548.656652,-2757.943793
523.360856,-3108.864956,-9770.718434,-3140.991542
523.361180,-1554.432478,-9474.636058,-3983.696590
523.361504,-592.164754,-7772.162391,-3447.429741
523.361828,518.144159,-7846.182985,-2221.676944
523.362152,2664.741391,-8956.491898,-1685.410096
523.362476,3997.112087,-8956.491898,-842.705048
523.362801,4071.132681,-8364.327145,1225.752797
523.363125,3627.009116,-10510.924376,2451.505594
523.363449,3478.967927,-13249.686362,2145.067394
523.363773,2072.576638,-11843.295072,995.924147
523.364097,-592.164754,-10066.800811,229.828649
523.364421,-3108.864956,-11029.068536,-842.705048
523.364745,-4145.153275,-12139.377449,-1532.190996
523.365069,-3404.947333,-10807.006753,-1915.238745
523.365394,-3034.844362,-9030.512492,-689.485948
523.365718,-2072.576638,-9844.739029,-2145.067394
523.366042,-1110.308913,-10288.862594,-2604.724693
523.366366,-740.205942,-8512.368333,-2298.286494
523.366690,-296.082377,-7476.080014,-1685.410096
523.367014,1332.370696,-8586.388927,-536.266849
523.367338,2812.782580,-9104.533087,76.609550
523.367663,3997.112087,-9104.533087,2068.457845
523.367987,3997.112087,-9104.533087,3830.477490
523.368311,4367.215058,-10584.944971,3600.648841
523.368635,3034.844362,-10436.903782,3064.381992
523.368959,-148.041188,-9104.533087,2681.334243
523.369283,-2516.700203,-9104.533087,2221.676944
523.369607,-3404.947333,-9474.636058,1608.800546
523.369931,-4441.235652,-8586.388927,689.485948
523.370256,-4367.215058,-7105.977043,612.876398
523.370580,-3256.906145,-7698.141797,76.609550
523.370904,-1850.514855,-8216.285956,-995.924147
523.371228,-1702.473667,-7105.977043,-1225.752797
523.371552,-2368.659014,-6661.853478,-919.314598
523.371876,-1480.411884,-8290.306550,-383.047749
523.372200,962.267725,-9400.615463,689.485948
523.372525,3997.112087,-9770.718434,1991.848295
523.372849,4145.153275,-9178.553681,3677.258390
523.373173,4737.318029,-10955.047942,3907.087040
523.373497,4219.173869,-12213.398043,3140.991542
523.373821,1924.535449,-11399.171507,2681.334243
523.374145,-888.247130,-10436.903782,2451.505594
523.374469,-1628.453072,-10955.047942,1838.629195
523.374793,-1406.391290,-11177.109724,919.314598
523.375118,-1628.453072,-9400.615463,306.438199
523.375442,-2220.617826,-8660.409521,0.000000
523.375766,-2664.741391,-9696.697840,-1532.190996
523.376090,-2664.741391,-9178.553681,-2298.286494
523.376414,-2442.679609,-8068.244768,-2145.067394
523.376738,-1924.535449,-8660.409521,-1302.362347
523.377062,-518.144159,-10288.862594,-1532.190996
523.377387,592.164754,-9548.656652,-842.705048
523.377711,2368.659014,-9548.656652,459.657299
523.378035,3997.112087,-10732.986159,1149.143247
523.378359,5107.421000,-12361.439231,1072.533697
523.378683,4589.276840,-11695.253884,1532.190996
523.379007,2590.720797,-10214.842000,1608.800546
523.379331,1406.391290,-10362.883188,1225.752797
523.379655,962.267725,-11769.274478,-383.047749
523.379980,-444.123565,-10881.027347,-383.047749
523.380304,-2664.741391,-9400.615463,-612.876398
523.380628,-2812.782580,-9992.780217,-1838.629195
523.380952,-2590.720797,-9992.780217,-2757.943793
523.381276,-3330.926739,-8808.450710,-3217.601092
523.381600,-4145.153275,-8364.327145,-3217.601092
523.381924,-3108.864956,-8660.409521,-3140.991542
523.382248,-444.123565,-8512.368333,-3140.991542
523.382573,1406.391290,-8068.244768,-1149.143247
523.382897,2072.576638,-7846.182985,229.828649
523.383221,3552.988522,-9030.512492,459.657299
523.383545,3997.112087,-9030.512492,919.314598
523.383869,2368.659014,-8216.285956,1149.143247
523.384193,518.144159,-9104.533087,1532.190996
523.384517,-222.061783,-10362.883188,689.485948
523.384842,-296.082377,-9622.677246,-689.485948
523.385166,-1850.514855,-8216.285956,-995.924147
523.385490,-3034.844362,-9474.636058,-1762.019645
523.385814,-2294.638420,-11399.171507,-2451.505594
523.386138,-1258.350101,-10436.903782,-2451.505594
523.386462,-1628.453072,-8586.388927,-1762.019645
523.386786,-1184.329507,-9326.594869,-2068.457845
523.387110,0.000000,-9918.759623,-2145.067394
523.387435,1406.391290,-9696.697840,-1685.410096
523.387759,1850.514855,-9622.677246,0.000000
523.388083,2886.803174,-10510.924376,306.438199
523.388407,3404.947333,-11399.171507,306.438199
523.388731,2590.720797,-10658.965565,1149.143247
523.389055,1554.432478,-10288.862594,1149.143247
523.389379,740.205942,-11399.171507,-229.828649
523.389704,-148.041188,-11769.274478,-153.219100
523.390028,-1702.473667,-10140.821405,0.000000
523.390352,-2072.576638,-10288.862594,-459.657299
523.390676,-1776.494261,-11177.109724,-1072.533697
523.391000,-1776.494261,-10510.924376,-1149.143247
523.391324,-2146.597232,-9178.553681,-995.924147
523.391648,-1850.514855,-9104.533087,-766.095498
523.391972,-518.144159,-9770.718434,-1072.533697
523.392297,74.020594,-9400.615463,-689.485948
523.392621,370.102971,-8660.409521,0.000000
523.392945,1184.329507,-9770.718434,459.657299
523.393269,2072.576638,-10510.924376,995.924147
523.393593,1776.494261,-9844.739029,1608.800546
523.393917,518.144159,-9104.533087,1685.410096
523.394241,-444.123565,-9548.656652,1149.143247
523.394566,-370.102971,-9770.718434,1455.581446
523.394890,-1110.308913,-9104.533087,1608.800546
523.395214,-1998.556043,-8956.491898,1455.581446
523.395538,-2146.597232,-9696.697840,1072.533697
523.395862,-1554.432478,-9400.615463,459.657299
523.396186,-1850.514855,-8068.244768,306.438199
523.396510,-2220.617826,-8290.306550,229.828649
523.396834,-2220.617826,-8956.491898,383.047749
523.397159,-814.226536,-8808.450710,0.000000
523.397483,518.144159,-7920.203579,0.000000
523.397807,370.102971,-8586.388927,612.876398
523.398131,1554.432478,-9918.759623,612.876398
523.398455,2220.617826,-9696.697840,766.095498
523.398779,1850.514855,-9326.594869,995.924147
523.399103,1332.370696,-8956.491898,1991.848295
523.399428,2146.597232,-10436.903782,1762.019645
523.399752,2368.659014,-10214.842000,1838.629195
523.400076,1110.308913,-8660.409521,1532.190996
523.400400,222.061783,-9178.553681,536.266849
523.400724,0.000000,-10066.800811,-306.438199
523.401048,-222.061783,-10066.800811,0.000000
523.401372,-740.205942,-9548.656652,0.000000
523.401696,-1480.411884,-10214.842000,-306.438199
523.402020,-1036.288319,-9474.636058,-1455.581446
523.402344,-296.082377,-9252.574275,-1302.362347
523.402668,-814.226536,-9548.656652,-995.924147
523.402992,-222.061783,-10732.986159,-766.095498
523.403316,740.205942,-10955.047942,-995.924147
523.403640,666.185348,-9030.512492,-459.657299
523.403964,296.082377,-8882.471304,-536.266849
523.404288,888.247130,-9770.718434,-229.828649
523.404613,2146.597232,-9992.780217,0.000000
523.404937,1998.556043,-9474.636058,0.000000
523.405261,1332.370696,-9548.656652,383.047749
523.405585,1184.329507,-10732.986159,0.000000
523.405909,1406.391290,-10807.006753,-153.219100
523.406233,-222.061783,-9844.739029,153.219100
523.406557,-2368.659014,-9844.739029,-459.657299
523.406881,-2738.761985,-10955.047942,-1378.971896
523.407205,-2442.679609,-10658.965565,-1378.971896
523.407529,-1702.473667,-10066.800811,-995.924147
523.407853,-962.267725,-10140.821405,-919.314598
523.408177,-666.185348,-9992.780217,-1838.629195
523.408501,-1332.370696,-8808.450710,-1991.848295
523.408825,-1702.473667,-8290.306550,-1455.581446
523.409149,-814.226536,-9474.636058,-689.485948
523.409473,888.247130,-9696.697840,-153.219100
523.409797,2146.597232,-8290.306550,229.828649
523.410121,1998.556043,-7846.182985,842.705048
523.410445,2072.576638,-9474.636058,306.438199
523.410769,2220.617826,-10510.924376,0.000000
523.411093,518.144159,-9474.636058,0.000000
523.411417,-1628.453072,-9474.636058,-306.438199
523.411741,-2368.659014,-10140.821405,-995.924147
523.412065,-2294.638420,-10288.862594,-1455.581446
523.412389,-1554.432478,-9622.677246,-919.314598
523.412713,-814.226536,-10214.842000,-1072.533697
523.413037,-592.164754,-10658.965565,-1608.800546
523.413361,-1184.329507,-9326.594869,-1149.143247
523.413685,-222.061783,-7846.182985,-995.924147
523.414009,1184.329507,-8808.450710,-842.705048
523.414333,1776.494261,-10288.862594,0.000000
523.414657,2516.700203,-9770.718434,-229.828649
523.414981,1924.535449,-8734.430116,306.438199
523.415305,2072.576638,-9622.677246,459.657299
523.415629,2590.720797,-11177.109724,-229.828649
523.415953,1110.308913,-10732.986159,842.705048
523.416277,-1184.329507,-10584.944971,0.000000
523.416601,-2664.741391,-11103.089130,-306.438199
523.416925,-2738.761985,-11547.212695,-383.047749
523.417249,-1924.535449,-10658.965565,0.000000
523.417573,-1998.556043,-10584.944971,153.219100
523.417897,-1628.453072,-10807.006753,-306.438199
523.418221,-1258.350101,-9770.718434,-536.266849
523.418545,-1184.329507,-9252.574275,229.828649
523.418869,74.020594,-8438.347739,459.657299
523.419193,1036.288319,-8660.409521,0.000000
523.419517,1702.473667,-7846.182985,-306.438199
523.419841,2146.597232,-7254.018232,689.485948
523.420165,2516.700203,-8808.450710,1302.362347
523.420489,3701.029710,-10214.842000,1378.971896
523.420813,2886.803174,-9548.656652,2604.724693
523.421137,370.102971,-8882.471304,2068.457845
523.421461,-2072.576638,-9918.759623,1608.800546
523.421785,-2664.741391,-10807.006753,766.095498
523.422109,-2738.761985,-9474.636058,1225.752797
523.422433,-3108.864956,-9770.718434,842.705048
523.422757,-2664.741391,-10140.821405,766.095498
523.423081,-2072.576638,-9622.677246,229.828649
523.423405,-2072.576638,-7920.203579,0.000000
523.423730,-2368.659014,-7550.100608,-536.266849
523.424054,-1332.370696,-8808.450710,-1225.752797
523.424378,-296.082377,-8882.471304,-995.924147
523.424702,740.205942,-8142.265362,76.609550
523.425026,2738.761985,-8290.306550,995.924147
523.425350,4663.297435,-9548.656652,1608.800546
523.425674,5181.441594,-10732.986159,1225.752797
523.425998,3478.967927,-10436.903782,1378.971896
523.426322,1184.329507,-10881.027347,689.485948
523.426646,370.102971,-11769.274478,995.924147
523.426970,-222.061783,-11991.336260,1149.143247
523.427294,-444.123565,-10955.047942,1455.581446
523.427618,-1628.453072,-10140.821405,306.438199
523.427942,-2294.638420,-10658.965565,-1225.752797
523.428266,-2590.720797,-9770.718434,-2451.505594
523.428590,-2738.761985,-9030.512492,-2374.896044
523.428914,-2072.576638,-9030.512492,-1915.238745
523.429238,-518.144159,-9104.533087,-2221.676944
523.429562,444.123565,-7920.203579,-2298.286494
523.429886,888.247130,-7698.141797,-1378.971896
523.430210,2294.638420,-10140.821405,-1762.019645
523.430534,3478.967927,-11769.274478,0.000000
523.430858,3849.070898,-11103.089130,612.876398
523.431182,2442.679609,-10807.006753,1685.410096
523.431506,1184.329507,-11917.315666,1532.190996
523.431830,370.102971,-11843.295072,1455.581446
523.432154,0.000000,-10807.006753,612.876398
523.432478,-1332.370696,-9918.759623,689.485948
523.432802,-2072.576638,-10510.924376,-383.047749
523.433126,-2812.782580,-9696.697840,-1072.533697
523.433450,-3552.988522,-8216.285956,-1608.800546
523.433774,-3627.009116,-7550.100608,-2451.505594
523.434098,-2812.782580,-7772.162391,-2987.772442
523.434422,-2146.597232,-7328.038826,-3447.429741
523.434746,-1332.370696,-6587.832884,-2528.115143
523.435070,740.205942,-7105.977043,-1608.800546
523.435394,3849.070898,-9104.533087,-383.047749
523.435718,4737.318029,-9548.656652,766.095498
523.436042,3997.112087,-9178.553681,1302.362347
523.436366,2738.761985,-10214.842000,1608.800546
523.436690,2664.741391,-11695.253884,1915.238745
523.437014,2072.576638,-11695.253884,2145.067394
523.437338,740.205942,-11621.233289,1455.581446
523.437662,-962.267725,-12213.398043,383.047749
523.437986,-1924.535449,-11917.315666,-1072.533697
523.438310,-3256.906145,-10732.986159,-2068.457845
523.438634,-4663.297435,-9696.697840,-2604.724693
523.438958,-3552.988522,-9622.677246,-3140.991542
523.439282,-1924.535449,-9474.636058,-3217.601092
523.439606,-370.102971,-8068.244768,-2298.286494
523.439930,1258.350101,-8512.368333,-1762.019645
523.440254,2738.761985,-9696.697840,-612.876398
523.440578,4441.235652,-10214.842000,229.828649
523.440902,4219.173869,-9770.718434,1149.143247
523.441226,2960.823768,-9326.594869,1991.848295
523.441550,2368.659014,-11325.150913,2834.553343
523.441874,1850.514855,-12139.377449,2911.162892
523.442198,444.123565,-11621.233289,2757.943793
523.442522,-1184.329507,-10881.027347,2145.067394
523.442847,-3108.864956,-10955.047942,842.705048
523.443171,-4515.256246,-9474.636058,-229.828649
523.443495,-5033.400406,-8956.491898,-842.705048
523.443819,-4589.276840,-8882.471304,-1378.971896
523.444143,-4293.194464,-7328.038826,-2145.067394
523.444467,-3034.844362,-6513.812290,-1532.190996
523.444791,-1924.535449,-6661.853478,-919.314598
523.445115,74.020594,-7772.162391,-689.485948
523.445439,2812.782580,-8586.388927,459.657299
523.445763,3775.050304,-8734.430116,2068.457845
523.446087,3404.947333,-9178.553681,2757.943793
523.446411,3034.844362,-10436.903782,3370.820191
523.446735,3108.864956,-11177.109724,4366.744339
523.447059,2220.617826,-11103.089130,4443.353888
523.447383,74.020594,-11399.171507,2987.772442
523.447707,-1702.473667,-11547.212695,1915.238745
523.448031,-3256.906145,-10362.883188,842.705048
523.448355,-4811.338623,-9030.512492,-306.438199
523.448679,-5995.668130,-8438.347739,-1225.752797
523.449003,-4959.379811,-8882.471304,-1915.238745
523.449327,-2812.782580,-7698.141797,-2757.943793
523.449651,-1258.350101,-7031.956449,-2145.067394
523.449975,740.205942,-7179.997637,-1378.971896
523.450299,3404.947333,-8512.368333,-612.876398
523.450623,4811.338623,-9252.574275,612.876398
523.450947,4959.379811,-9400.615463,1072.533697
523.451271,4737.318029,-10510.924376,2298.286494
523.451595,4589.276840,-11473.192101,1991.848295
523.451919,4293.194464,-11251.130318,2681.334243
523.452243,3330.926739,-12287.418637,2911.162892
523.452567,1184.329507,-12879.583391,2221.676944
523.452891,-740.205942,-12583.501014,1302.362347
523.453215,-3034.844362,-10584.944971,-229.828649
523.453539,-5033.400406,-9178.553681,-1991.848295
523.453863,-5773.606348,-9252.574275,-4136.915689
523.454187,-4219.173869,-8660.409521,-3830.477490
523.454511,-2886.803174,-7254.018232,-4060.306139
523.454835,-1554.432478,-7994.224174,-2757.943793
523.455159,1406.391290,-8734.430116,-1915.238745
523.455483,3849.070898,-8956.491898,-1225.752797
523.455807,4145.153275,-8142.265362,76.609550
523.456131,3701.029710,-8882.471304,0.000000
523.456455,4071.132681,-10288.862594,689.485948
523.456779,4145.153275,-11103.089130,1838.629195
523.457103,3552.988522,-11695.253884,3294.210641
523.457427,2294.638420,-12065.356855,2987.772442
523.457751,740.205942,-12065.356855,1532.190996
523.458075,-1480.411884,-10362.883188,459.657299
523.458399,-3997.112087,-9400.615463,-919.314598
523.458723,-5181.441594,-9474.636058,-1762.019645
523.459047,-5107.421000,-8438.347739,-2221.676944
523.459371,-3552.988522,-7105.977043,-2987.772442
523.459695,-3330.926739,-6661.853478,-3140.991542
523.460019,-1480.411884,-7328.038826,-3370.820191
523.460343,592.164754,-7994.224174,-2451.505594
523.460667,1850.514855,-8068.244768,-459.657299
523.460991,2220.617826,-8438.347739,306.438199
523.461315,3034.844362,-8956.491898,1302.362347
523.461639,3404.947333,-9252.574275,1455.581446
523.461964,3256.906145,-10436.903782,2221.676944
523.462288,2442.679609,-12435.459826,2451.505594
523.462612,1258.350101,-13767.830521,1991.848295
523.462936,-962.267725,-12361.439231,689.485948
523.463260,-3627.009116,-9844.739029,-383.047749
523.463584,-5995.668130,-9844.739029,-1762.019645
523.463908,-6143.709319,-10955.047942,-3447.429741
523.464232,-4959.379811,-9696.697840,-3753.867940
523.464556,-3701.029710,-8586.388927,-2911.162892
523.464880,-1480.411884,-8364.327145,-2451.505594
523.465204,1184.329507,-9030.512492,-2374.896044
523.465528,1776.494261,-8216.285956,-1685.410096
523.465852,1406.391290,-7698.141797,-842.705048
523.466176,1702.473667,-9030.512492,-536.266849
523.466500,3034.844362,-10658.965565,995.924147
523.466824,4145.153275,-10436.903782,2451.505594
523.467148,4219.173869,-10140.821405,3677.258390
523.467472,2516.700203,-11251.130318,3140.991542
523.467796,592.164754,-12213.398043,1762.019645
523.468120,-1924.535449,-11325.150913,612.876398
523.468444,-4515.256246,-10288.862594,0.000000
523.468768,-4959.379811,-10584.944971,-766.095498
523.469092,-3701.029710,-10066.800811,-1378.971896
523.469416,-3478.967927,-8882.471304,-1225.752797
523.469740,-2294.638420,-8660.409521,-2681.334243
523.470064,148.041188,-9030.512492,-2451.505594
523.470388,1480.411884,-8512.368333,-1608.800546
523.470712,1850.514855,-7994.224174,-536.266849
523.471036,2442.679609,-8734.430116,612.876398
523.471360,3923.091493,-9326.594869,1532.190996
523.471684,4737.318029,-9696.697840,2451.505594
523.472008,4219.173869,-10140.821405,3524.039291
523.472332,2960.823768,-10584.944971,3370.820191
523.472656,1332.370696,-11325.150913,2987.772442
523.472980,-962.267725,-10732.986159,2451.505594
523.473304,-3330.926739,-9844.739029,1685.410096
523.473628,-4515.256246,-9400.615463,0.000000
523.473952,-4589.276840,-8364.327145,-1762.019645
523.474276,-3478.967927,-7624.121203,-1608.800546
523.474600,-2146.597232,-7772.162391,-1532.190996
523.474924,518.144159,-8660.409521,-1915.238745
523.475248,2220.617826,-8290.306550,-919.314598
523.475572,2220.617826,-6957.935855,-459.657299
523.475896,2294.638420,-7624.121203,153.219100
523.476220,2886.803174,-9770.718434,919.314598
523.476544,3627.009116,-10288.862594,919.314598
523.476868,2960.823768,-9474.636058,1378.971896
523.477192,1850.514855,-10140.821405,1991.848295
523.477516,296.082377,-11843.295072,1149.143247
523.477840,-1184.329507,-11621.233289,536.266849
523.478164,-3923.091493,-10436.903782,0.000000
523.478488,-5551.544565,-10732.986159,-383.047749
523.478812,-4737.318029,-10732.986159,-1455.581446
523.479136,-3923.091493,-9696.697840,-1608.800546
523.479460,-2812.782580,-8586.388927,-1608.800546
523.479784,-1258.350101,-9326.594869,-1608.800546
523.480108,1110.308913,-10066.800811,-1838.629195
523.480432,2072.576638,-9326.594869,-1302.362347
523.480757,2072.576638,-8290.306550,-536.266849
523.481081,2590.720797,-9252.574275,229.828649
523.481405,3997.112087,-10510.924376,-306.438199
523.481729,3775.050304,-10140.821405,76.609550
523.482053,2590.720797,-9844.739029,995.924147
523.482377,1036.288319,-11621.233289,842.705048
523.482701,-296.082377,-11843.295072,612.876398
523.483025,-2368.659014,-10510.924376,536.266849
523.483349,-4441.235652,-10140.821405,153.219100
523.483673,-4885.359217,-10732.986159,-919.314598
523.483997,-4515.256246,-9770.718434,-2221.676944
523.484321,-3701.029710,-8438.347739,-1608.800546
523.484645,-2368.659014,-8660.409521,-1762.019645
523.484969,0.000000,-9844.739029,-1915.238745
523.485293,1258.350101,-9474.636058,-1608.800546
523.485617,1406.391290,-7920.203579,-1455.581446
523.485941,2072.576638,-8734.430116,-1072.533697
523.486265,3330.926739,-10214.842000,-919.314598
523.486589,4663.297435,-10658.965565,0.000000
523.486913,3849.070898,-9844.739029,766.095498
523.487237,2442.679609,-10955.047942,1302.362347
523.487561,1554.432478,-11695.253884,919.314598
523.487885,-148.041188,-11251.130318,919.314598
523.488209,-2146.597232,-10362.883188,612.876398
523.488533,-2886.803174,-10362.883188,229.828649
523.488857,-2590.720797,-10140.821405,-766.095498
523.489181,-2072.576638,-9030.512492,-1072.533697
523.489505,-1480.411884,-8438.347739,-766.095498
523.489829,-444.123565,-8808.450710,-1378.971896
523.490153,1036.288319,-8438.347739,-2068.457845
523.490477,888.247130,-7550.100608,-1378.971896
523.490801,888.247130,-8290.306550,-766.095498
523.491125,1332.370696,-9252.574275,-153.219100
523.491449,2368.659014,-9030.512492,229.828649
523.491773,2664.741391,-9178.553681,1608.800546
523.492097,2072.576638,-9992.780217,2145.067394
523.492421,1628.453072,-10658.965565,1608.800546
523.492745,0.000000,-9474.636058,1455.581446
523.493069,-1924.535449,-8364.327145,995.924147
523.493393,-3256.906145,-8438.347739,536.266849
523.493717,-2738.761985,-9474.636058,383.047749
523.494041,-1998.556043,-8660.409521,995.924147
523.494365,-1332.370696,-8290.306550,995.924147
523.494689,-740.205942,-9104.533087,229.828649
523.495013,0.000000,-9104.533087,-919.314598
523.495337,-148.041188,-8512.368333,-1149.143247
523.495661,-518.144159,-9400.615463,76.609550
523.495985,-222.061783,-10510.924376,-459.657299
523.496309,1332.370696,-10807.006753,612.876398
523.496633,1628.453072,-9770.718434,919.314598
523.496957,1702.473667,-9844.739029,995.924147
523.497281,1702.473667,-11399.171507,536.266849
523.497605,1258.350101,-11251.130318,612.876398
523.497929,-148.041188,-10214.842000,1455.581446
523.498253,-1110.308913,-10584.944971,1915.238745
523.498577,-1184.329507,-11399.171507,1225.752797
523.498901,-888.247130,-11103.089130,1149.143247
523.499225,-1110.308913,-10288.862594,459.657299
523.499549,-1776.494261,-10436.903782,0.000000
523.499874,-1110.308913,-11029.068536,-842.705048
523.500198,-296.082377,-9992.780217,-995.924147
523.500522,-296.082377,-9104.533087,-229.828649
523.500846,-518.144159,-9474.636058,-612.876398
523.501170,74.020594,-10066.800811,-919.314598
523.501494,1110.308913,-9030.512492,-919.314598
523.501818,1628.453072,-8364.327145,0.000000
523.502142,2294.638420,-9548.656652,536.266849
523.502466,3108.864956,-10362.883188,919.314598
523.502790,2442.679609,-9326.594869,1991.848295
523.503115,1332.370696,-9030.512492,2068.457845
523.503439,296.082377,-9622.677246,1225.752797
523.503763,296.082377,-9696.697840,766.095498
523.504087,-888.247130,-9326.594869,842.705048
523.504411,-1554.432478,-9400.615463,689.485948
523.504736,-1332.370696,-9844.739029,-612.876398
523.505060,-1480.411884,-9400.615463,-919.314598
523.505384,-2220.617826,-7920.203579,-1225.752797
523.505708,-2812.782580,-8142.265362,-1762.019645
523.506033,-1924.535449,-9252.574275,-1608.800546
523.506357,-444.123565,-9030.512492,-612.876398
523.506681,888.247130,-8660.409521,383.047749
523.507005,1110.308913,-8956.491898,536.266849
523.507329,2072.576638,-10066.800811,76.609550
523.507654,2072.576638,-9474.636058,229.828649
523.507978,740.205942,-8956.491898,459.657299
523.508302,-370.102971,-9474.636058,383.047749
523.508626,-148.041188,-10214.842000,0.000000
523.508951,-592.164754,-9474.636058,0.000000
523.509275,-2072.576638,-8882.471304,-612.876398
523.509599,-1702.473667,-10436.903782,-1378.971896
523.509923,-1110.308913,-10658.965565,-2451.505594
523.510247,-814.226536,-9548.656652,-1532.190996
523.510572,-1184.329507,-9178.553681,-1072.533697
523.510896,-148.041188,-9622.677246,-1532.190996
523.511220,1110.308913,-9622.677246,-1685.410096
523.511544,1924.535449,-8882.471304,-1455.581446
523.511869,2294.638420,-9474.636058,-1072.533697
523.512193,2368.659014,-10362.883188,-1302.362347
523.512517,2294.638420,-10658.965565,-689.485948
523.512841,888.247130,-10362.883188,-383.047749
523.513165,-222.061783,-10658.965565,-689.485948
523.513490,-444.123565,-11917.315666,-459.657299
523.513814,0.000000,-12361.439231,-229.828649
523.514138,-296.082377,-11621.233289,-459.657299
523.514462,-1258.350101,-11473.192101,0.000000
523.514787,-2072.576638,-11843.295072,-1455.581446
523.515111,-2368.659014,-11029.068536,-1149.143247
523.515435,-3404.947333,-10140.821405,-1378.971896
523.515759,-3849.070898,-9696.697840,-1838.629195
523.516084,-2146.597232,-9030.512492,-1991.848295
523.516408,222.061783,-8660.409521,-1608.800546
523.516732,1850.514855,-8956.491898,-459.657299
523.517056,2664.741391,-9252.574275,229.828649
523.517380,2442.679609,-8808.450710,153.219100
523.517705,1258.350101,-8142.265362,842.705048
523.518029,148.041188,-9030.512492,919.314598
523.518353,222.061783,-9622.677246,1149.143247
523.518677,518.144159,-9474.636058,1302.362347
523.519002,0.000000,-8438.347739,1838.629195
523.519326,-888.247130,-8956.491898,1378.971896
523.519650,-1036.288319,-9252.574275,306.438199
523.519974,-1184.329507,-9326.594869,842.705048
523.520298,-2738.761985,-8068.244768,612.876398
523.520623,-3923.091493,-8586.388927,0.000000
523.520947,-3404.947333,-8512.368333,-306.438199
523.521271,-1628.453072,-8290.306550,-153.219100
523.521595,-296.082377,-8068.244768,-612.876398
523.521920,444.123565,-9252.574275,229.828649
523.522244,1924.535449,-10436.903782,766.095498
523.522568,2368.659014,-9548.656652,1149.143247
523.522892,1628.453072,-9474.636058,1455.581446
523.523216,740.205942,-10140.821405,1608.800546
523.523541,1998.556043,-11695.253884,995.924147
523.523865,2072.576638,-10881.027347,1762.019645
523.524189,1258.350101,-9474.636058,1378.971896
523.524513,1850.514855,-10288.862594,995.924147
523.524838,1998.556043,-10881.027347,689.485948
523.525162,1258.350101,-9844.739029,919.314598
523.525486,-222.061783,-9178.553681,229.828649
523.525810,-1110.308913,-9844.739029,-306.438199
523.526135,-814.226536,-10362.883188,-383.047749
523.526459,740.205942,-10066.800811,76.609550
523.526783,1184.329507,-9622.677246,-229.828649
523.527107,1776.494261,-10584.944971,-536.266849
523.527431,1628.453072,-10288.862594,-306.438199
523.527756,592.164754,-9622.677246,76.609550
523.528080,74.020594,-10066.800811,306.438199
523.528404,740.205942,-10881.027347,612.876398
523.528728,0.000000,-10288.862594,612.876398
523.529053,0.000000,-8882.471304,766.095498
523.529377,0.000000,-9178.553681,689.485948
523.529701,888.247130,-10362.883188,689.485948
523.530025,888.247130,-10140.821405,1149.143247
523.530349,-740.205942,-9400.615463,612.876398
523.530674,-2294.638420,-9104.533087,-153.219100
523.530998,-2886.803174,-8808.450710,-1225.752797
523.531322,-2886.803174,-8586.388927,-842.705048
523.531646,-2812.782580,-8808.450710,-1762.019645
523.531971,-1924.535449,-9400.615463,-1225.752797
523.532295,-296.082377,-9252.574275,-919.314598
523.532619,222.061783,-7772.162391,-383.047749
523.532943,0.000000,-8216.285956,0.000000
523.533267,296.082377,-8660.409521,76.609550
523.533592,888.247130,-8438.347739,76.609550
523.533916,740.205942,-8364.327145,612.876398
523.534240,962.267725,-9178.553681,689.485948
523.534564,2442.679609,-10066.800811,842.705048
523.534889,3182.885551,-10214.842000,689.485948
523.535213,1702.473667,-9474.636058,229.828649
523.535537,-592.164754,-9548.656652,-536.266849
523.535861,-1480.411884,-10732.986159,-1608.800546
523.536185,-1480.411884,-11325.150913,-1455.581446
523.536510,-1480.411884,-10955.047942,-1532.190996
523.536834,-2294.638420,-10732.986159,-1685.410096
523.537158,-2368.659014,-11177.109724,-2451.505594
523.537482,-2812.782580,-10362.883188,-2681.334243
523.537807,-2812.782580,-9104.533087,-2528.115143
523.538131,-1776.494261,-9770.718434,-1685.410096
523.538455,0.000000,-9918.759623,-1685.410096
523.538779,444.123565,-9770.718434,-153.219100
523.539104,666.185348,-9548.656652,-919.314598
523.539428,1406.391290,-10807.006753,-689.485948
523.539752,1924.535449,-11399.171507,-612.876398
523.540076,1406.391290,-11177.109724,-383.047749
523.540400,370.102971,-11029.068536,536.266849
523.540725,518.144159,-11399.171507,-536.266849
523.541049,888.247130,-11473.192101,-153.219100
523.541373,1110.308913,-11103.089130,0.000000
523.541697,1406.391290,-11325.150913,-306.438199
523.542022,1258.350101,-11029.068536,-995.924147
523.542346,1332.370696,-9326.594869,-1378.971896
523.542670,666.185348,-7994.224174,-1072.533697
523.542994,740.205942,-8586.388927,-842.705048
523.543318,666.185348,-9030.512492,-1072.533697
523.543643,296.082377,-8216.285956,-383.047749
523.543967,-444.123565,-7179.997637,229.828649
523.544291,-814.226536,-7698.141797,536.266849
523.544615,-592.164754,-9030.512492,536.266849
523.544940,-1036.288319,-8512.368333,536.266849
523.545264,-2590.720797,-8068.244768,766.095498
523.545588,-3404.947333,-8808.450710,1225.752797
523.545912,-3478.967927,-9400.615463,306.438199
523.546236,-2960.823768,-9030.512492,1762.019645
523.546561,-3108.864956,-9252.574275,1685.410096
523.546885,-2368.659014,-10288.862594,919.314598
523.547209,-1850.514855,-9844.739029,612.876398
523.547533,-1480.411884,-8660.409521,689.485948
523.547858,-296.082377,-8068.244768,995.924147
523.548182,1702.473667,-9178.553681,306.438199
523.548506,3923.091493,-9104.533087,995.924147
523.548830,4589.276840,-7476.080014,1302.362347
523.549154,4959.379811,-7920.203579,1149.143247
523.549479,4885.359217,-9548.656652,1685.410096
523.549803,4071.132681,-10214.842000,1608.800546
523.550127,2738.761985,-9548.656652,1685.410096
523.550451,296.082377,-9622.677246,1302.362347
523.550776,-1110.308913,-10881.027347,766.095498
523.551100,-1850.514855,-10807.006753,1302.362347
523.551424,-2664.741391,-10288.862594,919.314598
523.551748,-4145.153275,-10658.965565,306.438199
523.552073,-3997.112087,-11103.089130,-76.609550
523.552397,-3404.947333,-10288.862594,-995.924147
523.552721,-3256.906145,-9474.636058,-995.924147
523.553045,-2294.638420,-9992.780217,-919.314598
523.553369,-444.123565,-10584.944971,-1072.533697
523.553694,1184.329507,-9918.759623,-612.876398
523.554018,2590.720797,-9326.594869,-153.219100
523.554342,4293.194464,-10362.883188,536.266849
523.554666,5551.544565,-11843.295072,1072.533697
523.554991,4145.153275,-11547.212695,1302.362347
523.555315,1554.432478,-11251.130318,1378.971896
523.555639,-222.061783,-11399.171507,689.485948
523.555963,-222.061783,-11029.068536,919.314598
523.556287,-888.247130,-10732.986159,1149.143247
523.556612,-1702.473667,-9696.697840,919.314598
523.556936,-1702.473667,-9252.574275,0.000000
523.557260,-1776.494261,-8364.327145,-612.876398
523.557584,-1850.514855,-7031.956449,-842.705048
523.557909,-1480.411884,-7254.018232,-1072.533697
523.558233,-740.205942,-7328.038826,-1378.971896
523.558557,814.226536,-7105.977043,-1532.190996
523.558881,1036.288319,-6661.853478,-1149.143247
523.559205,2294.638420,-7698.141797,-766.095498
523.559530,3775.050304,-9252.574275,-153.219100
523.559854,3108.864956,-9622.677246,459.657299
523.560178,1332.370696,-9844.739029,459.657299
523.560502,-666.185348,-10584.944971,76.609550
523.560827,-1332.370696,-10584.944971,0.000000
523.561151,-1554.432478,-10732.986159,229.828649
523.561475,-2812.782580,-10881.027347,76.609550
523.561799,-4293.194464,-10955.047942,-766.095498
523.562124,-4663.297435,-9918.759623,-1915.238745
523.562448,-4811.338623,-8956.491898,-2068.457845
523.562772,-3404.947333,-9178.553681,-2298.286494
523.563096,-1036.288319,-9400.615463,-2451.505594
523.563420,1702.473667,-8882.471304,-2911.162892
523.563745,2368.659014,-7254.018232,-2298.286494
523.564069,4145.153275,-8956.491898,-1915.238745
523.564393,5403.503377,-10732.986159,-1378.971896
523.564717,5847.626942,-10955.047942,-383.047749
523.565042,4589.276840,-10362.883188,76.609550
523.565366,2960.823768,-10732.986159,306.438199
523.565690,1850.514855,-11843.295072,306.438199
523.566014,740.205942,-12435.459826,1149.143247
523.566338,-1184.329507,-12435.459826,612.876398
523.566663,-3404.947333,-12953.603985,229.828649
523.566987,-5033.400406,-11695.253884,-1149.143247
523.567311,-5847.626942,-9770.718434,-1685.410096
523.567635,-5995.668130,-9696.697840,-1608.800546
523.567960,-4811.338623,-10066.800811,-1455.581446
523.568284,-2664.741391,-9178.553681,-2298.286494
523.568608,-962.267725,-7105.977043,-2451.505594
523.568932,518.144159,-6735.874072,-1838.629195
523.569256,3034.844362,-8808.450710,-919.314598
523.569581,4737.318029,-9918.759623,0.000000
523.569905,3775.050304,-9252.574275,1378.971896
523.570229,2146.597232,-8808.450710,1455.581446
523.570553,888.247130,-9844.739029,1072.533697
523.570878,1036.288319,-10584.944971,1608.800546
523.571202,444.123565,-10362.883188,2911.162892
523.571526,-1110.308913,-11547.212695,2528.115143
523.571850,-2738.761985,-11325.150913,1915.238745
523.572174,-3552.988522,-9548.656652,1149.143247
523.572499,-3849.070898,-7994.224174,459.657299
523.572823,-2664.741391,-7698.141797,0.000000
523.573147,-1036.288319,-8142.265362,-689.485948
523.573471,592.164754,-7846.182985,229.828649
523.573796,1258.350101,-7624.121203,0.000000
523.574120,2590.720797,-7698.141797,-383.047749
523.574444,4145.153275,-8734.430116,383.047749
523.574768,4293.194464,-9326.594869,689.485948
523.575093,2886.803174,-9622.677246,1532.190996
523.575417,1406.391290,-10658.965565,1762.019645
523.575741,1036.288319,-10658.965565,2145.067394
523.576065,1036.288319,-11029.068536,2681.334243
523.576389,0.000000,-11843.295072,3140.991542
523.576714,-2294.638420,-11399.171507,1838.629195
523.577038,-3108.864956,-9918.759623,995.924147
523.577362,-4071.132681,-8956.491898,153.219100
523.577686,-4367.215058,-9104.533087,0.000000
523.578011,-3478.967927,-9030.512492,-766.095498
523.578335,-1480.411884,-8290.306550,-1532.190996
523.578659,-592.164754,-6735.874072,-1762.019645
523.578983,1480.411884,-7846.182985,-1685.410096
523.579307,4145.153275,-9252.574275,-1685.410096
523.579632,5033.400406,-9474.636058,-383.047749
523.579956,4071.132681,-9178.553681,536.266849
523.580280,2738.761985,-9770.718434,306.438199
523.580604,2442.679609,-11251.130318,842.705048
523.580929,1776.494261,-10807.006753,995.924147
523.581253,518.144159,-10955.047942,1685.410096
523.581577,-814.226536,-11843.295072,1991.848295
523.581901,-1628.453072,-12361.439231,1915.238745
523.582225,-2738.761985,-10658.965565,1225.752797
523.582550,-3849.070898,-8882.471304,612.876398
523.582874,-3404.947333,-9548.656652,-689.485948
523.583198,-2294.638420,-9844.739029,-2298.286494
523.583522,-1110.308913,-9178.553681,-2374.896044
523.583847,148.041188,-8660.409521,-1455.581446
523.584171,2220.617826,-9326.594869,-1532.190996
523.584495,3330.926739,-9326.594869,-1302.362347
523.584819,2368.659014,-9030.512492,-459.657299
523.585144,1332.370696,-9992.780217,-153.219100
523.585468,1776.494261,-10362.883188,-153.219100
523.585792,1924.535449,-10066.800811,689.485948
523.586116,1184.329507,-9770.718434,2604.724693
523.586440,888.247130,-10807.006753,2374.896044
523.586765,-962.267725,-11621.233289,1762.019645
523.587089,-2368.659014,-10066.800811,919.314598
523.587413,-3552.988522,-8438.347739,76.609550
523.587737,-3923.091493,-8660.409521,-1455.581446
523.588062,-3182.885551,-9104.533087,-2068.457845
523.588386,-2220.617826,-7476.080014,-2221.676944
523.588710,-148.041188,-8068.244768,-2451.505594
523.589034,1702.473667,-9400.615463,-2451.505594
523.589358,2738.761985,-9918.759623,-2681.334243
523.589683,2368.659014,-9030.512492,-2068.457845
523.590007,1554.432478,-8808.450710,-689.485948
523.590331,1184.329507,-10658.965565,689.485948
523.590655,1036.288319,-11399.171507,153.219100
523.590980,444.123565,-10955.047942,536.266849
523.591304,-592.164754,-10955.047942,1225.752797
523.591628,-1110.308913,-11917.315666,919.314598
523.591952,-1332.370696,-11769.274478,612.876398
523.592276,-2960.823768,-10214.842000,612.876398
523.592601,-4145.153275,-9474.636058,-536.266849
523.592925,-3997.112087,-9696.697840,-1378.971896
523.593249,-3108.864956,-8734.430116,-1991.848295
523.593573,-1628.453072,-8290.306550,-2145.067394
523.593898,814.226536,-9474.636058,-1685.410096
523.594222,2516.700203,-9918.759623,-1838.629195
523.594546,3701.029710,-9104.533087,-995.924147
523.594870,3108.864956,-8734.430116,0.000000
523.595194,2442.679609,-9770.718434,306.438199
523.595519,2146.597232,-10066.800811,153.219100
523.595843,1554.432478,-8512.368333,229.828649
523.596167,666.185348,-8290.306550,1455.581446
523.596491,592.164754,-10288.862594,1991.848295
523.596816,296.082377,-10584.944971,2451.505594
523.597140,-1924.535449,-9178.553681,2451.505594
523.597464,-3478.967927,-8660.409521,1532.190996
523.597788,-3775.050304,-9548.656652,306.438199
523.598113,-2886.803174,-9918.759623,0.000000
523.598437,-2146.597232,-8660.409521,612.876398
523.598761,-814.226536,-9030.512492,-459.657299
523.599085,222.061783,-9770.718434,-1072.533697
523.599409,1702.473667,-8808.450710,-842.705048
523.599734,1776.494261,-8364.327145,-612.876398
523.600058,1628.453072,-9252.574275,-306.438199
523.600382,1924.535449,-9992.780217,0.000000
523.600706,2368.659014,-9918.759623,919.314598
523.601031,2220.617826,-9474.636058,1991.848295
523.601355,1776.494261,-10510.924376,2528.115143
523.601679,1628.453072,-11029.068536,1838.629195
523.602003,222.061783,-10510.924376,2374.896044
523.602327,-1998.556043,-10732.986159,2374.896044
523.602652,-3330.926739,-10732.986159,1455.581446
523.602976,-3182.885551,-10140.821405,229.828649
523.603300,-2960.823768,-8882.471304,-383.047749
523.603624,-1924.535449,-8216.285956,-995.924147
523.603948,-1036.288319,-8956.491898,-2145.067394
523.604272,1036.288319,-9326.594869,-1532.190996
523.604596,1628.453072,-7772.162391,-995.924147
523.604921,1332.370696,-7772.162391,-842.705048
523.605245,1924.535449,-9474.636058,-383.047749
523.605569,2220.617826,-10140.821405,76.609550
523.605893,1776.494261,-9844.739029,1302.362347
523.606217,1036.288319,-9844.739029,919.314598
523.606541,888.247130,-11029.068536,1072.533697
523.606865,148.041188,-10807.006753,1608.800546
523.607189,-592.164754,-10807.006753,1685.410096
523.607514,-2146.597232,-10881.027347,1608.800546
523.607838,-2368.659014,-10288.862594,842.705048
523.608162,-1554.432478,-9104.533087,-536.266849
523.608486,-1036.288319,-8956.491898,-1302.362347
523.608810,-592.164754,-9770.718434,-1302.362347
523.609134,1036.288319,-10362.883188,-1991.848295
523.609458,1924.535449,-9474.636058,-1685.410096
523.609783,1406.391290,-8586.388927,-1378.971896
523.610107,1258.350101,-9030.512492,-1915.238745
523.610431,1628.453072,-9548.656652,-1915.238745
523.610755,1776.494261,-9474.636058,-229.828649
523.611079,1406.391290,-10066.800811,-229.828649
523.611403,740.205942,-10658.965565,0.000000
523.611727,148.041188,-10955.047942,766.095498
523.612051,-888.247130,-9548.656652,383.047749
523.612376,-2294.638420,-9326.594869,0.000000
523.612700,-2886.803174,-10658.965565,0.000000
523.613024,-2220.617826,-11177.109724,-153.219100
523.613348,-888.247130,-10066.800811,229.828649
523.613672,-222.061783,-9030.512492,-689.485948
523.613996,1110.308913,-9178.553681,-1838.629195
523.614320,888.247130,-8660.409521,-2604.724693
523.614645,222.061783,-8882.471304,-2374.896044
523.614969,222.061783,-9474.636058,-2145.067394
523.615293,1480.411884,-9548.656652,-1838.629195
523.615617,2220.617826,-9326.594869,-612.876398
523.615941,1554.432478,-9104.533087,919.314598
523.616265,1332.370696,-9696.697840,0.000000
523.616589,592.164754,-10510.924376,0.000000
523.616913,-1628.453072,-9104.533087,536.266849
523.617238,-3108.864956,-9548.656652,1455.581446
523.617562,-3701.029710,-11177.109724,1685.410096
523.617886,-2442.679609,-11251.130318,1608.800546
523.618210,-1554.432478,-9178.553681,919.314598
523.618534,-1924.535449,-8438.347739,-536.266849
523.618858,-1998.556043,-9474.636058,-1302.362347
523.619182,0.000000,-9844.739029,-1149.143247
523.619507,666.185348,-9252.574275,-612.876398
523.619831,740.205942,-8734.430116,-689.485948
523.620155,814.226536,-9178.553681,-919.314598
523.620479,1406.391290,-9548.656652,-306.438199
523.620803,1776.494261,-9400.615463,-536.266849
523.621127,1850.514855,-9622.677246,459.657299
523.621451,1258.350101,-10066.800811,1608.800546
523.621775,148.041188,-9696.697840,1302.362347
523.622100,-1924.535449,-9030.512492,1225.752797
523.622424,-3256.906145,-9400.615463,1455.581446
523.622748,-2738.761985,-10066.800811,1149.143247
523.623072,-1702.473667,-9918.759623,689.485948
523.623396,-1850.514855,-8068.244768,689.485948
523.623720,-962.267725,-8512.368333,-306.438199
523.624044,740.205942,-9548.656652,-1225.752797
523.624369,592.164754,-9474.636058,-1149.143247
523.624693,370.102971,-9844.739029,-842.705048
523.625017,518.144159,-10881.027347,-995.924147
523.625341,1850.514855,-11547.212695,-1302.362347
523.625665,1702.473667,-9992.780217,-383.047749
523.625989,2072.576638,-10214.842000,153.219100
523.626313,2590.720797,-12139.377449,612.876398
523.626637,1998.556043,-11769.274478,153.219100
523.626962,0.000000,-9918.759623,383.047749
523.627286,-1628.453072,-9474.636058,1072.533697
523.627610,-1406.391290,-10658.965565,919.314598
523.627934,-1036.288319,-10584.944971,536.266849
523.628258,-1184.329507,-9400.615463,612.876398
523.628582,-1554.432478,-9104.533087,306.438199
523.628906,0.000000,-9326.594869,-995.924147
523.629231,1184.329507,-8512.368333,-1455.581446
523.629555,444.123565,-7920.203579,-995.924147
523.629879,148.041188,-9252.574275,-1149.143247
523.630203,888.247130,-10140.821405,-919.314598
523.630527,1628.453072,-9252.574275,-383.047749
523.630851,1998.556043,-8142.265362,-306.438199
523.631175,2072.576638,-9622.677246,383.047749
523.631500,1702.473667,-10214.842000,-229.828649
523.631824,888.247130,-9326.594869,689.485948
523.632148,-592.164754,-8586.388927,1302.362347
523.632472,-1406.391290,-9770.718434,1225.752797
523.632796,-1110.308913,-10214.842000,1838.629195
523.633120,-1110.308913,-9844.739029,1455.581446
523.633444,-1850.514855,-9252.574275,612.876398
523.633768,-1924.535449,-9104.533087,-766.095498
523.634093,-1332.370696,-9474.636058,-1225.752797
523.634417,-1184.329507,-9178.553681,-536.266849
523.634741,-1628.453072,-8956.491898,-995.924147
523.635065,-592.164754,-9252.574275,-1455.581446
523.635389,1110.308913,-8956.491898,-766.095498
523.635713,2294.638420,-8882.471304,-459.657299
523.636037,2442.679609,-9474.636058,-459.657299
523.636362,1998.556043,-9400.615463,-459.657299
523.636686,1924.535449,-8808.450710,0.000000
523.637010,814.226536,-8660.409521,689.485948
523.637334,74.020594,-9992.780217,766.095498
523.637658,148.041188,-10214.842000,459.657299
523.637982,296.082377,-9178.553681,1149.143247
523.638306,222.061783,-9474.636058,229.828649
523.638630,0.000000,-10584.944971,0.000000
523.638955,0.000000,-10140.821405,-995.924147
523.639279,-518.144159,-9474.636058,-1072.533697
523.639603,-2146.597232,-9622.677246,-1532.190996
523.639927,-1628.453072,-11103.089130,-2374.896044
523.640251,-222.061783,-10658.965565,-2145.067394
523.640575,666.185348,-10436.903782,-842.705048
523.640899,1776.494261,-11103.089130,0.000000
523.641224,1924.535449,-11769.274478,0.000000
523.641548,1480.411884,-11621.233289,76.609550
523.641872,-518.144159,-10214.842000,76.609550
523.642196,-1702.473667,-10066.800811,-153.219100
523.642520,-1480.411884,-10881.027347,612.876398
523.642844,-814.226536,-10584.944971,1302.362347
523.643168,-1850.514855,-9178.553681,1532.190996
523.643492,-2072.576638,-8438.347739,1072.533697
523.643817,-1480.411884,-9030.512492,-306.438199
523.644141,-814.226536,-8586.388927,-536.266849
523.644465,-814.226536,-8586.388927,-383.047749
523.644789,-1702.473667,-9104.533087,-229.828649
523.645113,-1332.370696,-8882.471304,-766.095498
523.645437,0.000000,-8734.430116,-536.266849
523.645761,0.000000,-9474.636058,-229.828649
523.646086,296.082377,-9696.697840,-536.266849
523.646410,1332.370696,-9178.553681,-612.876398
523.646734,740.205942,-9178.553681,1149.143247
523.647058,0.000000,-9474.636058,612.876398
523.647382,-518.144159,-9770.718434,306.438199
523.647706,0.000000,-9474.636058,612.876398
523.648030,0.000000,-9252.574275,1225.752797
523.648354,-518.144159,-10066.800811,919.314598
523.648679,222.061783,-10881.027347,459.657299
523.649003,-370.102971,-8808.450710,153.219100
523.649327,-1258.350101,-8068.244768,-612.876398
523.649651,-1776.494261,-9326.594869,-1532.190996
523.649975,-1554.432478,-9918.759623,-1838.629195
523.650299,-444.123565,-9696.697840,-1149.143247
523.650623,814.226536,-9400.615463,-459.657299
523.650948,1850.514855,-10436.903782,-383.047749
523.651272,2072.576638,-10955.047942,-536.266849
523.651596,1850.514855,-10140.821405,-306.438199
523.651920,1036.288319,-9992.780217,153.219100
523.652244,962.267725,-10658.965565,153.219100
523.652568,1554.432478,-10881.027347,306.438199
523.652892,1628.453072,-9844.739029,1762.019645
523.653216,1332.370696,-9178.553681,1072.533697
523.653541,1332.370696,-9992.780217,689.485948
523.653865,666.185348,-9770.718434,0.000000
523.654189,-296.082377,-9474.636058,-229.828649
523.654513,-1998.556043,-9696.697840,-766.095498
523.654837,-1924.535449,-10214.842000,-766.095498
523.655161,-888.247130,-10066.800811,-306.438199
523.655485,-222.061783,-10288.862594,0.000000
523.655810,-814.226536,-10658.965565,-153.219100
523.656134,-370.102971,-10214.842000,-306.438199
523.656458,370.102971,-9326.594869,0.000000
523.656782,0.000000,-9030.512492,0.000000
523.657106,0.000000,-9474.636058,306.438199
523.657430,592.164754,-9770.718434,689.485948
523.657754,1036.288319,-8438.347739,766.095498
523.658079,444.123565,-7624.121203,842.705048
523.658403,-518.144159,-8586.388927,383.047749
523.658727,148.041188,-9474.636058,689.485948
523.659051,814.226536,-9400.615463,383.047749
523.659375,-518.144159,-9326.594869,766.095498
523.659699,-1850.514855,-9770.718434,0.000000
523.660023,-1554.432478,-9992.780217,0.000000
523.660347,-740.205942,-9770.718434,0.000000
523.660672,-370.102971,-9918.759623,-229.828649
523.660996,-296.082377,-10510.924376,-536.266849
523.661320,-666.185348,-9622.677246,-459.657299
523.661644,-740.205942,-8808.450710,-766.095498
523.661968,-888.247130,-8586.388927,-766.095498
523.662292,222.061783,-9326.594869,-766.095498
523.662616,1332.370696,-9474.636058,-612.876398
523.662941,1184.329507,-9326.594869,76.609550
523.663265,814.226536,-8586.388927,383.047749
523.663589,1036.288319,-9548.656652,76.609550
523.663913,1406.391290,-10658.965565,76.609550
523.664237,592.164754,-10807.006753,536.266849
523.664561,-296.082377,-10658.965565,76.609550
523.664885,-1110.308913,-10510.924376,76.609550
523.665209,-1406.391290,-10214.842000,76.609550
523.665534,-962.267725,-11103.089130,-1225.752797
523.665858,-1332.370696,-10584.944971,-995.924147
523.666182,-370.102971,-10066.800811,-1608.800546
523.666506,-592.164754,-9326.594869,-1302.362347
523.666830,-444.123565,-8956.491898,-1225.752797
523.667154,74.020594,-9104.533087,-766.095498
523.667478,1480.411884,-9104.533087,-536.266849
523.667803,1924.535449,-9178.553681,-229.828649
523.668127,1036.288319,-8956.491898,-842.705048
523.668451,740.205942,-9474.636058,-383.047749
523.668775,1776.494261,-10658.965565,689.485948
523.669099,1110.308913,-10658.965565,1225.752797
523.669423,-1184.329507,-10510.924376,459.657299
523.669747,-2886.803174,-10510.924376,0.000000
523.670071,-2590.720797,-10436.903782,153.219100
523.670396,-1554.432478,-10807.006753,76.609550
523.670720,-1184.329507,-11103.089130,842.705048
523.671044,-296.082377,-10140.821405,383.047749
523.671368,-370.102971,-9030.512492,-153.219100
523.671692,-592.164754,-8068.244768,-536.266849
523.672016,-296.082377,-8660.409521,-689.485948
523.672340,518.144159,-9474.636058,-536.266849
523.672665,962.267725,-8142.265362,-459.657299
523.672989,1036.288319,-7031.956449,-383.047749
523.673313,1258.350101,-7179.997637,-306.438199
523.673637,1480.411884,-8956.491898,76.609550
523.673961,1554.432478,-9548.656652,689.485948
523.674285,-444.123565,-9178.553681,689.485948
523.674609,-2146.597232,-9696.697840,536.266849
523.674933,-2590.720797,-10584.944971,1225.752797
523.675258,-2072.576638,-11177.109724,1455.581446
523.675582,-1554.432478,-11029.068536,1532.190996
523.675906,-888.247130,-11103.089130,1608.800546
523.676230,-592.164754,-10881.027347,153.219100
523.676554,-666.185348,-9622.677246,-689.485948
523.676878,-222.061783,-8956.491898,-1302.362347
523.677202,1036.288319,-9474.636058,-1532.190996
523.677527,2294.638420,-9622.677246,-1378.971896
523.677851,1998.556043,-9030.512492,-919.314598
523.678175,2146.597232,-8882.471304,-689.485948
523.678499,2146.597232,-9474.636058,0.000000
523.678823,2442.679609,-10066.800811,0.000000
523.679147,666.185348,-9622.677246,383.047749
523.679471,-1332.370696,-9548.656652,306.438199
523.679795,-1702.473667,-10214.842000,1455.581446
523.680120,-1554.432478,-10066.800811,1225.752797
523.680444,-1036.288319,-10362.883188,1991.848295
523.680768,-888.247130,-10510.924376,1225.752797
523.681092,-740.205942,-10362.883188,612.876398
523.681416,-370.102971,-9326.594869,-612.876398
523.681740,-296.082377,-8882.471304,-1072.533697
523.682064,518.144159,-9622.677246,-536.266849
523.682389,2294.638420,-10066.800811,-1225.752797
523.682713,2886.803174,-8956.491898,-1072.533697
523.683037,2664.741391,-8364.327145,-689.485948
523.683361,2220.617826,-9844.739029,-536.266849
523.683685,2368.659014,-11177.109724,-689.485948
523.684009,518.144159,-9918.759623,0.000000
523.684333,-2146.597232,-8882.471304,0.000000
523.684657,-3256.906145,-8956.491898,-612.876398
523.684982,-2368.659014,-9622.677246,-306.438199
523.685306,-2146.597232,-8660.409521,459.657299
523.685630,-2072.576638,-9474.636058,1915.238745
523.685954,-1850.514855,-10807.006753,1225.752797
523.686278,-962.267725,-10732.986159,842.705048
523.686602,-888.247130,-8956.491898,0.000000
523.686926,-222.061783,-8438.347739,-1225.752797
523.687251,1184.329507,-9104.533087,-1532.190996
523.687575,2294.638420,-9474.636058,-1838.629195
523.687899,2738.761985,-9548.656652,-1149.143247
523.688223,3775.050304,-9400.615463,-536.266849
523.688547,4071.132681,-9918.759623,-612.876398
523.688871,2812.782580,-9400.615463,-229.828649
523.689195,148.041188,-9030.512492,-919.314598
523.689520,-1776.494261,-9400.615463,-1762.019645
523.689844,-2368.659014,-9548.656652,-306.438199
523.690168,-2146.597232,-9844.739029,995.924147
523.690492,-2294.638420,-11399.171507,2451.505594
523.690816,-2590.720797,-11843.295072,2221.676944
523.691140,-2516.700203,-10140.821405,1455.581446
523.691464,-2516.700203,-8660.409521,-153.219100
523.691788,-2294.638420,-8808.450710,-1225.752797
523.692113,-740.205942,-10140.821405,-995.924147
523.692437,1110.308913,-9474.636058,-766.095498
523.692761,2072.576638,-8290.306550,-1302.362347
523.693085,2590.720797,-8216.285956,-1302.362347
523.693409,3108.864956,-8882.471304,-1608.800546
523.693733,3404.947333,-9770.718434,-1532.190996
523.694057,1554.432478,-9696.697840,-612.876398
523.694382,-444.123565,-9474.636058,306.438199
523.694706,-1036.288319,-10066.800811,306.438199
523.695030,-1332.370696,-10436.903782,1302.362347
523.695354,-1850.514855,-10807.006753,1532.190996
523.695678,-2220.617826,-11547.212695,2221.676944
523.696002,-3034.844362,-11621.233289,1608.800546
523.696326,-3849.070898,-10362.883188,1302.362347
523.696650,-4071.132681,-9326.594869,766.095498
523.696975,-2590.720797,-9252.574275,-306.438199
523.697299,-740.205942,-9326.594869,-1685.410096
523.697623,0.000000,-8290.306550,-1685.410096
523.697947,1110.308913,-7846.182985,-1915.238745
523.698271,2146.597232,-9104.533087,-1685.410096
523.698595,2590.720797,-9474.636058,-995.924147
523.698919,2072.576638,-9252.574275,0.000000
523.699244,1406.391290,-9622.677246,919.314598
523.699568,444.123565,-10288.862594,0.000000
523.699892,444.123565,-10362.883188,842.705048
523.700216,-370.102971,-9474.636058,2145.067394
523.700540,-444.123565,-10658.965565,2374.896044
523.700864,-666.185348,-11325.150913,2298.286494
523.701189,-1184.329507,-10066.800811,2068.457845
523.701513,-1924.535449,-8808.450710,1072.533697
523.701837,-1998.556043,-8808.450710,536.266849
523.702161,-370.102971,-8660.409521,-1149.143247
523.702485,740.205942,-7994.224174,-995.924147
523.702809,1998.556043,-8068.244768,-995.924147
523.703134,3552.988522,-9474.636058,-995.924147
523.703458,3923.091493,-9696.697840,-1762.019645
523.703782,2738.761985,-8808.450710,-1685.410096
523.704106,888.247130,-8734.430116,-689.485948
523.704430,148.041188,-10732.986159,-766.095498
523.704754,444.123565,-11251.130318,76.609550
523.705079,-148.041188,-10288.862594,1685.410096
523.705403,0.000000,-10658.965565,1991.848295
523.705727,-592.164754,-11991.336260,1838.629195
523.706051,-1332.370696,-11103.089130,1225.752797
523.706375,-2146.597232,-9622.677246,1532.190996
523.706699,-2368.659014,-9696.697840,1455.581446
523.707024,-962.267725,-10362.883188,-153.219100
523.707348,148.041188,-9252.574275,-459.657299
523.707672,1184.329507,-7476.080014,-995.924147
523.707996,1480.411884,-8512.368333,-2528.115143
523.708320,2146.597232,-9400.615463,-3064.381992
523.708644,2294.638420,-8364.327145,-2834.553343
523.708969,888.247130,-7698.141797,-2298.286494
523.709293,-370.102971,-8808.450710,-2145.067394
523.709617,0.000000,-9252.574275,-1302.362347
523.709941,296.082377,-9252.574275,153.219100
523.710265,518.144159,-9622.677246,1302.362347
523.710589,222.061783,-11177.109724,1685.410096
523.710914,-518.144159,-11103.089130,1532.190996
523.711238,-1776.494261,-9326.594869,1608.800546
523.711562,-2442.679609,-8734.430116,2068.457845
523.711886,-2220.617826,-10881.027347,459.657299
523.712210,-1850.514855,-10510.924376,0.000000
523.712534,-1036.288319,-9178.553681,-1302.362347
523.712859,-370.102971,-8882.471304,-2298.286494
523.713183,740.205942,-9696.697840,-3140.991542
523.713507,1628.453072,-9622.677246,-3064.381992
523.713831,1184.329507,-9252.574275,-2145.067394
523.714155,74.020594,-10066.800811,-1915.238745
523.714479,0.000000,-11177.109724,-1532.190996
523.714804,592.164754,-9992.780217,0.000000
523.715128,814.226536,-10066.800811,919.314598
523.715452,1036.288319,-11399.171507,1685.410096
523.715776,1110.308913,-11547.212695,2068.457845
523.716100,-222.061783,-10066.800811,2298.286494
523.716424,-2220.617826,-9252.574275,1991.848295
523.716749,-2886.803174,-10732.986159,2298.286494
523.717073,-1924.535449,-10658.965565,1149.143247
523.717397,-814.226536,-8142.265362,306.438199
523.717721,-814.226536,-6735.874072,-1608.800546
523.718045,-888.247130,-7920.203579,-2528.115143
523.718370,0.000000,-9622.677246,-2604.724693
523.718694,1036.288319,-9030.512492,-1762.019645
523.719018,370.102971,-8734.430116,-842.705048
523.719342,148.041188,-9548.656652,-612.876398
523.719666,444.123565,-9844.739029,-383.047749
523.719990,74.020594,-9844.739029,-995.924147
523.720315,0.000000,-9622.677246,153.219100
523.720639,148.041188,-10807.006753,1225.752797
523.720963,-222.061783,-11399.171507,1762.019645
523.721287,-1184.329507,-10436.903782,2681.334243
523.721611,-1776.494261,-10066.800811,2757.943793
523.721935,-1776.494261,-9696.697840,919.314598
523.722260,-1480.411884,-8586.388927,-689.485948
523.722584,-2294.638420,-7624.121203,-1991.848295
523.722908,-1406.391290,-8068.244768,-2451.505594
523.723232,666.185348,-8956.491898,-2604.724693
523.723556,1628.453072,-8512.368333,-1685.410096
523.723880,1480.411884,-8068.244768,-1302.362347
523.724205,1702.473667,-9326.594869,-1532.190996
523.724529,1998.556043,-9992.780217,-2068.457845
523.724853,1702.473667,-9696.697840,-766.095498
523.725177,1998.556043,-10362.883188,459.657299
523.725501,3034.844362,-11843.295072,1378.971896
523.725825,2812.782580,-12731.542202,2374.896044
523.726150,1776.494261,-11547.212695,2681.334243
523.726474,-444.123565,-10584.944971,2528.115143
523.726798,-1406.391290,-11251.130318,1455.581446
523.727122,-1924.535449,-11251.130318,459.657299
523.727446,-1776.494261,-9622.677246,0.000000
523.727770,-1554.432478,-8438.347739,-766.095498
523.728095,-444.123565,-9400.615463,-2374.896044
523.728419,-222.061783,-8512.368333,-2451.505594
523.728743,-222.061783,-8216.285956,-2221.676944
523.729067,-222.061783,-8660.409521,-1915.238745
523.729391,1036.288319,-9178.553681,-1685.410096
523.729715,1332.370696,-8438.347739,76.609550
523.730040,1702.473667,-8512.368333,1302.362347
523.730364,2368.659014,-10362.883188,2068.457845
523.730688,2072.576638,-11325.150913,2221.676944
523.731012,1406.391290,-9918.759623,3140.991542
523.731336,0.000000,-9474.636058,3370.820191
523.731660,-1332.370696,-10436.903782,3294.210641
523.731985,-1924.535449,-10362.883188,1762.019645
523.732309,-1924.535449,-8808.450710,1915.238745
523.732633,-1924.535449,-7402.059420,-689.485948
523.732957,-2220.617826,-7920.203579,-2221.676944
523.733281,-1850.514855,-8512.368333,-2068.457845
523.733606,-1036.288319,-7994.224174,-2068.457845
523.733930,-888.247130,-8142.265362,-1762.019645
523.734254,-1036.288319,-8438.347739,-1915.238745
523.734578,0.000000,-8364.327145,-1991.848295
523.734902,740.205942,-8734.430116,-842.705048
523.735226,1850.514855,-10584.944971,76.609550
523.735551,2368.659014,-11843.295072,1072.533697
523.735875,2368.659014,-11769.274478,1991.848295
523.736199,962.267725,-10510.924376,1915.238745
523.736523,-148.041188,-10955.047942,1378.971896
523.736847,0.000000,-11399.171507,919.314598
523.737171,74.020594,-11325.150913,689.485948
523.737496,-888.247130,-10214.842000,76.609550
523.737820,-814.226536,-10436.903782,-766.095498
523.738144,740.205942,-9992.780217,-1991.848295
523.738468,518.144159,-9400.615463,-2145.067394
523.738792,-666.185348,-9326.594869,-2068.457845
523.739116,-592.164754,-10436.903782,-2604.724693
523.739441,-222.061783,-10140.821405,-2451.505594
523.739765,74.020594,-9474.636058,-1762.019645
523.740089,1036.288319,-9252.574275,-995.924147
523.740413,2146.597232,-11325.150913,0.000000
523.740737,2220.617826,-11843.295072,612.876398
523.741061,1258.350101,-10584.944971,1991.848295
523.741386,-370.102971,-10584.944971,2145.067394
523.741710,-1184.329507,-11177.109724,1608.800546
523.742034,-1184.329507,-9622.677246,1149.143247
523.742358,-444.123565,-8512.368333,1532.190996
523.742682,-740.205942,-9474.636058,383.047749
523.743006,-444.123565,-9474.636058,-995.924147
523.743331,-1036.288319,-7772.162391,-1302.362347
523.743655,-1776.494261,-7105.977043,-1378.971896
523.743979,-2072.576638,-7772.162391,-1762.019645
523.744303,-1554.432478,-9030.512492,-1915.238745
523.744627,-1850.514855,-7476.080014,-1302.362347
523.744951,-1184.329507,-7550.100608,-383.047749
523.745276,74.020594,-9474.636058,0.000000
523.745600,814.226536,-9992.780217,689.485948
523.745924,666.185348,-9252.574275,1915.238745
523.746248,-148.041188,-8808.450710,2145.067394
523.746572,0.000000,-10362.883188,2145.067394
523.746896,-148.041188,-9992.780217,1838.629195
523.747221,0.000000,-9474.636058,2451.505594
523.747545,0.000000,-9696.697840,1915.238745
523.747869,0.000000,-10140.821405,-306.438199
523.748193,-518.144159,-8512.368333,-1302.362347
523.748517,-1850.514855,-8068.244768,-1225.752797
523.748841,-2072.576638,-9548.656652,-2068.457845
523.749166,-1406.391290,-10214.842000,-2834.553343
523.749490,-1110.308913,-8882.471304,-1608.800546
523.749814,222.061783,-9104.533087,-995.924147
523.750138,740.205942,-10658.965565,-766.095498
523.750462,1924.535449,-10881.027347,-229.828649
523.750787,2886.803174,-9696.697840,1072.533697
523.751111,3108.864956,-9474.636058,1991.848295
523.751435,3034.844362,-10658.965565,1762.019645
523.751759,2072.576638,-11325.150913,2298.286494
523.752083,1702.473667,-10732.986159,2604.724693
523.752407,592.164754,-10066.800811,919.314598
523.752732,-444.123565,-11029.068536,-459.657299
523.753056,-1332.370696,-10510.924376,-1225.752797
523.753380,-1554.432478,-9474.636058,-1149.143247
523.753704,-1850.514855,-9844.739029,-1532.190996
523.754028,-1184.329507,-10362.883188,-1608.800546
523.754352,0.000000,-9696.697840,-1455.581446
523.754677,296.082377,-9178.553681,-1149.143247
523.755001,888.247130,-9400.615463,-1532.190996
523.755325,1258.350101,-9992.780217,-1225.752797
523.755649,1554.432478,-9622.677246,-766.095498
523.755973,740.205942,-9178.553681,306.438199
523.756297,0.000000,-10288.862594,919.314598
523.756622,-74.020594,-10584.944971,1225.752797
523.756946,814.226536,-10140.821405,1072.533697
523.757270,222.061783,-9770.718434,1915.238745
523.757594,-1332.370696,-10658.965565,536.266849
523.757918,-1628.453072,-10436.903782,-306.438199
523.758242,-1924.535449,-9400.615463,0.000000
523.758567,-2368.659014,-8956.491898,-306.438199
523.758891,-2220.617826,-9030.512492,-1685.410096
523.759215,-1258.350101,-8142.265362,-1762.019645
523.759539,-962.267725,-7254.018232,-1608.800546
523.759863,-740.205942,-7550.100608,-1072.533697
523.760187,518.144159,-8956.491898,-766.095498
523.760512,1110.308913,-9104.533087,-306.438199
523.760836,1036.288319,-8216.285956,536.266849
523.761160,518.144159,-8956.491898,995.924147
523.761484,0.000000,-9548.656652,842.705048
523.761808,592.164754,-9696.697840,689.485948
523.762132,666.185348,-9770.718434,1455.581446
523.762457,666.185348,-10732.986159,1532.190996
523.762781,592.164754,-10881.027347,766.095498
523.763105,518.144159,-9400.615463,76.609550
523.763429,-296.082377,-8216.285956,0.000000
523.763753,-814.226536,-9622.677246,-1072.533697
523.764077,-518.144159,-10732.986159,-842.705048
523.764402,0.000000,-10288.862594,-689.485948
523.764726,370.102971,-9548.656652,-689.485948
523.765050,888.247130,-10510.924376,-536.266849
523.765374,814.226536,-11251.130318,-1149.143247
523.765698,148.041188,-10140.821405,-689.485948
523.766022,-1110.308913,-9622.677246,-459.657299
523.766347,-518.144159,-10436.903782,383.047749
523.766671,-222.061783,-10807.006753,536.266849
523.766995,0.000000,-9918.759623,1149.143247
523.767319,-296.082377,-10066.800811,1302.362347
523.767643,0.000000,-10955.047942,1225.752797
523.767968,148.041188,-10658.965565,459.657299
523.768292,-1184.329507,-9104.533087,536.266849
523.768616,-1406.391290,-8734.430116,229.828649
523.768940,-2146.597232,-9104.533087,-919.314598
523.769264,-1110.308913,-9030.512492,-919.314598
523.769588,-592.164754,-8586.388927,-383.047749
523.769913,0.000000,-9178.553681,-536.266849
523.770237,962.267725,-9104.533087,-1149.143247
523.770561,1036.288319,-8290.306550,-459.657299
523.770885,222.061783,-7550.100608,306.438199
523.771209,-296.082377,-8882.471304,-842.705048
523.771533,-148.041188,-10288.862594,842.705048
523.771858,222.061783,-9474.636058,919.314598
523.772182,222.061783,-9178.553681,1608.800546
523.772506,0.000000,-9918.759623,842.705048
523.772830,444.123565,-10732.986159,536.266849
523.773154,444.123565,-10288.862594,1225.752797
523.773478,-296.082377,-9622.677246,842.705048
523.773803,-814.226536,-10140.821405,0.000000
523.774127,-666.185348,-10140.821405,-1455.581446
523.774451,-148.041188,-9326.594869,-1225.752797
523.774775,444.123565,-9474.636058,-766.095498
523.775099,1332.370696,-11029.068536,-1378.971896
523.775423,1258.350101,-9918.759623,-1302.362347
523.775748,444.123565,-9104.533087,-919.314598
523.776072,148.041188,-9400.615463,-229.828649
523.776396,296.082377,-10658.965565,-842.705048
523.776720,888.247130,-10140.821405,-153.219100
523.777044,444.123565,-9030.512492,612.876398
523.777368,74.020594,-9400.615463,612.876398
523.777693,518.144159,-10436.903782,0.000000
523.778017,888.247130,-9400.615463,383.047749
523.778341,296.082377,-8882.471304,459.657299
523.778665,-370.102971,-9770.718434,76.609550
523.778989,-666.185348,-9918.759623,-766.095498
523.779313,-592.164754,-9400.615463,-842.705048
523.779638,-518.144159,-9696.697840,-612.876398
523.779962,-74.020594,-10732.986159,-842.705048
523.780286,0.000000,-10807.006753,-1072.533697
523.780610,-592.164754,-8882.471304,-459.657299
523.780934,-962.267725,-8586.388927,536.266849
523.781258,-888.247130,-9696.697840,0.000000
523.781583,0.000000,-10140.821405,0.000000
523.781907,444.123565,-8734.430116,383.047749
523.782231,222.061783,-8364.327145,1149.143247
523.782555,518.144159,-9474.636058,766.095498
523.782879,888.247130,-9474.636058,842.705048
523.783204,0.000000,-8660.409521,1149.143247
523.783528,-1628.453072,-8586.388927,536.266849
523.783852,-1776.494261,-10066.800811,-383.047749
523.784176,-1554.432478,-9474.636058,-842.705048
523.784500,-1036.288319,-9030.512492,0.000000
523.784824,-296.082377,-10288.862594,-536.266849
523.785149,74.020594,-10584.944971,-995.924147
523.785473,0.000000,-9548.656652,-612.876398
523.785797,-1110.308913,-7920.203579,-306.438199
523.786121,-518.144159,-9400.615463,-842.705048
523.786445,518.144159,-10436.903782,-766.095498
523.786769,1480.411884,-9696.697840,0.000000
523.787094,1628.453072,-9474.636058,459.657299
523.787418,1554.432478,-10510.924376,229.828649
523.787742,1554.432478,-11029.068536,-229.828649
523.788066,370.102971,-10288.862594,-153.219100
523.788390,-1332.370696,-10214.842000,536.266849
523.788714,-2072.576638,-11399.171507,383.047749
523.789039,-1036.288319,-12213.398043,0.000000
523.789363,-740.205942,-10288.862594,153.219100
523.789687,-518.144159,-9992.780217,459.657299
523.790011,0.000000,-11177.109724,-306.438199
523.790335,0.000000,-10658.965565,-1149.143247
523.790659,-518.144159,-8586.388927,-689.485948
523.790984,-222.061783,-7920.203579,-689.485948
523.791308,518.144159,-9178.553681,-995.924147
523.791632,1110.308913,-8734.430116,-459.657299
523.791956,592.164754,-7476.080014,0.000000
523.792280,444.123565,-7994.224174,0.000000
523.792604,888.247130,-9474.636058,153.219100
523.792929,1184.329507,-9696.697840,995.924147
523.793253,-148.041188,-9030.512492,2145.067394
523.793577,-888.247130,-10214.842000,1378.971896
523.793901,-1332.370696,-11103.089130,766.095498
523.794225,-1406.391290,-10214.842000,919.314598
523.794549,-1628.453072,-9844.739029,1455.581446
523.794874,-1258.350101,-10436.903782,229.828649
523.795198,-296.082377,-10066.800811,-229.828649
523.795522,-444.123565,-8660.409521,153.219100
523.795846,-444.123565,-8438.347739,0.000000
523.796170,-370.102971,-9326.594869,-689.485948
523.796494,148.041188,-9400.615463,-1072.533697
523.796819,222.061783,-7994.224174,-689.485948
523.797143,444.123565,-8142.265362,-459.657299
523.797467,1110.308913,-9178.553681,-306.438199
523.797791,1554.432478,-10140.821405,-536.266849
523.798115,888.247130,-9400.615463,766.095498
523.798439,-814.226536,-9696.697840,383.047749
523.798764,-1776.494261,-10732.986159,76.609550
523.799088,-1258.350101,-10658.965565,229.828649
523.799412,-296.082377,-10584.944971,1302.362347
523.799736,370.102971,-10807.006753,766.095498
523.800060,444.123565,-11473.192101,536.266849
523.800385,592.164754,-9548.656652,0.000000
523.800709,0.000000,-8734.430116,-153.219100
523.801033,0.000000,-9844.739029,-1072.533697
523.801357,888.247130,-10140.821405,-1762.019645
523.801681,888.247130,-8882.471304,-1302.362347
523.802006,518.144159,-8216.285956,-995.924147
523.802330,1110.308913,-9770.718434,-1072.533697
523.802654,1628.453072,-10214.842000,-459.657299
523.802978,1480.411884,-9622.677246,-229.828649
523.803303,74.020594,-10288.862594,919.314598
523.803627,-740.205942,-10732.986159,229.828649
523.803951,-666.185348,-10732.986159,459.657299
523.804275,-1184.329507,-9548.656652,1302.362347
523.804599,-962.267725,-10066.800811,2068.457845
523.804924,-740.205942,-10732.986159,689.485948
523.805248,-666.185348,-9178.553681,0.000000
523.805572,-888.247130,-7402.059420,153.219100
523.805896,-1036.288319,-8068.244768,-612.876398
523.806220,-666.185348,-8882.471304,-1685.410096
523.806545,-370.102971,-7698.141797,-2298.286494
523.806869,-222.061783,-7031.956449,-1685.410096
523.807193,296.082377,-8142.265362,-1532.190996
523.807517,2368.659014,-10288.862594,-1378.971896
523.807842,3404.947333,-10066.800811,-459.657299
523.808166,2368.659014,-9474.636058,459.657299
523.808490,370.102971,-11103.089130,612.876398
523.808814,-222.061783,-11843.295072,0.000000
523.809138,-444.123565,-10510.924376,689.485948
523.809463,-592.164754,-9918.759623,1302.362347
523.809787,-296.082377,-11917.315666,1149.143247
523.810111,-592.164754,-11917.315666,536.266849
523.810435,-1332.370696,-9548.656652,153.219100
523.810760,-2294.638420,-8512.368333,-459.657299
523.811084,-2664.741391,-9474.636058,-2221.676944
523.811408,-2516.700203,-9548.656652,-3447.429741
523.811732,-2072.576638,-8438.347739,-2451.505594
523.812056,-592.164754,-8882.471304,-2451.505594
523.812381,2146.597232,-10732.986159,-1225.752797
523.812705,2812.782580,-10658.965565,-1225.752797
523.813029,1924.535449,-9474.636058,229.828649
523.813353,1110.308913,-9770.718434,76.609550
523.813677,666.185348,-11251.130318,-766.095498
523.814002,74.020594,-10955.047942,306.438199
523.814326,74.020594,-10362.883188,2068.457845
523.814650,444.123565,-12509.480420,2528.115143
523.814974,666.185348,-12065.356855,2298.286494
523.815299,-148.041188,-9548.656652,1225.752797
523.815623,-2220.617826,-8216.285956,536.266849
523.815947,-2516.700203,-9622.677246,-842.705048
523.816271,-2146.597232,-9622.677246,-1915.238745
523.816595,-1702.473667,-7624.121203,-1378.971896
523.816920,-888.247130,-7179.997637,-689.485948
523.817244,962.267725,-8808.450710,-383.047749
523.817568,1850.514855,-9326.594869,-1378.971896
523.817892,296.082377,-7550.100608,229.828649
523.818217,-296.082377,-8216.285956,76.609550
523.818541,-962.267725,-9770.718434,0.000000
523.818865,-888.247130,-10658.965565,1302.362347
523.819189,-666.185348,-9770.718434,2451.505594
523.819513,0.000000,-10362.883188,2757.943793
523.819838,444.123565,-11695.253884,2834.553343
523.820162,0.000000,-11399.171507,2374.896044
523.820486,-962.267725,-9622.677246,2451.505594
523.820810,-1702.473667,-8216.285956,1072.533697
523.821134,-1776.494261,-7624.121203,-1378.971896
523.821459,-1406.391290,-7031.956449,-1838.629195
523.821783,-962.267725,-6809.894666,-1302.362347
523.822107,888.247130,-7698.141797,-995.924147
523.822431,2442.679609,-8660.409521,-1608.800546
523.822756,2886.803174,-7476.080014,-383.047749
523.823080,1628.453072,-7254.018232,0.000000
523.823404,0.000000,-9992.780217,-995.924147
523.823728,0.000000,-11843.295072,-766.095498
523.824052,592.164754,-11251.130318,1225.752797
523.824377,1702.473667,-12065.356855,3064.381992
523.824701,2664.741391,-13841.851115,3677.258390
523.825025,2664.741391,-13101.645173,2681.334243
523.825349,666.185348,-10584.944971,2604.724693
523.825673,-962.267725,-9474.636058,536.266849
523.825998,-2294.638420,-10658.965565,-1762.019645
523.826322,-2368.659014,-9696.697840,-2374.896044
523.826646,-1110.308913,-7031.956449,-2145.067394
523.826970,1036.288319,-7920.203579,-1455.581446
523.827295,2590.720797,-9918.759623,-1915.238745
523.827619,2146.597232,-9696.697840,-2068.457845
523.827943,592.164754,-8068.244768,-1915.238745
523.828267,-888.247130,-8660.409521,-1378.971896
523.828591,-296.082377,-10807.006753,-689.485948
523.828916,666.185348,-10732.986159,383.047749
523.829240,1184.329507,-10140.821405,2528.115143
523.829564,1332.370696,-11843.295072,2757.943793
523.829888,592.164754,-12435.459826,1378.971896
523.830213,-370.102971,-10214.842000,1225.752797
523.830537,-2294.638420,-8956.491898,1378.971896
523.830861,-2738.761985,-10066.800811,689.485948
523.831185,-1110.308913,-10214.842000,-995.924147
523.831509,-666.185348,-8438.347739,-1149.143247
523.831834,-888.247130,-7105.977043,-1225.752797
523.832158,296.082377,-9474.636058,-2374.896044
523.832482,518.144159,-9474.636058,-4366.744339
523.832806,-814.226536,-7772.162391,-2757.943793
523.833130,-1480.411884,-8438.347739,-1838.629195
523.833455,-740.205942,-10288.862594,-2068.457845
523.833779,-296.082377,-10362.883188,-612.876398
523.834103,222.061783,-9252.574275,1378.971896
523.834427,1184.329507,-10214.842000,1532.190996
523.834752,2072.576638,-12953.603985,2068.457845
523.835076,1110.308913,-11769.274478,1991.848295
523.835400,0.000000,-9400.615463,1838.629195
523.835724,-1110.308913,-9400.615463,1685.410096
523.836048,-740.205942,-10214.842000,229.828649
523.836373,74.020594,-9104.533087,-766.095498
523.836697,222.061783,-8216.285956,-766.095498
523.837021,444.123565,-8364.327145,-2145.067394
523.837345,962.267725,-9030.512492,-3753.867940
523.837670,148.041188,-8068.244768,-3217.601092
523.837994,-814.226536,-8216.285956,-1838.629195
523.838318,-1258.350101,-9770.718434,-1991.848295
523.838642,-444.123565,-10362.883188,-1225.752797
523.838966,-518.144159,-9178.553681,919.314598
523.839291,370.102971,-10362.883188,1608.800546
523.839615,1406.391290,-12287.418637,1378.971896
523.839939,1258.350101,-11325.150913,2145.067394
523.840263,148.041188,-8956.491898,2528.115143
523.840587,-1110.308913,-9474.636058,2757.943793
523.840912,-666.185348,-11177.109724,1915.238745
523.841236,-666.185348,-9918.759623,229.828649
523.841560,-1036.288319,-7031.956449,0.000000
523.841884,-1258.350101,-7698.141797,-1378.971896
523.842209,-740.205942,-9992.780217,-2528.115143
523.842533,-740.205942,-9474.636058,-2451.505594
523.842857,-1258.350101,-7550.100608,-1838.629195
523.843181,-1258.350101,-8734.430116,-1378.971896
523.843505,-370.102971,-10288.862594,-1378.971896
523.843830,-222.061783,-9918.759623,0.000000
523.844154,0.000000,-9548.656652,1302.362347
523.844478,740.205942,-11473.192101,1608.800546
523.844802,1628.453072,-12583.501014,1608.800546
523.845127,1258.350101,-11029.068536,2681.334243
523.845451,666.185348,-10658.965565,3294.210641
523.845775,444.123565,-11843.295072,2911.162892
523.846099,74.020594,-11695.253884,1838.629195
523.846423,-222.061783,-9252.574275,459.657299
523.846748,-962.267725,-8142.265362,-153.219100
523.847072,-814.226536,-10288.862594,-1762.019645
523.847396,444.123565,-9918.759623,-2221.676944
523.847720,0.000000,-7698.141797,-1302.362347
523.848044,-1110.308913,-7772.162391,-1072.533697
523.848369,-888.247130,-9400.615463,-1991.848295
523.848693,-666.185348,-8808.450710,-1685.410096
523.849017,74.020594,-7846.182985,0.000000
523.849341,1036.288319,-9474.636058,1455.581446
523.849666,2442.679609,-11177.109724,1532.190996
523.849990,3182.885551,-10732.986159,2987.772442
523.850314,1924.535449,-8956.491898,3983.696590
523.850638,1036.288319,-9844.739029,3140.991542
523.850962,518.144159,-10732.986159,2068.457845
523.851287,0.000000,-9696.697840,1149.143247
523.851611,0.000000,-8586.388927,0.000000
523.851935,444.123565,-8586.388927,-1072.533697
523.852259,666.185348,-8290.306550,-2068.457845
523.852584,222.061783,-7402.059420,-1149.143247
523.852908,-1036.288319,-7476.080014,-1838.629195
523.853232,-1332.370696,-8586.388927,-2604.724693
523.853556,-1332.370696,-8438.347739,-2221.676944
523.853880,-592.164754,-7772.162391,-995.924147
523.854205,-222.061783,-8882.471304,-689.485948
523.854529,222.061783,-11399.171507,153.219100
523.854853,518.144159,-11843.295072,1302.362347
523.855177,-740.205942,-11029.068536,2298.286494
523.855501,-2146.597232,-11325.150913,1838.629195
523.855826,-1850.514855,-11695.253884,919.314598
523.856150,-814.226536,-10066.800811,536.266849
523.856474,0.000000,-8882.471304,-153.219100
523.856798,0.000000,-9104.533087,-1378.971896
523.857123,518.144159,-9918.759623,-2068.457845
523.857447,518.144159,-8808.450710,-2451.505594
523.857771,0.000000,-8142.265362,-3064.381992
523.858095,-592.164754,-9104.533087,-2681.334243
523.858419,-666.185348,-10066.800811,-3064.381992
523.858744,-592.164754,-10288.862594,-2681.334243
523.859068,-814.226536,-10436.903782,-612.876398
523.859392,0.000000,-11325.150913,-459.657299
523.859716,222.061783,-12287.418637,-995.924147
523.860041,222.061783,-11399.171507,153.219100
523.860365,-148.041188,-11399.171507,1608.800546
523.860689,74.020594,-13101.645173,995.924147
523.861013,0.000000,-12361.439231,0.000000
523.861337,666.185348,-9992.780217,-153.219100
523.861662,1406.391290,-8882.471304,-306.438199
523.861986,3404.947333,-11399.171507,-1991.848295
523.862310,3256.906145,-10214.842000,-1762.019645
523.862634,1776.494261,-8660.409521,-1225.752797
523.862958,814.226536,-9696.697840,-1762.019645
523.863283,148.041188,-11103.089130,-2451.505594
523.863607,-740.205942,-9548.656652,-2451.505594
523.863931,-814.226536,-8586.388927,-995.924147
523.864255,-888.247130,-9326.594869,-383.047749
523.864580,-444.123565,-10658.965565,76.609550
523.864904,-814.226536,-9252.574275,1149.143247
523.865228,-1554.432478,-8364.327145,2528.115143
523.865552,-1554.432478,-9770.718434,2528.115143
523.865876,-296.082377,-10140.821405,2528.115143
523.866201,740.205942,-7994.224174,3140.991542
523.866525,518.144159,-6883.915261,1838.629195
523.866849,222.061783,-7179.997637,1149.143247
523.867173,962.267725,-7994.224174,0.000000
523.867498,592.164754,-7624.121203,76.609550
523.867822,-370.102971,-7920.203579,0.000000
523.868146,-1110.308913,-8956.491898,-1149.143247
523.868470,-1406.391290,-8734.430116,-689.485948
523.868794,-1776.494261,-7624.121203,689.485948
523.869119,-1850.514855,-9030.512492,306.438199
523.869443,-2072.576638,-9696.697840,536.266849
523.869767,-1628.453072,-8882.471304,1149.143247
523.870091,-1406.391290,-8216.285956,1991.848295
523.870415,-814.226536,-9252.574275,2681.334243
523.870740,0.000000,-10362.883188,2757.943793
523.871064,962.267725,-10214.842000,3294.210641
523.871388,1554.432478,-9844.739029,3677.258390
523.871712,1850.514855,-10288.862594,1915.238745
523.872037,1258.350101,-9696.697840,-612.876398
523.872361,0.000000,-9622.677246,-995.924147
523.872685,-888.247130,-10732.986159,-842.705048
523.873009,0.000000,-11991.336260,-1991.848295
523.873333,296.082377,-11843.295072,-1915.238745
523.873658,148.041188,-9992.780217,-1149.143247
523.873982,0.000000,-9622.677246,-766.095498
523.874306,148.041188,-11103.089130,-919.314598
523.874630,296.082377,-11177.109724,-612.876398
523.874955,518.144159,-9770.718434,536.266849
523.875279,518.144159,-9548.656652,1532.190996
523.875603,888.247130,-11325.150913,2528.115143
523.875927,1998.556043,-11399.171507,2451.505594
523.876251,1776.494261,-9252.574275,2145.067394
523.876576,740.205942,-8808.450710,536.266849
523.876900,518.144159,-9252.574275,-536.266849
523.877224,444.123565,-9548.656652,-1838.629195
523.877548,0.000000,-8512.368333,-1455.581446
523.877872,0.000000,-9400.615463,-1149.143247
523.878197,888.247130,-10288.862594,-1378.971896
523.878521,1110.308913,-9474.636058,-1915.238745
523.878845,-148.041188,-8512.368333,-1302.362347
523.879169,-444.123565,-8512.368333,-1225.752797
523.879494,518.144159,-10214.842000,-995.924147
523.879818,740.205942,-9992.780217,306.438199
523.880142,148.041188,-9104.533087,1149.143247
523.880466,-814.226536,-9622.677246,995.924147
523.880790,-888.247130,-10214.842000,383.047749
523.881115,-592.164754,-8882.471304,612.876398
523.881439,-1036.288319,-8882.471304,766.095498
523.881763,-962.267725,-10584.944971,-229.828649
523.882087,-666.185348,-10362.883188,-1072.533697
523.882412,-518.144159,-8808.450710,-459.657299
523.882736,-888.247130,-9326.594869,-842.705048
523.883060,-740.205942,-10436.903782,-1225.752797
523.883384,-518.144159,-9474.636058,-2451.505594
523.883708,-518.144159,-7994.224174,-2374.896044
523.884033,-296.082377,-8364.327145,-1225.752797
523.884357,222.061783,-9992.780217,-1762.019645
523.884681,740.205942,-9474.636058,-1532.190996
523.885005,370.102971,-8512.368333,306.438199
523.885329,518.144159,-9548.656652,76.609550
523.885654,370.102971,-10510.924376,76.609550
523.885978,0.000000,-9474.636058,766.095498
523.886302,-296.082377,-9326.594869,766.095498
523.886626,0.000000,-11103.089130,76.609550
523.886951,518.144159,-11695.253884,-536.266849
523.887275,814.226536,-10214.842000,-612.876398
523.887599,-222.061783,-9326.594869,-383.047749
523.887923,-888.247130,-10807.006753,-1149.143247
523.888247,-592.164754,-11547.212695,-1838.629195
523.888572,-222.061783,-10807.006753,-1455.581446
523.888896,-740.205942,-9770.718434,-1532.190996
523.889220,-814.226536,-10510.924376,-1149.143247
523.889544,-296.082377,-11029.068536,-842.705048
523.889868,-962.267725,-9400.615463,76.609550
523.890193,-1332.370696,-9844.739029,536.266849
523.890517,-1406.391290,-10140.821405,0.000000
523.890841,-1258.350101,-9696.697840,459.657299
523.891165,-666.185348,-9030.512492,1608.800546
523.891490,666.185348,-9696.697840,1685.410096
523.891814,1480.411884,-9696.697840,1991.848295
523.892138,1110.308913,-8660.409521,1302.362347
523.892462,-444.123565,-7698.141797,1378.971896
523.892786,-1480.411884,-8734.430116,-306.438199
523.893111,-962.267725,-9400.615463,-689.485948
523.893435,-518.144159,-9030.512492,229.828649
523.893759,-592.164754,-8734.430116,76.609550
523.894083,0.000000,-9548.656652,0.000000
523.894408,592.164754,-9844.739029,153.219100
523.894732,74.020594,-8438.347739,995.924147
523.895056,-1258.350101,-7994.224174,459.657299
523.895380,-1776.494261,-9326.594869,-153.219100
523.895704,-962.267725,-9918.759623,0.000000
523.896029,148.041188,-9030.512492,689.485948
523.896353,888.247130,-8956.491898,1302.362347
523.896677,1258.350101,-10140.821405,995.924147
523.897001,1554.432478,-10955.047942,459.657299
523.897325,1036.288319,-10066.800811,689.485948
523.897650,296.082377,-10140.821405,766.095498
523.897974,0.000000,-11473.192101,-306.438199
523.898298,592.164754,-11029.068536,-229.828649
523.898622,888.247130,-10436.903782,306.438199
523.898947,962.267725,-10955.047942,229.828649
523.899271,1258.350101,-11177.109724,-612.876398
523.899595,592.164754,-9844.739029,-306.438199
523.899919,222.061783,-9252.574275,-306.438199
523.900243,-148.041188,-9104.533087,-383.047749
523.900568,0.000000,-9400.615463,-306.438199
523.900892,148.041188,-8734.430116,153.219100
523.901216,296.082377,-8142.265362,689.485948
523.901540,740.205942,-8882.471304,689.485948
523.901865,1480.411884,-8882.471304,612.876398
523.902189,1036.288319,-8068.244768,1149.143247
523.902513,148.041188,-8216.285956,1378.971896
523.902837,-444.123565,-9326.594869,383.047749
523.903161,-222.061783,-10214.842000,0.000000
523.903486,-148.041188,-9474.636058,383.047749
523.903810,-296.082377,-9326.594869,229.828649
523.904134,-296.082377,-10214.842000,0.000000
523.904458,-518.144159,-10066.800811,0.000000
523.904782,-666.185348,-8956.491898,-459.657299
523.905106,-1332.370696,-8808.450710,-919.314598
523.905430,-1850.514855,-9696.697840,-995.924147
523.905755,-888.247130,-9548.656652,-689.485948
523.906079,-592.164754,-8956.491898,-383.047749
523.906403,-666.185348,-9326.594869,-612.876398
523.906727,222.061783,-9770.718434,-689.485948
523.907051,518.144159,-10658.965565,-766.095498
523.907375,-222.061783,-10807.006753,0.000000
523.907699,-962.267725,-10732.986159,-536.266849
523.908024,-370.102971,-10658.965565,-459.657299
523.908348,148.041188,-10510.924376,-459.657299
523.908672,74.020594,-11029.068536,0.000000
523.908996,74.020594,-11251.130318,0.000000
523.909320,518.144159,-10510.924376,-995.924147
523.909644,296.082377,-9474.636058,-1685.410096
523.909968,0.000000,-8512.368333,-1455.581446
523.910292,592.164754,-9178.553681,-1455.581446
523.910617,1480.411884,-9548.656652,-1302.362347
523.910941,1628.453072,-8586.388927,-995.924147
523.911265,1036.288319,-8586.388927,-1225.752797
523.911589,1184.329507,-9622.677246,-1225.752797
523.911913,1258.350101,-11029.068536,-689.485948
523.912237,962.267725,-9992.780217,0.000000
523.912561,-592.164754,-10584.944971,0.000000
523.912886,-1850.514855,-11843.295072,0.000000
523.913210,-2072.576638,-11917.315666,-229.828649
523.913534,-1924.535449,-11029.068536,229.828649
523.913858,-1924.535449,-10807.006753,-459.657299
523.914182,-1110.308913,-11177.109724,-229.828649
523.914506,-444.123565,-10066.800811,0.000000
523.914830,-296.082377,-8216.285956,-306.438199
523.915154,148.041188,-8438.347739,0.000000
523.915479,666.185348,-9178.553681,-383.047749
523.915803,1110.308913,-8290.306550,-612.876398
523.916127,444.123565,-7328.038826,-229.828649
523.916451,518.144159,-7994.224174,76.609550
523.916775,370.102971,-9178.553681,-536.266849
523.917099,0.000000,-8956.491898,459.657299
523.917423,-2072.576638,-8512.368333,1149.143247
523.917748,-3182.885551,-9548.656652,383.047749
523.918072,-3034.844362,-10140.821405,383.047749
523.918396,-2590.720797,-9770.718434,1225.752797
523.918720,-1332.370696,-9622.677246,1608.800546
523.919044,-222.061783,-10584.944971,766.095498
523.919368,0.000000,-9548.656652,383.047749
523.919692,148.041188,-7698.141797,229.828649
523.920016,370.102971,-8438.347739,689.485948
523.920341,1184.329507,-10214.842000,0.000000
523.920665,1776.494261,-10214.842000,-383.047749
523.920989,1184.329507,-8734.430116,459.657299
523.921313,1332.370696,-8808.450710,0.000000
523.921637,1924.535449,-10658.965565,-306.438199
523.921961,1554.432478,-10807.006753,536.266849
523.922285,0.000000,-9918.759623,842.705048
523.922610,-1776.494261,-10510.924376,459.657299
523.922934,-2072.576638,-11029.068536,153.219100
523.923258,-1332.370696,-10066.800811,919.314598
523.923582,-148.041188,-10066.800811,1762.019645
523.923906,666.185348,-10955.047942,995.924147
523.924230,1480.411884,-10510.924376,536.266849
523.924554,1776.494261,-8660.409521,612.876398
523.924878,2220.617826,-8290.306550,536.266849
523.925203,2590.720797,-9844.739029,-383.047749
523.925527,2886.803174,-9844.739029,-689.485948
523.925851,2590.720797,-8586.388927,612.876398
523.926175,2220.617826,-8956.491898,-383.047749
523.926499,2220.617826,-10584.944971,-919.314598
523.926823,1702.473667,-10658.965565,-229.828649
523.927147,-518.144159,-9548.656652,-229.828649
523.927472,-2516.700203,-9770.718434,0.000000
523.927796,-3182.885551,-10955.047942,-229.828649
523.928120,-2738.761985,-9992.780217,0.000000
523.928444,-2886.803174,-9252.574275,995.924147
523.928768,-2516.700203,-9918.759623,995.924147
523.929092,-1480.411884,-10881.027347,689.485948
523.929416,0.000000,-9104.533087,612.876398
523.929740,0.000000,-7254.018232,1072.533697
523.930065,148.041188,-8364.327145,-536.266849
523.930389,592.164754,-9030.512492,-1532.190996
523.930713,1406.391290,-8142.265362,-919.314598
523.931037,1554.432478,-8068.244768,-689.485948
523.931361,1628.453072,-8882.471304,-1608.800546
523.931685,1554.432478,-9474.636058,-1455.581446
523.932009,518.144159,-8956.491898,-842.705048
523.932333,-1406.391290,-9474.636058,-995.924147
523.932658,-2294.638420,-10066.800811,-1225.752797
523.932982,-2294.638420,-11103.089130,-383.047749
523.933306,-1480.411884,-10436.903782,459.657299
523.933630,-74.020594,-10584.944971,995.924147
523.933954,0.000000,-11621.233289,842.705048
523.934278,148.041188,-11177.109724,0.000000
523.934602,-592.164754,-9918.759623,-842.705048
523.934927,-592.164754,-9770.718434,-1072.533697
523.935251,888.247130,-10584.944971,-1608.800546
523.935575,1998.556043,-10362.883188,-2298.286494
523.935899,2220.617826,-9326.594869,-1991.848295
523.936223,2368.659014,-9992.780217,-2221.676944
523.936547,3182.885551,-11399.171507,-2298.286494
523.936871,1924.535449,-11029.068536,-1532.190996
523.937195,444.123565,-10214.842000,-459.657299
523.937520,-1332.370696,-10436.903782,-919.314598
523.937844,-1998.556043,-10732.986159,-995.924147
523.938168,-2146.597232,-10214.842000,229.828649
523.938492,-2072.576638,-10066.800811,1455.581446
523.938816,-1406.391290,-11251.130318,1685.410096
523.939140,-444.123565,-11177.109724,1072.533697
523.939464,-222.061783,-8660.409521,1685.410096
523.939789,0.000000,-7920.203579,995.924147
523.940113,370.102971,-9400.615463,0.000000
523.940437,1036.288319,-9178.553681,-995.924147
523.940761,1036.288319,-7698.141797,-536.266849
523.941085,1258.350101,-7476.080014,-383.047749
523.941409,1850.514855,-8808.450710,-842.705048
523.941733,1332.370696,-9030.512492,76.609550
523.942057,-518.144159,-7846.182985,-306.438199
523.942382,-2812.782580,-8068.244768,-459.657299
523.942706,-4219.173869,-9474.636058,-153.219100
523.943030,-4293.194464,-9326.594869,76.609550
523.943354,-4071.132681,-8142.265362,766.095498
523.943678,-3627.009116,-9178.553681,1225.752797
523.944002,-2368.659014,-10807.006753,1915.238745
523.944326,-1258.350101,-10584.944971,1838.629195
523.944651,-370.102971,-9178.553681,2757.943793
523.944975,-222.061783,-9696.697840,2298.286494
523.945299,1332.370696,-9030.512492,-612.876398
523.945623,2442.679609,-7698.141797,-1302.362347
523.945947,2664.741391,-9030.512492,0.000000
523.946271,4145.153275,-11251.130318,-1455.581446
523.946595,4589.276840,-10955.047942,-2221.676944
523.946919,2590.720797,-9622.677246,-919.314598
523.947244,74.020594,-10288.862594,-459.657299
523.947568,-1036.288319,-12435.459826,-1532.190996
523.947892,-2368.659014,-11769.274478,-1225.752797
523.948216,-2368.659014,-9548.656652,76.609550
523.948540,-1332.370696,-10288.862594,995.924147
523.948864,-444.123565,-12287.418637,1608.800546
523.949188,296.082377,-11177.109724,2298.286494
523.949513,444.123565,-9252.574275,2451.505594
523.949837,962.267725,-8956.491898,1302.362347
523.950161,1702.473667,-10362.883188,-612.876398
523.950485,2516.700203,-9474.636058,-1149.143247
523.950809,3923.091493,-7624.121203,-919.314598
523.951133,4959.379811,-9252.574275,-612.876398
523.951457,5329.482782,-10955.047942,-995.924147
523.951781,4811.338623,-9918.759623,153.219100
523.952106,1998.556043,-8882.471304,1072.533697
523.952430,-1258.350101,-9252.574275,0.000000
523.952754,-3627.009116,-9474.636058,-1378.971896
523.953078,-4811.338623,-8290.306550,-995.924147
523.953402,-4515.256246,-7994.224174,459.657299
523.953726,-3552.988522,-9622.677246,1915.238745
523.954050,-2072.576638,-9992.780217,1838.629195
523.954374,-2368.659014,-7920.203579,2298.286494
523.954699,-3404.947333,-7476.080014,2681.334243
523.955023,-1776.494261,-9252.574275,689.485948
523.955347,222.061783,-8586.388927,-689.485948
523.955671,1036.288319,-6143.709319,-1149.143247
523.955995,1554.432478,-7179.997637,-229.828649
523.956319,2812.782580,-10362.883188,-919.314598
523.956643,3997.112087,-10807.006753,-1532.190996
523.956968,1702.473667,-9400.615463,-229.828649
523.957292,-814.226536,-9474.636058,-612.876398
523.957616,-2146.597232,-11325.150913,-2528.115143
523.957940,-3182.885551,-11177.109724,-1838.629195
523.958264,-3330.926739,-9918.759623,-383.047749
523.958588,-2590.720797,-9770.718434,0.000000
523.958912,-1184.329507,-11547.212695,306.438199
523.959236,-592.164754,-11325.150913,2298.286494
523.959561,-148.041188,-10140.821405,2374.896044
523.959885,0.000000,-10214.842000,459.657299
523.960209,296.082377,-10066.800811,-1532.190996
523.960533,1332.370696,-8956.491898,-2145.067394
523.960857,3108.864956,-9400.615463,-1072.533697
523.961181,4663.297435,-11843.295072,-1149.143247
523.961505,4663.297435,-11695.253884,-2374.896044
523.961830,3034.844362,-9844.739029,-1455.581446
523.962154,888.247130,-10658.965565,-2068.457845
523.962478,-444.123565,-12435.459826,-2451.505594
523.962802,-1702.473667,-11621.233289,-1991.848295
523.963126,-1924.535449,-8734.430116,-919.314598
523.963450,-1776.494261,-8956.491898,306.438199
523.963774,-1258.350101,-11473.192101,459.657299
523.964098,-888.247130,-10658.965565,842.705048
523.964423,-666.185348,-8216.285956,2528.115143
523.964747,-1184.329507,-9030.512492,1838.629195
523.965071,-740.205942,-10066.800811,306.438199
523.965395,-222.061783,-8364.327145,-612.876398
523.965719,444.123565,-7179.997637,0.000000
523.966043,1406.391290,-9104.533087,76.609550
523.966367,2664.741391,-10436.903782,-919.314598
523.966692,2072.576638,-8956.491898,0.000000
523.967016,222.061783,-8068.244768,-306.438199
523.967340,-1406.391290,-9104.533087,-612.876398
523.967664,-2368.659014,-9844.739029,-1072.533697
523.967988,-3404.947333,-8290.306550,306.438199
523.968312,-3701.029710,-8068.244768,995.924147
523.968636,-3182.885551,-9326.594869,1302.362347
523.968960,-1924.535449,-9622.677246,1838.629195
523.969285,-1628.453072,-8956.491898,2604.724693
523.969609,-1628.453072,-8956.491898,2451.505594
523.969933,-1258.350101,-9992.780217,1915.238745
523.970257,-296.082377,-9178.553681,1455.581446
523.970581,1480.411884,-7254.018232,1608.800546
523.970905,2368.659014,-7476.080014,0.000000
523.971229,2664.741391,-9770.718434,-1072.533697
523.971554,2886.803174,-10658.965565,-842.705048
523.971878,2368.659014,-10140.821405,-1302.362347
523.972202,814.226536,-9770.718434,-1455.581446
523.972526,-962.267725,-10140.821405,-1378.971896
523.972850,-1184.329507,-10288.862594,-1302.362347
523.973174,-1184.329507,-9770.718434,-766.095498
523.973498,-740.205942,-11251.130318,612.876398
523.973822,-296.082377,-10955.047942,306.438199
523.974147,592.164754,-9622.677246,536.266849
523.974471,-296.082377,-9474.636058,1991.848295
523.974795,-370.102971,-10955.047942,1915.238745
523.975119,592.164754,-11325.150913,383.047749
523.975443,1110.308913,-9844.739029,306.438199
523.975767,1036.288319,-9474.636058,0.000000
523.976091,2960.823768,-10881.027347,-1608.800546
523.976416,3552.988522,-11103.089130,-2451.505594
523.976740,2072.576638,-9770.718434,-919.314598
523.977064,1406.391290,-9696.697840,-766.095498
523.977388,592.164754,-10362.883188,-1762.019645
523.977712,0.000000,-9400.615463,-1608.800546
523.978036,-1332.370696,-8068.244768,-689.485948
523.978360,-1924.535449,-8956.491898,-1225.752797
523.978684,-1776.494261,-10140.821405,-1225.752797
523.979009,-2146.597232,-9178.553681,-383.047749
523.979333,-2368.659014,-7994.224174,229.828649
523.979657,-2072.576638,-9474.636058,1608.800546
523.979981,-444.123565,-11695.253884,1685.410096
523.980305,962.267725,-9770.718434,1149.143247
523.980629,1554.432478,-7772.162391,995.924147
523.980953,1924.535449,-9030.512492,-153.219100
523.981277,2738.761985,-10214.842000,-1455.581446
523.981602,2072.576638,-8808.450710,-1225.752797
523.981926,888.247130,-8512.368333,-459.657299
523.982250,148.041188,-9696.697840,-1838.629195
523.982574,0.000000,-10140.821405,-1915.238745
523.982898,-740.205942,-9030.512492,-689.485948
523.983222,-1554.432478,-8808.450710,-842.705048
523.983546,-2442.679609,-10066.800811,-1608.800546
523.983871,-2886.803174,-10140.821405,-919.314598
523.984195,-2738.761985,-8808.450710,0.000000
523.984519,-1924.535449,-9474.636058,1915.238745
523.984843,-444.123565,-11843.295072,2451.505594
523.985167,814.226536,-11621.233289,1762.019645
523.985491,1554.432478,-9030.512492,1302.362347
523.985815,1998.556043,-9178.553681,842.705048
523.986139,3256.906145,-10881.027347,-842.705048
523.986464,3404.947333,-10584.944971,-1685.410096
523.986788,2294.638420,-8512.368333,76.609550
523.987112,1850.514855,-10066.800811,-229.828649
523.987436,888.247130,-11695.253884,-1608.800546
523.987760,-222.061783,-9918.759623,-1762.019645
523.988084,-1850.514855,-8586.388927,-766.095498
523.988408,-2368.659014,-10436.903782,-995.924147
523.988733,-2368.659014,-11325.150913,-995.924147
523.989057,-2738.761985,-9178.553681,612.876398
523.989381,-2738.761985,-8068.244768,2451.505594
523.989705,-1628.453072,-10140.821405,2068.457845
523.990029,0.000000,-10584.944971,1838.629195
523.990353,888.247130,-8808.450710,2528.115143
523.990677,1702.473667,-8290.306550,2068.457845
523.991001,2220.617826,-9548.656652,536.266849
523.991326,2368.659014,-9474.636058,-306.438199
523.991650,1036.288319,-7550.100608,76.609550
523.991974,-444.123565,-9030.512492,-306.438199
523.992298,-740.205942,-10584.944971,-995.924147
523.992622,-592.164754,-9696.697840,-689.485948
523.992946,-1184.329507,-8438.347739,459.657299
523.993270,-2294.638420,-8660.409521,-306.438199
523.993595,-2590.720797,-9178.553681,-842.705048
523.993919,-2442.679609,-8586.388927,153.219100
523.994243,-3256.906145,-6735.874072,229.828649
523.994567,-2664.741391,-8216.285956,842.705048
523.994891,-962.267725,-9548.656652,1302.362347
523.995215,592.164754,-9622.677246,2221.676944
523.995539,1702.473667,-9992.780217,2451.505594
523.995863,1628.453072,-10807.006753,1072.533697
523.996188,1998.556043,-10807.006753,-306.438199
523.996512,2368.659014,-9770.718434,-383.047749
523.996836,1480.411884,-10584.944971,-1149.143247
523.997160,1110.308913,-11917.315666,-1838.629195
523.997484,1332.370696,-11843.295072,-1762.019645
523.997808,1184.329507,-10066.800811,-842.705048
523.998132,962.267725,-10140.821405,-612.876398
523.998457,518.144159,-10510.924376,-1455.581446
523.998781,-222.061783,-9992.780217,-2298.286494
523.999105,-1554.432478,-8216.285956,-1608.800546
523.999429,-2590.720797,-9104.533087,-842.705048
523.999753,-2442.679609,-10955.047942,-306.438199
524.000077,-962.267725,-10510.924376,-229.828649
524.000401,222.061783,-9770.718434,842.705048
524.000725,1702.473667,-9992.780217,1149.143247
524.001050,4145.153275,-11695.253884,-229.828649
524.001374,3627.009116,-10288.862594,-153.219100
524.001698,1258.350101,-9474.636058,0.000000
524.002022,444.123565,-10140.821405,-1455.581446
524.002346,1036.288319,-10436.903782,-2451.505594
524.002670,1184.329507,-9326.594869,-1378.971896
524.002994,1036.288319,-8512.368333,-842.705048
524.003318,666.185348,-9918.759623,-1455.581446
524.003643,222.061783,-9474.636058,-1225.752797
524.003967,-1628.453072,-7179.997637,-689.485948
524.004291,-3701.029710,-7698.141797,-459.657299
524.004615,-4219.173869,-9474.636058,-612.876398
524.004939,-3330.926739,-9474.636058,-229.828649
524.005263,-2368.659014,-7920.203579,459.657299
524.005587,-888.247130,-8882.471304,536.266849
524.005911,444.123565,-10362.883188,306.438199
524.006236,2072.576638,-10955.047942,536.266849
524.006560,2368.659014,-9696.697840,995.924147
524.006884,1110.308913,-9918.759623,229.828649
524.007208,814.226536,-10881.027347,-766.095498
524.007532,1258.350101,-10140.821405,-612.876398
524.007856,1554.432478,-9030.512492,-153.219100
524.008180,962.267725,-9400.615463,0.000000
524.008504,814.226536,-10584.944971,-766.095498
524.008829,-222.061783,-9696.697840,-766.095498
524.009153,-2220.617826,-8142.265362,-536.266849
524.009477,-2886.803174,-8660.409521,-689.485948
524.009801,-2590.720797,-9548.656652,-919.314598
524.010125,-1850.514855,-8882.471304,0.000000
524.010449,-1184.329507,-8438.347739,1225.752797
524.010773,518.144159,-10362.883188,459.657299
524.011097,1998.556043,-10658.965565,536.266849
524.011421,2590.720797,-9622.677246,536.266849
524.011746,2072.576638,-9548.656652,229.828649
524.012070,1702.473667,-11917.315666,-153.219100
524.012394,1480.411884,-11991.336260,-689.485948
524.012718,1628.453072,-10881.027347,229.828649
524.013042,1110.308913,-10807.006753,-306.438199
524.013366,1184.329507,-11695.253884,-766.095498
524.013690,0.000000,-10510.924376,-612.876398
524.014014,-1776.494261,-9178.553681,459.657299
524.014338,-3849.070898,-9474.636058,153.219100
524.014663,-3997.112087,-10362.883188,0.000000
524.014987,-3330.926739,-9030.512492,536.266849
524.015311,-2886.803174,-7772.162391,1072.533697
524.015635,-1554.432478,-8660.409521,1302.362347
524.015959,518.144159,-9030.512492,1149.143247
524.016283,1184.329507,-8586.388927,1532.190996
524.016607,666.185348,-8068.244768,1915.238745
524.016931,962.267725,-8512.368333,995.924147
524.017255,1480.411884,-9178.553681,153.219100
524.017580,1480.411884,-8512.368333,536.266849
524.017904,1036.288319,-9474.636058,459.657299
524.018228,962.267725,-10436.903782,0.000000
524.018552,888.247130,-9400.615463,76.609550
524.018876,-148.041188,-8438.347739,153.219100
524.019200,-1628.453072,-8068.244768,76.609550
524.019524,-1628.453072,-10066.800811,306.438199
524.019848,-1184.329507,-9696.697840,383.047749
524.020173,-962.267725,-8364.327145,1149.143247
524.020497,-666.185348,-8512.368333,536.266849
524.020821,444.123565,-9474.636058,383.047749
524.021145,1554.432478,-9770.718434,383.047749
524.021469,1332.370696,-9474.636058,919.314598
524.021793,148.041188,-10066.800811,766.095498
524.022117,592.164754,-11473.192101,-459.657299
524.022441,1184.329507,-10732.986159,-919.314598
524.022765,1332.370696,-9844.739029,-306.438199
524.023090,1332.370696,-11103.089130,-459.657299
524.023414,1110.308913,-12139.377449,-919.314598
524.023738,666.185348,-10658.965565,-919.314598
524.024062,-370.102971,-8512.368333,-612.876398
524.024386,-444.123565,-9918.759623,-1072.533697
524.024710,-666.185348,-9622.677246,-995.924147
524.025034,-518.144159,-9104.533087,-612.876398
524.025358,-296.082377,-8734.430116,0.000000
524.025682,0.000000,-9918.759623,-229.828649
524.026007,518.144159,-10362.883188,-536.266849
524.026331,296.082377,-8956.491898,-383.047749
524.026655,-518.144159,-9030.512492,0.000000
524.026979,0.000000,-10955.047942,-766.095498
524.027303,74.020594,-11177.109724,-766.095498
524.027627,-370.102971,-10140.821405,76.609550
524.027951,-740.205942,-10732.986159,76.609550
524.028275,0.000000,-11103.089130,-766.095498
524.028599,74.020594,-10066.800811,-919.314598
524.028924,-888.247130,-8216.285956,-995.924147
524.029248,-1924.535449,-8808.450710,-1225.752797
524.029572,-1110.308913,-9992.780217,-1225.752797
524.029896,0.000000,-9030.512492,-229.828649
524.030220,-444.123565,-7698.141797,-306.438199
524.030544,-444.123565,-8438.347739,-612.876398
524.030868,-296.082377,-9548.656652,-919.314598
524.031192,0.000000,-9770.718434,-689.485948
524.031517,-888.247130,-9400.615463,0.000000
524.031841,-1258.350101,-10214.842000,-229.828649
524.032165,0.000000,-10807.006753,0.000000
524.032489,518.144159,-9622.677246,153.219100
524.032813,814.226536,-9178.553681,306.438199
524.033137,592.164754,-10584.944971,-689.485948
524.033461,814.226536,-11029.068536,-1225.752797
524.033785,444.123565,-9474.636058,-995.924147
524.034109,74.020594,-8290.306550,-995.924147
524.034434,296.082377,-9030.512492,-1072.533697
524.034758,1110.308913,-10362.883188,-689.485948
524.035082,444.123565,-9400.615463,-766.095498
524.035406,370.102971,-9474.636058,-842.705048
524.035730,592.164754,-10362.883188,-766.095498
524.036054,814.226536,-10436.903782,-536.266849
524.036378,-148.041188,-9696.697840,229.828649
524.036702,-1332.370696,-9992.780217,229.828649
524.037026,-888.247130,-11695.253884,306.438199
524.037351,-740.205942,-10732.986159,229.828649
524.037675,-370.102971,-9844.739029,1225.752797
524.037999,148.041188,-10140.821405,536.266849
524.038323,1258.350101,-10140.821405,0.000000
524.038647,814.226536,-8512.368333,76.609550
524.038971,74.020594,-7846.182985,383.047749
524.039295,0.000000,-8882.471304,-612.876398
524.039619,666.185348,-8290.306550,153.219100
524.039944,74.020594,-7476.080014,459.657299
524.040268,-370.102971,-7476.080014,306.438199
524.040592,-444.123565,-9030.512492,383.047749
524.040916,-370.102971,-9992.780217,536.266849
524.041240,-1036.288319,-8882.471304,1149.143247
524.041564,-2442.679609,-8882.471304,1685.410096
524.041888,-2738.761985,-10140.821405,1532.190996
524.042212,-1184.329507,-10807.006753,2374.896044
524.042536,-592.164754,-9622.677246,1762.019645
524.042861,-296.082377,-9474.636058,1685.410096
524.043185,296.082377,-10881.027347,1378.971896
524.043509,1110.308913,-10214.842000,1378.971896
524.043833,1332.370696,-8660.409521,1685.410096
524.044157,962.267725,-9252.574275,1455.581446
524.044481,1110.308913,-10658.965565,229.828649
524.044805,888.247130,-8882.471304,153.219100
524.045129,0.000000,-7698.141797,0.000000
524.045453,-296.082377,-9474.636058,0.000000
524.045778,-296.082377,-11399.171507,-383.047749
524.046102,-1184.329507,-10214.842000,-153.219100
524.046426,-2738.761985,-8142.265362,306.438199
524.046750,-2738.761985,-9252.574275,0.000000
524.047074,-1776.494261,-10288.862594,-1149.143247
524.047398,-592.164754,-9696.697840,76.609550
524.047722,222.061783,-9474.636058,1532.190996
524.048046,2072.576638,-11103.089130,1608.800546
524.048370,3182.885551,-11251.130318,995.924147
524.048695,3034.844362,-8882.471304,1225.752797
