#time,accel_x,accel_y,accel_z
783.571167,5847.626942,-9030.512492,2528.115143
783.571491,7476.080014,-7920.203579,2987.772442
783.571816,6661.853478,-10436.903782,4136.915689
783.572140,3627.009116,-14211.954086,3983.696590
783.572464,1184.329507,-13545.768739,2528.115143
783.572789,-888.247130,-10807.006753,1991.848295
783.573113,-3552.988522,-10140.821405,383.047749
783.573437,-6883.915261,-11473.192101,-1302.362347
783.573762,-8734.430116,-10436.903782,-2451.505594
783.574086,-8142.265362,-7179.997637,-459.657299
783.574410,-5033.400406,-7772.162391,0.000000
783.574735,-3256.906145,-9326.594869,-153.219100
783.575059,-1998.556043,-6587.832884,-842.705048
783.575384,-1332.370696,-4441.235652,0.000000
783.575708,-740.205942,-5033.400406,-689.485948
783.576032,-1332.370696,-7550.100608,-1072.533697
783.576357,-1480.411884,-9622.677246,-383.047749
783.576681,814.226536,-11399.171507,1685.410096
783.577005,3182.885551,-13397.727550,1072.533697
783.577330,4145.153275,-12435.459826,1302.362347
783.577654,1702.473667,-11029.068536,2757.943793
783.577978,-370.102971,-11843.295072,2068.457845
783.578303,-1184.329507,-12731.542202,1378.971896
783.578627,-2294.638420,-10881.027347,1225.752797
783.578951,-2442.679609,-8808.450710,2068.457845
783.579276,-2368.659014,-9918.759623,1685.410096
783.579600,-3478.967927,-9770.718434,1532.190996
783.579924,-5033.400406,-8216.285956,1072.533697
783.580249,-7105.977043,-7920.203579,536.266849
783.580573,-8068.244768,-9030.512492,-76.609550
783.580898,-7105.977043,-8142.265362,-766.095498
783.581222,-5255.462188,-7179.997637,-842.705048
783.581546,-2960.823768,-9696.697840,842.705048
783.581871,-962.267725,-11621.233289,612.876398
783.582195,0.000000,-11547.212695,1149.143247
783.582519,-518.144159,-10955.047942,2757.943793
783.582844,222.061783,-10881.027347,2528.115143
783.583168,1554.432478,-11029.068536,2298.286494
783.583492,2442.679609,-10732.986159,2604.724693
783.583817,3256.906145,-9992.780217,2604.724693
783.584141,3034.844362,-10140.821405,2681.334243
783.584465,296.082377,-10436.903782,1762.019645
783.584790,-2664.741391,-9474.636058,1608.800546
783.585114,-5033.400406,-9104.533087,689.485948
783.585438,-6735.874072,-10288.862594,-306.438199
783.585763,-8438.347739,-10807.006753,-612.876398
783.586087,-8438.347739,-10732.986159,995.924147
783.586411,-6587.832884,-9918.759623,1532.190996
783.586736,-4367.215058,-10288.862594,2987.772442
783.587060,-2146.597232,-9918.759623,4213.525239
783.587385,296.082377,-9918.759623,4979.620737
783.587709,3034.844362,-10288.862594,5592.497135
783.588033,5551.544565,-11473.192101,6818.249932
783.588358,6735.874072,-10362.883188,6588.421283
783.588682,5921.647536,-8882.471304,6128.763984
783.589006,3330.926739,-6883.915261,3447.429741
783.589331,0.000000,-6587.832884,689.485948
783.589655,-3997.112087,-9844.739029,153.219100
783.589979,-5033.400406,-10658.965565,-612.876398
783.590304,-5255.462188,-9030.512492,-689.485948
783.590628,-6365.771101,-7254.018232,2604.724693
783.590952,-4293.194464,-5477.523971,3370.820191
783.591277,-2368.659014,-5551.544565,3753.867940
783.591601,-148.041188,-5699.585753,4060.306139
783.591925,2664.741391,-5847.626942,4826.401637
783.592250,6143.709319,-8808.450710,7431.126331
783.592574,8438.347739,-10658.965565,7967.393179
783.592898,7846.182985,-9474.636058,8656.879127
783.593223,5033.400406,-8068.244768,7737.564530
783.593547,1406.391290,-8142.265362,4673.182538
783.593872,-2590.720797,-9918.759623,2374.896044
783.594196,-4145.153275,-8290.306550,229.828649
783.594520,-3701.029710,-4663.297435,-1762.019645
783.594845,-4293.194464,-3182.885551,-5362.668486
783.595169,-7328.038826,-8882.471304,-3064.381992
783.595493,-6069.688724,-13915.871710,-3370.820191
783.595818,-1924.535449,-11325.150913,-5592.497135
783.596142,-2368.659014,-9030.512492,-612.876398
783.596466,-888.247130,-9548.656652,459.657299
783.596791,2886.803174,-11029.068536,-2145.067394
783.597115,3627.009116,-11473.192101,-459.657299
783.597439,4663.297435,-10436.903782,1455.581446
783.597764,6883.915261,-11621.233289,1915.238745
783.598088,6587.832884,-13175.665768,842.705048
783.598412,3034.844362,-10881.027347,766.095498
783.598737,1628.453072,-9400.615463,-1608.800546
783.599058,0.000000,-10881.027347,-5439.278036
783.599382,-4219.173869,-13767.830521,-7584.345430
783.599706,-6587.832884,-13693.809927,-8427.050478
783.600030,-4811.338623,-10732.986159,-9576.193725
783.600354,-3627.009116,-10140.821405,-7584.345430
783.600678,-3701.029710,-11177.109724,-6971.469032
783.601002,-2368.659014,-11769.274478,-6281.983084
783.601326,-666.185348,-12435.459826,-5439.278036
783.601650,888.247130,-11621.233289,-3983.696590
783.601974,2368.659014,-11029.068536,-1378.971896
783.602298,4293.194464,-11917.315666,-1072.533697
783.602622,5477.523971,-12139.377449,-1149.143247
783.602946,3701.029710,-12065.356855,-1685.410096
783.603270,666.185348,-11029.068536,-2834.553343
783.603594,-2442.679609,-9992.780217,-4979.620737
783.603918,-3997.112087,-10955.047942,-5362.668486
783.604242,-2664.741391,-11325.150913,-5286.058936
783.604566,296.082377,-9696.697840,-5515.887586
783.604890,2664.741391,-7994.224174,-3447.429741
783.605214,2886.803174,-7624.121203,-1532.190996
783.605538,5181.441594,-8808.450710,-1225.752797
783.605862,5107.421000,-8290.306550,-229.828649
783.606186,4367.215058,-7550.100608,1378.971896
783.606510,3404.947333,-8734.430116,1685.410096
783.606834,1998.556043,-9178.553681,1225.752797
783.607158,-666.185348,-8364.327145,1685.410096
783.607482,-3108.864956,-7698.141797,1685.410096
783.607806,-4737.318029,-7846.182985,76.609550
783.608130,-5699.585753,-8364.327145,-459.657299
783.608454,-5699.585753,-7402.059420,-229.828649
783.608778,-3330.926739,-6809.894666,76.609550
783.609102,-1036.288319,-7624.121203,536.266849
783.609426,-222.061783,-7698.141797,1762.019645
783.609750,592.164754,-8438.347739,2374.896044
783.610075,666.185348,-9104.533087,2911.162892
783.610399,1110.308913,-9918.759623,3447.429741
783.610723,1258.350101,-9844.739029,4673.182538
783.611047,1776.494261,-10140.821405,5056.230287
783.611371,1628.453072,-10510.924376,4903.011187
783.611695,592.164754,-10140.821405,4979.620737
783.612019,0.000000,-9104.533087,4979.620737
783.612343,-740.205942,-8216.285956,4366.744339
783.612667,-1258.350101,-8142.265362,3600.648841
783.612991,-1480.411884,-7846.182985,2911.162892
783.613315,-2146.597232,-7846.182985,2145.067394
783.613639,-2738.761985,-8142.265362,1608.800546
783.613963,-3108.864956,-9104.533087,1762.019645
783.614287,-2590.720797,-9474.636058,1608.800546
783.614611,-1554.432478,-9696.697840,1762.019645
783.614935,-296.082377,-10807.006753,2528.115143
783.615259,1628.453072,-11473.192101,3217.601092
783.615583,4145.153275,-11843.295072,3447.429741
783.615907,4811.338623,-11917.315666,3600.648841
783.616231,3849.070898,-12361.439231,3294.210641
783.616555,2072.576638,-12509.480420,2757.943793
783.616879,74.020594,-11991.336260,1838.629195
783.617203,-1554.432478,-11473.192101,842.705048
783.617527,-2738.761985,-11547.212695,-153.219100
783.617851,-3256.906145,-10732.986159,-459.657299
783.618175,-3108.864956,-10066.800811,-842.705048
783.618499,-1628.453072,-9178.553681,-306.438199
783.618823,0.000000,-8290.306550,76.609550
783.619147,1628.453072,-8216.285956,459.657299
783.619471,2072.576638,-7772.162391,306.438199
783.619795,2072.576638,-8142.265362,1072.533697
783.620119,1702.473667,-8364.327145,995.924147
783.620443,888.247130,-8956.491898,229.828649
783.620767,518.144159,-9252.574275,-306.438199
783.621091,444.123565,-9030.512492,-842.705048
783.621415,296.082377,-8882.471304,-995.924147
783.621739,0.000000,-8438.347739,-1225.752797
783.622063,0.000000,-8216.285956,-1685.410096
783.622387,-444.123565,-8364.327145,-2681.334243
783.622711,-518.144159,-8882.471304,-2604.724693
783.623035,-518.144159,-9030.512492,-3217.601092
783.623359,-1036.288319,-9252.574275,-2757.943793
783.623683,-1998.556043,-9548.656652,-2681.334243
783.624007,-2368.659014,-9918.759623,-2451.505594
783.624331,-2886.803174,-9844.739029,-2451.505594
783.624655,-2516.700203,-9474.636058,-2911.162892
783.624979,-666.185348,-9622.677246,-1225.752797
783.625303,1184.329507,-9770.718434,-919.314598
783.625627,2886.803174,-9770.718434,-383.047749
783.625951,3330.926739,-9548.656652,-766.095498
783.626275,2886.803174,-9622.677246,-1072.533697
783.626599,1184.329507,-9252.574275,-1915.238745
783.626923,74.020594,-10140.821405,-2681.334243
783.627247,-2072.576638,-9992.780217,-3907.087040
783.627571,-2368.659014,-10732.986159,-3753.867940
783.627895,-2072.576638,-10955.047942,-3677.258390
783.628219,-962.267725,-11473.192101,-3524.039291
783.628543,0.000000,-11103.089130,-2834.553343
783.628867,1554.432478,-11029.068536,-2451.505594
783.629191,2442.679609,-10807.006753,-1608.800546
783.629515,3182.885551,-11177.109724,0.000000
783.629839,3404.947333,-11325.150913,-766.095498
783.630163,2368.659014,-11399.171507,0.000000
783.630487,1036.288319,-11695.253884,-306.438199
783.630811,-222.061783,-11473.192101,-766.095498
783.631135,-1110.308913,-11029.068536,-1225.752797
783.631459,-1628.453072,-10955.047942,-1302.362347
783.631783,-1554.432478,-10732.986159,-1302.362347
783.632107,-962.267725,-10140.821405,-919.314598
783.632431,74.020594,-9474.636058,-383.047749
783.632755,666.185348,-9104.533087,0.000000
783.633079,740.205942,-9104.533087,76.609550
783.633403,444.123565,-9104.533087,383.047749
783.633727,-518.144159,-9030.512492,459.657299
783.634051,-962.267725,-8882.471304,383.047749
783.634375,-1554.432478,-8956.491898,306.438199
783.634699,-1332.370696,-8956.491898,536.266849
783.635023,-1258.350101,-8734.430116,766.095498
783.635347,-740.205942,-8808.450710,1149.143247
783.635671,74.020594,-8586.388927,1378.971896
783.635995,444.123565,-8586.388927,1455.581446
783.636319,1036.288319,-8512.368333,1302.362347
783.636643,222.061783,-8586.388927,2068.457845
783.636967,-1332.370696,-8512.368333,1455.581446
783.637291,-1998.556043,-9252.574275,766.095498
783.637615,-2442.679609,-9326.594869,1072.533697
783.637939,-2294.638420,-9474.636058,1608.800546
783.638263,-1776.494261,-9770.718434,1915.238745
783.638587,-962.267725,-9474.636058,2221.676944
783.638911,0.000000,-9400.615463,2911.162892
783.639235,1110.308913,-9252.574275,3140.991542
783.639559,1776.494261,-8956.491898,2757.943793
783.639883,1702.473667,-9252.574275,2221.676944
783.640207,370.102971,-9252.574275,1991.848295
783.640531,-1036.288319,-9326.594869,1378.971896
783.640856,-2220.617826,-9474.636058,766.095498
783.641180,-2738.761985,-9326.594869,383.047749
783.641504,-2368.659014,-9474.636058,766.095498
783.641828,-1258.350101,-9252.574275,1149.143247
783.642152,222.061783,-9252.574275,1532.190996
783.642476,1850.514855,-9474.636058,1608.800546
783.642800,3256.906145,-9252.574275,2068.457845
783.643124,3404.947333,-9622.677246,2221.676944
783.643448,2960.823768,-10288.862594,1762.019645
783.643772,1554.432478,-10510.924376,1685.410096
783.644096,0.000000,-10362.883188,919.314598
783.644420,-740.205942,-10436.903782,766.095498
783.644744,-1776.494261,-10362.883188,153.219100
783.645068,-2220.617826,-9844.739029,229.828649
783.645392,-2072.576638,-9992.780217,153.219100
783.645716,-1036.288319,-9474.636058,536.266849
783.646040,0.000000,-8734.430116,536.266849
783.646364,370.102971,-8660.409521,689.485948
783.646688,814.226536,-8882.471304,536.266849
783.647012,222.061783,-9104.533087,1302.362347
783.647336,0.000000,-9992.780217,383.047749
783.647660,-962.267725,-9252.574275,0.000000
783.647984,-1110.308913,-9400.615463,-919.314598
783.648308,-592.164754,-9770.718434,-919.314598
783.648632,370.102971,-9992.780217,-1149.143247
783.648956,962.267725,-9696.697840,-842.705048
783.649280,1554.432478,-9474.636058,-1302.362347
783.649604,2368.659014,-8956.491898,-1608.800546
783.649928,2072.576638,-8956.491898,-1608.800546
783.650252,888.247130,-9252.574275,-1838.629195
783.650576,-296.082377,-9548.656652,-1915.238745
783.650900,-1702.473667,-9992.780217,-2298.286494
783.651224,-1998.556043,-9918.759623,-2221.676944
783.651548,-1258.350101,-9548.656652,-2298.286494
783.651872,-518.144159,-9548.656652,-1225.752797
783.652196,444.123565,-10510.924376,-1915.238745
783.652520,1480.411884,-10436.903782,-842.705048
783.652844,1924.535449,-10584.944971,-1532.190996
783.653168,2146.597232,-10362.883188,-1455.581446
783.653492,814.226536,-10510.924376,-2145.067394
783.653816,-370.102971,-11251.130318,-2911.162892
783.654140,-1776.494261,-11251.130318,-3447.429741
783.654464,-2738.761985,-10732.986159,-4366.744339
783.654788,-2368.659014,-10658.965565,-3447.429741
783.655112,-1184.329507,-10658.965565,-3294.210641
783.655436,444.123565,-10510.924376,-2374.896044
783.655760,1850.514855,-10362.883188,-1685.410096
783.656084,2664.741391,-10140.821405,-1149.143247
783.656408,3404.947333,-10436.903782,-919.314598
783.656732,2368.659014,-9918.759623,-766.095498
783.657056,1036.288319,-9918.759623,-689.485948
783.657380,-148.041188,-9770.718434,-995.924147
783.657704,-1110.308913,-9918.759623,-1302.362347
783.658028,-1850.514855,-9622.677246,-1455.581446
783.658352,-2220.617826,-9400.615463,-1532.190996
783.658676,-1184.329507,-9474.636058,-536.266849
783.659000,-740.205942,-9104.533087,-383.047749
783.659324,370.102971,-8660.409521,153.219100
783.659648,1184.329507,-8586.388927,1302.362347
783.659972,1332.370696,-8956.491898,1149.143247
783.660296,888.247130,-9252.574275,1455.581446
783.660620,148.041188,-9844.739029,1532.190996
783.660944,-814.226536,-9918.759623,1378.971896
783.661268,-1628.453072,-9696.697840,1302.362347
783.661592,-2220.617826,-9178.553681,689.485948
783.661916,-2294.638420,-9252.574275,459.657299
783.662240,-1702.473667,-9104.533087,919.314598
783.662564,-592.164754,-8586.388927,1455.581446
783.662888,222.061783,-8068.244768,1762.019645
783.663212,1184.329507,-8586.388927,1608.800546
783.663536,962.267725,-8290.306550,1685.410096
783.663860,370.102971,-8956.491898,1915.238745
783.664184,-888.247130,-9252.574275,2221.676944
783.664508,-1110.308913,-9326.594869,1302.362347
783.664832,-1776.494261,-9252.574275,2221.676944
783.665156,-1110.308913,-9548.656652,2298.286494
783.665480,-666.185348,-9548.656652,2604.724693
783.665804,222.061783,-9474.636058,2681.334243
783.666128,1258.350101,-9474.636058,2987.772442
783.666452,1406.391290,-9844.739029,2451.505594
783.666776,1036.288319,-9474.636058,2374.896044
783.667100,-222.061783,-9622.677246,2221.676944
783.667424,-1554.432478,-10140.821405,536.266849
783.667748,-2516.700203,-10807.006753,536.266849
783.668072,-2886.803174,-10881.027347,0.000000
783.668396,-2294.638420,-10584.944971,0.000000
783.668720,-1332.370696,-10214.842000,306.438199
783.669044,74.020594,-10066.800811,842.705048
783.669368,1628.453072,-9474.636058,1455.581446
783.669692,2886.803174,-9252.574275,1991.848295
783.670016,3404.947333,-9474.636058,2068.457845
783.670340,2368.659014,-9474.636058,1608.800546
783.670664,1184.329507,-9844.739029,842.705048
783.670988,0.000000,-9918.759623,0.000000
783.671312,-1554.432478,-9770.718434,-306.438199
783.671636,-2294.638420,-9474.636058,-842.705048
783.671961,-2442.679609,-9474.636058,-383.047749
783.672285,-1258.350101,-9178.553681,0.000000
783.672609,-296.082377,-8660.409521,306.438199
783.672933,814.226536,-8660.409521,383.047749
783.673257,1702.473667,-8956.491898,459.657299
783.673581,2220.617826,-8956.491898,459.657299
783.673905,1480.411884,-9474.636058,766.095498
783.674229,296.082377,-9622.677246,-306.438199
783.674553,-740.205942,-9770.718434,-306.438199
783.674877,-1480.411884,-9918.759623,-1532.190996
783.675201,-1998.556043,-9770.718434,-1838.629195
783.675525,-1628.453072,-10066.800811,-2068.457845
783.675849,-592.164754,-9918.759623,-1762.019645
783.676173,444.123565,-9622.677246,-1915.238745
783.676497,888.247130,-9400.615463,-1838.629195
783.676821,1110.308913,-8882.471304,-1532.190996
783.677145,518.144159,-9622.677246,-1532.190996
783.677469,-296.082377,-9696.697840,-1532.190996
783.677793,-1258.350101,-9918.759623,-1838.629195
783.678117,-1850.514855,-9844.739029,-1838.629195
783.678441,-1258.350101,-9770.718434,-1302.362347
783.678765,-148.041188,-9474.636058,-689.485948
783.679089,1332.370696,-9844.739029,-919.314598
783.679413,2368.659014,-9474.636058,0.000000
783.679737,2960.823768,-9548.656652,-689.485948
783.680061,2368.659014,-9992.780217,-689.485948
783.680385,1332.370696,-10362.883188,-1225.752797
783.680709,-148.041188,-10436.903782,-1991.848295
783.681033,-1776.494261,-10732.986159,-2451.505594
783.681357,-2368.659014,-10732.986159,-2681.334243
783.681681,-1480.411884,-10362.883188,-2298.286494
783.682005,-962.267725,-10140.821405,-1685.410096
783.682329,0.000000,-10362.883188,-1915.238745
783.682653,814.226536,-10140.821405,-919.314598
783.682977,2220.617826,-10066.800811,-306.438199
783.683301,2812.782580,-10140.821405,-153.219100
783.683625,2516.700203,-9770.718434,153.219100
783.683949,1110.308913,-9992.780217,153.219100
783.684273,-518.144159,-10436.903782,-766.095498
783.684597,-1332.370696,-10658.965565,-1072.533697
783.684921,-1850.514855,-10214.842000,-1149.143247
783.685245,-1850.514855,-10288.862594,-1072.533697
783.685569,-1184.329507,-10066.800811,-612.876398
783.685893,-444.123565,-9622.677246,-153.219100
783.686217,296.082377,-9252.574275,383.047749
783.686541,1702.473667,-9400.615463,612.876398
783.686865,1554.432478,-9030.512492,536.266849
783.687189,1332.370696,-9178.553681,919.314598
783.687513,444.123565,-9252.574275,1149.143247
783.687837,-592.164754,-9548.656652,842.705048
783.688161,-1554.432478,-9474.636058,459.657299
783.688485,-1924.535449,-9104.533087,459.657299
783.688809,-1554.432478,-9104.533087,153.219100
783.689133,-888.247130,-8956.491898,383.047749
783.689457,0.000000,-8956.491898,612.876398
783.689781,666.185348,-9104.533087,919.314598
783.690105,1332.370696,-9030.512492,919.314598
783.690429,1036.288319,-8956.491898,919.314598
783.690753,370.102971,-8956.491898,1762.019645
783.691077,-222.061783,-9326.594869,1762.019645
783.691401,-814.226536,-9696.697840,1608.800546
783.691725,-1258.350101,-9474.636058,1455.581446
783.692049,-962.267725,-9474.636058,1225.752797
783.692373,-740.205942,-9474.636058,1378.971896
783.692697,-222.061783,-9400.615463,1991.848295
783.693021,814.226536,-8808.450710,1838.629195
783.693345,1258.350101,-8956.491898,2145.067394
783.693669,962.267725,-9400.615463,1532.190996
783.693993,148.041188,-9104.533087,842.705048
783.694317,-1184.329507,-9400.615463,689.485948
783.694641,-2072.576638,-9696.697840,0.000000
783.694965,-2146.597232,-9622.677246,-459.657299
783.695289,-1850.514855,-9696.697840,-306.438199
783.695613,-962.267725,-9770.718434,306.438199
783.695937,444.123565,-9844.739029,612.876398
783.696261,1850.514855,-10066.800811,919.314598
783.696585,2368.659014,-9696.697840,1685.410096
783.696909,2368.659014,-9844.739029,1302.362347
783.697233,2220.617826,-9844.739029,1225.752797
783.697557,1480.411884,-10510.924376,1225.752797
783.697881,148.041188,-10436.903782,383.047749
783.698205,-814.226536,-10140.821405,0.000000
783.698529,-2072.576638,-9992.780217,0.000000
783.698853,-2294.638420,-9548.656652,-153.219100
783.699177,-1776.494261,-9770.718434,0.000000
783.699501,-296.082377,-9770.718434,0.000000
783.699826,370.102971,-9178.553681,0.000000
783.700150,1110.308913,-8956.491898,306.438199
783.700474,1184.329507,-8882.471304,0.000000
783.700798,888.247130,-9474.636058,0.000000
783.701122,-370.102971,-9474.636058,0.000000
783.701446,-1036.288319,-9770.718434,-536.266849
783.701770,-1480.411884,-9770.718434,-995.924147
783.702094,-1184.329507,-9844.739029,-842.705048
783.702418,-370.102971,-9992.780217,-689.485948
783.702742,740.205942,-9770.718434,-383.047749
783.703067,1628.453072,-9770.718434,-153.219100
783.703391,1554.432478,-9252.574275,-842.705048
783.703715,1036.288319,-9030.512492,-383.047749
783.704039,1110.308913,-9474.636058,-1302.362347
783.704363,222.061783,-9992.780217,-1225.752797
783.704687,-1184.329507,-9548.656652,-1225.752797
783.705011,-1924.535449,-9918.759623,-1149.143247
783.705335,-1776.494261,-9622.677246,-995.924147
783.705659,-1184.329507,-9844.739029,-995.924147
783.705983,-444.123565,-10214.842000,-459.657299
783.706308,518.144159,-9992.780217,0.000000
783.706632,1702.473667,-9992.780217,383.047749
783.706956,1184.329507,-9844.739029,229.828649
783.707280,814.226536,-9844.739029,-229.828649
783.707604,-518.144159,-10288.862594,-919.314598
783.707928,-1628.453072,-10436.903782,-1915.238745
783.708252,-2294.638420,-10066.800811,-2221.676944
783.708576,-2220.617826,-9992.780217,-2145.067394
783.708900,-1850.514855,-9844.739029,-1532.190996
783.709224,-1258.350101,-10288.862594,-1762.019645
783.709549,888.247130,-9992.780217,-842.705048
783.709873,1998.556043,-9770.718434,-612.876398
783.710197,2664.741391,-9696.697840,0.000000
783.710521,2960.823768,-10066.800811,459.657299
783.710845,2294.638420,-10214.842000,612.876398
783.711169,1480.411884,-9992.780217,306.438199
783.711493,-222.061783,-9474.636058,0.000000
783.711817,-962.267725,-9474.636058,-612.876398
783.712141,-1406.391290,-9696.697840,-1532.190996
783.712465,-1184.329507,-9696.697840,-612.876398
783.712790,-444.123565,-9326.594869,-306.438199
783.713114,74.020594,-9104.533087,0.000000
783.713438,1036.288319,-8956.491898,0.000000
783.713762,1332.370696,-9178.553681,459.657299
783.714086,1036.288319,-8956.491898,536.266849
783.714410,222.061783,-9548.656652,1072.533697
783.714734,-814.226536,-9770.718434,766.095498
783.715058,-1406.391290,-9696.697840,536.266849
783.715382,-1480.411884,-9474.636058,153.219100
783.715706,-1036.288319,-9770.718434,383.047749
783.716031,-592.164754,-9622.677246,459.657299
783.716355,740.205942,-9474.636058,383.047749
783.716679,1332.370696,-8956.491898,229.828649
783.717003,1480.411884,-8808.450710,689.485948
783.717327,1184.329507,-9178.553681,459.657299
783.717651,74.020594,-9252.574275,306.438199
783.717975,-1184.329507,-9474.636058,0.000000
783.718299,-1628.453072,-9474.636058,0.000000
783.718623,-1480.411884,-9252.574275,0.000000
783.718947,-1258.350101,-9400.615463,689.485948
783.719271,-740.205942,-9252.574275,1149.143247
783.719596,0.000000,-9400.615463,1455.581446
783.719920,740.205942,-9326.594869,1762.019645
783.720244,1110.308913,-9696.697840,1532.190996
783.720568,814.226536,-9548.656652,1378.971896
783.720892,0.000000,-9474.636058,1072.533697
783.721216,-592.164754,-10066.800811,383.047749
783.721540,-1776.494261,-10436.903782,-689.485948
783.721864,-2664.741391,-9992.780217,-536.266849
783.722188,-2442.679609,-9992.780217,-689.485948
783.722512,-1702.473667,-10140.821405,-689.485948
783.722837,-444.123565,-9918.759623,-306.438199
783.723161,888.247130,-9474.636058,229.828649
783.723485,2220.617826,-9474.636058,842.705048
783.723809,3256.906145,-10362.883188,459.657299
783.724133,2442.679609,-9770.718434,1072.533697
783.724457,1628.453072,-10140.821405,383.047749
783.724781,296.082377,-10436.903782,0.000000
783.725105,-1036.288319,-10436.903782,-306.438199
783.725429,-1702.473667,-9770.718434,-536.266849
783.725753,-1776.494261,-9622.677246,-1072.533697
783.726078,-1258.350101,-9770.718434,-229.828649
783.726402,-666.185348,-9252.574275,76.609550
783.726726,666.185348,-9178.553681,0.000000
783.727050,1184.329507,-8882.471304,229.828649
783.727374,1110.308913,-9030.512492,459.657299
783.727698,666.185348,-9474.636058,459.657299
783.728022,-296.082377,-9622.677246,76.609550
783.728346,-1628.453072,-9622.677246,-229.828649
783.728670,-1628.453072,-9622.677246,-459.657299
783.728994,-1258.350101,-9918.759623,-995.924147
783.729319,-1184.329507,-9622.677246,-1072.533697
783.729643,0.000000,-9622.677246,-766.095498
783.729967,962.267725,-9178.553681,-536.266849
783.730291,1554.432478,-8882.471304,-689.485948
783.730615,1776.494261,-8882.471304,-229.828649
783.730939,1110.308913,-8586.388927,-306.438199
783.731263,296.082377,-9474.636058,76.609550
783.731587,-518.144159,-9844.739029,-153.219100
783.731911,-1332.370696,-9622.677246,-383.047749
783.732235,-1332.370696,-9622.677246,-306.438199
783.732560,-1110.308913,-9474.636058,-229.828649
783.732884,74.020594,-9474.636058,153.219100
783.733208,1036.288319,-9548.656652,612.876398
783.733532,1702.473667,-9104.533087,536.266849
783.733856,1998.556043,-9622.677246,153.219100
783.734180,962.267725,-9474.636058,0.000000
783.734504,-296.082377,-10140.821405,-689.485948
783.734828,-1628.453072,-10584.944971,-919.314598
783.735152,-2368.659014,-10436.903782,-1302.362347
783.735476,-2220.617826,-10584.944971,-1072.533697
783.735801,-1702.473667,-10510.924376,-1225.752797
783.736125,-592.164754,-10436.903782,-689.485948
783.736449,740.205942,-10436.903782,0.000000
783.736773,1998.556043,-10510.924376,0.000000
783.737097,2590.720797,-10510.924376,0.000000
783.737421,2442.679609,-10288.862594,76.609550
783.737745,1776.494261,-10288.862594,0.000000
783.738069,518.144159,-10658.965565,-229.828649
783.738393,-666.185348,-10658.965565,-1072.533697
783.738717,-1332.370696,-10066.800811,-612.876398
783.739041,-1924.535449,-10214.842000,-995.924147
783.739366,-1406.391290,-9992.780217,-536.266849
783.739690,-888.247130,-9622.677246,0.000000
783.740014,148.041188,-9474.636058,153.219100
783.740338,888.247130,-9178.553681,612.876398
783.740662,1258.350101,-8956.491898,1685.410096
783.740986,1110.308913,-9178.553681,1072.533697
783.741310,148.041188,-9178.553681,919.314598
783.741634,-666.185348,-9474.636058,536.266849
783.741958,-1480.411884,-9770.718434,0.000000
783.742282,-1924.535449,-9770.718434,-383.047749
783.742607,-1850.514855,-9622.677246,-459.657299
783.742931,-666.185348,-9104.533087,306.438199
783.743255,444.123565,-8882.471304,76.609550
783.743579,1406.391290,-9030.512492,76.609550
783.743903,2146.597232,-8660.409521,459.657299
783.744227,2072.576638,-8660.409521,612.876398
783.744551,1406.391290,-8734.430116,766.095498
783.744875,0.000000,-9252.574275,306.438199
783.745199,-740.205942,-8734.430116,153.219100
783.745523,-1258.350101,-9030.512492,612.876398
783.745848,-1628.453072,-8882.471304,689.485948
783.746172,-444.123565,-9252.574275,919.314598
783.746496,-740.205942,-9178.553681,689.485948
783.746820,74.020594,-9104.533087,919.314598
783.747144,814.226536,-9178.553681,689.485948
783.747468,888.247130,-9178.553681,919.314598
783.747792,444.123565,-9548.656652,612.876398
783.748116,-370.102971,-9178.553681,76.609550
783.748440,-1036.288319,-9918.759623,-229.828649
783.748764,-1554.432478,-10362.883188,-689.485948
783.749089,-1554.432478,-10362.883188,-689.485948
783.749413,-962.267725,-10510.924376,-919.314598
783.749737,0.000000,-10584.944971,-536.266849
783.750061,1258.350101,-10584.944971,-612.876398
783.750385,1924.535449,-10288.862594,0.000000
783.750709,1850.514855,-9844.739029,-306.438199
783.751033,2072.576638,-9992.780217,0.000000
783.751357,888.247130,-10214.842000,-229.828649
783.751681,-444.123565,-10288.862594,-383.047749
783.752005,-1184.329507,-10066.800811,-612.876398
783.752330,-1110.308913,-9696.697840,-919.314598
783.752654,-888.247130,-9770.718434,-766.095498
783.752978,-370.102971,-9696.697840,-229.828649
783.753302,74.020594,-9548.656652,689.485948
783.753626,1110.308913,-9326.594869,536.266849
783.753950,1628.453072,-9474.636058,612.876398
783.754274,1554.432478,-9474.636058,306.438199
783.754598,666.185348,-9474.636058,76.609550
783.754922,-592.164754,-9400.615463,-459.657299
783.755246,-1036.288319,-9770.718434,-536.266849
783.755570,-1776.494261,-9770.718434,-689.485948
783.755895,-1776.494261,-9548.656652,-1149.143247
783.756219,-1258.350101,-9844.739029,-842.705048
783.756543,0.000000,-9622.677246,-536.266849
783.756867,1110.308913,-9400.615463,0.000000
783.757191,1998.556043,-9326.594869,-229.828649
783.757515,2146.597232,-8660.409521,0.000000
783.757839,1776.494261,-8882.471304,76.609550
783.758163,814.226536,-9030.512492,-536.266849
783.758487,-222.061783,-9696.697840,-536.266849
783.758811,-1184.329507,-10066.800811,-536.266849
783.759136,-1924.535449,-9474.636058,-766.095498
783.759460,-1628.453072,-9474.636058,-689.485948
783.759784,-1036.288319,-9400.615463,-229.828649
783.760108,0.000000,-9252.574275,76.609550
783.760432,962.267725,-9326.594869,383.047749
783.760756,1332.370696,-9252.574275,383.047749
783.761080,666.185348,-9548.656652,76.609550
783.761404,-370.102971,-9622.677246,-153.219100
783.761728,-1554.432478,-10066.800811,-383.047749
783.762052,-2072.576638,-10436.903782,-1072.533697
783.762377,-2368.659014,-9918.759623,-995.924147
783.762701,-1998.556043,-9770.718434,-1302.362347
783.763025,-444.123565,-9844.739029,-1225.752797
783.763349,888.247130,-10066.800811,-689.485948
783.763673,1628.453072,-9918.759623,0.000000
783.763997,2220.617826,-9844.739029,0.000000
783.764321,2220.617826,-9844.739029,-153.219100
783.764645,1332.370696,-9844.739029,-536.266849
783.764969,518.144159,-9844.739029,-536.266849
783.765293,-444.123565,-10066.800811,-383.047749
783.765618,-962.267725,-10362.883188,-76.609550
783.765942,-1480.411884,-9844.739029,-306.438199
783.766266,-1110.308913,-9918.759623,0.000000
783.766590,-518.144159,-9918.759623,0.000000
783.766914,74.020594,-9474.636058,766.095498
783.767238,888.247130,-9178.553681,919.314598
783.767562,1184.329507,-9326.594869,919.314598
783.767886,962.267725,-9030.512492,842.705048
783.768210,0.000000,-9770.718434,612.876398
783.768534,-740.205942,-10066.800811,306.438199
783.768859,-1480.411884,-10214.842000,0.000000
783.769183,-1850.514855,-10214.842000,-306.438199
783.769507,-1332.370696,-10214.842000,0.000000
783.769831,-592.164754,-9770.718434,76.609550
783.770155,222.061783,-9474.636058,153.219100
783.770479,1776.494261,-9252.574275,229.828649
783.770803,2294.638420,-9030.512492,459.657299
783.771127,2072.576638,-9030.512492,842.705048
783.771451,1480.411884,-9474.636058,612.876398
783.771775,0.000000,-8882.471304,612.876398
783.772100,-1480.411884,-9030.512492,383.047749
783.772424,-2368.659014,-8660.409521,0.000000
783.772748,-2294.638420,-9030.512492,919.314598
783.773072,-1258.350101,-9326.594869,995.924147
783.773396,-296.082377,-8956.491898,1072.533697
783.773720,814.226536,-8734.430116,1378.971896
783.774044,1480.411884,-9030.512492,1608.800546
783.774368,1776.494261,-9178.553681,1378.971896
783.774692,814.226536,-8956.491898,1532.190996
783.775016,-888.247130,-9474.636058,919.314598
783.775340,-2368.659014,-9844.739029,-153.219100
783.775665,-2886.803174,-9770.718434,-1072.533697
783.775989,-2664.741391,-9844.739029,-1072.533697
783.776313,-2146.597232,-9844.739029,-1149.143247
783.776637,-962.267725,-9918.759623,-919.314598
783.776961,592.164754,-9770.718434,-229.828649
783.777285,1850.514855,-9178.553681,-306.438199
783.777609,2368.659014,-9104.533087,0.000000
783.777933,2294.638420,-9622.677246,306.438199
783.778257,1406.391290,-9844.739029,76.609550
783.778581,518.144159,-10214.842000,0.000000
783.778906,-592.164754,-9770.718434,-229.828649
783.779230,-1110.308913,-9696.697840,-459.657299
783.779554,-1628.453072,-10214.842000,-229.828649
783.779878,-1184.329507,-10214.842000,-1149.143247
783.780202,-592.164754,-10066.800811,-766.095498
783.780526,0.000000,-9696.697840,-612.876398
783.780850,962.267725,-9696.697840,-383.047749
783.781174,1480.411884,-9918.759623,0.000000
783.781498,1480.411884,-10214.842000,0.000000
783.781822,740.205942,-10362.883188,0.000000
783.782147,-444.123565,-10288.862594,-612.876398
783.782471,-888.247130,-10510.924376,-612.876398
783.782795,-1110.308913,-10362.883188,-919.314598
783.783119,-740.205942,-10584.944971,-842.705048
783.783443,-222.061783,-10214.842000,-842.705048
783.783767,888.247130,-10066.800811,-689.485948
783.784091,1776.494261,-9622.677246,-229.828649
783.784415,1924.535449,-9030.512492,-919.314598
783.784739,1332.370696,-9252.574275,-842.705048
783.785063,740.205942,-9474.636058,-383.047749
783.785388,-296.082377,-9474.636058,-536.266849
783.785712,-1184.329507,-9326.594869,-536.266849
783.786036,-1184.329507,-8956.491898,-306.438199
783.786360,-814.226536,-9178.553681,-306.438199
783.786684,74.020594,-8956.491898,536.266849
783.787008,1036.288319,-8586.388927,459.657299
783.787332,1406.391290,-8660.409521,689.485948
783.787656,1184.329507,-8956.491898,766.095498
783.787980,666.185348,-8956.491898,229.828649
783.788304,-592.164754,-9400.615463,-383.047749
783.788629,-2220.617826,-9474.636058,-383.047749
783.788953,-2738.761985,-9918.759623,-995.924147
783.789277,-2812.782580,-9992.780217,-1225.752797
783.789601,-2368.659014,-9696.697840,-1302.362347
783.789925,-2072.576638,-9474.636058,-995.924147
783.790249,-370.102971,-9770.718434,-306.438199
783.790573,1258.350101,-9696.697840,0.000000
783.790897,2368.659014,-9770.718434,306.438199
783.791221,2738.761985,-9770.718434,1149.143247
783.791545,2146.597232,-10066.800811,229.828649
783.791870,1036.288319,-10510.924376,0.000000
783.792194,-740.205942,-10288.862594,-459.657299
783.792518,-1776.494261,-10066.800811,-995.924147
783.792842,-2294.638420,-10510.924376,-1149.143247
783.793166,-2294.638420,-10214.842000,-1072.533697
783.793490,-1332.370696,-9696.697840,-612.876398
783.793814,0.000000,-9326.594869,0.000000
783.794138,888.247130,-9400.615463,383.047749
783.794462,1628.453072,-9696.697840,229.828649
783.794786,1850.514855,-9696.697840,766.095498
783.795110,1184.329507,-9770.718434,766.095498
783.795435,-222.061783,-10658.965565,153.219100
783.795759,-1258.350101,-10658.965565,-306.438199
783.796083,-1776.494261,-10436.903782,-459.657299
783.796407,-1184.329507,-9844.739029,-306.438199
783.796731,-740.205942,-10066.800811,-459.657299
783.797055,740.205942,-10214.842000,0.000000
783.797379,1258.350101,-9474.636058,0.000000
783.797703,1776.494261,-9326.594869,0.000000
783.798027,1554.432478,-9252.574275,153.219100
783.798351,666.185348,-8734.430116,153.219100
783.798676,-296.082377,-9030.512492,153.219100
783.799000,-1184.329507,-9252.574275,612.876398
783.799324,-1332.370696,-9474.636058,229.828649
783.799648,-1332.370696,-9326.594869,919.314598
783.799972,-962.267725,-9400.615463,1072.533697
783.800296,0.000000,-9178.553681,1378.971896
783.800620,814.226536,-9178.553681,1532.190996
783.800944,1110.308913,-8956.491898,1608.800546
783.801268,1110.308913,-8956.491898,1455.581446
783.801592,222.061783,-8586.388927,1225.752797
783.801916,-740.205942,-8882.471304,229.828649
783.802240,-1998.556043,-9030.512492,-229.828649
783.802564,-2368.659014,-9474.636058,-612.876398
783.802888,-2294.638420,-9474.636058,-766.095498
783.803212,-1628.453072,-9548.656652,-842.705048
783.803536,-592.164754,-9474.636058,-536.266849
783.803860,0.000000,-9326.594869,76.609550
783.804184,1998.556043,-9770.718434,612.876398
783.804508,2738.761985,-9474.636058,1072.533697
783.804832,2516.700203,-9992.780217,689.485948
783.805156,1480.411884,-10140.821405,536.266849
783.805480,666.185348,-10658.965565,153.219100
783.805804,-666.185348,-10510.924376,-229.828649
783.806128,-1628.453072,-10436.903782,-766.095498
783.806452,-2072.576638,-10288.862594,-459.657299
783.806776,-1776.494261,-10066.800811,-229.828649
783.807100,-962.267725,-9992.780217,-536.266849
783.807424,518.144159,-9622.677246,0.000000
783.807748,1406.391290,-9548.656652,0.000000
783.808072,1776.494261,-9696.697840,0.000000
783.808396,1332.370696,-9548.656652,153.219100
783.808720,518.144159,-9844.739029,-76.609550
783.809044,-1184.329507,-10288.862594,-1072.533697
783.809368,-1924.535449,-9992.780217,-842.705048
783.809692,-1850.514855,-10288.862594,-995.924147
783.810016,-1184.329507,-10436.903782,-1072.533697
783.810340,-296.082377,-10436.903782,-919.314598
783.810664,814.226536,-10288.862594,-459.657299
783.810988,1184.329507,-9104.533087,-306.438199
783.811312,2220.617826,-9326.594869,153.219100
783.811636,1924.535449,-9030.512492,0.000000
783.811960,1406.391290,-9326.594869,-306.438199
783.812284,222.061783,-9622.677246,-612.876398
783.812608,-444.123565,-9622.677246,-459.657299
783.812932,-814.226536,-9474.636058,-459.657299
783.813256,-1258.350101,-9474.636058,-536.266849
783.813580,-1110.308913,-9400.615463,0.000000
783.813904,-370.102971,-9474.636058,-536.266849
783.814228,148.041188,-9178.553681,153.219100
783.814552,444.123565,-9474.636058,76.609550
783.814876,296.082377,-9178.553681,229.828649
783.815200,0.000000,-9474.636058,0.000000
783.815524,-1036.288319,-9474.636058,-919.314598
783.815849,-1924.535449,-9548.656652,-689.485948
783.816173,-2442.679609,-9474.636058,-1302.362347
783.816497,-1702.473667,-9844.739029,-1762.019645
783.816821,-1332.370696,-9622.677246,-842.705048
783.817145,0.000000,-9844.739029,-459.657299
783.817469,1480.411884,-9918.759623,-76.609550
783.817793,2368.659014,-9770.718434,0.000000
783.818117,2738.761985,-10066.800811,153.219100
783.818441,2294.638420,-9992.780217,-153.219100
783.818765,1184.329507,-10436.903782,-229.828649
783.819089,148.041188,-10510.924376,-229.828649
783.819413,-1110.308913,-10436.903782,-612.876398
783.819737,-1332.370696,-10140.821405,-995.924147
783.820061,-962.267725,-10510.924376,-536.266849
783.820385,-296.082377,-10140.821405,-536.266849
783.820709,814.226536,-9622.677246,0.000000
783.821033,1332.370696,-9474.636058,383.047749
783.821357,2072.576638,-9622.677246,766.095498
783.821681,1406.391290,-9548.656652,383.047749
783.822005,222.061783,-9696.697840,0.000000
783.822329,-962.267725,-10140.821405,-153.219100
783.822653,-1480.411884,-10584.944971,-612.876398
783.822977,-1702.473667,-9992.780217,-383.047749
783.823301,-1480.411884,-9844.739029,-383.047749
783.823625,-1036.288319,-9770.718434,-229.828649
783.823949,148.041188,-9252.574275,0.000000
783.824273,1110.308913,-9326.594869,153.219100
783.824597,1850.514855,-9104.533087,306.438199
783.824921,1850.514855,-9030.512492,459.657299
783.825245,1628.453072,-9030.512492,995.924147
783.825569,888.247130,-9326.594869,459.657299
783.825893,0.000000,-9474.636058,1302.362347
783.826217,-592.164754,-9326.594869,689.485948
783.826541,-1110.308913,-9252.574275,229.828649
783.826865,-1036.288319,-9326.594869,612.876398
783.827189,-518.144159,-9252.574275,1149.143247
783.827513,0.000000,-8956.491898,1838.629195
783.827837,962.267725,-8586.388927,1225.752797
783.828161,1036.288319,-8512.368333,995.924147
783.828485,740.205942,-8734.430116,766.095498
783.828809,-370.102971,-9252.574275,536.266849
783.829133,-1776.494261,-9474.636058,0.000000
783.829457,-2368.659014,-9770.718434,-306.438199
783.829781,-2664.741391,-9474.636058,-995.924147
783.830105,-2368.659014,-9474.636058,-842.705048
783.830429,-1850.514855,-10066.800811,0.000000
783.830753,0.000000,-10066.800811,-153.219100
783.831077,1184.329507,-9474.636058,229.828649
783.831401,1924.535449,-9992.780217,383.047749
783.831725,2146.597232,-9844.739029,306.438199
783.832049,1628.453072,-10066.800811,383.047749
783.832373,518.144159,-10140.821405,76.609550
783.832697,-444.123565,-10584.944971,-306.438199
783.833021,-1406.391290,-10436.903782,-383.047749
783.833345,-1702.473667,-9992.780217,-383.047749
783.833669,-1258.350101,-10362.883188,0.000000
783.833993,-148.041188,-9770.718434,0.000000
783.834317,370.102971,-9622.677246,-76.609550
783.834641,962.267725,-9400.615463,0.000000
783.834965,1406.391290,-9326.594869,612.876398
783.835289,1110.308913,-9622.677246,0.000000
783.835613,74.020594,-9548.656652,-229.828649
783.835937,-1036.288319,-9992.780217,-612.876398
783.836261,-1554.432478,-10140.821405,-842.705048
783.836585,-1332.370696,-10214.842000,-1072.533697
783.836909,-888.247130,-10140.821405,-1225.752797
783.837233,0.000000,-10436.903782,-766.095498
783.837557,888.247130,-9918.759623,-306.438199
783.837881,1184.329507,-9326.594869,0.000000
783.838205,1924.535449,-9474.636058,0.000000
783.838529,2072.576638,-9474.636058,0.000000
783.838853,888.247130,-9400.615463,0.000000
783.839177,-148.041188,-9474.636058,-306.438199
783.839501,-814.226536,-9696.697840,-536.266849
783.839825,-1924.535449,-9178.553681,0.000000
783.840149,-1702.473667,-9104.533087,-229.828649
783.840473,-1184.329507,-9104.533087,229.828649
783.840798,0.000000,-9030.512492,919.314598
783.841122,814.226536,-9104.533087,766.095498
783.841446,888.247130,-9326.594869,536.266849
783.841770,888.247130,-9178.553681,536.266849
783.842094,222.061783,-9030.512492,76.609550
783.842418,-814.226536,-9474.636058,-612.876398
783.842742,-1850.514855,-9844.739029,0.000000
783.843066,-2220.617826,-9770.718434,-612.876398
783.843390,-1702.473667,-9844.739029,-919.314598
783.843714,-1480.411884,-9918.759623,-995.924147
783.844038,-444.123565,-9770.718434,-306.438199
783.844362,962.267725,-9696.697840,0.000000
783.844686,2368.659014,-9918.759623,612.876398
783.845010,2960.823768,-9622.677246,383.047749
783.845334,2294.638420,-9622.677246,842.705048
783.845658,814.226536,-9770.718434,306.438199
783.845982,-222.061783,-10140.821405,-153.219100
783.846306,-1406.391290,-10066.800811,-612.876398
783.846630,-2294.638420,-10362.883188,-766.095498
783.846954,-2146.597232,-9844.739029,-1149.143247
783.847278,-1258.350101,-9326.594869,-536.266849
783.847602,0.000000,-9326.594869,0.000000
783.847926,1110.308913,-9178.553681,612.876398
783.848250,1702.473667,-9474.636058,459.657299
783.848574,1628.453072,-9474.636058,229.828649
783.848898,666.185348,-9474.636058,459.657299
783.849222,-444.123565,-9918.759623,0.000000
783.849546,-888.247130,-10214.842000,0.000000
783.849870,-1110.308913,-10436.903782,-383.047749
783.850194,-814.226536,-9696.697840,76.609550
783.850518,-222.061783,-9918.759623,-229.828649
783.850842,74.020594,-10066.800811,-306.438199
783.851166,1036.288319,-9696.697840,-229.828649
783.851490,1332.370696,-9326.594869,-229.828649
783.851814,1332.370696,-9400.615463,-229.828649
783.852138,962.267725,-9622.677246,0.000000
783.852462,0.000000,-9696.697840,76.609550
783.852786,-444.123565,-10066.800811,-306.438199
783.853110,-1110.308913,-9770.718434,-612.876398
783.853434,-1628.453072,-9770.718434,0.000000
783.853758,-1110.308913,-9474.636058,153.219100
783.854082,-518.144159,-9622.677246,689.485948
783.854406,444.123565,-9548.656652,1072.533697
783.854730,1258.350101,-9696.697840,1302.362347
783.855054,1628.453072,-9992.780217,689.485948
783.855378,962.267725,-9252.574275,689.485948
783.855702,-74.020594,-9326.594869,229.828649
783.856026,-1110.308913,-9548.656652,-306.438199
783.856350,-1924.535449,-9770.718434,-919.314598
783.856674,-2368.659014,-9548.656652,-995.924147
783.856998,-1332.370696,-9400.615463,-842.705048
783.857322,-444.123565,-9178.553681,0.000000
783.857646,814.226536,-8956.491898,0.000000
783.857970,2220.617826,-9178.553681,383.047749
783.858294,2738.761985,-9030.512492,612.876398
783.858618,2812.782580,-9178.553681,919.314598
783.858942,1924.535449,-9474.636058,612.876398
783.859266,296.082377,-9696.697840,76.609550
783.859590,-1184.329507,-9474.636058,-306.438199
783.859914,-1776.494261,-9474.636058,-536.266849
783.860238,-1924.535449,-9326.594869,-612.876398
783.860562,-1702.473667,-9622.677246,-459.657299
783.860886,-666.185348,-9474.636058,-229.828649
783.861210,444.123565,-9326.594869,0.000000
783.861534,1184.329507,-9474.636058,153.219100
783.861858,1258.350101,-9474.636058,-153.219100
783.862182,740.205942,-9770.718434,919.314598
783.862506,0.000000,-10140.821405,0.000000
783.862830,-1332.370696,-10288.862594,-383.047749
783.863154,-1924.535449,-10807.006753,-612.876398
783.863478,-1702.473667,-10807.006753,-689.485948
783.863802,-814.226536,-10436.903782,-766.095498
783.864126,0.000000,-10362.883188,-306.438199
783.864450,222.061783,-10066.800811,-612.876398
783.864774,888.247130,-9474.636058,-383.047749
783.865098,1110.308913,-9400.615463,-612.876398
783.865422,1332.370696,-9770.718434,-306.438199
783.865747,666.185348,-9696.697840,-229.828649
783.866071,-148.041188,-9844.739029,-383.047749
783.866395,-740.205942,-10140.821405,-459.657299
783.866719,-1258.350101,-10140.821405,-383.047749
783.867043,-1184.329507,-10140.821405,0.000000
783.867367,-962.267725,-10288.862594,-306.438199
783.867691,-222.061783,-9844.739029,306.438199
783.868015,666.185348,-9622.677246,612.876398
783.868339,1480.411884,-9474.636058,536.266849
783.868663,1258.350101,-9474.636058,383.047749
783.868987,592.164754,-9474.636058,76.609550
783.869311,-444.123565,-9326.594869,-229.828649
783.869635,-1776.494261,-9400.615463,-919.314598
783.869959,-2368.659014,-9844.739029,-689.485948
783.870283,-2664.741391,-9992.780217,-995.924147
783.870607,-1850.514855,-9622.677246,-842.705048
783.870931,-444.123565,-9474.636058,0.000000
783.871255,1406.391290,-9252.574275,689.485948
783.871579,2960.823768,-8512.368333,689.485948
783.871903,3404.947333,-8808.450710,1685.410096
783.872227,2442.679609,-8586.388927,1072.533697
783.872551,1258.350101,-9030.512492,536.266849
783.872875,0.000000,-9474.636058,0.000000
783.873199,-1332.370696,-9474.636058,0.000000
783.873523,-1628.453072,-9474.636058,-612.876398
783.873847,-1628.453072,-9474.636058,-536.266849
783.874171,-1554.432478,-8808.450710,-536.266849
783.874495,-592.164754,-8882.471304,0.000000
783.874819,592.164754,-8882.471304,459.657299
783.875143,1406.391290,-9104.533087,842.705048
783.875467,1406.391290,-9104.533087,919.314598
783.875791,740.205942,-9474.636058,612.876398
783.876115,-370.102971,-9992.780217,229.828649
783.876439,-962.267725,-9992.780217,76.609550
783.876763,-1332.370696,-10140.821405,76.609550
783.877087,-1332.370696,-9992.780217,-306.438199
783.877411,-740.205942,-10288.862594,-842.705048
783.877735,0.000000,-10510.924376,-459.657299
783.878059,814.226536,-10214.842000,-153.219100
783.878383,1036.288319,-9918.759623,-459.657299
783.878707,1776.494261,-10214.842000,0.000000
783.879031,1110.308913,-9844.739029,76.609550
783.879355,740.205942,-9918.759623,153.219100
783.879679,-148.041188,-10066.800811,-383.047749
783.880003,-666.185348,-10881.027347,-76.609550
783.880327,-1184.329507,-10140.821405,0.000000
783.880651,-1110.308913,-9770.718434,383.047749
783.880975,-370.102971,-9992.780217,612.876398
783.881299,444.123565,-9622.677246,766.095498
783.881623,1036.288319,-9474.636058,536.266849
783.881947,1480.411884,-9770.718434,229.828649
783.882271,1036.288319,-9474.636058,306.438199
783.882595,0.000000,-9474.636058,229.828649
783.882919,-1406.391290,-9770.718434,-612.876398
783.883243,-2590.720797,-9844.739029,-1149.143247
783.883567,-2886.803174,-9770.718434,-1378.971896
783.883891,-2146.597232,-9918.759623,-1532.190996
783.884215,-962.267725,-9918.759623,-842.705048
783.884539,740.205942,-9548.656652,76.609550
783.884863,2368.659014,-9030.512492,919.314598
783.885187,2590.720797,-8882.471304,612.876398
783.885511,2442.679609,-9474.636058,0.000000
783.885835,1110.308913,-9622.677246,229.828649
783.886159,148.041188,-9474.636058,-306.438199
783.886483,-888.247130,-9696.697840,-459.657299
783.886807,-1850.514855,-9474.636058,-229.828649
783.887131,-1702.473667,-9326.594869,-689.485948
783.887455,-1480.411884,-9178.553681,-612.876398
783.887779,-814.226536,-9178.553681,-459.657299
783.888103,0.000000,-8586.388927,-229.828649
783.888427,1036.288319,-8808.450710,0.000000
783.888751,1628.453072,-9104.533087,229.828649
783.889075,1406.391290,-9104.533087,612.876398
783.889399,1036.288319,-9474.636058,76.609550
783.889723,-222.061783,-9622.677246,-153.219100
783.890047,-666.185348,-10140.821405,-612.876398
783.890371,-1628.453072,-9992.780217,-383.047749
783.890695,-1036.288319,-10362.883188,-766.095498
783.891020,-592.164754,-10288.862594,-612.876398
783.891344,518.144159,-10140.821405,-306.438199
783.891668,1702.473667,-9696.697840,76.609550
783.891992,1998.556043,-9548.656652,229.828649
783.892316,2368.659014,-10214.842000,0.000000
783.892640,1776.494261,-9474.636058,0.000000
783.892964,296.082377,-10066.800811,-153.219100
783.893288,-740.205942,-10140.821405,-383.047749
783.893612,-1702.473667,-10362.883188,-689.485948
783.893936,-1776.494261,-10214.842000,-536.266849
783.894260,-888.247130,-10214.842000,153.219100
783.894584,444.123565,-10214.842000,766.095498
783.894908,1184.329507,-10140.821405,536.266849
783.895232,1628.453072,-10584.944971,995.924147
783.895556,962.267725,-9622.677246,689.485948
783.895880,0.000000,-9622.677246,459.657299
783.896204,-1184.329507,-9918.759623,153.219100
783.896528,-1628.453072,-9992.780217,-153.219100
783.896852,-2146.597232,-9548.656652,229.828649
783.897176,-1850.514855,-9252.574275,-229.828649
783.897500,-1332.370696,-9474.636058,-459.657299
783.897824,-666.185348,-9474.636058,0.000000
783.898148,666.185348,-9474.636058,383.047749
783.898472,1702.473667,-9030.512492,919.314598
783.898796,2072.576638,-8808.450710,612.876398
783.899120,1776.494261,-8734.430116,919.314598
783.899444,814.226536,-9548.656652,689.485948
783.899768,-444.123565,-9030.512492,459.657299
783.900092,-888.247130,-9326.594869,76.609550
783.900416,-1554.432478,-8882.471304,0.000000
783.900740,-1406.391290,-8734.430116,-153.219100
783.901064,-1258.350101,-8882.471304,0.000000
783.901388,-888.247130,-8882.471304,-153.219100
783.901712,148.041188,-8660.409521,306.438199
783.902036,370.102971,-8734.430116,689.485948
783.902360,370.102971,-8808.450710,536.266849
783.902684,-222.061783,-9104.533087,536.266849
783.903008,-370.102971,-9992.780217,459.657299
783.903332,-1110.308913,-10584.944971,0.000000
783.903656,-1702.473667,-10436.903782,-306.438199
783.903980,-1776.494261,-10510.924376,-153.219100
783.904304,-1258.350101,-10288.862594,0.000000
783.904629,0.000000,-10584.944971,-153.219100
783.904953,666.185348,-9918.759623,229.828649
783.905277,1776.494261,-9918.759623,0.000000
783.905601,2072.576638,-9548.656652,0.000000
783.905925,1776.494261,-9400.615463,-383.047749
783.906249,814.226536,-9844.739029,-536.266849
783.906574,-370.102971,-9844.739029,-306.438199
783.906898,-740.205942,-10658.965565,-153.219100
783.907222,-1702.473667,-9844.739029,-229.828649
783.907546,-1850.514855,-9918.759623,0.000000
783.907870,-888.247130,-9918.759623,0.000000
783.908194,148.041188,-10066.800811,689.485948
783.908518,1406.391290,-9992.780217,766.095498
783.908843,1702.473667,-9622.677246,536.266849
783.909167,1480.411884,-9400.615463,536.266849
783.909491,444.123565,-9474.636058,76.609550
783.909815,-814.226536,-9918.759623,-612.876398
783.910139,-2146.597232,-10214.842000,-766.095498
783.910463,-2442.679609,-10214.842000,-1149.143247
783.910787,-2072.576638,-9992.780217,-1225.752797
783.911112,-740.205942,-10066.800811,-689.485948
783.911436,222.061783,-9326.594869,0.000000
783.911760,1924.535449,-9326.594869,1072.533697
783.912084,2960.823768,-8956.491898,1149.143247
783.912408,2812.782580,-9030.512492,536.266849
783.912732,2294.638420,-8956.491898,612.876398
783.913057,1184.329507,-9104.533087,153.219100
783.913381,0.000000,-9252.574275,0.000000
783.913705,-888.247130,-9178.553681,-766.095498
783.914029,-1406.391290,-8882.471304,-842.705048
783.914353,-1850.514855,-8216.285956,-612.876398
783.914677,-1184.329507,-8438.347739,-383.047749
783.915001,0.000000,-8808.450710,0.000000
783.915326,1110.308913,-9030.512492,229.828649
783.915650,1406.391290,-8956.491898,383.047749
783.915974,1332.370696,-9252.574275,76.609550
783.916298,518.144159,-9326.594869,153.219100
783.916622,-740.205942,-9992.780217,0.000000
783.916946,-1258.350101,-10658.965565,-536.266849
783.917270,-1480.411884,-10732.986159,-919.314598
783.917595,-962.267725,-11177.109724,-919.314598
783.917919,-592.164754,-11325.150913,-995.924147
783.918243,74.020594,-10955.047942,-1225.752797
783.918567,1110.308913,-10658.965565,-689.485948
783.918891,1554.432478,-10140.821405,-1149.143247
783.919215,1850.514855,-10140.821405,-689.485948
783.919540,1406.391290,-9918.759623,-383.047749
783.919864,444.123565,-10362.883188,-459.657299
783.920188,-518.144159,-10362.883188,-689.485948
783.920512,-1628.453072,-9918.759623,-842.705048
783.920836,-1776.494261,-9992.780217,-612.876398
783.921160,-1110.308913,-9992.780217,-306.438199
783.921484,-148.041188,-9548.656652,459.657299
783.921809,1332.370696,-9326.594869,766.095498
783.922133,1776.494261,-9326.594869,842.705048
783.922457,1702.473667,-9474.636058,306.438199
783.922781,370.102971,-9474.636058,0.000000
783.923105,-1184.329507,-9474.636058,-459.657299
783.923429,-2294.638420,-9622.677246,-612.876398
783.923753,-2960.823768,-9770.718434,-842.705048
783.924078,-2664.741391,-9696.697840,-689.485948
783.924402,-1702.473667,-9622.677246,-919.314598
783.924726,-296.082377,-9696.697840,0.000000
783.925050,1406.391290,-9770.718434,536.266849
783.925374,2664.741391,-9326.594869,1149.143247
783.925698,3108.864956,-8956.491898,2068.457845
783.926023,2516.700203,-8808.450710,1608.800546
783.926347,1776.494261,-9474.636058,1762.019645
783.926671,74.020594,-9770.718434,612.876398
783.926995,-1332.370696,-9622.677246,-306.438199
783.927319,-1776.494261,-9622.677246,-459.657299
783.927643,-1850.514855,-9178.553681,-689.485948
783.927967,-1184.329507,-9178.553681,-383.047749
783.928292,-370.102971,-8882.471304,0.000000
783.928616,740.205942,-8142.265362,919.314598
783.928940,1776.494261,-8734.430116,919.314598
783.929264,1850.514855,-8808.450710,995.924147
783.929588,1258.350101,-9252.574275,919.314598
783.929912,222.061783,-9770.718434,459.657299
783.930236,-666.185348,-10140.821405,153.219100
783.930561,-1332.370696,-10362.883188,-229.828649
783.930885,-1702.473667,-10807.006753,-383.047749
783.931209,-1850.514855,-10510.924376,-459.657299
783.931533,-666.185348,-10732.986159,-306.438199
783.931857,222.061783,-10436.903782,-612.876398
783.932181,1110.308913,-10140.821405,-459.657299
783.932506,1702.473667,-10066.800811,-153.219100
783.932830,1554.432478,-10066.800811,0.000000
783.933154,1036.288319,-9992.780217,229.828649
783.933478,74.020594,-10214.842000,-229.828649
783.933802,-740.205942,-10140.821405,0.000000
783.934126,-1480.411884,-9992.780217,0.000000
783.934450,-1184.329507,-9992.780217,0.000000
783.934775,-740.205942,-10214.842000,76.609550
783.935099,0.000000,-9918.759623,766.095498
783.935423,962.267725,-9326.594869,1302.362347
783.935747,1258.350101,-9326.594869,612.876398
783.936071,740.205942,-9104.533087,536.266849
783.936395,-518.144159,-9178.553681,0.000000
783.936719,-1850.514855,-9474.636058,-153.219100
783.937044,-2812.782580,-9844.739029,-919.314598
783.937368,-2960.823768,-9696.697840,-1149.143247
783.937692,-2442.679609,-9178.553681,-919.314598
783.938016,-888.247130,-9622.677246,-229.828649
783.938340,370.102971,-9548.656652,153.219100
783.938664,1998.556043,-9622.677246,383.047749
783.938988,2738.761985,-9400.615463,1072.533697
783.939313,2368.659014,-9474.636058,995.924147
783.939637,1702.473667,-9770.718434,919.314598
783.939961,222.061783,-9844.739029,229.828649
783.940285,-888.247130,-9770.718434,0.000000
783.940609,-1554.432478,-9474.636058,-229.828649
783.940933,-1924.535449,-8808.450710,-306.438199
783.941258,-1628.453072,-8882.471304,-306.438199
783.941582,-1332.370696,-8808.450710,0.000000
783.941906,-444.123565,-8512.368333,383.047749
783.942230,888.247130,-8660.409521,612.876398
783.942554,1406.391290,-8586.388927,842.705048
783.942878,1480.411884,-8808.450710,536.266849
783.943202,888.247130,-9104.533087,919.314598
783.943527,0.000000,-9770.718434,0.000000
783.943851,-1184.329507,-9844.739029,-153.219100
783.944175,-1406.391290,-10288.862594,-689.485948
783.944499,-1184.329507,-10140.821405,-1149.143247
783.944823,-740.205942,-10214.842000,-689.485948
783.945147,296.082377,-9844.739029,-153.219100
783.945471,1332.370696,-9622.677246,229.828649
783.945796,2146.597232,-9622.677246,0.000000
783.946120,2072.576638,-9474.636058,0.000000
783.946444,1406.391290,-9474.636058,0.000000
783.946768,370.102971,-9844.739029,-383.047749
783.947092,-740.205942,-10510.924376,-536.266849
783.947416,-1554.432478,-10658.965565,-306.438199
783.947741,-1554.432478,-10584.944971,-459.657299
783.948065,-740.205942,-10214.842000,-306.438199
783.948389,0.000000,-10214.842000,-229.828649
783.948713,740.205942,-10140.821405,0.000000
783.949037,1480.411884,-10066.800811,0.000000
783.949361,1406.391290,-9844.739029,-153.219100
783.949685,592.164754,-9918.759623,-383.047749
783.950010,-296.082377,-10140.821405,0.000000
783.950334,-1036.288319,-10288.862594,-689.485948
783.950658,-1332.370696,-10881.027347,-919.314598
783.950982,-1850.514855,-10584.944971,-1149.143247
783.951306,-962.267725,-10214.842000,-995.924147
783.951630,74.020594,-10436.903782,-383.047749
783.951954,1406.391290,-10140.821405,0.000000
783.952279,2072.576638,-9548.656652,383.047749
783.952603,2368.659014,-9400.615463,76.609550
783.952927,1850.514855,-9548.656652,306.438199
783.953251,888.247130,-9400.615463,0.000000
783.953575,0.000000,-9844.739029,0.000000
783.953899,-1110.308913,-9474.636058,-383.047749
783.954224,-1628.453072,-9326.594869,-536.266849
783.954548,-1480.411884,-9178.553681,-306.438199
783.954872,-1110.308913,-8734.430116,-306.438199
783.955196,-370.102971,-8808.450710,306.438199
783.955520,518.144159,-8438.347739,919.314598
783.955844,1406.391290,-8142.265362,842.705048
783.956168,1406.391290,-8808.450710,1149.143247
783.956493,888.247130,-8956.491898,842.705048
783.956817,0.000000,-9400.615463,383.047749
783.957141,-1332.370696,-8882.471304,0.000000
783.957465,-2220.617826,-9474.636058,-153.219100
783.957789,-2368.659014,-9696.697840,-536.266849
783.958113,-1628.453072,-9696.697840,-612.876398
783.958437,-370.102971,-9622.677246,-383.047749
783.958762,444.123565,-9474.636058,76.609550
783.959086,1702.473667,-9400.615463,229.828649
783.959410,2368.659014,-9400.615463,459.657299
783.959734,2072.576638,-9474.636058,612.876398
783.960058,962.267725,-9622.677246,306.438199
783.960382,-370.102971,-9918.759623,76.609550
783.960707,-1480.411884,-10140.821405,-306.438199
783.961031,-1850.514855,-10362.883188,-383.047749
783.961355,-1850.514855,-10510.924376,-229.828649
783.961679,-1480.411884,-10214.842000,0.000000
783.962003,-444.123565,-10510.924376,306.438199
783.962327,518.144159,-10140.821405,459.657299
783.962651,740.205942,-9992.780217,229.828649
783.962976,1258.350101,-9918.759623,612.876398
783.963300,222.061783,-10214.842000,0.000000
783.963624,-962.267725,-10066.800811,-459.657299
783.963948,-1628.453072,-10510.924376,-766.095498
783.964272,-1850.514855,-10658.965565,-1072.533697
783.964596,-1406.391290,-10807.006753,-842.705048
783.964920,-592.164754,-10881.027347,-536.266849
783.965245,148.041188,-10288.862594,0.000000
783.965569,1480.411884,-9918.759623,229.828649
783.965893,2442.679609,-8882.471304,842.705048
783.966217,2294.638420,-8956.491898,383.047749
783.966541,1628.453072,-9178.553681,229.828649
783.966865,814.226536,-9326.594869,0.000000
783.967190,-222.061783,-9474.636058,76.609550
783.967514,-740.205942,-9326.594869,0.000000
783.967838,-962.267725,-8956.491898,0.000000
783.968162,-888.247130,-8438.347739,0.000000
783.968486,-518.144159,-8512.368333,153.219100
783.968810,296.082377,-8364.327145,153.219100
783.969134,888.247130,-8586.388927,766.095498
783.969459,1628.453072,-8808.450710,766.095498
783.969783,1480.411884,-8882.471304,842.705048
783.970107,518.144159,-9400.615463,153.219100
783.970431,-592.164754,-9474.636058,0.000000
783.970755,-1702.473667,-9400.615463,-306.438199
783.971079,-2368.659014,-9622.677246,-306.438199
783.971403,-1998.556043,-9548.656652,-766.095498
783.971728,-1332.370696,-9696.697840,-459.657299
783.972052,-444.123565,-9548.656652,-229.828649
783.972376,740.205942,-9474.636058,0.000000
783.972700,1628.453072,-9400.615463,229.828649
783.973024,1998.556043,-9178.553681,383.047749
783.973348,1480.411884,-9548.656652,-306.438199
783.973673,518.144159,-9178.553681,0.000000
783.973997,-962.267725,-9992.780217,-689.485948
783.974321,-1628.453072,-10140.821405,-612.876398
783.974645,-1628.453072,-10288.862594,-842.705048
783.974969,-1332.370696,-10436.903782,-459.657299
783.975293,-962.267725,-10214.842000,-459.657299
783.975617,148.041188,-11029.068536,-153.219100
783.975942,888.247130,-9770.718434,0.000000
783.976266,1480.411884,-10066.800811,229.828649
783.976590,814.226536,-10362.883188,0.000000
783.976914,-222.061783,-10881.027347,-459.657299
783.977238,-1406.391290,-11029.068536,-612.876398
783.977562,-1776.494261,-11103.089130,-1378.971896
783.977886,-2220.617826,-10658.965565,-1455.581446
783.978211,-1702.473667,-10288.862594,-1225.752797
783.978535,-740.205942,-10362.883188,-1762.019645
783.978859,888.247130,-10214.842000,-536.266849
783.979183,2146.597232,-9992.780217,0.000000
783.979507,2664.741391,-9918.759623,153.219100
783.979831,2442.679609,-9696.697840,306.438199
783.980156,1258.350101,-9548.656652,229.828649
783.980480,296.082377,-9696.697840,-689.485948
783.980804,-1036.288319,-9474.636058,-383.047749
783.981128,-814.226536,-9622.677246,-383.047749
783.981452,-1184.329507,-9474.636058,229.828649
783.981776,-888.247130,-9252.574275,306.438199
783.982100,-148.041188,-8882.471304,689.485948
783.982425,370.102971,-8512.368333,1378.971896
783.982749,1110.308913,-8586.388927,1302.362347
783.983073,1702.473667,-8512.368333,2145.067394
783.983397,1184.329507,-8586.388927,1302.362347
783.983721,222.061783,-8882.471304,689.485948
783.984045,-888.247130,-9326.594869,0.000000
783.984369,-1554.432478,-9548.656652,-229.828649
783.984694,-1850.514855,-9696.697840,-612.876398
783.985018,-1628.453072,-9622.677246,-536.266849
783.985342,-814.226536,-9474.636058,-229.828649
783.985666,0.000000,-9178.553681,0.000000
783.985990,1036.288319,-9104.533087,76.609550
783.986314,1924.535449,-8808.450710,536.266849
783.986639,2072.576638,-8808.450710,612.876398
783.986963,1776.494261,-9178.553681,689.485948
783.987287,962.267725,-9622.677246,766.095498
783.987611,-592.164754,-9474.636058,0.000000
783.987935,-962.267725,-9844.739029,-306.438199
783.988259,-1332.370696,-9770.718434,0.000000
783.988583,-1332.370696,-9992.780217,-153.219100
783.988908,-444.123565,-10066.800811,0.000000
783.989232,222.061783,-9992.780217,0.000000
783.989556,1036.288319,-10066.800811,-153.219100
783.989880,1110.308913,-9992.780217,-842.705048
783.990204,222.061783,-10955.047942,-689.485948
783.990528,-592.164754,-11029.068536,-766.095498
783.990852,-1776.494261,-11473.192101,-1225.752797
783.991177,-2220.617826,-11325.150913,-1149.143247
783.991501,-1628.453072,-11473.192101,-995.924147
783.991825,-592.164754,-11399.171507,-229.828649
783.992149,962.267725,-10881.027347,306.438199
783.992473,2072.576638,-10658.965565,612.876398
783.992797,2738.761985,-10214.842000,459.657299
783.993122,2590.720797,-9548.656652,612.876398
783.993446,1406.391290,-9696.697840,0.000000
783.993770,0.000000,-9770.718434,-842.705048
783.994094,-1628.453072,-9400.615463,-1072.533697
783.994418,-2220.617826,-9178.553681,-1378.971896
783.994742,-2294.638420,-8808.450710,-919.314598
783.995066,-2368.659014,-8586.388927,-842.705048
783.995391,-1110.308913,-8512.368333,-459.657299
783.995715,0.000000,-8438.347739,0.000000
783.996039,1110.308913,-8290.306550,766.095498
783.996363,2220.617826,-8512.368333,1225.752797
783.996687,2294.638420,-8956.491898,1302.362347
783.997011,1702.473667,-9030.512492,1225.752797
783.997335,518.144159,-9326.594869,612.876398
783.997660,-740.205942,-9548.656652,229.828649
783.997984,-1924.535449,-9474.636058,-766.095498
783.998308,-2442.679609,-9548.656652,-1072.533697
783.998632,-2146.597232,-9474.636058,-995.924147
783.998956,-1184.329507,-9178.553681,-689.485948
783.999280,0.000000,-9252.574275,-153.219100
783.999605,1258.350101,-9030.512492,-229.828649
783.999929,1924.535449,-8290.306550,0.000000
784.000253,1332.370696,-9030.512492,-612.876398
784.000577,1110.308913,-9474.636058,153.219100
784.000901,-592.164754,-9548.656652,0.000000
784.001225,-1184.329507,-9992.780217,0.000000
784.001549,-1258.350101,-10362.883188,76.609550
784.001874,-1036.288319,-10362.883188,229.828649
784.002198,-148.041188,-10288.862594,306.438199
784.002522,518.144159,-9844.739029,689.485948
784.002846,1110.308913,-9844.739029,459.657299
784.003170,1110.308913,-10066.800811,383.047749
784.003494,888.247130,-10066.800811,229.828649
784.003818,-296.082377,-10288.862594,0.000000
784.004143,-1480.411884,-10658.965565,-536.266849
784.004467,-2072.576638,-10732.986159,-1149.143247
784.004791,-2220.617826,-10807.006753,-919.314598
784.005115,-1480.411884,-10214.842000,-612.876398
784.005439,0.000000,-10732.986159,-383.047749
784.005763,1110.308913,-10436.903782,153.219100
784.006087,2368.659014,-10510.924376,536.266849
784.006411,2368.659014,-10288.862594,306.438199
784.006735,1998.556043,-10066.800811,229.828649
784.007059,1110.308913,-10214.842000,0.000000
784.007383,-148.041188,-9992.780217,0.000000
784.007707,-1332.370696,-9918.759623,-383.047749
784.008031,-1554.432478,-9400.615463,0.000000
784.008356,-1924.535449,-8882.471304,0.000000
784.008680,-1332.370696,-9104.533087,0.000000
784.009004,-518.144159,-8882.471304,306.438199
784.009328,370.102971,-8586.388927,1072.533697
784.009652,1110.308913,-8438.347739,1455.581446
784.009976,1332.370696,-8364.327145,1302.362347
784.010300,962.267725,-8512.368333,1149.143247
784.010624,74.020594,-9030.512492,766.095498
784.010948,-1258.350101,-9252.574275,76.609550
784.011272,-2294.638420,-9252.574275,-612.876398
784.011596,-2664.741391,-9326.594869,-1225.752797
784.011920,-2516.700203,-9252.574275,-1302.362347
784.012244,-1776.494261,-9400.615463,-919.314598
784.012569,0.000000,-9252.574275,-689.485948
784.012893,1850.514855,-9030.512492,0.000000
784.013217,2590.720797,-8734.430116,0.000000
784.013541,3182.885551,-9178.553681,1072.533697
784.013865,2516.700203,-9622.677246,459.657299
784.014189,1110.308913,-10140.821405,229.828649
784.014513,-518.144159,-10214.842000,0.000000
784.014837,-1554.432478,-10066.800811,-229.828649
784.015161,-2146.597232,-10066.800811,-689.485948
784.015485,-1036.288319,-10436.903782,-536.266849
784.015809,-444.123565,-10214.842000,0.000000
784.016133,666.185348,-9992.780217,0.000000
784.016457,1036.288319,-9844.739029,-229.828649
784.016782,1184.329507,-9918.759623,-306.438199
784.017106,74.020594,-9770.718434,-612.876398
784.017430,-814.226536,-10362.883188,-842.705048
784.017754,-1258.350101,-10807.006753,-1149.143247
784.018078,-1406.391290,-10881.027347,-1225.752797
784.018402,-1184.329507,-10732.986159,-766.095498
784.018726,-370.102971,-10732.986159,-766.095498
784.019050,740.205942,-10881.027347,229.828649
784.019374,1998.556043,-10807.006753,306.438199
784.019698,2664.741391,-10362.883188,306.438199
784.020022,2368.659014,-9474.636058,306.438199
784.020346,2072.576638,-9696.697840,459.657299
784.020670,1036.288319,-9770.718434,536.266849
784.020995,-296.082377,-9696.697840,-459.657299
784.021319,-1406.391290,-9326.594869,-842.705048
784.021643,-1702.473667,-9030.512492,-689.485948
784.021967,-1702.473667,-8882.471304,-842.705048
784.022291,-814.226536,-9030.512492,-383.047749
784.022615,-148.041188,-8956.491898,229.828649
784.022939,296.082377,-8586.388927,76.609550
784.023263,1554.432478,-8512.368333,995.924147
784.023587,1628.453072,-8808.450710,842.705048
784.023911,1184.329507,-9178.553681,995.924147
784.024235,74.020594,-9548.656652,536.266849
784.024559,-1036.288319,-9770.718434,76.609550
784.024883,-1480.411884,-9548.656652,536.266849
784.025208,-1776.494261,-9622.677246,-766.095498
784.025532,-1332.370696,-9474.636058,-229.828649
784.025856,-370.102971,-9548.656652,-229.828649
784.026180,962.267725,-9030.512492,0.000000
784.026504,1924.535449,-9178.553681,0.000000
784.026828,2294.638420,-9104.533087,0.000000
784.027152,1998.556043,-8808.450710,-153.219100
784.027476,148.041188,-9104.533087,-306.438199
784.027800,-740.205942,-9548.656652,-612.876398
784.028124,-2220.617826,-9474.636058,-689.485948
784.028448,-2072.576638,-10140.821405,-842.705048
784.028772,-1332.370696,-10214.842000,-536.266849
784.029096,-518.144159,-9992.780217,76.609550
784.029421,222.061783,-9992.780217,229.828649
784.029745,1628.453072,-10214.842000,536.266849
784.030069,1554.432478,-10140.821405,842.705048
784.030393,1332.370696,-10510.924376,919.314598
784.030717,370.102971,-10436.903782,76.609550
784.031041,-1554.432478,-10436.903782,-536.266849
784.031365,-2516.700203,-10881.027347,-1378.971896
784.031689,-2886.803174,-10658.965565,-1608.800546
784.032013,-2072.576638,-10510.924376,-1762.019645
784.032337,-1184.329507,-10288.862594,-1455.581446
784.032661,0.000000,-10436.903782,-1072.533697
784.032985,1628.453072,-9918.759623,-383.047749
784.033309,2072.576638,-9992.780217,0.000000
784.033634,2146.597232,-9992.780217,0.000000
784.033958,1850.514855,-9918.759623,536.266849
784.034282,740.205942,-9992.780217,459.657299
784.034606,0.000000,-9400.615463,0.000000
784.034930,-666.185348,-9474.636058,459.657299
784.035254,-814.226536,-9252.574275,383.047749
784.035578,-814.226536,-9400.615463,153.219100
784.035902,-518.144159,-9030.512492,612.876398
784.036226,0.000000,-8586.388927,536.266849
784.036550,888.247130,-8586.388927,842.705048
784.036874,1258.350101,-8512.368333,612.876398
784.037198,1036.288319,-8734.430116,766.095498
784.037522,-370.102971,-8882.471304,229.828649
784.037847,-1480.411884,-8956.491898,0.000000
784.038171,-1998.556043,-9696.697840,-383.047749
784.038495,-1702.473667,-9696.697840,-383.047749
784.038819,-1184.329507,-9844.739029,-153.219100
784.039143,-296.082377,-9844.739029,229.828649
784.039467,518.144159,-9622.677246,766.095498
784.039791,1998.556043,-9400.615463,1302.362347
784.040115,3034.844362,-8956.491898,1302.362347
784.040439,2442.679609,-9770.718434,1072.533697
784.040763,1332.370696,-9474.636058,536.266849
784.041087,-222.061783,-9474.636058,383.047749
784.041411,-1628.453072,-9474.636058,-459.657299
784.041735,-2442.679609,-9474.636058,-612.876398
784.042060,-2220.617826,-9548.656652,-306.438199
784.042384,-1480.411884,-9474.636058,-153.219100
784.042708,-444.123565,-9474.636058,459.657299
784.043032,296.082377,-9252.574275,383.047749
784.043356,1036.288319,-9326.594869,536.266849
784.043680,1036.288319,-9474.636058,536.266849
784.044004,518.144159,-9770.718434,383.047749
784.044328,-518.144159,-10140.821405,306.438199
784.044652,-1702.473667,-10214.842000,-383.047749
784.044976,-1998.556043,-10510.924376,-766.095498
784.045300,-1924.535449,-10658.965565,-1072.533697
784.045624,-1332.370696,-10510.924376,-995.924147
784.045948,-296.082377,-10658.965565,-612.876398
784.046273,888.247130,-10362.883188,0.000000
784.046597,1998.556043,-9918.759623,-306.438199
784.046921,2146.597232,-9474.636058,0.000000
784.047245,2220.617826,-9326.594869,0.000000
784.047569,1850.514855,-9400.615463,0.000000
784.047893,222.061783,-10288.862594,-536.266849
784.048217,-740.205942,-10214.842000,-612.876398
784.048541,-1332.370696,-9548.656652,-612.876398
784.048865,-1258.350101,-9622.677246,-1225.752797
784.049189,-1036.288319,-9474.636058,-995.924147
784.049513,148.041188,-9770.718434,-306.438199
784.049837,666.185348,-9030.512492,229.828649
784.050161,1480.411884,-9474.636058,76.609550
784.050486,1702.473667,-9400.615463,153.219100
784.050810,814.226536,-9622.677246,76.609550
784.051134,-148.041188,-9696.697840,-229.828649
784.051458,-962.267725,-9918.759623,-306.438199
784.051782,-1332.370696,-9844.739029,-229.828649
784.052106,-1332.370696,-9696.697840,-612.876398
784.052430,-592.164754,-9696.697840,-612.876398
784.052754,148.041188,-9770.718434,-536.266849
784.053078,1036.288319,-9474.636058,-536.266849
784.053402,1924.535449,-9252.574275,-306.438199
784.053726,1924.535449,-9104.533087,-153.219100
784.054050,888.247130,-8808.450710,76.609550
784.054374,444.123565,-8734.430116,-229.828649
784.054699,-296.082377,-8882.471304,-612.876398
784.055023,-888.247130,-9474.636058,-383.047749
784.055347,-1332.370696,-9622.677246,-306.438199
784.055671,-1406.391290,-9474.636058,-153.219100
784.055995,-888.247130,-9474.636058,0.000000
784.056319,0.000000,-9326.594869,306.438199
784.056643,814.226536,-9474.636058,1072.533697
784.056967,2220.617826,-9622.677246,766.095498
784.057291,1258.350101,-9696.697840,536.266849
784.057615,74.020594,-9844.739029,459.657299
784.057939,-1332.370696,-10066.800811,-459.657299
784.058263,-2516.700203,-10214.842000,-1072.533697
784.058587,-2960.823768,-10436.903782,-1685.410096
784.058912,-2516.700203,-10658.965565,-1608.800546
784.059236,-1406.391290,-10584.944971,-1225.752797
784.059560,74.020594,-10658.965565,-612.876398
784.059884,1110.308913,-9844.739029,0.000000
784.060208,2368.659014,-9992.780217,459.657299
784.060532,2442.679609,-9992.780217,383.047749
784.060856,2072.576638,-9992.780217,383.047749
784.061180,888.247130,-10140.821405,459.657299
784.061504,-74.020594,-10362.883188,0.000000
784.061828,-814.226536,-10214.842000,-306.438199
784.062152,-1110.308913,-9622.677246,-536.266849
784.062476,-1036.288319,-9696.697840,0.000000
784.062800,-592.164754,-9474.636058,0.000000
784.063125,0.000000,-9326.594869,229.828649
784.063449,592.164754,-8882.471304,306.438199
784.063773,1110.308913,-9178.553681,689.485948
784.064097,1184.329507,-8882.471304,689.485948
784.064421,740.205942,-9474.636058,459.657299
784.064745,-296.082377,-9326.594869,383.047749
784.065069,-1184.329507,-9992.780217,0.000000
784.065393,-1258.350101,-9992.780217,0.000000
784.065717,-1406.391290,-9474.636058,229.828649
784.066041,-666.185348,-9548.656652,306.438199
784.066365,296.082377,-9474.636058,459.657299
784.066689,1184.329507,-9252.574275,766.095498
784.067013,2072.576638,-9104.533087,919.314598
784.067338,2146.597232,-8956.491898,766.095498
784.067662,1480.411884,-8808.450710,1072.533697
784.067986,296.082377,-8956.491898,536.266849
784.068310,-1406.391290,-8660.409521,76.609550
784.068634,-2072.576638,-9104.533087,0.000000
784.068958,-1924.535449,-9178.553681,-229.828649
784.069282,-1628.453072,-9030.512492,0.000000
784.069606,-888.247130,-8808.450710,995.924147
784.069930,74.020594,-9030.512492,1072.533697
784.070254,814.226536,-9474.636058,1149.143247
784.070578,1332.370696,-9474.636058,1378.971896
784.070902,444.123565,-9622.677246,612.876398
784.071226,-666.185348,-10288.862594,0.000000
784.071551,-1776.494261,-10584.944971,-153.219100
784.071875,-2516.700203,-10658.965565,-842.705048
784.072199,-2294.638420,-10807.006753,-1225.752797
784.072523,-1554.432478,-10658.965565,-919.314598
784.072847,-814.226536,-11029.068536,-229.828649
784.073171,962.267725,-10510.924376,-153.219100
784.073495,2146.597232,-10510.924376,0.000000
784.073819,2368.659014,-10066.800811,0.000000
784.074143,2220.617826,-10066.800811,0.000000
784.074467,1332.370696,-10140.821405,-306.438199
784.074791,444.123565,-10288.862594,0.000000
784.075115,-962.267725,-10140.821405,-766.095498
784.075439,-1628.453072,-9770.718434,-689.485948
784.075764,-1554.432478,-9844.739029,-766.095498
784.076088,-1258.350101,-10066.800811,-612.876398
784.076412,-444.123565,-9918.759623,-459.657299
784.076736,370.102971,-9474.636058,229.828649
784.077060,1258.350101,-9030.512492,229.828649
784.077384,1628.453072,-8808.450710,842.705048
784.077708,1480.411884,-9326.594869,612.876398
784.078032,814.226536,-9252.574275,153.219100
784.078356,-740.205942,-9548.656652,-229.828649
784.078680,-1406.391290,-9918.759623,-459.657299
784.079004,-1480.411884,-9548.656652,-842.705048
784.079328,-1036.288319,-9326.594869,-612.876398
784.079652,-222.061783,-9474.636058,-766.095498
784.079977,370.102971,-8808.450710,-153.219100
784.080301,2368.659014,-8660.409521,229.828649
784.080625,2146.597232,-8808.450710,383.047749
784.080949,2368.659014,-8808.450710,229.828649
784.081273,1258.350101,-8808.450710,153.219100
784.081597,0.000000,-9104.533087,0.000000
784.081921,-888.247130,-9030.512492,-383.047749
784.082245,-1998.556043,-9104.533087,-536.266849
784.082569,-1924.535449,-9178.553681,-459.657299
784.082893,-592.164754,-9400.615463,76.609550
784.083217,0.000000,-9104.533087,229.828649
784.083541,592.164754,-8956.491898,306.438199
784.083865,814.226536,-9252.574275,153.219100
784.084190,666.185348,-9696.697840,536.266849
784.084514,0.000000,-9992.780217,0.000000
784.084838,-1036.288319,-10288.862594,-612.876398
784.085162,-1480.411884,-10140.821405,-1378.971896
784.085486,-2368.659014,-10436.903782,-1455.581446
784.085810,-1776.494261,-10732.986159,-1378.971896
784.086134,-888.247130,-10881.027347,-1149.143247
784.086458,0.000000,-11029.068536,-919.314598
784.086782,1110.308913,-10732.986159,-383.047749
784.087106,2072.576638,-10510.924376,-229.828649
784.087430,2442.679609,-10510.924376,459.657299
784.087754,1998.556043,-10288.862594,-229.828649
784.088078,1332.370696,-10807.006753,-306.438199
784.088403,0.000000,-10140.821405,-383.047749
784.088727,-740.205942,-10436.903782,-842.705048
784.089051,-1110.308913,-10140.821405,-919.314598
784.089375,-1258.350101,-10066.800811,-766.095498
784.089699,-740.205942,-9770.718434,-306.438199
784.090023,0.000000,-9474.636058,-306.438199
784.090347,592.164754,-9104.533087,0.000000
784.090671,1406.391290,-9104.533087,459.657299
784.090995,962.267725,-9252.574275,0.000000
784.091319,296.082377,-9622.677246,153.219100
784.091643,-740.205942,-9992.780217,-153.219100
784.091967,-1480.411884,-10140.821405,-306.438199
784.092291,-1850.514855,-9696.697840,-153.219100
784.092616,-1184.329507,-9622.677246,76.609550
784.092940,-148.041188,-9770.718434,459.657299
784.093264,814.226536,-9770.718434,1072.533697
784.093588,1924.535449,-9474.636058,766.095498
784.093912,2294.638420,-9252.574275,842.705048
784.094236,2072.576638,-9030.512492,766.095498
784.094560,1110.308913,-8882.471304,536.266849
784.094884,-370.102971,-8586.388927,0.000000
784.095208,-1776.494261,-8956.491898,-1149.143247
784.095532,-2072.576638,-9178.553681,-842.705048
784.095856,-2368.659014,-8660.409521,-536.266849
784.096180,-1628.453072,-8882.471304,0.000000
784.096504,-666.185348,-8956.491898,459.657299
784.096829,296.082377,-8882.471304,1302.362347
784.097153,888.247130,-8586.388927,1378.971896
784.097477,1776.494261,-8956.491898,1608.800546
784.097801,1702.473667,-9474.636058,1915.238745
784.098125,1036.288319,-9696.697840,1302.362347
784.098449,-518.144159,-10362.883188,689.485948
784.098773,-1776.494261,-9918.759623,0.000000
784.099097,-2442.679609,-10066.800811,-536.266849
784.099421,-2590.720797,-10066.800811,-1072.533697
784.099745,-1554.432478,-10288.862594,-459.657299
784.100069,-296.082377,-9992.780217,0.000000
784.100393,814.226536,-9622.677246,-459.657299
784.100717,1554.432478,-9030.512492,0.000000
784.101042,1776.494261,-9474.636058,0.000000
784.101366,1332.370696,-9696.697840,229.828649
784.101690,518.144159,-10140.821405,153.219100
784.102014,0.000000,-9992.780217,459.657299
784.102338,-666.185348,-9918.759623,153.219100
784.102662,-814.226536,-10140.821405,383.047749
784.102986,-518.144159,-9918.759623,153.219100
784.103310,0.000000,-10140.821405,383.047749
784.103634,518.144159,-9918.759623,306.438199
784.103958,1110.308913,-9696.697840,306.438199
784.104282,1036.288319,-9474.636058,0.000000
784.104606,518.144159,-9326.594869,-153.219100
784.104931,-518.144159,-9770.718434,-842.705048
784.105255,-1850.514855,-9992.780217,-1072.533697
784.105579,-2220.617826,-10362.883188,-1838.629195
784.105903,-1998.556043,-9844.739029,-1608.800546
784.106227,-1036.288319,-9992.780217,-1149.143247
784.106551,0.000000,-10288.862594,-1072.533697
784.106875,1480.411884,-10066.800811,-306.438199
784.107199,2590.720797,-9548.656652,-153.219100
784.107524,2738.761985,-9770.718434,153.219100
784.107848,2368.659014,-9844.739029,76.609550
784.108172,814.226536,-9918.759623,-383.047749
784.108496,-444.123565,-10140.821405,-612.876398
784.108820,-1554.432478,-9992.780217,-919.314598
784.109144,-2220.617826,-9548.656652,-1072.533697
784.109468,-1924.535449,-9400.615463,-919.314598
784.109792,-1036.288319,-9252.574275,-229.828649
784.110116,0.000000,-8882.471304,229.828649
784.110441,888.247130,-8808.450710,0.000000
784.110765,1850.514855,-9030.512492,306.438199
784.111089,1998.556043,-9178.553681,536.266849
784.111413,1258.350101,-9252.574275,0.000000
784.111737,-222.061783,-9326.594869,0.000000
784.112061,-1036.288319,-9770.718434,-995.924147
784.112385,-1776.494261,-9696.697840,-1762.019645
784.112709,-1776.494261,-9770.718434,-1532.190996
784.113034,-1110.308913,-10362.883188,-1225.752797
784.113358,-222.061783,-10066.800811,-766.095498
784.113682,888.247130,-9548.656652,-153.219100
784.114006,1776.494261,-9474.636058,306.438199
784.114330,2294.638420,-9696.697840,459.657299
784.114654,2072.576638,-9548.656652,995.924147
784.114978,1480.411884,-9770.718434,995.924147
784.115302,222.061783,-9844.739029,536.266849
784.115626,-592.164754,-9844.739029,0.000000
784.115951,-1110.308913,-9770.718434,-383.047749
784.116275,-1332.370696,-9548.656652,0.000000
784.116599,-1406.391290,-9326.594869,-153.219100
784.116923,-740.205942,-9252.574275,-153.219100
784.117247,-148.041188,-9104.533087,0.000000
784.117571,148.041188,-9252.574275,-153.219100
784.117895,444.123565,-9844.739029,306.438199
784.118219,0.000000,-9770.718434,383.047749
784.118544,-518.144159,-10140.821405,306.438199
784.118868,-1110.308913,-10140.821405,0.000000
784.119192,-1332.370696,-10140.821405,153.219100
784.119516,-666.185348,-9992.780217,0.000000
784.119840,0.000000,-10140.821405,76.609550
784.120164,962.267725,-9992.780217,766.095498
784.120488,1924.535449,-9770.718434,612.876398
784.120812,2368.659014,-9400.615463,766.095498
784.121136,1998.556043,-9622.677246,536.266849
784.121461,1036.288319,-9326.594869,0.000000
784.121785,-592.164754,-9400.615463,-459.657299
784.122109,-2072.576638,-9104.533087,-1072.533697
784.122433,-2738.761985,-9178.553681,-919.314598
784.122757,-2368.659014,-9474.636058,-229.828649
784.123081,-1332.370696,-9474.636058,229.828649
784.123405,-592.164754,-9400.615463,689.485948
784.123729,592.164754,-9252.574275,1072.533697
784.124054,1406.391290,-9030.512492,1149.143247
784.124378,1480.411884,-9400.615463,1302.362347
784.124702,888.247130,-9696.697840,1378.971896
784.125026,74.020594,-9770.718434,919.314598
784.125350,-1036.288319,-9844.739029,-153.219100
784.125674,-2368.659014,-9844.739029,-689.485948
784.125998,-2368.659014,-9992.780217,-1378.971896
784.126322,-1998.556043,-9918.759623,-1532.190996
784.126646,-1554.432478,-9400.615463,-1225.752797
784.126971,0.000000,-9548.656652,-612.876398
784.127295,888.247130,-9474.636058,-995.924147
784.127619,1776.494261,-9474.636058,0.000000
784.127943,2220.617826,-9474.636058,153.219100
784.128267,1776.494261,-9548.656652,229.828649
784.128591,1110.308913,-10066.800811,229.828649
784.128915,0.000000,-9992.780217,-306.438199
784.129239,-296.082377,-9548.656652,0.000000
784.129564,-1332.370696,-9918.759623,-306.438199
784.129888,-1036.288319,-9770.718434,-383.047749
784.130212,-592.164754,-9844.739029,-153.219100
784.130536,74.020594,-9400.615463,-459.657299
784.130860,888.247130,-9474.636058,-306.438199
784.131184,1332.370696,-9104.533087,229.828649
784.131508,888.247130,-9252.574275,0.000000
784.131832,0.000000,-9696.697840,-153.219100
784.132157,-888.247130,-10140.821405,-766.095498
784.132481,-1554.432478,-9992.780217,-689.485948
784.132805,-1702.473667,-9992.780217,-842.705048
784.133129,-1184.329507,-10066.800811,-459.657299
784.133453,0.000000,-10436.903782,-536.266849
784.133777,1332.370696,-9918.759623,0.000000
784.134101,2220.617826,-9844.739029,0.000000
784.134425,2442.679609,-9918.759623,0.000000
784.134749,2072.576638,-9548.656652,306.438199
784.135074,1036.288319,-9474.636058,229.828649
784.135398,0.000000,-9992.780217,0.000000
784.135722,-1184.329507,-9918.759623,-229.828649
784.136046,-1850.514855,-9844.739029,-536.266849
784.136370,-1776.494261,-9622.677246,-459.657299
784.136694,-1036.288319,-9474.636058,0.000000
784.137018,-222.061783,-9178.553681,536.266849
784.137342,740.205942,-9178.553681,919.314598
784.137667,740.205942,-9178.553681,1225.752797
784.137991,814.226536,-9474.636058,229.828649
784.138315,0.000000,-9252.574275,229.828649
784.138639,-962.267725,-9622.677246,0.000000
784.138963,-1924.535449,-9992.780217,-536.266849
784.139287,-2664.741391,-9918.759623,-536.266849
784.139611,-2146.597232,-9844.739029,-919.314598
784.139935,-1998.556043,-9844.739029,-766.095498
784.140259,-740.205942,-9918.759623,-459.657299
784.140584,666.185348,-10362.883188,76.609550
784.140908,1850.514855,-9918.759623,459.657299
784.141232,2368.659014,-9622.677246,689.485948
784.141556,2294.638420,-9548.656652,995.924147
784.141880,1554.432478,-9696.697840,612.876398
784.142204,0.000000,-9474.636058,459.657299
784.142528,-1110.308913,-9622.677246,76.609550
784.142852,-1702.473667,-10066.800811,-306.438199
784.143177,-1776.494261,-9400.615463,-306.438199
784.143501,-1554.432478,-9474.636058,-153.219100
784.143825,-592.164754,-9326.594869,0.000000
784.144149,0.000000,-8660.409521,459.657299
784.144473,740.205942,-9326.594869,306.438199
784.144797,444.123565,-9548.656652,766.095498
784.145121,148.041188,-9770.718434,689.485948
784.145445,-592.164754,-9844.739029,459.657299
784.145769,-1110.308913,-10658.965565,229.828649
784.146094,-1332.370696,-10436.903782,0.000000
784.146418,-1036.288319,-10288.862594,76.609550
784.146742,222.061783,-9844.739029,0.000000
784.147066,1258.350101,-9770.718434,689.485948
784.147390,2146.597232,-9696.697840,689.485948
784.147714,2516.700203,-9474.636058,766.095498
784.148038,2146.597232,-9326.594869,459.657299
784.148362,1332.370696,-9400.615463,76.609550
784.148687,0.000000,-9474.636058,-383.047749
784.149011,-1184.329507,-9474.636058,-536.266849
784.149335,-1850.514855,-9178.553681,-459.657299
784.149659,-1776.494261,-9474.636058,-306.438199
784.149983,-1480.411884,-9252.574275,0.000000
784.150307,-666.185348,-9326.594869,612.876398
784.150631,518.144159,-8956.491898,1072.533697
784.150955,1406.391290,-9030.512492,1532.190996
784.151279,1998.556043,-9326.594869,1378.971896
784.151604,1628.453072,-9400.615463,1149.143247
784.151928,740.205942,-9252.574275,919.314598
784.152252,-370.102971,-9918.759623,229.828649
784.152576,-1332.370696,-9992.780217,-1378.971896
784.152900,-2368.659014,-9918.759623,-1455.581446
784.153224,-2294.638420,-9992.780217,-1838.629195
784.153548,-1628.453072,-10066.800811,-1762.019645
784.153872,-148.041188,-9918.759623,-1149.143247
784.154197,1036.288319,-9474.636058,-536.266849
784.154521,2220.617826,-9252.574275,-766.095498
784.154845,2590.720797,-9400.615463,306.438199
784.155169,2368.659014,-9622.677246,76.609550
784.155493,1480.411884,-9918.759623,153.219100
784.155817,222.061783,-10214.842000,0.000000
784.156141,-666.185348,-10140.821405,76.609550
784.156465,-1480.411884,-9770.718434,-306.438199
784.156790,-1406.391290,-9622.677246,-459.657299
784.157114,-666.185348,-9548.656652,-766.095498
784.157438,0.000000,-9696.697840,-536.266849
784.157762,592.164754,-9696.697840,-842.705048
784.158086,740.205942,-9622.677246,-459.657299
784.158410,148.041188,-9474.636058,-536.266849
784.158734,-666.185348,-9548.656652,-1149.143247
784.159058,-1332.370696,-9844.739029,-1149.143247
784.159382,-1924.535449,-10066.800811,-842.705048
784.159707,-1406.391290,-10066.800811,-766.095498
784.160031,-740.205942,-10436.903782,-536.266849
784.160355,518.144159,-10362.883188,0.000000
784.160679,1776.494261,-10362.883188,0.000000
784.161003,2590.720797,-9696.697840,0.000000
784.161327,2590.720797,-9918.759623,153.219100
784.161651,1776.494261,-9622.677246,0.000000
784.161975,592.164754,-9696.697840,-689.485948
784.162300,-444.123565,-9474.636058,-1225.752797
784.162624,-1850.514855,-9474.636058,-1378.971896
784.162948,-2220.617826,-9326.594869,-1532.190996
784.163272,-1924.535449,-9252.574275,-1302.362347
784.163596,-888.247130,-9178.553681,-459.657299
784.163920,0.000000,-8882.471304,0.000000
784.164244,1110.308913,-8808.450710,612.876398
784.164568,2368.659014,-8882.471304,1532.190996
784.164892,2294.638420,-9474.636058,1378.971896
784.165217,1628.453072,-9622.677246,1225.752797
784.165541,0.000000,-9918.759623,459.657299
784.165865,-1332.370696,-10140.821405,-229.828649
784.166189,-2368.659014,-10214.842000,-919.314598
784.166513,-2812.782580,-10066.800811,-1838.629195
784.166837,-2442.679609,-10140.821405,-995.924147
784.167161,-1924.535449,-9992.780217,-1149.143247
784.167485,-370.102971,-9548.656652,-689.485948
784.167810,1110.308913,-9178.553681,0.000000
784.168134,2294.638420,-9548.656652,612.876398
784.168458,3034.844362,-9326.594869,1455.581446
784.168782,2368.659014,-9622.677246,1225.752797
784.169106,1184.329507,-9770.718434,1149.143247
784.169430,-148.041188,-9844.739029,1072.533697
784.169754,-1036.288319,-9622.677246,842.705048
784.170078,-1628.453072,-9400.615463,306.438199
784.170402,-1924.535449,-9474.636058,76.609550
784.170727,-1480.411884,-9474.636058,0.000000
784.171051,-592.164754,-9252.574275,229.828649
784.171375,296.082377,-9400.615463,536.266849
784.171699,518.144159,-9104.533087,306.438199
784.172023,148.041188,-9178.553681,612.876398
784.172347,-518.144159,-9474.636058,306.438199
784.172671,-1184.329507,-9992.780217,229.828649
784.172995,-1184.329507,-10362.883188,153.219100
784.173320,-592.164754,-10732.986159,459.657299
784.173644,74.020594,-10584.944971,459.657299
784.173968,1184.329507,-10362.883188,766.095498
784.174292,2146.597232,-10140.821405,1608.800546
784.174616,2590.720797,-10140.821405,842.705048
784.174940,1998.556043,-9918.759623,919.314598
784.175264,1036.288319,-9844.739029,689.485948
784.175588,0.000000,-9696.697840,0.000000
784.175912,-1702.473667,-9622.677246,-383.047749
784.176237,-2442.679609,-9474.636058,-689.485948
784.176561,-2738.761985,-9400.615463,-689.485948
784.176885,-1850.514855,-9178.553681,-229.828649
784.177209,-1332.370696,-9400.615463,536.266849
784.177533,74.020594,-9030.512492,1378.971896
784.177857,1628.453072,-9178.553681,1762.019645
784.178181,2146.597232,-9252.574275,1991.848295
784.178505,1998.556043,-9474.636058,1762.019645
784.178830,962.267725,-9844.739029,1455.581446
784.179154,-296.082377,-9918.759623,612.876398
784.179478,-1776.494261,-9696.697840,612.876398
784.179802,-3182.885551,-9622.677246,-689.485948
784.180126,-3108.864956,-9548.656652,-1455.581446
784.180450,-2442.679609,-9696.697840,-1455.581446
784.180774,-1184.329507,-9326.594869,-919.314598
784.181098,222.061783,-8808.450710,-459.657299
784.181423,1554.432478,-8512.368333,0.000000
784.181747,2738.761985,-8586.388927,0.000000
784.182071,2812.782580,-9030.512492,536.266849
784.182395,1850.514855,-9474.636058,612.876398
784.182719,444.123565,-9548.656652,153.219100
784.183043,-518.144159,-9918.759623,0.000000
784.183367,-1036.288319,-9770.718434,0.000000
784.183691,-592.164754,-9474.636058,0.000000
784.184015,-666.185348,-9844.739029,-536.266849
784.184340,-222.061783,-9252.574275,-689.485948
784.184664,444.123565,-9104.533087,-536.266849
784.184988,888.247130,-9252.574275,-919.314598
784.185312,814.226536,-9252.574275,-842.705048
784.185636,74.020594,-9474.636058,-919.314598
784.185960,-592.164754,-10214.842000,-1378.971896
784.186284,-1036.288319,-11177.109724,-1762.019645
784.186608,-740.205942,-10955.047942,-536.266849
784.186933,-518.144159,-10658.965565,-1455.581446
784.187257,74.020594,-10436.903782,-995.924147
784.187581,1480.411884,-10807.006753,-766.095498
784.187905,2146.597232,-10881.027347,-612.876398
784.188229,2294.638420,-10584.944971,-689.485948
784.188553,1628.453072,-9992.780217,-842.705048
784.188877,592.164754,-9474.636058,-842.705048
784.189201,-888.247130,-9844.739029,-2221.676944
784.189525,-1776.494261,-9770.718434,-1915.238745
784.189850,-2294.638420,-9770.718434,-1991.848295
784.190174,-1702.473667,-9696.697840,-1378.971896
784.190498,-962.267725,-9474.636058,-536.266849
784.190822,0.000000,-9622.677246,-229.828649
784.191146,1332.370696,-9918.759623,0.000000
784.191470,2516.700203,-10658.965565,919.314598
784.191794,1406.391290,-9770.718434,536.266849
784.192118,1036.288319,-10066.800811,153.219100
784.192443,-666.185348,-9696.697840,-306.438199
784.192767,-2220.617826,-9548.656652,-766.095498
784.193091,-2738.761985,-10214.842000,-1225.752797
784.193415,-2886.803174,-9622.677246,-1072.533697
784.193739,-1924.535449,-9400.615463,-1302.362347
784.194063,-1184.329507,-9474.636058,-1149.143247
784.194387,814.226536,-9400.615463,0.000000
784.194711,2220.617826,-9252.574275,612.876398
784.195035,2738.761985,-9474.636058,1072.533697
784.195360,2590.720797,-9326.594869,1302.362347
784.195684,1776.494261,-9252.574275,1455.581446
784.196008,888.247130,-9474.636058,1072.533697
784.196332,-148.041188,-9844.739029,306.438199
784.196656,-1406.391290,-9178.553681,383.047749
784.196980,-1258.350101,-9252.574275,0.000000
784.197304,-1258.350101,-8808.450710,0.000000
784.197628,-888.247130,-8808.450710,306.438199
784.197953,-296.082377,-8660.409521,459.657299
784.198277,296.082377,-8808.450710,459.657299
784.198601,962.267725,-8882.471304,1225.752797
784.198925,666.185348,-9252.574275,995.924147
784.199249,0.000000,-9696.697840,306.438199
784.199573,-814.226536,-10214.842000,919.314598
784.199897,-1332.370696,-10436.903782,689.485948
784.200221,-1406.391290,-10510.924376,229.828649
784.200546,-962.267725,-10510.924376,383.047749
784.200870,-296.082377,-10288.862594,995.924147
784.201194,1110.308913,-10140.821405,842.705048
784.201518,1924.535449,-9548.656652,1149.143247
784.201842,1850.514855,-9696.697840,536.266849
784.202166,962.267725,-9770.718434,306.438199
784.202490,0.000000,-9548.656652,306.438199
784.202814,-1184.329507,-9548.656652,229.828649
784.203138,-1924.535449,-9548.656652,-612.876398
784.203463,-2220.617826,-9474.636058,536.266849
784.203787,-1850.514855,-9474.636058,995.924147
784.204111,-740.205942,-9400.615463,1455.581446
784.204435,444.123565,-9400.615463,1685.410096
784.204759,1258.350101,-9252.574275,1991.848295
784.205083,1480.411884,-9400.615463,1991.848295
784.205407,1406.391290,-9326.594869,1455.581446
784.205731,666.185348,-9474.636058,1072.533697
784.206055,-592.164754,-9696.697840,383.047749
784.206380,-1776.494261,-9770.718434,-612.876398
784.206704,-2516.700203,-9400.615463,-842.705048
784.207028,-2442.679609,-9622.677246,-995.924147
784.207352,-1776.494261,-9918.759623,-766.095498
784.207676,-740.205942,-9844.739029,-612.876398
784.208000,814.226536,-9178.553681,229.828649
784.208324,2220.617826,-9104.533087,536.266849
784.208648,3034.844362,-9030.512492,919.314598
784.208972,2516.700203,-9548.656652,612.876398
784.209296,1406.391290,-9696.697840,766.095498
784.209620,0.000000,-9622.677246,0.000000
784.209945,-962.267725,-9696.697840,-383.047749
784.210269,-1628.453072,-9548.656652,-536.266849
784.210593,-1702.473667,-9622.677246,-459.657299
784.210917,-962.267725,-9548.656652,-612.876398
784.211241,0.000000,-9252.574275,-459.657299
784.211565,222.061783,-8882.471304,-995.924147
784.211889,962.267725,-8882.471304,-383.047749
784.212213,1110.308913,-9252.574275,-612.876398
784.212537,370.102971,-9844.739029,-459.657299
784.212861,-740.205942,-10214.842000,-1225.752797
784.213186,-1628.453072,-10140.821405,-1072.533697
784.213510,-1480.411884,-9622.677246,-1532.190996
784.213834,-888.247130,-10436.903782,-919.314598
784.214158,-518.144159,-10288.862594,-1302.362347
784.214482,592.164754,-10732.986159,-1072.533697
784.214806,1702.473667,-10436.903782,-842.705048
784.215130,2368.659014,-10214.842000,-919.314598
784.215454,2368.659014,-10140.821405,-995.924147
784.215778,1406.391290,-9992.780217,-1072.533697
784.216102,222.061783,-9844.739029,-1378.971896
784.216426,-1036.288319,-9992.780217,-1685.410096
784.216751,-1480.411884,-10140.821405,-1685.410096
784.217075,-1480.411884,-9844.739029,-1608.800546
784.217399,-962.267725,-9548.656652,-995.924147
784.217723,-74.020594,-9844.739029,-689.485948
784.218047,1258.350101,-9992.780217,0.000000
784.218371,1998.556043,-9622.677246,229.828649
784.218695,1924.535449,-9696.697840,306.438199
784.219019,1110.308913,-9178.553681,306.438199
784.219343,0.000000,-9474.636058,0.000000
784.219667,-1406.391290,-9844.739029,-995.924147
784.219991,-2664.741391,-10140.821405,-1455.581446
784.220316,-2368.659014,-10362.883188,-1532.190996
784.220640,-1702.473667,-10066.800811,-1302.362347
784.220964,-518.144159,-9770.718434,-306.438199
784.221288,666.185348,-9474.636058,383.047749
784.221612,2294.638420,-9178.553681,536.266849
784.221936,2664.741391,-9252.574275,536.266849
784.222260,2442.679609,-9252.574275,766.095498
784.222584,1924.535449,-9178.553681,1072.533697
784.222908,1110.308913,-9474.636058,766.095498
784.223232,-444.123565,-9474.636058,229.828649
784.223557,-1036.288319,-9326.594869,0.000000
784.223881,-1850.514855,-9178.553681,-153.219100
784.224205,-1628.453072,-9030.512492,76.609550
784.224529,-1332.370696,-9030.512492,0.000000
784.224853,-518.144159,-8808.450710,459.657299
784.225177,518.144159,-8882.471304,689.485948
784.225501,1036.288319,-8882.471304,1072.533697
784.225825,1036.288319,-9326.594869,1608.800546
784.226149,0.000000,-9474.636058,1149.143247
784.226473,-888.247130,-9696.697840,306.438199
784.226797,-1628.453072,-9696.697840,383.047749
784.227122,-1702.473667,-10288.862594,0.000000
784.227446,-1258.350101,-10510.924376,153.219100
784.227770,-740.205942,-10510.924376,229.828649
784.228094,296.082377,-9844.739029,229.828649
784.228418,1258.350101,-9622.677246,689.485948
784.228742,2072.576638,-9844.739029,459.657299
784.229066,1258.350101,-9252.574275,689.485948
784.229390,148.041188,-9474.636058,153.219100
784.229714,-962.267725,-9696.697840,0.000000
784.230038,-1850.514855,-10066.800811,-153.219100
784.230363,-2072.576638,-9992.780217,-153.219100
784.230687,-2146.597232,-9622.677246,153.219100
784.231011,-888.247130,-9474.636058,689.485948
784.231335,148.041188,-9770.718434,229.828649
784.231659,1998.556043,-9992.780217,1762.019645
784.231983,2220.617826,-9844.739029,1532.190996
784.232307,1924.535449,-9918.759623,1378.971896
784.232631,1110.308913,-9622.677246,459.657299
784.232955,-592.164754,-9918.759623,0.000000
784.233279,-1406.391290,-10066.800811,-383.047749
784.233603,-2368.659014,-9770.718434,-919.314598
784.233928,-1850.514855,-9918.759623,-995.924147
784.234252,-1480.411884,-9696.697840,-459.657299
784.234576,-296.082377,-9770.718434,-306.438199
784.234900,1332.370696,-9474.636058,153.219100
784.235224,2590.720797,-9178.553681,612.876398
784.235548,3330.926739,-9178.553681,1302.362347
784.235872,3108.864956,-9178.553681,919.314598
784.236196,1776.494261,-9400.615463,459.657299
784.236520,444.123565,-9400.615463,-76.609550
784.236844,-740.205942,-9696.697840,-383.047749
784.237169,-1184.329507,-9474.636058,-766.095498
784.237493,-1406.391290,-9400.615463,-689.485948
784.237817,-666.185348,-9770.718434,-229.828649
784.238141,-518.144159,-8956.491898,0.000000
784.238465,0.000000,-8660.409521,-383.047749
784.238789,740.205942,-8956.491898,459.657299
784.239113,666.185348,-8882.471304,229.828649
784.239437,592.164754,-8956.491898,153.219100
784.239761,-666.185348,-9474.636058,-153.219100
784.240085,-1628.453072,-9844.739029,-459.657299
784.240409,-1850.514855,-9770.718434,-1378.971896
784.240734,-1998.556043,-9770.718434,-1225.752797
784.241058,-1406.391290,-10066.800811,-919.314598
784.241382,0.000000,-10288.862594,-1225.752797
784.241706,814.226536,-10214.842000,-919.314598
784.242030,1628.453072,-9844.739029,-842.705048
784.242354,1628.453072,-9770.718434,-1149.143247
784.242678,962.267725,-10288.862594,-1302.362347
784.243002,74.020594,-9770.718434,-842.705048
784.243326,-740.205942,-10214.842000,-766.095498
784.243650,-888.247130,-10510.924376,-1149.143247
784.243974,-1406.391290,-10362.883188,-1149.143247
784.244299,-1184.329507,-10436.903782,-229.828649
784.244623,-592.164754,-10436.903782,0.000000
784.244947,814.226536,-10140.821405,229.828649
784.245271,1998.556043,-10066.800811,1225.752797
784.245595,1850.514855,-9622.677246,919.314598
784.245919,1110.308913,-10140.821405,612.876398
784.246243,0.000000,-9844.739029,-612.876398
784.246567,-1998.556043,-10066.800811,-1225.752797
784.246891,-3108.864956,-10214.842000,-1685.410096
784.247215,-2960.823768,-9844.739029,-1991.848295
784.247540,-2220.617826,-9104.533087,-1149.143247
784.247864,-740.205942,-9992.780217,-919.314598
784.248188,1036.288319,-9030.512492,-306.438199
784.248512,2960.823768,-9030.512492,919.314598
784.248836,3923.091493,-9326.594869,919.314598
784.249160,4367.215058,-9400.615463,1378.971896
784.249484,3330.926739,-9474.636058,1302.362347
784.249808,1702.473667,-9696.697840,919.314598
784.250132,222.061783,-9622.677246,612.876398
784.250456,-1702.473667,-9030.512492,-459.657299
784.250780,-1924.535449,-9326.594869,-153.219100
784.251105,-2072.576638,-9104.533087,-612.876398
784.251429,-1998.556043,-8882.471304,-459.657299
784.251753,-1258.350101,-8364.327145,0.000000
784.252077,0.000000,-8142.265362,0.000000
784.252401,888.247130,-8216.285956,919.314598
784.252725,962.267725,-8216.285956,842.705048
784.253049,740.205942,-8956.491898,1072.533697
784.253373,222.061783,-9844.739029,536.266849
784.253697,-740.205942,-10362.883188,229.828649
784.254021,-1184.329507,-10436.903782,229.828649
784.254346,-1110.308913,-10362.883188,-153.219100
784.254670,-444.123565,-10362.883188,-459.657299
784.254994,444.123565,-10658.965565,-383.047749
784.255318,1332.370696,-10288.862594,-766.095498
784.255642,1406.391290,-9474.636058,0.000000
784.255966,1110.308913,-9548.656652,-306.438199
784.256290,518.144159,-9548.656652,-459.657299
784.256614,-444.123565,-9992.780217,-459.657299
784.256938,-1036.288319,-10066.800811,-766.095498
784.257262,-1332.370696,-10214.842000,229.828649
784.257586,-1036.288319,-9844.739029,306.438199
784.257911,-296.082377,-9696.697840,995.924147
784.258235,814.226536,-10066.800811,766.095498
784.258559,1628.453072,-10214.842000,1149.143247
784.258883,1924.535449,-9992.780217,1455.581446
784.259207,1480.411884,-9918.759623,995.924147
784.259531,148.041188,-9844.739029,153.219100
784.259855,-1850.514855,-9844.739029,-306.438199
784.260179,-3627.009116,-9844.739029,-1149.143247
784.260503,-3552.988522,-9770.718434,-1685.410096
784.260827,-3108.864956,-9918.759623,-1608.800546
784.261152,-2072.576638,-9474.636058,-1149.143247
784.261476,-222.061783,-9548.656652,-306.438199
784.261800,1406.391290,-9400.615463,612.876398
784.262124,2960.823768,-9326.594869,1225.752797
784.262448,3627.009116,-9400.615463,1608.800546
784.262772,3182.885551,-9030.512492,1378.971896
784.263096,2220.617826,-9400.615463,1225.752797
784.263420,592.164754,-9548.656652,842.705048
784.263744,-1480.411884,-9622.677246,-229.828649
784.264068,-2442.679609,-9326.594869,-842.705048
784.264392,-2960.823768,-9030.512492,-842.705048
784.264717,-2590.720797,-8734.430116,-995.924147
784.265041,-1776.494261,-8290.306550,-766.095498
784.265365,-666.185348,-7994.224174,306.438199
784.265689,666.185348,-8216.285956,76.609550
784.266013,1480.411884,-8068.244768,766.095498
784.266337,1554.432478,-8438.347739,612.876398
784.266661,222.061783,-9622.677246,766.095498
784.266985,-592.164754,-9918.759623,383.047749
784.267309,-1036.288319,-10510.924376,-153.219100
784.267633,-1036.288319,-10584.944971,0.000000
784.267957,-518.144159,-10066.800811,-766.095498
784.268282,74.020594,-10066.800811,-536.266849
784.268606,962.267725,-10584.944971,-1378.971896
784.268930,1406.391290,-10140.821405,-995.924147
784.269254,1480.411884,-9770.718434,-689.485948
784.269578,1258.350101,-9844.739029,-919.314598
784.269902,518.144159,-9696.697840,-1072.533697
784.270226,74.020594,-9844.739029,-1072.533697
784.270550,-444.123565,-10362.883188,-995.924147
784.270874,-518.144159,-10066.800811,-766.095498
784.271198,-814.226536,-9992.780217,-306.438199
784.271523,0.000000,-10140.821405,383.047749
784.271847,518.144159,-10214.842000,536.266849
784.272171,1258.350101,-10436.903782,919.314598
784.272495,1258.350101,-10140.821405,842.705048
784.272819,814.226536,-10584.944971,306.438199
784.273143,0.000000,-10362.883188,0.000000
784.273467,-1924.535449,-9548.656652,-536.266849
784.273791,-3108.864956,-10362.883188,-1532.190996
784.274115,-3478.967927,-9992.780217,-1915.238745
784.274439,-2368.659014,-9992.780217,-1455.581446
784.274763,-888.247130,-9992.780217,-919.314598
784.275088,888.247130,-9696.697840,-153.219100
784.275412,2220.617826,-9104.533087,229.828649
784.275736,3256.906145,-9030.512492,919.314598
784.276060,3478.967927,-9474.636058,1072.533697
784.276384,2516.700203,-9474.636058,1149.143247
784.276708,1184.329507,-9474.636058,689.485948
784.277032,-518.144159,-9474.636058,306.438199
784.277356,-1850.514855,-8586.388927,0.000000
784.277680,-2738.761985,-8586.388927,-689.485948
784.278004,-2738.761985,-8808.450710,-766.095498
784.278329,-2294.638420,-8364.327145,-459.657299
784.278653,-1184.329507,-8142.265362,0.000000
784.278977,222.061783,-7994.224174,459.657299
784.279301,1406.391290,-8216.285956,842.705048
784.279625,1554.432478,-8660.409521,842.705048
784.279949,1184.329507,-9326.594869,919.314598
784.280273,296.082377,-9992.780217,76.609550
784.280597,-888.247130,-10140.821405,0.000000
784.280921,-1258.350101,-10140.821405,-766.095498
784.281245,-740.205942,-10288.862594,-229.828649
784.281569,-370.102971,-10362.883188,-229.828649
784.281894,148.041188,-10362.883188,-306.438199
784.282218,592.164754,-10214.842000,-306.438199
784.282542,1184.329507,-9326.594869,-153.219100
784.282866,1184.329507,-9326.594869,-383.047749
784.283190,444.123565,-9474.636058,-306.438199
784.283514,-148.041188,-9548.656652,-383.047749
784.283838,-1258.350101,-9992.780217,-536.266849
784.284162,-1702.473667,-10288.862594,-459.657299
784.284486,-1554.432478,-9992.780217,-459.657299
784.284810,-370.102971,-9992.780217,0.000000
784.285135,148.041188,-9992.780217,306.438199
784.285459,962.267725,-10436.903782,1532.190996
784.285783,1480.411884,-10362.883188,1149.143247
784.286107,1480.411884,-10362.883188,536.266849
784.286431,666.185348,-10140.821405,229.828649
784.286755,-444.123565,-9918.759623,-153.219100
784.287079,-1998.556043,-10066.800811,-689.485948
784.287403,-2368.659014,-10140.821405,-1225.752797
784.287727,-2220.617826,-9770.718434,-1762.019645
784.288051,-1184.329507,-9918.759623,-536.266849
784.288375,-444.123565,-9770.718434,-766.095498
784.288700,962.267725,-9474.636058,0.000000
784.289024,2442.679609,-9252.574275,612.876398
784.289348,3108.864956,-9474.636058,689.485948
784.289672,3108.864956,-9400.615463,919.314598
784.289996,1628.453072,-9252.574275,-229.828649
784.290320,296.082377,-9252.574275,153.219100
784.290644,-740.205942,-9178.553681,-612.876398
784.290968,-1332.370696,-9326.594869,-383.047749
784.291292,-1110.308913,-9400.615463,-383.047749
784.291616,-1110.308913,-9178.553681,-306.438199
784.291940,-814.226536,-8660.409521,-153.219100
784.292265,222.061783,-8216.285956,383.047749
784.292589,1554.432478,-9104.533087,383.047749
784.292913,1258.350101,-8660.409521,306.438199
784.293237,740.205942,-8882.471304,383.047749
784.293561,-370.102971,-9326.594869,0.000000
784.293885,-1184.329507,-9844.739029,-306.438199
784.294209,-1702.473667,-10214.842000,-536.266849
784.294533,-1184.329507,-10214.842000,-995.924147
784.294857,-962.267725,-10584.944971,-306.438199
784.295181,-370.102971,-10066.800811,-459.657299
784.295506,518.144159,-10066.800811,-306.438199
784.295830,1628.453072,-9770.718434,-229.828649
784.296154,2146.597232,-9844.739029,0.000000
784.296478,1480.411884,-10214.842000,-229.828649
784.296802,518.144159,-9992.780217,-306.438199
784.297126,-592.164754,-10288.862594,-459.657299
784.297450,-1480.411884,-10214.842000,-995.924147
784.297774,-1628.453072,-10436.903782,-536.266849
784.298098,-1628.453072,-10436.903782,-612.876398
784.298422,-1406.391290,-9992.780217,-536.266849
784.298746,-148.041188,-10066.800811,76.609550
784.299071,962.267725,-10214.842000,306.438199
784.299395,1406.391290,-9992.780217,995.924147
784.299719,1184.329507,-9474.636058,536.266849
784.300043,370.102971,-9030.512492,0.000000
784.300367,-888.247130,-9474.636058,-153.219100
784.300691,-1924.535449,-10066.800811,-1149.143247
784.301015,-2368.659014,-9992.780217,-1378.971896
784.301339,-1850.514855,-9622.677246,-1378.971896
784.301663,-740.205942,-9844.739029,-995.924147
784.301987,666.185348,-9770.718434,0.000000
784.302312,1776.494261,-9622.677246,76.609550
784.302636,2368.659014,-9104.533087,459.657299
784.302960,2590.720797,-9326.594869,612.876398
784.303284,2368.659014,-8956.491898,689.485948
784.303608,1258.350101,-9030.512492,0.000000
784.303932,0.000000,-9326.594869,0.000000
784.304256,-666.185348,-9326.594869,-306.438199
784.304580,-1184.329507,-9400.615463,-306.438199
784.304904,-1480.411884,-9326.594869,0.000000
784.305228,-1036.288319,-9252.574275,-153.219100
784.305552,-518.144159,-9252.574275,-153.219100
784.305877,74.020594,-8882.471304,612.876398
784.306201,1184.329507,-9474.636058,995.924147
784.306525,1110.308913,-9696.697840,1149.143247
784.306849,370.102971,-9474.636058,995.924147
784.307173,-370.102971,-9844.739029,689.485948
784.307497,-1776.494261,-9770.718434,-766.095498
784.307821,-2072.576638,-9770.718434,-306.438199
784.308145,-1776.494261,-10214.842000,-459.657299
784.308469,-592.164754,-9770.718434,0.000000
784.308793,370.102971,-10140.821405,0.000000
784.309117,1258.350101,-9474.636058,0.000000
784.309441,1924.535449,-9622.677246,0.000000
784.309765,1776.494261,-9400.615463,383.047749
784.310090,1406.391290,-9400.615463,0.000000
784.310414,-296.082377,-9400.615463,0.000000
784.310738,-1184.329507,-9030.512492,76.609550
784.311062,-1702.473667,-10066.800811,0.000000
784.311386,-1702.473667,-9992.780217,76.609550
784.311710,-1184.329507,-9844.739029,383.047749
784.312034,-444.123565,-9622.677246,766.095498
784.312358,518.144159,-9400.615463,1149.143247
784.312682,1332.370696,-9400.615463,995.924147
784.313006,1036.288319,-9474.636058,689.485948
784.313330,148.041188,-9622.677246,612.876398
784.313654,-1184.329507,-9918.759623,-459.657299
784.313978,-2368.659014,-9992.780217,-689.485948
784.314303,-2738.761985,-10288.862594,-1378.971896
784.314627,-2664.741391,-10140.821405,-1149.143247
784.314951,-1406.391290,-10362.883188,-842.705048
784.315275,-222.061783,-9844.739029,-459.657299
784.315599,1184.329507,-10066.800811,0.000000
784.315923,2294.638420,-10214.842000,612.876398
784.316247,2886.803174,-9548.656652,612.876398
784.316571,2664.741391,-9474.636058,1072.533697
784.316895,2072.576638,-9622.677246,536.266849
784.317219,814.226536,-9696.697840,-306.438199
784.317543,-740.205942,-9770.718434,-689.485948
784.317867,-1702.473667,-9252.574275,-995.924147
784.318192,-1702.473667,-9400.615463,-1072.533697
784.318516,-1554.432478,-9326.594869,-1149.143247
784.318840,-1036.288319,-9104.533087,-919.314598
784.319164,222.061783,-8956.491898,-306.438199
784.319488,1480.411884,-8882.471304,76.609550
784.319812,2072.576638,-9104.533087,536.266849
784.320136,1850.514855,-9326.594869,459.657299
784.320460,1110.308913,-10140.821405,919.314598
784.320784,222.061783,-10362.883188,-306.438199
784.321108,-814.226536,-10214.842000,-306.438199
784.321432,-1258.350101,-10436.903782,-995.924147
784.321756,-1332.370696,-10584.944971,-1149.143247
784.322080,-370.102971,-10140.821405,-842.705048
784.322405,814.226536,-9622.677246,-919.314598
784.322729,1406.391290,-9326.594869,-459.657299
784.323053,1702.473667,-9178.553681,-689.485948
784.323377,1258.350101,-9326.594869,-689.485948
784.323701,518.144159,-9252.574275,-766.095498
784.324025,-296.082377,-9474.636058,-766.095498
784.324349,-1258.350101,-9622.677246,-229.828649
784.324673,-1554.432478,-9326.594869,0.000000
784.324997,-1554.432478,-9400.615463,229.828649
784.325321,0.000000,-9548.656652,229.828649
784.325645,296.082377,-9622.677246,459.657299
784.325969,888.247130,-9770.718434,689.485948
784.326293,1036.288319,-9844.739029,459.657299
784.326618,518.144159,-9696.697840,0.000000
784.326942,-148.041188,-9844.739029,-459.657299
784.327266,-1924.535449,-9844.739029,-536.266849
784.327590,-2886.803174,-9770.718434,-1532.190996
784.327914,-2738.761985,-9918.759623,-1378.971896
784.328238,-2072.576638,-9992.780217,-1302.362347
784.328562,-1036.288319,-9992.780217,-766.095498
784.328886,74.020594,-10288.862594,-383.047749
784.329210,1628.453072,-9474.636058,766.095498
784.329534,3108.864956,-9326.594869,995.924147
784.329858,3552.988522,-10066.800811,919.314598
784.330182,2442.679609,-9992.780217,919.314598
784.330507,1036.288319,-9770.718434,383.047749
784.330831,-444.123565,-9622.677246,-306.438199
784.331155,-1776.494261,-9548.656652,-689.485948
784.331479,-2516.700203,-9400.615463,-995.924147
784.331803,-2072.576638,-9252.574275,-536.266849
784.332127,-1332.370696,-9030.512492,-459.657299
784.332451,-370.102971,-8438.347739,0.000000
784.332775,592.164754,-8808.450710,842.705048
784.333099,1628.453072,-9178.553681,842.705048
784.333423,1702.473667,-9252.574275,1378.971896
784.333747,1184.329507,-9474.636058,1149.143247
784.334071,0.000000,-9622.677246,995.924147
784.334395,-1036.288319,-10214.842000,383.047749
784.334720,-1480.411884,-10066.800811,229.828649
784.335044,-1702.473667,-9622.677246,-153.219100
784.335368,-1110.308913,-9770.718434,-842.705048
784.335692,-296.082377,-9844.739029,-536.266849
784.336016,592.164754,-9770.718434,-459.657299
784.336340,1406.391290,-9400.615463,229.828649
784.336664,1184.329507,-8956.491898,306.438199
784.336988,518.144159,-9252.574275,0.000000
784.337312,0.000000,-9548.656652,76.609550
784.337636,-666.185348,-9992.780217,0.000000
784.337960,-1036.288319,-9622.677246,306.438199
784.338284,-962.267725,-9844.739029,306.438199
784.338608,-592.164754,-9770.718434,612.876398
784.338933,-222.061783,-9770.718434,1072.533697
784.339257,296.082377,-9918.759623,1378.971896
784.339581,1184.329507,-9992.780217,1149.143247
784.339905,1332.370696,-10214.842000,229.828649
784.340229,518.144159,-9474.636058,0.000000
784.340553,-962.267725,-9548.656652,-383.047749
784.340877,-1998.556043,-10066.800811,-842.705048
784.341201,-2664.741391,-10066.800811,-1072.533697
784.341525,-2146.597232,-10436.903782,-995.924147
784.341849,-1554.432478,-9844.739029,-383.047749
784.342173,-444.123565,-10066.800811,-153.219100
784.342497,888.247130,-9696.697840,76.609550
784.342822,2368.659014,-9918.759623,919.314598
784.343146,3404.947333,-9992.780217,1149.143247
784.343470,3256.906145,-9844.739029,1225.752797
784.343794,2368.659014,-9770.718434,842.705048
784.344118,518.144159,-10288.862594,383.047749
784.344442,-814.226536,-9992.780217,0.000000
784.344766,-2146.597232,-9474.636058,-766.095498
784.345090,-2590.720797,-9474.636058,-1072.533697
784.345414,-2368.659014,-9474.636058,-995.924147
784.345738,-1332.370696,-9252.574275,0.000000
784.346062,222.061783,-9030.512492,153.219100
784.346386,1480.411884,-9104.533087,1302.362347
784.346710,1776.494261,-8956.491898,689.485948
784.347035,2220.617826,-9326.594869,1455.581446
784.347359,1110.308913,-9844.739029,1072.533697
784.347683,-370.102971,-10140.821405,306.438199
784.348007,-1776.494261,-9992.780217,-536.266849
784.348331,-2146.597232,-9992.780217,-1072.533697
784.348655,-1776.494261,-9918.759623,-1149.143247
784.348979,-888.247130,-9918.759623,-1072.533697
784.349303,222.061783,-9844.739029,-995.924147
784.349627,1184.329507,-9474.636058,-842.705048
784.349951,1850.514855,-8956.491898,0.000000
784.350275,1776.494261,-9474.636058,0.000000
784.350599,1110.308913,-9400.615463,-306.438199
784.350923,222.061783,-9474.636058,-153.219100
784.351248,-666.185348,-9696.697840,-459.657299
784.351572,-740.205942,-9770.718434,-306.438199
784.351896,-444.123565,-9844.739029,0.000000
784.352220,-740.205942,-9622.677246,0.000000
784.352544,666.185348,-9770.718434,459.657299
784.352868,1036.288319,-9992.780217,229.828649
784.353192,1332.370696,-9918.759623,229.828649
784.353516,1258.350101,-9992.780217,0.000000
784.353840,444.123565,-9918.759623,-612.876398
784.354164,-1258.350101,-9622.677246,-919.314598
784.354488,-2368.659014,-9992.780217,-1149.143247
784.354812,-2442.679609,-10436.903782,-1608.800546
784.355137,-1924.535449,-10066.800811,-1302.362347
784.355461,-1036.288319,-9918.759623,-689.485948
784.355785,0.000000,-9770.718434,0.000000
784.356109,1628.453072,-9844.739029,229.828649
784.356433,2886.803174,-9918.759623,766.095498
784.356757,2886.803174,-9252.574275,1225.752797
784.357081,2294.638420,-9548.656652,689.485948
784.357405,814.226536,-9844.739029,229.828649
784.357729,-962.267725,-9918.759623,-536.266849
784.358053,-2146.597232,-9622.677246,-919.314598
784.358377,-2368.659014,-9622.677246,-995.924147
784.358701,-1850.514855,-9548.656652,-1072.533697
784.359025,-814.226536,-9104.533087,0.000000
784.359350,-148.041188,-8956.491898,383.047749
784.359674,1036.288319,-8586.388927,229.828649
784.359998,1776.494261,-9030.512492,1149.143247
784.360322,2220.617826,-9474.636058,1149.143247
784.360646,1258.350101,-9622.677246,1149.143247
784.360970,0.000000,-10140.821405,689.485948
784.361294,-1258.350101,-9474.636058,76.609550
784.361618,-2072.576638,-9844.739029,-612.876398
784.361942,-2516.700203,-9992.780217,-383.047749
784.362266,-1628.453072,-10362.883188,-612.876398
784.362590,-666.185348,-9844.739029,-689.485948
784.362914,666.185348,-9400.615463,-229.828649
784.363238,1554.432478,-9030.512492,0.000000
784.363563,2368.659014,-9104.533087,0.000000
784.363887,1628.453072,-9252.574275,76.609550
784.364211,296.082377,-8956.491898,0.000000
784.364535,0.000000,-9474.636058,0.000000
784.364859,-1184.329507,-9696.697840,0.000000
784.365183,-1110.308913,-10066.800811,76.609550
784.365507,-1036.288319,-9844.739029,153.219100
784.365831,-814.226536,-9548.656652,536.266849
784.366155,0.000000,-9400.615463,383.047749
784.366479,740.205942,-9474.636058,842.705048
784.366803,1036.288319,-9178.553681,689.485948
784.367127,370.102971,-9474.636058,153.219100
784.367451,-814.226536,-9400.615463,-383.047749
784.367776,-2072.576638,-9696.697840,-1149.143247
784.368100,-2738.761985,-9844.739029,-1378.971896
784.368424,-2590.720797,-9844.739029,-1608.800546
784.368748,-1702.473667,-9548.656652,-612.876398
784.369072,-666.185348,-10436.903782,-995.924147
784.369396,518.144159,-10214.842000,0.000000
784.369720,1850.514855,-10288.862594,689.485948
784.370044,2664.741391,-10066.800811,612.876398
784.370368,2812.782580,-9992.780217,766.095498
784.370692,2516.700203,-10066.800811,1072.533697
784.371016,1184.329507,-9992.780217,306.438199
784.371340,-444.123565,-9844.739029,-459.657299
784.371665,-1258.350101,-9770.718434,-689.485948
784.371989,-1850.514855,-9770.718434,-766.095498
784.372313,-1554.432478,-9770.718434,-766.095498
784.372637,-962.267725,-9326.594869,-459.657299
784.372961,0.000000,-8882.471304,0.000000
784.373285,1036.288319,-8586.388927,1149.143247
784.373609,1628.453072,-8734.430116,842.705048
784.373933,2368.659014,-9326.594869,1149.143247
784.374257,814.226536,-9622.677246,919.314598
784.374581,-222.061783,-9992.780217,229.828649
784.374905,-1036.288319,-9918.759623,76.609550
784.375229,-1184.329507,-9844.739029,-229.828649
784.375553,-666.185348,-10066.800811,-383.047749
784.375878,-444.123565,-9622.677246,-612.876398
784.376202,1036.288319,-9770.718434,0.000000
784.376526,1776.494261,-9252.574275,0.000000
784.376850,1998.556043,-9252.574275,153.219100
784.377174,1332.370696,-9030.512492,229.828649
784.377498,444.123565,-8808.450710,0.000000
784.377822,-518.144159,-9400.615463,-383.047749
784.378146,-1850.514855,-9622.677246,-612.876398
784.378470,-2516.700203,-9474.636058,-306.438199
784.378794,-2072.576638,-9326.594869,-306.438199
784.379118,-1850.514855,-9252.574275,-229.828649
784.379442,-296.082377,-9622.677246,612.876398
784.379766,296.082377,-9474.636058,842.705048
784.380091,1258.350101,-9844.739029,995.924147
784.380415,962.267725,-9770.718434,459.657299
784.380739,148.041188,-9400.615463,306.438199
784.381063,-1110.308913,-9918.759623,-229.828649
784.381387,-1850.514855,-9992.780217,-536.266849
784.381711,-2738.761985,-10584.944971,-1072.533697
784.382035,-2442.679609,-10362.883188,-1532.190996
784.382359,-1554.432478,-10510.924376,-1072.533697
784.382683,-444.123565,-9918.759623,-306.438199
784.383007,1332.370696,-9918.759623,383.047749
784.383331,2368.659014,-9474.636058,842.705048
784.383655,2590.720797,-9474.636058,459.657299
784.383980,2072.576638,-9918.759623,689.485948
784.384304,1406.391290,-10288.862594,459.657299
784.384628,0.000000,-10140.821405,0.000000
784.384952,-1184.329507,-9844.739029,-306.438199
784.385276,-1702.473667,-9622.677246,-766.095498
784.385600,-1480.411884,-9622.677246,-766.095498
784.385924,-814.226536,-9474.636058,-919.314598
784.386248,148.041188,-9030.512492,-383.047749
784.386572,1110.308913,-8956.491898,383.047749
