#time,accel_x,accel_y,accel_z
849.040955,888.247130,-9548.656652,3140.991542
849.041279,-2146.597232,-8956.491898,1378.971896
849.041603,-2812.782580,-8882.471304,306.438199
849.041927,-4663.297435,-10955.047942,-383.047749
849.042252,-5551.544565,-9252.574275,612.876398
849.042576,-5773.606348,-6957.935855,-1072.533697
849.042900,-7994.224174,-8660.409521,-2604.724693
849.043224,-10288.862594,-11547.212695,0.000000
849.043548,-5995.668130,-12065.356855,-919.314598
849.043872,-740.205942,-9104.533087,-766.095498
849.044196,814.226536,-5477.523971,3064.381992
849.044520,2590.720797,-5995.668130,3370.820191
849.044845,4367.215058,-7624.121203,1532.190996
849.045169,3701.029710,-10288.862594,1149.143247
849.045493,1998.556043,-10436.903782,1685.410096
849.045817,1850.514855,-10288.862594,766.095498
849.046141,1036.288319,-11029.068536,612.876398
849.046465,0.000000,-11547.212695,2451.505594
849.046789,-1110.308913,-11769.274478,1072.533697
849.047113,-3404.947333,-11917.315666,-153.219100
849.047438,-5921.647536,-11103.089130,-536.266849
849.047762,-4737.318029,-9252.574275,766.095498
849.048086,-2146.597232,-7772.162391,919.314598
849.048410,-1036.288319,-7846.182985,1225.752797
849.048734,-2294.638420,-8956.491898,1608.800546
849.049058,-3034.844362,-10214.842000,1302.362347
849.049382,-3627.009116,-10214.842000,689.485948
849.049706,-4663.297435,-9474.636058,153.219100
849.050031,-4589.276840,-10881.027347,0.000000
849.050355,-2664.741391,-13323.706956,766.095498
849.050679,-592.164754,-14063.912898,612.876398
849.051003,-888.247130,-13323.706956,2451.505594
849.051327,-1776.494261,-12139.377449,3217.601092
849.051651,-1850.514855,-11399.171507,2834.553343
849.051975,-2220.617826,-10436.903782,2374.896044
849.052299,-2812.782580,-9178.553681,2681.334243
849.052624,-1776.494261,-9918.759623,3217.601092
849.052948,-1184.329507,-11399.171507,3294.210641
849.053272,-1184.329507,-10658.965565,4060.306139
849.053596,-1332.370696,-8068.244768,4290.134789
849.053920,-1998.556043,-6883.915261,3217.601092
849.054244,-3478.967927,-6513.812290,2374.896044
849.054568,-4811.338623,-6587.832884,2145.067394
849.054892,-5255.462188,-6957.935855,1915.238745
849.055217,-4885.359217,-7624.121203,1991.848295
849.055541,-4589.276840,-7994.224174,2145.067394
849.055865,-4737.318029,-8290.306550,2604.724693
849.056189,-4811.338623,-9474.636058,2757.943793
849.056513,-4959.379811,-11177.109724,3370.820191
849.056837,-4737.318029,-11325.150913,4826.401637
849.057161,-2294.638420,-10955.047942,5592.497135
849.057485,296.082377,-10510.924376,6588.421283
849.057810,1480.411884,-10288.862594,6818.249932
849.058134,1406.391290,-9918.759623,6511.811733
849.058458,222.061783,-9474.636058,5362.668486
849.058782,-1628.453072,-8734.430116,4596.572988
849.059106,-2738.761985,-7698.141797,3064.381992
849.059430,-3552.988522,-6661.853478,2987.772442
849.059754,-4145.153275,-5699.585753,2757.943793
849.060078,-4441.235652,-5773.606348,1838.629195
849.060403,-4145.153275,-6439.791695,1378.971896
849.060727,-3478.967927,-6513.812290,1149.143247
849.061051,-3034.844362,-5921.647536,-153.219100
849.061375,-3256.906145,-7994.224174,-153.219100
849.061699,-4515.256246,-12361.439231,2681.334243
849.062023,-2220.617826,-13101.645173,3677.258390
849.062347,-518.144159,-12065.356855,3677.258390
849.062671,0.000000,-10955.047942,5898.935335
849.062996,3256.906145,-10658.965565,4596.572988
849.063320,4663.297435,-11917.315666,3294.210641
849.063644,3997.112087,-11621.233289,3140.991542
849.063968,2220.617826,-10214.842000,2987.772442
849.064292,0.000000,-10584.944971,1149.143247
849.064616,-2442.679609,-10658.965565,-919.314598
849.064940,-3552.988522,-9474.636058,-536.266849
849.065265,-2886.803174,-9918.759623,-2145.067394
849.065589,-2516.700203,-11325.150913,-2681.334243
849.065913,-3552.988522,-12805.562797,-2604.724693
849.066237,-4071.132681,-11251.130318,-2298.286494
849.066561,-3627.009116,-8660.409521,-1455.581446
849.066885,-3997.112087,-7624.121203,-383.047749
849.067209,-3108.864956,-8364.327145,1072.533697
849.067533,-518.144159,-8882.471304,76.609550
849.067858,1110.308913,-10881.027347,1532.190996
849.068182,1998.556043,-12953.603985,2681.334243
849.068506,3108.864956,-13175.665768,2681.334243
849.068830,3552.988522,-11325.150913,2834.553343
849.069154,3182.885551,-9622.677246,2221.676944
849.069478,1110.308913,-8882.471304,842.705048
849.069802,-444.123565,-7698.141797,-1915.238745
849.070126,-1850.514855,-7994.224174,-4979.620737
849.070450,-4219.173869,-11695.253884,-3217.601092
849.070774,-2812.782580,-12139.377449,-4136.915689
849.071098,-1184.329507,-8734.430116,-4979.620737
849.071422,-3330.926739,-7179.997637,-1915.238745
849.071746,-4441.235652,-7624.121203,-2374.896044
849.072070,-4663.297435,-9400.615463,-2374.896044
849.072394,-5773.606348,-8956.491898,-1532.190996
849.072718,-3701.029710,-5921.647536,-536.266849
849.073042,0.000000,-7994.224174,1072.533697
849.073366,1628.453072,-11843.295072,1838.629195
849.073690,962.267725,-12361.439231,3140.991542
849.074014,148.041188,-11547.212695,3064.381992
849.074338,-444.123565,-9992.780217,1838.629195
849.074662,962.267725,-9770.718434,1072.533697
849.074985,2738.761985,-8068.244768,1149.143247
849.075309,4663.297435,-5921.647536,0.000000
849.075633,3404.947333,-6069.688724,-919.314598
849.075957,-962.267725,-5255.462188,-3830.477490
849.076281,-4515.256246,-9474.636058,-2451.505594
849.076605,-4589.276840,-13767.830521,-1149.143247
849.076929,-2812.782580,-11991.336260,-3830.477490
849.077253,-4737.318029,-10955.047942,-1302.362347
849.077577,-6069.688724,-11547.212695,0.000000
849.077901,-3034.844362,-12213.398043,-1072.533697
849.078225,-148.041188,-10732.986159,0.000000
849.078549,3775.050304,-7105.977043,2374.896044
849.078873,7994.224174,-6809.894666,3294.210641
849.079197,9178.553681,-10436.903782,3064.381992
849.079521,6439.791695,-10140.821405,3447.429741
849.079845,3552.988522,-9400.615463,2834.553343
849.080169,2072.576638,-9548.656652,459.657299
849.080493,370.102971,-11251.130318,-919.314598
849.080817,-1480.411884,-12731.542202,-689.485948
849.081141,-1776.494261,-11917.315666,-153.219100
849.081465,-1998.556043,-11843.295072,0.000000
849.081789,-2960.823768,-10881.027347,-459.657299
849.082113,-2664.741391,-8438.347739,536.266849
849.082437,-2220.617826,-7328.038826,0.000000
849.082761,-2664.741391,-7698.141797,536.266849
849.083085,-2146.597232,-8734.430116,2374.896044
849.083409,1110.308913,-9252.574275,2911.162892
849.083733,4441.235652,-8364.327145,2834.553343
849.084057,4959.379811,-7550.100608,1685.410096
849.084381,3256.906145,-8882.471304,1072.533697
849.084705,1850.514855,-11029.068536,995.924147
849.085029,296.082377,-13027.624579,995.924147
849.085353,-222.061783,-11769.274478,766.095498
849.085677,-222.061783,-8586.388927,-459.657299
849.086001,-296.082377,-7328.038826,-995.924147
849.086325,-2072.576638,-8808.450710,-459.657299
849.086649,-2738.761985,-9474.636058,459.657299
849.086973,-1776.494261,-8586.388927,612.876398
849.087297,-518.144159,-6809.894666,842.705048
849.087621,0.000000,-5551.544565,842.705048
849.087945,-1184.329507,-6217.729913,1149.143247
849.088269,-2664.741391,-8660.409521,1225.752797
849.088593,-2812.782580,-10732.986159,919.314598
849.088917,-1110.308913,-10584.944971,536.266849
849.089241,1184.329507,-9252.574275,-306.438199
849.089565,1554.432478,-9104.533087,-229.828649
849.089889,0.000000,-11103.089130,0.000000
849.090213,-666.185348,-12361.439231,0.000000
849.090537,-296.082377,-11695.253884,-383.047749
849.090861,222.061783,-9548.656652,-842.705048
849.091185,1036.288319,-9104.533087,-536.266849
849.091509,1702.473667,-9770.718434,-766.095498
849.091833,592.164754,-10658.965565,0.000000
849.092157,0.000000,-10436.903782,0.000000
849.092481,-444.123565,-9770.718434,-1072.533697
849.092805,-1480.411884,-9326.594869,-2145.067394
849.093129,-2294.638420,-9696.697840,-1685.410096
849.093453,-2960.823768,-11103.089130,-766.095498
849.093777,-2368.659014,-12065.356855,-1225.752797
849.094101,-1184.329507,-11103.089130,-1838.629195
849.094425,74.020594,-9696.697840,-1532.190996
849.094749,148.041188,-10066.800811,-1762.019645
849.095073,0.000000,-11917.315666,-766.095498
849.095397,0.000000,-12139.377449,-842.705048
849.095721,666.185348,-11177.109724,-689.485948
849.096045,1628.453072,-9326.594869,-612.876398
849.096369,1776.494261,-9474.636058,-536.266849
849.096693,518.144159,-10584.944971,-153.219100
849.097017,444.123565,-11473.192101,306.438199
849.097341,518.144159,-10510.924376,0.000000
849.097665,666.185348,-8290.306550,-229.828649
849.097989,-444.123565,-6735.874072,-1378.971896
849.098313,-2072.576638,-7920.203579,-1532.190996
849.098637,-2738.761985,-9622.677246,-995.924147
849.098961,-2146.597232,-9770.718434,-1225.752797
849.099285,148.041188,-8512.368333,-1149.143247
849.099609,2220.617826,-7105.977043,-459.657299
849.099933,2886.803174,-7328.038826,0.000000
849.100257,2738.761985,-9474.636058,689.485948
849.100581,2368.659014,-10362.883188,1149.143247
849.100905,2738.761985,-9474.636058,919.314598
849.101229,3256.906145,-7550.100608,383.047749
849.101553,2960.823768,-7920.203579,842.705048
849.101877,1702.473667,-9918.759623,1225.752797
849.102201,0.000000,-11473.192101,766.095498
849.102525,-740.205942,-11325.150913,0.000000
849.102849,-296.082377,-8882.471304,-612.876398
849.103173,-962.267725,-7994.224174,-1455.581446
849.103497,-2072.576638,-9252.574275,-612.876398
849.103821,-2368.659014,-10732.986159,-536.266849
849.104145,-1554.432478,-11473.192101,-459.657299
849.104469,518.144159,-10140.821405,-689.485948
849.104793,2220.617826,-9030.512492,-842.705048
849.105117,1998.556043,-9030.512492,-459.657299
849.105441,444.123565,-11325.150913,536.266849
849.105765,-370.102971,-12065.356855,0.000000
849.106089,-148.041188,-10807.006753,-459.657299
849.106413,740.205942,-9548.656652,-612.876398
849.106737,592.164754,-9548.656652,-229.828649
849.107061,-444.123565,-10584.944971,0.000000
849.107385,-1184.329507,-11473.192101,0.000000
849.107709,-888.247130,-10288.862594,-842.705048
849.108033,-592.164754,-9178.553681,-766.095498
849.108357,-370.102971,-8956.491898,-766.095498
849.108681,-1258.350101,-9992.780217,0.000000
849.109005,-2738.761985,-11621.233289,76.609550
849.109329,-3330.926739,-11325.150913,0.000000
849.109653,-2368.659014,-9696.697840,229.828649
849.109977,-296.082377,-9030.512492,229.828649
849.110301,296.082377,-9622.677246,383.047749
849.110625,-296.082377,-10362.883188,1838.629195
849.110949,-592.164754,-10658.965565,2068.457845
849.111273,74.020594,-9770.718434,1532.190996
849.111597,444.123565,-8068.244768,766.095498
849.111921,222.061783,-7402.059420,1149.143247
849.112245,-666.185348,-8808.450710,919.314598
849.112569,-1480.411884,-9918.759623,459.657299
849.112893,-1110.308913,-9548.656652,383.047749
849.113217,-592.164754,-7105.977043,306.438199
849.113541,370.102971,-6957.935855,0.000000
849.113865,0.000000,-8216.285956,459.657299
849.114189,-592.164754,-9474.636058,689.485948
849.114513,-444.123565,-9548.656652,995.924147
849.114837,962.267725,-8586.388927,1532.190996
849.115161,2590.720797,-7624.121203,1838.629195
849.115485,2368.659014,-7994.224174,1762.019645
849.115809,814.226536,-9622.677246,2298.286494
849.116133,0.000000,-10658.965565,1225.752797
849.116457,740.205942,-10066.800811,995.924147
849.116781,962.267725,-9178.553681,536.266849
849.117105,296.082377,-8660.409521,-459.657299
849.117429,-1554.432478,-10066.800811,-1149.143247
849.117753,-1628.453072,-11177.109724,76.609550
849.118077,-370.102971,-10510.924376,-1072.533697
849.118401,1332.370696,-8882.471304,-1302.362347
849.118725,962.267725,-8512.368333,-1302.362347
849.119049,0.000000,-9844.739029,-842.705048
849.119372,-518.144159,-11399.171507,-766.095498
849.119696,-370.102971,-11769.274478,-459.657299
849.120020,888.247130,-10066.800811,-229.828649
849.120344,1184.329507,-8660.409521,-306.438199
849.120668,1850.514855,-9844.739029,-536.266849
849.120992,1036.288319,-11251.130318,0.000000
849.121316,962.267725,-11843.295072,-229.828649
849.121640,1406.391290,-10658.965565,-459.657299
849.121964,1702.473667,-9104.533087,-1072.533697
849.122288,888.247130,-8660.409521,-919.314598
849.122612,0.000000,-10140.821405,-1302.362347
849.122936,-1258.350101,-11695.253884,-1608.800546
849.123260,-888.247130,-11399.171507,-1072.533697
849.123584,-148.041188,-9770.718434,-1302.362347
849.123908,0.000000,-9030.512492,-1455.581446
849.124232,-1702.473667,-9918.759623,-1072.533697
849.124556,-2368.659014,-11399.171507,-842.705048
849.124880,-1554.432478,-11251.130318,-689.485948
849.125204,0.000000,-9622.677246,0.000000
849.125528,1258.350101,-8364.327145,0.000000
849.125852,296.082377,-8734.430116,0.000000
849.126176,-814.226536,-10658.965565,229.828649
849.126500,-1332.370696,-10807.006753,-153.219100
849.126824,-592.164754,-9252.574275,-536.266849
849.127148,0.000000,-7550.100608,-1225.752797
849.127472,-518.144159,-7994.224174,-842.705048
849.127796,-1702.473667,-9770.718434,-612.876398
849.128120,-1628.453072,-10510.924376,-612.876398
849.128444,-740.205942,-9622.677246,-459.657299
849.128768,444.123565,-8438.347739,-459.657299
849.129092,962.267725,-7846.182985,-306.438199
849.129416,74.020594,-8364.327145,612.876398
849.129740,-1258.350101,-10066.800811,842.705048
849.130064,-1628.453072,-10140.821405,995.924147
849.130388,-370.102971,-9030.512492,459.657299
849.130712,-148.041188,-8142.265362,76.609550
849.131036,-444.123565,-9326.594869,536.266849
849.131360,-1110.308913,-10510.924376,689.485948
849.131684,-1258.350101,-10658.965565,0.000000
849.132008,-740.205942,-9622.677246,0.000000
849.132332,222.061783,-8142.265362,-306.438199
849.132656,962.267725,-9030.512492,0.000000
849.132980,0.000000,-10362.883188,536.266849
849.133304,-592.164754,-11251.130318,306.438199
849.133628,-74.020594,-10140.821405,0.000000
849.133952,962.267725,-9030.512492,76.609550
849.134276,1332.370696,-8734.430116,383.047749
849.134600,888.247130,-9696.697840,919.314598
849.134924,518.144159,-10732.986159,1149.143247
849.135248,1406.391290,-10436.903782,919.314598
849.135572,2220.617826,-9252.574275,612.876398
849.135896,2738.761985,-8438.347739,689.485948
849.136220,1998.556043,-9622.677246,995.924147
849.136544,444.123565,-11103.089130,919.314598
849.136868,0.000000,-10732.986159,306.438199
849.137192,1110.308913,-9622.677246,306.438199
849.137516,1924.535449,-8438.347739,229.828649
849.137840,1406.391290,-9474.636058,229.828649
849.138164,0.000000,-10510.924376,995.924147
849.138488,-370.102971,-11325.150913,1455.581446
849.138812,74.020594,-10140.821405,842.705048
849.139136,962.267725,-8142.265362,612.876398
849.139460,592.164754,-7476.080014,919.314598
849.139784,-148.041188,-9400.615463,1149.143247
849.140108,-1184.329507,-11103.089130,1072.533697
849.140432,-1628.453072,-10584.944971,383.047749
849.140756,-1184.329507,-8290.306550,306.438199
849.141080,-666.185348,-7624.121203,-76.609550
849.141404,-888.247130,-9326.594869,0.000000
849.141728,-1628.453072,-10658.965565,229.828649
849.142052,-1258.350101,-10066.800811,459.657299
849.142376,-222.061783,-9104.533087,-306.438199
849.142700,296.082377,-7698.141797,-459.657299
849.143024,-148.041188,-8364.327145,0.000000
849.143348,-1702.473667,-10066.800811,0.000000
849.143672,-2146.597232,-11177.109724,153.219100
849.143996,-1036.288319,-10140.821405,-306.438199
849.144320,-740.205942,-7846.182985,-153.219100
849.144644,-814.226536,-7698.141797,0.000000
849.144968,-1628.453072,-9400.615463,-459.657299
849.145292,-2516.700203,-10658.965565,0.000000
849.145616,-1184.329507,-10658.965565,-229.828649
849.145940,0.000000,-9400.615463,-459.657299
849.146264,518.144159,-8734.430116,-766.095498
849.146588,-444.123565,-9474.636058,-306.438199
849.146912,-1628.453072,-10955.047942,-689.485948
849.147236,-1998.556043,-11547.212695,-1532.190996
849.147560,-740.205942,-10288.862594,-1762.019645
849.147884,592.164754,-9030.512492,-1378.971896
849.148208,1332.370696,-9252.574275,-1225.752797
849.148532,888.247130,-10436.903782,-1149.143247
849.148856,666.185348,-11251.130318,-612.876398
849.149180,1332.370696,-10510.924376,-919.314598
849.149504,2368.659014,-9030.512492,-612.876398
849.149828,2738.761985,-8882.471304,-536.266849
849.150152,1036.288319,-9622.677246,-383.047749
849.150476,-444.123565,-10881.027347,-536.266849
849.150800,-148.041188,-10732.986159,-919.314598
849.151124,740.205942,-9474.636058,-1149.143247
849.151448,1554.432478,-8364.327145,-1149.143247
849.151772,962.267725,-9326.594869,-842.705048
849.152096,0.000000,-10214.842000,-842.705048
849.152420,74.020594,-10807.006753,-612.876398
849.152744,814.226536,-9696.697840,-612.876398
849.153068,1702.473667,-9030.512492,-766.095498
849.153392,1036.288319,-9400.615463,-842.705048
849.153716,-148.041188,-10436.903782,153.219100
849.154040,-518.144159,-11103.089130,76.609550
849.154364,296.082377,-10510.924376,-766.095498
849.154688,888.247130,-9474.636058,-536.266849
849.155012,148.041188,-9252.574275,-766.095498
849.155336,-962.267725,-10288.862594,-459.657299
849.155660,-1406.391290,-11029.068536,-229.828649
849.155984,0.000000,-10658.965565,0.000000
849.156308,1924.535449,-9400.615463,0.000000
849.156632,1480.411884,-8364.327145,229.828649
849.156956,222.061783,-9178.553681,76.609550
849.157280,-1406.391290,-10288.862594,383.047749
849.157604,-1480.411884,-10881.027347,306.438199
849.157928,-444.123565,-9400.615463,306.438199
849.158252,0.000000,-8290.306550,0.000000
849.158576,-222.061783,-8364.327145,0.000000
849.158900,-1184.329507,-9770.718434,536.266849
849.159224,-1258.350101,-10288.862594,536.266849
849.159548,-370.102971,-9696.697840,383.047749
849.159872,518.144159,-8734.430116,383.047749
849.160196,222.061783,-8512.368333,842.705048
849.160520,-962.267725,-9844.739029,919.314598
849.160844,-1998.556043,-10584.944971,1149.143247
849.161168,-1554.432478,-10510.924376,995.924147
849.161492,-222.061783,-9548.656652,383.047749
849.161816,518.144159,-8586.388927,919.314598
849.162140,-148.041188,-9548.656652,842.705048
849.162464,-1776.494261,-10732.986159,1149.143247
849.162788,-1628.453072,-10362.883188,766.095498
849.163112,-370.102971,-9474.636058,612.876398
849.163436,814.226536,-8364.327145,536.266849
849.163759,518.144159,-8438.347739,766.095498
849.164083,-1258.350101,-9474.636058,1302.362347
849.164407,-1480.411884,-10288.862594,536.266849
849.164731,-1036.288319,-9178.553681,383.047749
849.165055,0.000000,-8216.285956,229.828649
849.165379,148.041188,-8586.388927,459.657299
849.165703,-518.144159,-9770.718434,689.485948
849.166027,-814.226536,-10362.883188,1225.752797
849.166351,0.000000,-9770.718434,1149.143247
849.166675,1480.411884,-8660.409521,306.438199
849.166999,1850.514855,-8068.244768,76.609550
849.167323,814.226536,-9104.533087,383.047749
849.167647,-592.164754,-10658.965565,459.657299
849.167971,-814.226536,-10732.986159,-229.828649
849.168295,0.000000,-9104.533087,-383.047749
849.168619,370.102971,-7772.162391,-383.047749
849.168944,740.205942,-9104.533087,0.000000
849.169268,592.164754,-10584.944971,1072.533697
849.169592,296.082377,-11029.068536,612.876398
849.169916,1036.288319,-9918.759623,153.219100
849.170240,2220.617826,-8660.409521,-306.438199
849.170564,1850.514855,-8808.450710,-229.828649
849.170888,296.082377,-10881.027347,76.609550
849.171212,-222.061783,-11769.274478,459.657299
849.171536,148.041188,-11177.109724,-612.876398
849.171861,444.123565,-8660.409521,-1225.752797
849.172185,444.123565,-8956.491898,-1302.362347
849.172509,0.000000,-10436.903782,-1072.533697
849.172833,-592.164754,-11325.150913,-459.657299
849.173157,0.000000,-10881.027347,-612.876398
849.173481,592.164754,-9770.718434,-995.924147
849.173805,1480.411884,-8364.327145,-1838.629195
849.174129,592.164754,-9474.636058,-383.047749
849.174454,-740.205942,-11843.295072,-306.438199
849.174778,-666.185348,-12435.459826,-612.876398
849.175102,0.000000,-10436.903782,-612.876398
849.175426,370.102971,-8216.285956,-536.266849
849.175750,148.041188,-8512.368333,-153.219100
849.176074,0.000000,-11251.130318,-229.828649
849.176398,-518.144159,-11473.192101,459.657299
849.176722,74.020594,-10510.924376,-153.219100
849.177047,1036.288319,-8586.388927,-459.657299
849.177371,1110.308913,-7772.162391,-459.657299
849.177695,-592.164754,-9474.636058,0.000000
849.178019,-1924.535449,-10436.903782,-153.219100
849.178343,-2072.576638,-10584.944971,-306.438199
849.178667,-888.247130,-8586.388927,76.609550
849.178991,-148.041188,-7179.997637,-536.266849
849.179315,-444.123565,-8438.347739,-459.657299
849.179640,-1332.370696,-10214.842000,76.609550
849.179964,-1480.411884,-9992.780217,-153.219100
849.180288,-370.102971,-8660.409521,-612.876398
849.180612,1110.308913,-7550.100608,-536.266849
849.180936,1036.288319,-8068.244768,0.000000
849.181260,-444.123565,-10584.944971,76.609550
849.181584,-2368.659014,-11103.089130,0.000000
849.181908,-1924.535449,-10436.903782,-306.438199
849.182233,-740.205942,-8808.450710,-383.047749
849.182557,0.000000,-8438.347739,0.000000
849.182881,-222.061783,-9474.636058,459.657299
849.183205,-296.082377,-11399.171507,383.047749
849.183529,0.000000,-10955.047942,0.000000
849.183853,1258.350101,-9252.574275,-383.047749
849.184177,1998.556043,-8290.306550,0.000000
849.184501,962.267725,-9474.636058,-459.657299
849.184825,-740.205942,-11029.068536,-766.095498
849.185150,-1184.329507,-11473.192101,-1072.533697
849.185474,-592.164754,-10362.883188,-1225.752797
849.185798,518.144159,-9326.594869,-1149.143247
849.186122,296.082377,-9252.574275,-919.314598
849.186446,-518.144159,-11177.109724,-459.657299
849.186770,-518.144159,-11399.171507,153.219100
849.187094,666.185348,-10510.924376,-536.266849
849.187418,2368.659014,-9474.636058,0.000000
849.187743,2886.803174,-8808.450710,306.438199
849.188067,1776.494261,-9770.718434,459.657299
849.188391,814.226536,-11473.192101,612.876398
849.188715,370.102971,-10510.924376,76.609550
849.189039,814.226536,-9622.677246,0.000000
849.189363,1554.432478,-8734.430116,-229.828649
849.189687,962.267725,-8956.491898,-153.219100
849.190011,74.020594,-9992.780217,766.095498
849.190336,-296.082377,-10214.842000,536.266849
849.190660,148.041188,-9474.636058,153.219100
849.190984,814.226536,-8290.306550,0.000000
849.191308,148.041188,-7846.182985,0.000000
849.191632,-1480.411884,-9400.615463,383.047749
849.191956,-1628.453072,-9918.759623,76.609550
849.192280,-1628.453072,-8882.471304,-306.438199
849.192604,-222.061783,-7550.100608,383.047749
849.192929,148.041188,-7846.182985,153.219100
849.193253,-1110.308913,-9474.636058,766.095498
849.193577,-1554.432478,-10584.944971,766.095498
849.193901,-962.267725,-10140.821405,689.485948
849.194225,222.061783,-8882.471304,842.705048
849.194549,592.164754,-8290.306550,995.924147
849.194873,0.000000,-9178.553681,1225.752797
849.195197,-1776.494261,-10436.903782,766.095498
849.195522,-1924.535449,-10955.047942,612.876398
849.195846,-1036.288319,-9548.656652,229.828649
849.196170,296.082377,-8216.285956,229.828649
849.196494,222.061783,-9400.615463,689.485948
849.196818,-1258.350101,-10140.821405,459.657299
849.197142,-2368.659014,-10584.944971,536.266849
849.197466,-1924.535449,-10732.986159,766.095498
849.197790,-74.020594,-9252.574275,459.657299
849.198115,740.205942,-8882.471304,383.047749
849.198439,-518.144159,-9918.759623,842.705048
849.198763,-1850.514855,-11621.233289,919.314598
849.199087,-1258.350101,-11399.171507,-76.609550
849.199411,0.000000,-9400.615463,-306.438199
849.199735,888.247130,-8512.368333,76.609550
849.200059,518.144159,-9474.636058,0.000000
849.200383,0.000000,-11251.130318,76.609550
849.200707,-444.123565,-10955.047942,0.000000
849.201032,222.061783,-10140.821405,-536.266849
849.201356,1110.308913,-8660.409521,-1225.752797
849.201680,888.247130,-9178.553681,-1149.143247
849.202004,-370.102971,-10436.903782,0.000000
849.202328,-888.247130,-11177.109724,-459.657299
849.202652,0.000000,-10362.883188,-995.924147
849.202976,666.185348,-8660.409521,-766.095498
849.203300,1332.370696,-8734.430116,-229.828649
849.203625,1258.350101,-9992.780217,459.657299
849.203949,1184.329507,-10732.986159,306.438199
849.204273,888.247130,-10140.821405,766.095498
849.204597,1406.391290,-8808.450710,0.000000
849.204921,2146.597232,-8512.368333,-229.828649
849.205245,1110.308913,-9622.677246,306.438199
849.205569,-148.041188,-10584.944971,459.657299
849.205893,-370.102971,-10362.883188,0.000000
849.206218,740.205942,-8660.409521,-689.485948
849.206542,1998.556043,-7550.100608,-1149.143247
849.206866,1628.453072,-8586.388927,-919.314598
849.207190,0.000000,-9178.553681,-306.438199
849.207514,-296.082377,-9844.739029,-229.828649
849.207838,740.205942,-9474.636058,-229.828649
849.208162,1998.556043,-7772.162391,-689.485948
849.208486,1702.473667,-7772.162391,-306.438199
849.208811,222.061783,-9474.636058,0.000000
849.209135,-444.123565,-10584.944971,-536.266849
849.209459,-592.164754,-9474.636058,153.219100
849.209783,518.144159,-8364.327145,-842.705048
849.210107,444.123565,-8438.347739,-612.876398
849.210431,-518.144159,-9622.677246,-229.828649
849.210755,-1332.370696,-10732.986159,0.000000
849.211079,-1110.308913,-11029.068536,0.000000
849.211404,0.000000,-9622.677246,-766.095498
849.211728,1184.329507,-9474.636058,-612.876398
849.212052,-592.164754,-9326.594869,-383.047749
849.212376,-2220.617826,-11251.130318,-536.266849
849.212700,-3182.885551,-11917.315666,-1302.362347
849.213024,-2368.659014,-10807.006753,-1149.143247
849.213348,-888.247130,-9252.574275,-919.314598
849.213672,-444.123565,-9770.718434,-383.047749
849.213996,-1332.370696,-10955.047942,-536.266849
849.214321,-1480.411884,-11473.192101,0.000000
849.214645,-444.123565,-10584.944971,153.219100
849.214969,888.247130,-9622.677246,-153.219100
849.215293,1110.308913,-9400.615463,-306.438199
849.215617,-148.041188,-10436.903782,-306.438199
849.215941,-1850.514855,-11769.274478,-612.876398
849.216265,-1850.514855,-11621.233289,-766.095498
849.216589,-296.082377,-10066.800811,-995.924147
849.216914,444.123565,-8142.265362,-689.485948
849.217238,222.061783,-8734.430116,-536.266849
849.217562,-666.185348,-10066.800811,153.219100
849.217886,-814.226536,-10584.944971,0.000000
849.218210,370.102971,-9474.636058,0.000000
849.218534,1184.329507,-7920.203579,76.609550
849.218858,888.247130,-8290.306550,459.657299
849.219182,-222.061783,-9770.718434,766.095498
849.219507,-1184.329507,-10510.924376,689.485948
849.219831,222.061783,-9918.759623,1072.533697
849.220155,1110.308913,-8586.388927,383.047749
849.220479,1702.473667,-8142.265362,306.438199
849.220803,666.185348,-9252.574275,383.047749
849.221127,0.000000,-9918.759623,612.876398
849.221451,740.205942,-9844.739029,0.000000
849.221775,2368.659014,-8068.244768,383.047749
849.222100,3108.864956,-7476.080014,229.828649
849.222424,2072.576638,-8142.265362,689.485948
849.222748,444.123565,-9770.718434,766.095498
849.223072,-962.267725,-9844.739029,-153.219100
849.223396,-148.041188,-9178.553681,-766.095498
849.223720,592.164754,-7994.224174,-383.047749
849.224044,666.185348,-8660.409521,306.438199
849.224368,-222.061783,-9918.759623,919.314598
849.224693,-296.082377,-10807.006753,229.828649
849.225017,0.000000,-9474.636058,0.000000
849.225341,1036.288319,-8364.327145,0.000000
849.225665,1258.350101,-8364.327145,459.657299
849.225989,74.020594,-10140.821405,1072.533697
849.226313,-1332.370696,-11769.274478,689.485948
849.226637,-1776.494261,-10955.047942,383.047749
849.226961,-666.185348,-9400.615463,0.000000
849.227286,0.000000,-9030.512492,-383.047749
849.227610,-740.205942,-9770.718434,-229.828649
849.227934,-1554.432478,-11473.192101,0.000000
849.228258,-1628.453072,-11621.233289,-306.438199
849.228582,-740.205942,-10362.883188,-766.095498
849.228906,74.020594,-9252.574275,-919.314598
849.229230,0.000000,-9770.718434,-689.485948
849.229554,-1110.308913,-11251.130318,0.000000
849.229878,-1776.494261,-11621.233289,-536.266849
849.230203,-2146.597232,-10510.924376,-536.266849
849.230527,-592.164754,-9030.512492,-766.095498
849.230851,0.000000,-8956.491898,-383.047749
849.231175,-370.102971,-10510.924376,0.000000
849.231499,-740.205942,-11547.212695,229.828649
849.231823,-370.102971,-11177.109724,306.438199
849.232147,148.041188,-9104.533087,-153.219100
849.232471,1110.308913,-8438.347739,-229.828649
849.232796,518.144159,-8956.491898,-153.219100
849.233120,-1184.329507,-10658.965565,-229.828649
849.233444,-1628.453072,-10658.965565,-383.047749
849.233768,-592.164754,-9178.553681,-766.095498
849.234092,-148.041188,-7920.203579,-766.095498
849.234416,-222.061783,-8882.471304,-459.657299
849.234740,-962.267725,-9770.718434,0.000000
849.235064,-1406.391290,-10436.903782,153.219100
849.235389,-444.123565,-9548.656652,-153.219100
849.235713,1480.411884,-8512.368333,0.000000
849.236037,2146.597232,-8734.430116,0.000000
849.236361,1184.329507,-9770.718434,842.705048
849.236685,0.000000,-10584.944971,842.705048
849.237009,0.000000,-10214.842000,-229.828649
849.237333,888.247130,-8808.450710,-153.219100
849.237657,1776.494261,-8142.265362,-306.438199
849.237982,1258.350101,-9030.512492,0.000000
849.238306,0.000000,-9844.739029,0.000000
849.238630,-222.061783,-9696.697840,0.000000
849.238954,592.164754,-8290.306550,-536.266849
849.239278,1628.453072,-7550.100608,-306.438199
849.239602,444.123565,-7920.203579,459.657299
849.239926,0.000000,-9844.739029,536.266849
849.240250,-740.205942,-10510.924376,76.609550
849.240575,0.000000,-9622.677246,229.828649
849.240899,518.144159,-8216.285956,-153.219100
849.241223,518.144159,-8586.388927,0.000000
849.241547,0.000000,-10288.862594,536.266849
849.241871,-296.082377,-10955.047942,612.876398
849.242195,740.205942,-10732.986159,383.047749
849.242519,1702.473667,-9548.656652,-766.095498
849.242843,2368.659014,-9104.533087,-536.266849
849.243167,1628.453072,-10436.903782,0.000000
849.243492,0.000000,-11769.274478,0.000000
849.243816,-518.144159,-11843.295072,-306.438199
849.244140,-666.185348,-10214.842000,-689.485948
849.244464,0.000000,-9400.615463,-766.095498
849.244788,-296.082377,-9770.718434,-306.438199
849.245112,-1258.350101,-10955.047942,153.219100
849.245436,-1406.391290,-11325.150913,0.000000
849.245760,-666.185348,-9992.780217,0.000000
849.246085,370.102971,-8956.491898,-306.438199
849.246409,222.061783,-8734.430116,383.047749
849.246733,-1110.308913,-10288.862594,1149.143247
849.247057,-2072.576638,-11769.274478,536.266849
849.247381,-1628.453072,-10436.903782,-306.438199
849.247705,-814.226536,-8586.388927,-459.657299
849.248029,-518.144159,-8142.265362,-306.438199
849.248353,-962.267725,-9918.759623,0.000000
849.248678,-1924.535449,-10955.047942,-536.266849
849.249002,-1258.350101,-10140.821405,-459.657299
849.249326,0.000000,-8142.265362,-1378.971896
849.249650,1850.514855,-7920.203579,-306.438199
849.249974,1332.370696,-8808.450710,0.000000
849.250298,-296.082377,-10362.883188,229.828649
849.250622,-1628.453072,-10584.944971,0.000000
849.250946,-1036.288319,-9400.615463,-1072.533697
849.251271,222.061783,-8290.306550,-689.485948
849.251595,740.205942,-8586.388927,-459.657299
849.251919,222.061783,-9918.759623,-689.485948
849.252243,-296.082377,-10658.965565,0.000000
849.252567,-296.082377,-9474.636058,-76.609550
849.252891,1036.288319,-8216.285956,-383.047749
849.253215,1332.370696,-7994.224174,0.000000
849.253539,518.144159,-9252.574275,76.609550
849.253864,-592.164754,-9844.739029,306.438199
849.254188,-740.205942,-10214.842000,0.000000
849.254512,0.000000,-8734.430116,-1072.533697
849.254836,888.247130,-8512.368333,-995.924147
849.255160,740.205942,-9844.739029,-383.047749
849.255484,-444.123565,-10881.027347,-229.828649
849.255808,-592.164754,-10658.965565,-383.047749
849.256132,740.205942,-9400.615463,-383.047749
849.256456,2442.679609,-8586.388927,-689.485948
849.256781,2220.617826,-9548.656652,0.000000
849.257105,518.144159,-10881.027347,-153.219100
849.257429,-592.164754,-11621.233289,-229.828649
849.257753,-148.041188,-10807.006753,-919.314598
849.258077,888.247130,-9252.574275,-919.314598
849.258401,1554.432478,-9252.574275,-229.828649
849.258725,1110.308913,-10214.842000,76.609550
849.259049,148.041188,-11251.130318,-153.219100
849.259374,0.000000,-10214.842000,-153.219100
849.259698,740.205942,-9326.594869,-919.314598
849.260022,1406.391290,-8734.430116,-612.876398
849.260346,370.102971,-9178.553681,-306.438199
849.260670,-1184.329507,-10732.986159,0.000000
849.260994,-2146.597232,-11103.089130,-153.219100
849.261318,-1036.288319,-9992.780217,153.219100
849.261642,-148.041188,-8512.368333,-229.828649
849.261967,0.000000,-8956.491898,383.047749
849.262291,-1110.308913,-10732.986159,766.095498
849.262615,-1776.494261,-11547.212695,842.705048
849.262939,-814.226536,-10362.883188,459.657299
849.263263,370.102971,-8068.244768,306.438199
849.263587,1628.453072,-7772.162391,0.000000
849.263911,222.061783,-9474.636058,919.314598
849.264235,-1480.411884,-10807.006753,766.095498
849.264560,-1924.535449,-10140.821405,-383.047749
849.264884,-1110.308913,-8364.327145,-766.095498
849.265208,-444.123565,-7550.100608,-842.705048
849.265532,-1184.329507,-8882.471304,-306.438199
849.265856,-1924.535449,-10214.842000,229.828649
849.266180,-1924.535449,-9844.739029,76.609550
849.266504,-740.205942,-8734.430116,306.438199
849.266828,0.000000,-7698.141797,-229.828649
849.267153,222.061783,-8438.347739,689.485948
849.267477,-666.185348,-10066.800811,1225.752797
849.267801,-1554.432478,-11103.089130,919.314598
849.268125,-1332.370696,-10066.800811,1225.752797
849.268449,370.102971,-8586.388927,383.047749
849.268773,1258.350101,-8882.471304,459.657299
849.269097,962.267725,-10214.842000,919.314598
849.269421,370.102971,-11399.171507,1225.752797
849.269745,370.102971,-10881.027347,612.876398
849.270070,1184.329507,-9104.533087,76.609550
849.270394,1628.453072,-7402.059420,-612.876398
849.270718,518.144159,-8882.471304,0.000000
849.271042,-962.267725,-10732.986159,-153.219100
849.271366,-1332.370696,-10955.047942,-766.095498
849.271690,-740.205942,-9252.574275,-1149.143247
849.272014,444.123565,-8216.285956,-919.314598
849.272338,740.205942,-9326.594869,-153.219100
849.272662,0.000000,-10732.986159,383.047749
849.272987,0.000000,-10881.027347,1072.533697
849.273311,740.205942,-9770.718434,766.095498
849.273635,2664.741391,-9104.533087,1378.971896
849.273959,3108.864956,-8660.409521,995.924147
849.274283,2220.617826,-9992.780217,1762.019645
849.274607,592.164754,-11473.192101,1378.971896
849.274931,0.000000,-10658.965565,0.000000
849.275255,0.000000,-8142.265362,-689.485948
849.275579,0.000000,-7179.997637,-995.924147
849.275904,-666.185348,-9030.512492,-766.095498
849.276228,-1628.453072,-10436.903782,-766.095498
849.276552,-1258.350101,-10214.842000,-536.266849
849.276876,0.000000,-8734.430116,-1455.581446
849.277200,1332.370696,-7624.121203,-1072.533697
849.277524,1406.391290,-8808.450710,-536.266849
849.277848,518.144159,-10436.903782,0.000000
849.278172,148.041188,-11399.171507,0.000000
849.278496,222.061783,-10140.821405,-459.657299
849.278821,962.267725,-9030.512492,0.000000
849.279145,1628.453072,-9474.636058,153.219100
849.279469,1258.350101,-11177.109724,766.095498
849.279793,296.082377,-11917.315666,459.657299
849.280117,518.144159,-11251.130318,-153.219100
849.280441,1258.350101,-9474.636058,-1302.362347
849.280765,1036.288319,-8660.409521,-1072.533697
849.281089,-444.123565,-9474.636058,-995.924147
849.281413,-2220.617826,-10732.986159,-1302.362347
849.281738,-3108.864956,-11029.068536,-1532.190996
849.282062,-2738.761985,-9104.533087,-1991.848295
849.282386,-1628.453072,-8142.265362,-1915.238745
849.282710,-1258.350101,-9178.553681,-919.314598
849.283034,-1776.494261,-10881.027347,-306.438199
849.283358,-1554.432478,-11769.274478,0.000000
849.283682,-1110.308913,-9844.739029,229.828649
849.284006,444.123565,-8882.471304,-306.438199
849.284330,444.123565,-9252.574275,-229.828649
849.284655,-296.082377,-10436.903782,229.828649
849.284979,-1480.411884,-11399.171507,-153.219100
849.285303,-1184.329507,-10807.006753,-1225.752797
849.285627,0.000000,-9178.553681,-612.876398
849.285951,740.205942,-8586.388927,-919.314598
849.286275,222.061783,-9474.636058,-536.266849
849.286599,-1036.288319,-10584.944971,-459.657299
849.286923,-1480.411884,-10288.862594,-536.266849
849.287247,-592.164754,-9030.512492,-842.705048
849.287571,962.267725,-7994.224174,-766.095498
849.287896,592.164754,-7994.224174,383.047749
849.288220,-296.082377,-9844.739029,842.705048
849.288544,-666.185348,-10436.903782,612.876398
849.288868,-296.082377,-9622.677246,536.266849
849.289192,888.247130,-8290.306550,383.047749
849.289516,1480.411884,-8290.306550,766.095498
849.289840,666.185348,-9770.718434,919.314598
849.290164,-148.041188,-10658.965565,1532.190996
849.290488,592.164754,-9844.739029,1225.752797
849.290813,2294.638420,-8364.327145,536.266849
849.291137,3552.988522,-8290.306550,459.657299
849.291461,1998.556043,-9770.718434,612.876398
849.291785,-444.123565,-10658.965565,229.828649
849.292109,-1406.391290,-10214.842000,-536.266849
849.292433,-296.082377,-8808.450710,-766.095498
849.292757,1036.288319,-7846.182985,-153.219100
849.293081,962.267725,-8512.368333,153.219100
849.293405,296.082377,-10214.842000,995.924147
849.293730,0.000000,-10658.965565,612.876398
849.294054,740.205942,-9992.780217,383.047749
849.294378,1406.391290,-9030.512492,689.485948
849.294702,1184.329507,-9326.594869,766.095498
849.295026,296.082377,-10807.006753,1149.143247
849.295350,-666.185348,-10658.965565,1378.971896
849.295674,-814.226536,-10066.800811,689.485948
849.295998,74.020594,-9252.574275,0.000000
849.296322,0.000000,-8956.491898,0.000000
849.296647,-1036.288319,-9918.759623,0.000000
849.296971,-2146.597232,-10955.047942,0.000000
849.297295,-2220.617826,-10214.842000,0.000000
849.297619,-962.267725,-8882.471304,-229.828649
849.297943,0.000000,-8142.265362,-459.657299
849.298267,-666.185348,-9252.574275,-536.266849
849.298591,-2146.597232,-10584.944971,0.000000
849.298915,-2590.720797,-10955.047942,-612.876398
849.299239,-1702.473667,-9622.677246,-995.924147
849.299564,0.000000,-8290.306550,-766.095498
849.299888,0.000000,-8956.491898,-306.438199
849.300212,-740.205942,-10214.842000,153.219100
849.300536,-1258.350101,-11029.068536,306.438199
849.300860,-740.205942,-10362.883188,-306.438199
849.301184,666.185348,-8512.368333,-689.485948
849.301508,1702.473667,-8216.285956,306.438199
849.301832,814.226536,-9770.718434,536.266849
849.302156,-814.226536,-10807.006753,229.828649
849.302481,-1702.473667,-9992.780217,-536.266849
849.302805,-1036.288319,-8512.368333,-1302.362347
849.303129,222.061783,-8142.265362,-1378.971896
849.303453,148.041188,-9030.512492,-536.266849
849.303777,-518.144159,-10732.986159,-383.047749
849.304101,-1110.308913,-10807.006753,-842.705048
849.304425,74.020594,-9252.574275,-612.876398
849.304749,1702.473667,-8660.409521,-612.876398
849.305073,1998.556043,-9474.636058,0.000000
849.305398,1036.288319,-10658.965565,919.314598
849.305722,148.041188,-11177.109724,612.876398
849.306046,296.082377,-9696.697840,306.438199
849.306370,1406.391290,-8068.244768,0.000000
849.306694,2072.576638,-8956.491898,0.000000
849.307018,1258.350101,-9992.780217,0.000000
849.307342,296.082377,-10658.965565,306.438199
849.307666,518.144159,-9992.780217,0.000000
849.307990,1776.494261,-9178.553681,-1149.143247
849.308314,2294.638420,-7994.224174,-459.657299
849.308639,962.267725,-8956.491898,-229.828649
849.308963,-296.082377,-11177.109724,-153.219100
849.309287,-814.226536,-11251.130318,-306.438199
849.309611,0.000000,-9992.780217,0.000000
849.309935,1406.391290,-8734.430116,-459.657299
849.310259,1184.329507,-8882.471304,-153.219100
849.310583,222.061783,-10510.924376,612.876398
849.310907,-592.164754,-11103.089130,536.266849
849.311231,0.000000,-9992.780217,153.219100
849.311556,1332.370696,-8216.285956,0.000000
849.311880,1702.473667,-8142.265362,-153.219100
849.312204,222.061783,-9696.697840,0.000000
849.312528,-1628.453072,-10658.965565,76.609550
849.312852,-2220.617826,-9918.759623,-842.705048
849.313176,-1184.329507,-8438.347739,-1532.190996
849.313500,-592.164754,-8142.265362,-1149.143247
849.313824,-444.123565,-9770.718434,-919.314598
849.314148,-740.205942,-11103.089130,-229.828649
849.314473,-666.185348,-10955.047942,-229.828649
849.314797,518.144159,-10066.800811,-459.657299
849.315121,1184.329507,-9104.533087,-612.876398
849.315445,148.041188,-9474.636058,-229.828649
849.315769,-1184.329507,-11103.089130,229.828649
849.316093,-1776.494261,-11695.253884,-229.828649
849.316417,-1554.432478,-10732.986159,-306.438199
849.316741,-370.102971,-9474.636058,-612.876398
849.317065,-370.102971,-9474.636058,-229.828649
849.317390,-1480.411884,-10362.883188,0.000000
849.317714,-1924.535449,-11103.089130,766.095498
849.318038,-1628.453072,-10140.821405,-689.485948
849.318362,-592.164754,-8216.285956,76.609550
849.318686,666.185348,-7846.182985,-306.438199
849.319010,222.061783,-9474.636058,0.000000
849.319334,-1110.308913,-10881.027347,229.828649
849.319658,-1480.411884,-10584.944971,-306.438199
849.319982,0.000000,-8290.306550,-689.485948
849.320307,1258.350101,-7698.141797,-612.876398
849.320631,1554.432478,-8882.471304,842.705048
849.320955,296.082377,-10510.924376,842.705048
849.321279,-444.123565,-10510.924376,383.047749
849.321603,0.000000,-9474.636058,-306.438199
849.321927,962.267725,-8216.285956,-153.219100
849.322251,1480.411884,-8290.306550,536.266849
849.322575,1036.288319,-9400.615463,459.657299
849.322899,-444.123565,-10066.800811,153.219100
849.323224,-592.164754,-9696.697840,229.828649
849.323548,74.020594,-8956.491898,-612.876398
849.323872,814.226536,-8956.491898,0.000000
849.324196,148.041188,-9696.697840,306.438199
849.324520,-1110.308913,-10510.924376,612.876398
849.324844,-1184.329507,-10066.800811,459.657299
849.325168,0.000000,-9178.553681,-842.705048
849.325492,1332.370696,-8660.409521,0.000000
849.325816,1184.329507,-8808.450710,76.609550
849.326140,-148.041188,-10732.986159,536.266849
849.326465,-962.267725,-11177.109724,0.000000
849.326789,-222.061783,-9622.677246,-306.438199
849.327113,814.226536,-8512.368333,-229.828649
849.327437,1332.370696,-8808.450710,0.000000
849.327761,518.144159,-9696.697840,459.657299
849.328085,74.020594,-11103.089130,-306.438199
849.328409,444.123565,-10584.944971,-229.828649
849.328733,1776.494261,-9178.553681,-459.657299
849.329057,2220.617826,-8808.450710,-229.828649
849.329382,814.226536,-9844.739029,-459.657299
849.329706,-592.164754,-11251.130318,76.609550
849.330030,-1258.350101,-11325.150913,-383.047749
849.330354,-444.123565,-9844.739029,-383.047749
849.330678,0.000000,-8512.368333,-1072.533697
849.331002,-222.061783,-9622.677246,-229.828649
849.331326,-888.247130,-11251.130318,306.438199
849.331650,-1628.453072,-11399.171507,153.219100
849.331974,-444.123565,-9918.759623,383.047749
849.332299,1110.308913,-8512.368333,-842.705048
849.332623,1036.288319,-8734.430116,0.000000
849.332947,-666.185348,-10214.842000,459.657299
849.333271,-1998.556043,-10955.047942,-383.047749
849.333595,-1998.556043,-9992.780217,-383.047749
849.333919,-518.144159,-8586.388927,-612.876398
849.334243,222.061783,-8216.285956,-536.266849
849.334567,-296.082377,-9252.574275,459.657299
849.334891,-1628.453072,-9992.780217,0.000000
849.335216,-1554.432478,-9992.780217,-229.828649
849.335540,-592.164754,-8512.368333,383.047749
849.335864,740.205942,-7772.162391,0.000000
849.336188,962.267725,-8586.388927,383.047749
849.336512,-148.041188,-9844.739029,766.095498
849.336836,-962.267725,-10436.903782,842.705048
849.337160,-1036.288319,-9770.718434,0.000000
849.337484,222.061783,-8364.327145,-612.876398
849.337808,148.041188,-8068.244768,-459.657299
849.338133,-740.205942,-9696.697840,0.000000
849.338457,-1332.370696,-10881.027347,306.438199
849.338781,-740.205942,-10584.944971,76.609550
849.339105,518.144159,-8882.471304,-153.219100
849.339429,1406.391290,-8068.244768,0.000000
849.339753,296.082377,-9474.636058,0.000000
849.340077,-1036.288319,-11103.089130,229.828649
849.340401,-1480.411884,-11917.315666,0.000000
849.340725,-370.102971,-9992.780217,153.219100
849.341050,888.247130,-8882.471304,0.000000
849.341374,1110.308913,-9474.636058,612.876398
849.341698,444.123565,-10584.944971,689.485948
849.342022,0.000000,-10732.986159,766.095498
849.342346,1184.329507,-9918.759623,842.705048
849.342670,2294.638420,-8586.388927,0.000000
849.342994,2220.617826,-8216.285956,-153.219100
849.343318,518.144159,-9622.677246,153.219100
849.343642,-666.185348,-10955.047942,0.000000
849.343967,-444.123565,-10436.903782,-306.438199
849.344291,1036.288319,-8586.388927,-995.924147
849.344615,1110.308913,-8512.368333,-153.219100
849.344939,444.123565,-9474.636058,0.000000
849.345263,-370.102971,-10658.965565,0.000000
849.345587,-592.164754,-10510.924376,536.266849
849.345911,592.164754,-9474.636058,0.000000
849.346235,1702.473667,-8586.388927,-229.828649
849.346559,1036.288319,-9474.636058,689.485948
849.346883,-740.205942,-10584.944971,536.266849
849.347208,-1036.288319,-11547.212695,383.047749
849.347532,-148.041188,-10436.903782,-229.828649
849.347856,444.123565,-8512.368333,-459.657299
849.348180,0.000000,-8438.347739,-689.485948
849.348504,-888.247130,-10214.842000,-536.266849
849.348828,-1184.329507,-11399.171507,229.828649
849.349152,0.000000,-10214.842000,153.219100
849.349476,1184.329507,-8660.409521,-459.657299
849.349800,592.164754,-7624.121203,0.000000
849.350125,-666.185348,-9400.615463,0.000000
849.350449,-1480.411884,-10732.986159,0.000000
849.350773,-1406.391290,-10436.903782,-153.219100
849.351097,-370.102971,-8956.491898,-383.047749
849.351421,296.082377,-7994.224174,-766.095498
849.351745,-296.082377,-8808.450710,0.000000
849.352069,-1406.391290,-10658.965565,0.000000
849.352393,-1332.370696,-10658.965565,0.000000
849.352717,74.020594,-9992.780217,0.000000
849.353042,888.247130,-8956.491898,0.000000
849.353366,518.144159,-9178.553681,0.000000
849.353690,-1406.391290,-10584.944971,153.219100
849.354014,-2294.638420,-11621.233289,-306.438199
849.354338,-1480.411884,-10658.965565,-306.438199
849.354662,-148.041188,-9400.615463,-306.438199
849.354986,444.123565,-8882.471304,0.000000
849.355310,-148.041188,-9992.780217,229.828649
849.355634,-1332.370696,-10510.924376,0.000000
849.355959,-888.247130,-10584.944971,-153.219100
849.356283,296.082377,-9400.615463,-383.047749
849.356607,1776.494261,-9030.512492,0.000000
849.356931,740.205942,-9178.553681,229.828649
849.357255,0.000000,-10066.800811,153.219100
849.357579,-666.185348,-10510.924376,0.000000
849.357903,148.041188,-9770.718434,-459.657299
849.358227,1480.411884,-8586.388927,-612.876398
849.358551,1406.391290,-8290.306550,0.000000
849.358876,148.041188,-9326.594869,459.657299
849.359200,-148.041188,-10658.965565,229.828649
849.359524,518.144159,-9474.636058,-153.219100
849.359848,1702.473667,-7994.224174,-536.266849
849.360172,2220.617826,-8068.244768,76.609550
849.360496,814.226536,-9622.677246,229.828649
849.360820,-962.267725,-10881.027347,0.000000
849.361144,-1554.432478,-10066.800811,0.000000
849.361468,-592.164754,-8882.471304,-383.047749
849.361793,666.185348,-8512.368333,-229.828649
849.362117,518.144159,-9622.677246,383.047749
849.362441,-444.123565,-10584.944971,842.705048
849.362765,74.020594,-10436.903782,689.485948
849.363089,1258.350101,-9622.677246,153.219100
849.363413,1258.350101,-8660.409521,153.219100
849.363737,518.144159,-8660.409521,383.047749
849.364061,-296.082377,-9992.780217,689.485948
849.364385,-962.267725,-10658.965565,536.266849
849.364709,-296.082377,-10214.842000,-153.219100
849.365034,592.164754,-8808.450710,-536.266849
849.365358,444.123565,-8512.368333,-153.219100
849.365682,-444.123565,-9918.759623,0.000000
849.366006,-1406.391290,-10807.006753,0.000000
849.366330,-592.164754,-10140.821405,229.828649
849.366654,444.123565,-9326.594869,306.438199
849.366978,1258.350101,-8512.368333,0.000000
849.367302,592.164754,-9770.718434,612.876398
849.367626,-1258.350101,-10955.047942,536.266849
849.367951,-2516.700203,-10881.027347,0.000000
849.368275,-1998.556043,-9844.739029,0.000000
849.368599,-740.205942,-8882.471304,-612.876398
849.368923,-888.247130,-9030.512492,0.000000
849.369247,-1628.453072,-10510.924376,-383.047749
849.369571,-1776.494261,-10955.047942,-383.047749
849.369895,-962.267725,-10066.800811,-612.876398
849.370219,74.020594,-8660.409521,-689.485948
849.370543,74.020594,-8734.430116,-153.219100
849.370868,-1110.308913,-10288.862594,0.000000
849.371192,-1924.535449,-10955.047942,-153.219100
849.371516,-1332.370696,-10584.944971,-306.438199
849.371840,-370.102971,-9030.512492,-153.219100
849.372164,740.205942,-8660.409521,-536.266849
849.372488,814.226536,-9326.594869,0.000000
849.372812,0.000000,-10955.047942,229.828649
849.373136,0.000000,-10732.986159,306.438199
849.373460,814.226536,-9474.636058,0.000000
849.373784,1406.391290,-8438.347739,153.219100
849.374108,1184.329507,-8734.430116,0.000000
849.374432,592.164754,-9696.697840,-306.438199
849.374756,-222.061783,-10584.944971,0.000000
849.375080,592.164754,-9696.697840,-689.485948
849.375404,1554.432478,-8364.327145,-459.657299
849.375728,1628.453072,-8364.327145,0.000000
849.376053,1110.308913,-9844.739029,0.000000
849.376377,148.041188,-11029.068536,76.609550
849.376701,740.205942,-10214.842000,536.266849
849.377025,1776.494261,-9474.636058,229.828649
849.377349,2072.576638,-8882.471304,306.438199
849.377673,1036.288319,-9844.739029,536.266849
849.377997,-296.082377,-10658.965565,612.876398
849.378321,-740.205942,-10732.986159,153.219100
849.378645,222.061783,-9844.739029,229.828649
849.378969,370.102971,-8512.368333,-842.705048
849.379293,0.000000,-8882.471304,-459.657299
849.379617,-444.123565,-10362.883188,459.657299
849.379941,-222.061783,-10955.047942,153.219100
849.380265,666.185348,-9474.636058,0.000000
849.380589,1480.411884,-7846.182985,0.000000
849.380913,2294.638420,-8364.327145,459.657299
849.381237,962.267725,-9622.677246,612.876398
849.381561,-444.123565,-10732.986159,766.095498
849.381885,-962.267725,-9770.718434,76.609550
849.382209,-592.164754,-8364.327145,-306.438199
849.382533,148.041188,-7476.080014,-612.876398
849.382857,-296.082377,-8512.368333,0.000000
849.383181,-1480.411884,-10288.862594,536.266849
849.383505,-1776.494261,-10288.862594,383.047749
849.383829,-666.185348,-9400.615463,383.047749
849.384153,-518.144159,-8216.285956,-229.828649
849.384477,-740.205942,-9104.533087,-153.219100
849.384801,-2294.638420,-10732.986159,76.609550
849.385125,-2738.761985,-11399.171507,-229.828649
849.385449,-1850.514855,-10362.883188,76.609550
849.385773,-148.041188,-9030.512492,-689.485948
849.386097,0.000000,-9622.677246,-689.485948
849.386421,-1406.391290,-11177.109724,-306.438199
849.386745,-2072.576638,-11769.274478,-766.095498
849.387069,-888.247130,-11399.171507,-1149.143247
849.387393,962.267725,-9474.636058,-919.314598
849.387717,1702.473667,-9474.636058,-536.266849
849.388041,814.226536,-10510.924376,-153.219100
849.388366,-518.144159,-11843.295072,0.000000
849.388690,-962.267725,-11547.212695,-459.657299
849.389014,-148.041188,-9178.553681,-766.095498
849.389338,592.164754,-7994.224174,-612.876398
849.389662,1332.370696,-9474.636058,229.828649
849.389986,74.020594,-10658.965565,-153.219100
849.390310,-296.082377,-10584.944971,0.000000
849.390634,518.144159,-9770.718434,0.000000
849.390958,1924.535449,-8512.368333,-459.657299
849.391282,1850.514855,-8068.244768,306.438199
849.391606,592.164754,-9474.636058,536.266849
849.391930,-666.185348,-10732.986159,0.000000
849.392254,-518.144159,-10214.842000,229.828649
849.392578,370.102971,-8808.450710,-306.438199
849.392902,1332.370696,-8512.368333,0.000000
849.393226,814.226536,-9622.677246,76.609550
849.393550,0.000000,-10140.821405,306.438199
849.393874,-296.082377,-9548.656652,229.828649
849.394198,222.061783,-8882.471304,0.000000
849.394522,1332.370696,-8216.285956,0.000000
849.394846,888.247130,-8512.368333,76.609550
849.395170,-296.082377,-10510.924376,536.266849
849.395494,-1184.329507,-10658.965565,0.000000
849.395818,-148.041188,-9326.594869,76.609550
849.396142,1184.329507,-7846.182985,0.000000
849.396466,1258.350101,-8512.368333,153.219100
849.396790,-370.102971,-9918.759623,0.000000
849.397114,-1036.288319,-10436.903782,383.047749
849.397438,-296.082377,-9770.718434,0.000000
849.397762,740.205942,-8438.347739,-153.219100
849.398086,1258.350101,-8142.265362,0.000000
849.398410,296.082377,-9178.553681,842.705048
849.398734,-1036.288319,-10881.027347,76.609550
849.399058,-1184.329507,-11029.068536,229.828649
849.399382,-370.102971,-9474.636058,0.000000
849.399706,148.041188,-9178.553681,-459.657299
849.400030,0.000000,-10214.842000,0.000000
849.400355,-888.247130,-11325.150913,153.219100
849.400679,-1406.391290,-11251.130318,-153.219100
849.401003,-444.123565,-10288.862594,-153.219100
849.401327,740.205942,-9178.553681,-842.705048
849.401651,592.164754,-9474.636058,0.000000
849.401975,-296.082377,-11103.089130,0.000000
849.402299,-1702.473667,-11917.315666,-689.485948
849.402623,-1850.514855,-10732.986159,-1225.752797
849.402947,-444.123565,-9178.553681,-995.924147
849.403271,444.123565,-9252.574275,-689.485948
849.403595,518.144159,-10955.047942,76.609550
849.403919,-888.247130,-11251.130318,0.000000
849.404243,-592.164754,-11029.068536,153.219100
849.404567,148.041188,-9474.636058,76.609550
849.404891,518.144159,-9178.553681,76.609550
849.405215,0.000000,-9474.636058,766.095498
849.405539,-962.267725,-10881.027347,1072.533697
849.405863,-1406.391290,-10436.903782,766.095498
849.406187,-592.164754,-9178.553681,153.219100
849.406511,518.144159,-8290.306550,0.000000
849.406835,222.061783,-8364.327145,306.438199
849.407159,-592.164754,-9474.636058,612.876398
849.407483,-1036.288319,-9622.677246,612.876398
849.407807,-296.082377,-8734.430116,383.047749
849.408131,962.267725,-7328.038826,153.219100
849.408455,1998.556043,-7994.224174,0.000000
849.408779,592.164754,-8512.368333,383.047749
849.409103,-666.185348,-9844.739029,766.095498
849.409427,-740.205942,-9400.615463,229.828649
849.409751,222.061783,-7994.224174,536.266849
849.410075,1036.288319,-7476.080014,536.266849
849.410399,962.267725,-8290.306550,689.485948
849.410723,-296.082377,-9992.780217,766.095498
849.411047,-592.164754,-10362.883188,383.047749
849.411371,148.041188,-8956.491898,842.705048
849.411695,814.226536,-8216.285956,1072.533697
849.412019,1258.350101,-8956.491898,536.266849
849.412344,-148.041188,-10214.842000,383.047749
849.412668,-1406.391290,-11103.089130,0.000000
849.412992,-666.185348,-10436.903782,76.609550
849.413316,888.247130,-9474.636058,-306.438199
849.413640,1776.494261,-9474.636058,0.000000
849.413964,518.144159,-9918.759623,0.000000
849.414288,-370.102971,-11103.089130,-306.438199
849.414612,0.000000,-10881.027347,-536.266849
849.414936,1702.473667,-9918.759623,-612.876398
849.415260,2220.617826,-9252.574275,-459.657299
849.415584,1258.350101,-9548.656652,0.000000
849.415908,-444.123565,-11177.109724,-1302.362347
849.416232,-592.164754,-11769.274478,-689.485948
849.416556,222.061783,-10510.924376,-689.485948
849.416880,666.185348,-9770.718434,-995.924147
849.417204,592.164754,-9770.718434,-536.266849
849.417528,0.000000,-11029.068536,-459.657299
849.417852,-444.123565,-11547.212695,0.000000
849.418176,74.020594,-10955.047942,-459.657299
849.418500,1110.308913,-9770.718434,0.000000
849.418824,666.185348,-8808.450710,153.219100
849.419148,-962.267725,-10066.800811,0.000000
849.419472,-2368.659014,-11325.150913,0.000000
849.419796,-1998.556043,-11029.068536,-459.657299
849.420120,-814.226536,-9252.574275,-1072.533697
849.420444,-370.102971,-7550.100608,-1225.752797
849.420768,-1480.411884,-8438.347739,-766.095498
849.421092,-2442.679609,-10140.821405,-383.047749
849.421416,-2368.659014,-9844.739029,-459.657299
849.421740,-1332.370696,-8660.409521,-459.657299
849.422064,0.000000,-7402.059420,-842.705048
849.422388,0.000000,-7846.182985,-383.047749
849.422712,-1036.288319,-9326.594869,0.000000
849.423036,-1776.494261,-10066.800811,0.000000
849.423360,-1480.411884,-9252.574275,0.000000
849.423684,222.061783,-8142.265362,-536.266849
849.424008,1036.288319,-7994.224174,-306.438199
849.424333,296.082377,-9622.677246,229.828649
849.424657,-296.082377,-10732.986159,0.000000
849.424981,0.000000,-10140.821405,-306.438199
849.425305,1036.288319,-8660.409521,-229.828649
849.425629,1924.535449,-7994.224174,0.000000
849.425953,1480.411884,-9252.574275,383.047749
849.426277,0.000000,-10436.903782,306.438199
849.426601,-222.061783,-10436.903782,229.828649
849.426925,888.247130,-9474.636058,-229.828649
849.427249,1480.411884,-8660.409521,-306.438199
849.427573,740.205942,-9104.533087,306.438199
849.427897,-74.020594,-10288.862594,153.219100
849.428221,-518.144159,-10288.862594,0.000000
849.428545,370.102971,-9770.718434,-383.047749
849.428869,2146.597232,-9104.533087,-536.266849
849.429193,2294.638420,-9030.512492,-612.876398
849.429517,888.247130,-10214.842000,0.000000
849.429841,-444.123565,-11473.192101,-153.219100
849.430165,-148.041188,-11103.089130,-612.876398
849.430489,444.123565,-9178.553681,-383.047749
849.430813,1850.514855,-9104.533087,229.828649
849.431137,1332.370696,-10362.883188,0.000000
849.431461,444.123565,-11695.253884,383.047749
849.431785,222.061783,-11473.192101,383.047749
849.432109,814.226536,-10362.883188,229.828649
849.432433,1258.350101,-9252.574275,153.219100
849.432757,444.123565,-9474.636058,536.266849
849.433081,-1036.288319,-10140.821405,306.438199
849.433405,-1924.535449,-10732.986159,306.438199
849.433729,-1332.370696,-9770.718434,-536.266849
849.434053,-518.144159,-8290.306550,-306.438199
849.434377,-592.164754,-7772.162391,0.000000
849.434701,-1702.473667,-9104.533087,229.828649
849.435025,-2368.659014,-9770.718434,536.266849
849.435349,-1258.350101,-9326.594869,0.000000
849.435673,0.000000,-8216.285956,229.828649
849.435997,1184.329507,-7698.141797,76.609550
849.436322,-148.041188,-9252.574275,536.266849
849.436646,-2146.597232,-10436.903782,766.095498
849.436970,-2368.659014,-10288.862594,229.828649
849.437294,-962.267725,-8956.491898,306.438199
849.437618,0.000000,-8438.347739,459.657299
849.437942,444.123565,-9326.594869,306.438199
849.438266,-592.164754,-10140.821405,536.266849
849.438590,-1184.329507,-10362.883188,383.047749
849.438914,-444.123565,-9474.636058,-229.828649
849.439238,740.205942,-8586.388927,-536.266849
849.439562,444.123565,-9030.512492,0.000000
849.439886,-740.205942,-9844.739029,306.438199
849.440210,-1924.535449,-10881.027347,76.609550
849.440534,-2294.638420,-10140.821405,-383.047749
849.440858,-1406.391290,-9178.553681,-306.438199
849.441182,-666.185348,-9326.594869,-612.876398
849.441506,-1036.288319,-9918.759623,0.000000
849.441830,-1702.473667,-10362.883188,-153.219100
849.442154,-1110.308913,-10288.862594,0.000000
849.442478,814.226536,-9474.636058,-459.657299
849.442802,2220.617826,-8438.347739,229.828649
849.443126,2442.679609,-9474.636058,306.438199
849.443450,1110.308913,-10584.944971,0.000000
849.443774,518.144159,-11029.068536,-689.485948
849.444098,888.247130,-10362.883188,-919.314598
849.444422,1776.494261,-9770.718434,-689.485948
849.444746,2146.597232,-9992.780217,0.000000
849.445070,1702.473667,-10658.965565,153.219100
849.445394,962.267725,-10584.944971,229.828649
849.445718,518.144159,-9770.718434,-536.266849
849.446042,1850.514855,-8660.409521,-383.047749
849.446366,1998.556043,-8808.450710,0.000000
849.446690,666.185348,-9770.718434,459.657299
849.447014,-1036.288319,-10140.821405,306.438199
849.447338,-1554.432478,-9918.759623,689.485948
849.447662,-518.144159,-8808.450710,-689.485948
849.447986,592.164754,-8586.388927,306.438199
849.448311,0.000000,-9178.553681,229.828649
849.448635,-1110.308913,-10436.903782,383.047749
849.448959,-1110.308913,-10436.903782,0.000000
849.449283,666.185348,-9622.677246,229.828649
849.449607,2368.659014,-8142.265362,153.219100
849.449931,2072.576638,-9178.553681,536.266849
849.450255,740.205942,-9918.759623,919.314598
849.450579,-370.102971,-10584.944971,0.000000
849.450903,0.000000,-9844.739029,-153.219100
849.451227,1258.350101,-8956.491898,-383.047749
849.451551,1036.288319,-9178.553681,0.000000
849.451875,0.000000,-9622.677246,153.219100
849.452199,-1036.288319,-9992.780217,0.000000
849.452523,-1036.288319,-9548.656652,-229.828649
849.452847,-222.061783,-8660.409521,-766.095498
849.453171,148.041188,-8364.327145,-689.485948
849.453495,-296.082377,-8586.388927,76.609550
849.453819,-1480.411884,-9918.759623,76.609550
849.454143,-2368.659014,-10807.006753,-306.438199
849.454467,-2146.597232,-9622.677246,-689.485948
849.454791,-1258.350101,-8364.327145,-919.314598
849.455115,-888.247130,-9474.636058,-689.485948
849.455439,-1702.473667,-10658.965565,-306.438199
849.455763,-2146.597232,-11547.212695,-459.657299
849.456087,-518.144159,-10955.047942,-306.438199
849.456411,666.185348,-9474.636058,-766.095498
849.456735,370.102971,-8956.491898,-766.095498
849.457059,-888.247130,-10584.944971,-995.924147
849.457383,-1924.535449,-11917.315666,-919.314598
849.457707,-1702.473667,-11473.192101,-1225.752797
849.458031,0.000000,-9548.656652,-995.924147
849.458355,1406.391290,-9030.512492,-766.095498
849.458679,962.267725,-10214.842000,-153.219100
849.459003,370.102971,-11029.068536,153.219100
849.459327,-444.123565,-10436.903782,383.047749
849.459651,592.164754,-9104.533087,0.000000
849.459975,1258.350101,-8216.285956,0.000000
849.460300,1258.350101,-8512.368333,612.876398
849.460624,74.020594,-9770.718434,536.266849
849.460948,-592.164754,-10288.862594,306.438199
849.461272,-296.082377,-9548.656652,306.438199
849.461596,592.164754,-8290.306550,229.828649
849.461920,1480.411884,-8660.409521,-153.219100
849.462244,740.205942,-8882.471304,995.924147
849.462568,296.082377,-10140.821405,1378.971896
849.462892,0.000000,-9696.697840,919.314598
849.463216,1258.350101,-9252.574275,306.438199
849.463540,2294.638420,-9104.533087,919.314598
849.463864,1406.391290,-9696.697840,919.314598
849.464188,-222.061783,-10436.903782,612.876398
849.464512,-1406.391290,-10066.800811,153.219100
849.464836,-1110.308913,-8956.491898,0.000000
849.465160,0.000000,-8290.306550,-459.657299
849.465484,592.164754,-8734.430116,0.000000
849.465808,-148.041188,-9622.677246,383.047749
849.466132,-962.267725,-9844.739029,0.000000
849.466456,-666.185348,-9252.574275,-383.047749
849.466780,518.144159,-8364.327145,-459.657299
849.467104,1110.308913,-8216.285956,76.609550
849.467428,148.041188,-9622.677246,76.609550
849.467752,-1184.329507,-10658.965565,0.000000
849.468076,-1184.329507,-10584.944971,-306.438199
849.468400,222.061783,-9844.739029,0.000000
849.468724,1036.288319,-9326.594869,0.000000
849.469048,0.000000,-9622.677246,0.000000
849.469372,-1628.453072,-10658.965565,-612.876398
849.469696,-1998.556043,-10288.862594,-306.438199
849.470020,-592.164754,-9992.780217,-612.876398
849.470344,592.164754,-9178.553681,-1072.533697
849.470668,222.061783,-9622.677246,-536.266849
849.470992,-1406.391290,-10807.006753,-612.876398
849.471316,-2368.659014,-11325.150913,-612.876398
849.471640,-1406.391290,-11029.068536,-1378.971896
849.471964,0.000000,-9844.739029,-1378.971896
849.472288,1036.288319,-10140.821405,0.000000
849.472613,592.164754,-11177.109724,-306.438199
849.472937,0.000000,-11769.274478,306.438199
849.473261,962.267725,-10584.944971,0.000000
849.473585,2072.576638,-9992.780217,0.000000
849.473909,2516.700203,-9474.636058,689.485948
849.474233,1258.350101,-9252.574275,-766.095498
849.474557,0.000000,-10732.986159,229.828649
849.474881,-1110.308913,-10510.924376,-383.047749
849.475205,-962.267725,-8956.491898,-229.828649
849.475530,0.000000,-8586.388927,-153.219100
849.475854,-296.082377,-9030.512492,-153.219100
849.476178,-1480.411884,-9992.780217,0.000000
849.476502,-1406.391290,-9548.656652,536.266849
849.476826,-962.267725,-8290.306550,76.609550
849.477150,148.041188,-7846.182985,995.924147
849.477475,888.247130,-7994.224174,459.657299
849.477799,148.041188,-9178.553681,1149.143247
849.478123,-592.164754,-9770.718434,1072.533697
849.478447,-222.061783,-8808.450710,383.047749
849.478771,592.164754,-7698.141797,0.000000
849.479095,1184.329507,-8068.244768,0.000000
849.479419,740.205942,-9622.677246,689.485948
849.479744,-592.164754,-10066.800811,995.924147
849.480068,-740.205942,-9326.594869,306.438199
849.480392,222.061783,-8438.347739,383.047749
849.480716,1554.432478,-8290.306550,536.266849
849.481040,1406.391290,-8660.409521,612.876398
849.481364,-444.123565,-9474.636058,1149.143247
849.481689,-1480.411884,-9770.718434,842.705048
849.482013,-740.205942,-9474.636058,0.000000
849.482337,518.144159,-8956.491898,0.000000
849.482661,296.082377,-8808.450710,229.828649
849.482985,-740.205942,-10288.862594,0.000000
849.483309,-1776.494261,-11473.192101,0.000000
849.483633,-666.185348,-10955.047942,-459.657299
849.483958,1110.308913,-9622.677246,0.000000
849.484282,1998.556043,-9474.636058,-383.047749
849.484606,962.267725,-9992.780217,-306.438199
849.484930,-296.082377,-11473.192101,-383.047749
849.485254,-962.267725,-11029.068536,-1225.752797
849.485578,0.000000,-10214.842000,-1302.362347
849.485903,888.247130,-9474.636058,-1149.143247
849.486227,888.247130,-10362.883188,-689.485948
849.486551,148.041188,-10955.047942,76.609550
849.486875,0.000000,-10955.047942,-153.219100
849.487199,518.144159,-10436.903782,-766.095498
849.487523,1184.329507,-9844.739029,-766.095498
849.487847,814.226536,-9844.739029,-459.657299
849.488172,-666.185348,-10732.986159,-919.314598
849.488496,-2072.576638,-10881.027347,-459.657299
849.488820,-1258.350101,-9918.759623,-459.657299
849.489144,0.000000,-9474.636058,-459.657299
849.489468,444.123565,-9548.656652,-229.828649
849.489792,-592.164754,-9918.759623,-536.266849
849.490116,-1776.494261,-10584.944971,0.000000
849.490441,-1184.329507,-10214.842000,-306.438199
849.490765,0.000000,-9474.636058,-229.828649
849.491089,1184.329507,-8586.388927,0.000000
849.491413,74.020594,-8734.430116,0.000000
849.491737,-1332.370696,-9622.677246,306.438199
849.492061,-1924.535449,-9548.656652,-153.219100
849.492386,-1184.329507,-8660.409521,-229.828649
849.492710,296.082377,-7846.182985,-229.828649
849.493034,740.205942,-7772.162391,0.000000
849.493358,-296.082377,-8438.347739,459.657299
849.493682,-740.205942,-8882.471304,0.000000
849.494006,444.123565,-8216.285956,-306.438199
849.494330,2294.638420,-7476.080014,-229.828649
849.494655,2220.617826,-7624.121203,0.000000
849.494979,962.267725,-8882.471304,153.219100
849.495303,-1110.308913,-10140.821405,229.828649
849.495627,-1406.391290,-9622.677246,0.000000
849.495951,-370.102971,-8808.450710,-306.438199
849.496275,666.185348,-8660.409521,0.000000
849.496600,222.061783,-9770.718434,229.828649
849.496924,-1036.288319,-10732.986159,76.609550
849.497248,-1406.391290,-11029.068536,0.000000
849.497572,-148.041188,-10732.986159,-306.438199
849.497896,1406.391290,-10066.800811,-76.609550
849.498220,2368.659014,-10140.821405,-229.828649
849.498544,1184.329507,-11177.109724,153.219100
849.498869,444.123565,-11991.336260,-536.266849
849.499193,74.020594,-11103.089130,-306.438199
849.499517,1406.391290,-10362.883188,-536.266849
849.499841,1480.411884,-10362.883188,-536.266849
849.500165,444.123565,-10955.047942,-459.657299
849.500489,-888.247130,-10881.027347,0.000000
849.500814,-518.144159,-10732.986159,0.000000
849.501138,370.102971,-9104.533087,0.000000
849.501462,1332.370696,-8660.409521,0.000000
849.501786,370.102971,-9252.574275,0.000000
849.502110,-962.267725,-10436.903782,153.219100
849.502434,-1110.308913,-10732.986159,76.609550
849.502758,-148.041188,-9844.739029,0.000000
849.503083,518.144159,-8882.471304,76.609550
849.503407,444.123565,-9178.553681,536.266849
849.503731,-888.247130,-9918.759623,76.609550
849.504055,-1184.329507,-10436.903782,306.438199
849.504379,0.000000,-10140.821405,383.047749
849.504703,1110.308913,-9030.512492,459.657299
849.505027,888.247130,-8586.388927,306.438199
849.505352,-962.267725,-9400.615463,459.657299
849.505676,-2368.659014,-9918.759623,612.876398
849.506000,-2664.741391,-9474.636058,0.000000
849.506324,-1702.473667,-8438.347739,-306.438199
849.506648,-1036.288319,-7846.182985,-153.219100
849.506972,-1332.370696,-8660.409521,306.438199
849.507297,-1998.556043,-9474.636058,306.438199
849.507621,-2294.638420,-9400.615463,383.047749
849.507945,-1332.370696,-8142.265362,536.266849
849.508269,0.000000,-7624.121203,76.609550
849.508593,592.164754,-7994.224174,459.657299
849.508917,-370.102971,-10066.800811,459.657299
849.509241,-1332.370696,-10214.842000,306.438199
849.509566,-962.267725,-9474.636058,76.609550
849.509890,592.164754,-8956.491898,0.000000
849.510214,1406.391290,-9178.553681,0.000000
849.510538,222.061783,-10140.821405,306.438199
849.510862,-962.267725,-10732.986159,153.219100
849.511186,-666.185348,-10288.862594,-536.266849
849.511511,740.205942,-9400.615463,-229.828649
849.511835,1850.514855,-9252.574275,0.000000
849.512159,1554.432478,-10066.800811,76.609550
849.512483,148.041188,-10807.006753,-153.219100
849.512807,-444.123565,-10436.903782,-383.047749
849.513131,0.000000,-10066.800811,-383.047749
849.513455,1110.308913,-9474.636058,-459.657299
849.513780,814.226536,-9918.759623,-153.219100
849.514104,444.123565,-10732.986159,153.219100
849.514428,0.000000,-10955.047942,0.000000
849.514752,740.205942,-10436.903782,0.000000
849.515076,2294.638420,-9326.594869,-306.438199
849.515400,2590.720797,-9474.636058,0.000000
849.515724,1036.288319,-10807.006753,153.219100
849.516049,-518.144159,-11029.068536,153.219100
849.516373,-518.144159,-10881.027347,229.828649
849.516697,962.267725,-9178.553681,-306.438199
849.517021,1480.411884,-9326.594869,0.000000
849.517345,814.226536,-10140.821405,0.000000
849.517669,-740.205942,-10732.986159,0.000000
849.517994,-1110.308913,-10288.862594,229.828649
849.518318,592.164754,-9548.656652,76.609550
849.518642,1554.432478,-8660.409521,0.000000
849.518966,962.267725,-9030.512492,229.828649
849.519290,-1184.329507,-10066.800811,229.828649
849.519614,-2146.597232,-10214.842000,0.000000
849.519938,-1776.494261,-9178.553681,-536.266849
849.520263,-518.144159,-7920.203579,-459.657299
849.520587,74.020594,-7476.080014,0.000000
849.520911,-592.164754,-8882.471304,689.485948
849.521235,-1702.473667,-9844.739029,153.219100
849.521559,-1332.370696,-9252.574275,-229.828649
849.521883,148.041188,-8438.347739,-153.219100
849.522208,666.185348,-7994.224174,0.000000
849.522532,-370.102971,-8734.430116,229.828649
849.522856,-1850.514855,-10066.800811,383.047749
849.523180,-1628.453072,-10436.903782,76.609550
849.523504,-296.082377,-8956.491898,76.609550
849.523828,444.123565,-8586.388927,0.000000
849.524152,296.082377,-8734.430116,76.609550
849.524477,-1036.288319,-9992.780217,-459.657299
849.524801,-1480.411884,-10510.924376,-459.657299
849.525125,-518.144159,-9992.780217,-536.266849
849.525449,666.185348,-9400.615463,-842.705048
849.525773,444.123565,-9030.512492,-306.438199
849.526097,-1110.308913,-10140.821405,0.000000
849.526422,-1924.535449,-11769.274478,-689.485948
849.526746,-1480.411884,-11325.150913,-1378.971896
849.527070,-444.123565,-9918.759623,-1149.143247
849.527394,740.205942,-9696.697840,-383.047749
849.527718,740.205942,-10214.842000,-306.438199
849.528042,-444.123565,-11029.068536,-459.657299
849.528366,-444.123565,-10732.986159,-459.657299
849.528691,592.164754,-10362.883188,-383.047749
849.529015,2294.638420,-10066.800811,-612.876398
849.529339,2072.576638,-10362.883188,-459.657299
849.529663,740.205942,-11399.171507,-153.219100
849.529987,0.000000,-11473.192101,-306.438199
849.530311,222.061783,-10584.944971,-995.924147
849.530635,518.144159,-9770.718434,-1149.143247
849.530960,518.144159,-9104.533087,-842.705048
849.531284,370.102971,-10066.800811,-612.876398
849.531608,0.000000,-10510.924376,-689.485948
849.531932,592.164754,-9622.677246,0.000000
849.532256,1554.432478,-8734.430116,0.000000
849.532580,1924.535449,-8586.388927,-229.828649
849.532905,962.267725,-8808.450710,0.000000
849.533229,-518.144159,-9696.697840,0.000000
849.533553,-962.267725,-9548.656652,-229.828649
849.533877,-444.123565,-8882.471304,0.000000
849.534201,370.102971,-8512.368333,306.438199
849.534525,74.020594,-8882.471304,536.266849
849.534849,-666.185348,-9622.677246,459.657299
849.535174,-370.102971,-9622.677246,536.266849
849.535498,814.226536,-9030.512492,612.876398
849.535822,1850.514855,-7846.182985,919.314598
849.536146,1110.308913,-8290.306550,459.657299
849.536470,-148.041188,-9252.574275,536.266849
849.536794,-1480.411884,-10066.800811,153.219100
849.537119,-1628.453072,-9400.615463,-153.219100
849.537443,-666.185348,-8586.388927,0.000000
849.537767,0.000000,-8512.368333,76.609550
849.538091,-962.267725,-9326.594869,0.000000
849.538415,-1850.514855,-10288.862594,-153.219100
849.538739,-1850.514855,-9992.780217,76.609550
849.539063,-222.061783,-9400.615463,76.609550
849.539388,1110.308913,-9252.574275,0.000000
849.539712,740.205942,-9622.677246,459.657299
849.540036,-740.205942,-10436.903782,459.657299
849.540360,-1406.391290,-11029.068536,0.000000
849.540684,-1628.453072,-10436.903782,-689.485948
849.541008,74.020594,-9474.636058,-459.657299
849.541333,0.000000,-10214.842000,-459.657299
849.541657,-888.247130,-11177.109724,76.609550
849.541981,-1628.453072,-11695.253884,0.000000
849.542305,-814.226536,-11251.130318,0.000000
849.542629,296.082377,-9622.677246,0.000000
849.542953,518.144159,-9622.677246,0.000000
849.543277,0.000000,-10955.047942,306.438199
849.543602,-1554.432478,-10955.047942,-153.219100
849.543926,-1924.535449,-10288.862594,0.000000
849.544250,-962.267725,-9252.574275,-306.438199
849.544574,0.000000,-9178.553681,-153.219100
849.544898,296.082377,-9696.697840,689.485948
849.545222,74.020594,-10362.883188,76.609550
849.545546,-370.102971,-10066.800811,612.876398
849.545871,444.123565,-9178.553681,0.000000
849.546195,1406.391290,-8068.244768,76.609550
849.546519,1998.556043,-8808.450710,536.266849
849.546843,740.205942,-9474.636058,612.876398
849.547167,-296.082377,-9918.759623,459.657299
849.547491,0.000000,-9030.512492,536.266849
849.547816,1258.350101,-8290.306550,536.266849
849.548140,1554.432478,-7624.121203,306.438199
849.548464,592.164754,-8734.430116,383.047749
849.548788,-740.205942,-9474.636058,689.485948
849.549112,0.000000,-9400.615463,919.314598
849.549436,1480.411884,-8808.450710,842.705048
849.549760,2220.617826,-7846.182985,919.314598
849.550085,1554.432478,-8142.265362,536.266849
849.550409,-296.082377,-9474.636058,0.000000
849.550733,-1406.391290,-9770.718434,-229.828649
849.551057,-666.185348,-8586.388927,-612.876398
849.551381,296.082377,-8512.368333,-842.705048
849.551705,1036.288319,-9400.615463,-536.266849
849.552030,518.144159,-9992.780217,-536.266849
849.552354,74.020594,-9770.718434,-153.219100
849.552678,518.144159,-9474.636058,-766.095498
849.553002,2294.638420,-9474.636058,-306.438199
849.553326,2368.659014,-9326.594869,-383.047749
849.553650,444.123565,-10066.800811,-383.047749
849.553974,-1554.432478,-10732.986159,-919.314598
849.554299,-1702.473667,-10658.965565,-1302.362347
849.554623,-740.205942,-10214.842000,-1532.190996
849.554947,74.020594,-9844.739029,-1455.581446
849.555271,0.000000,-10214.842000,-1072.533697
849.555595,-1258.350101,-10807.006753,-1302.362347
849.555919,-1184.329507,-11399.171507,-1149.143247
849.556244,74.020594,-10807.006753,-766.095498
849.556568,1036.288319,-10732.986159,-1149.143247
849.556892,0.000000,-10510.924376,-689.485948
849.557216,-1702.473667,-11251.130318,-766.095498
849.557540,-2072.576638,-11991.336260,-766.095498
849.557864,-1110.308913,-11029.068536,-766.095498
849.558188,740.205942,-9770.718434,-383.047749
849.558513,1406.391290,-9622.677246,306.438199
849.558837,-370.102971,-10436.903782,-766.095498
849.559161,-1480.411884,-10732.986159,-1225.752797
849.559485,-1406.391290,-9918.759623,-536.266849
849.559809,0.000000,-9030.512492,-459.657299
849.560133,1480.411884,-8808.450710,0.000000
849.560457,1184.329507,-9326.594869,76.609550
849.560782,-814.226536,-9474.636058,153.219100
849.561106,-962.267725,-9696.697840,-1072.533697
849.561430,-444.123565,-8364.327145,-459.657299
849.561754,814.226536,-7624.121203,153.219100
849.562078,814.226536,-8364.327145,383.047749
849.562402,-222.061783,-8956.491898,229.828649
849.562727,-740.205942,-9178.553681,536.266849
849.563051,0.000000,-8882.471304,0.000000
849.563375,1184.329507,-8438.347739,842.705048
849.563699,592.164754,-8068.244768,766.095498
849.564023,-370.102971,-8882.471304,612.876398
849.564347,-1998.556043,-9474.636058,383.047749
849.564671,-2072.576638,-9474.636058,0.000000
849.564996,-666.185348,-9104.533087,229.828649
849.565320,1036.288319,-8290.306550,459.657299
849.565644,370.102971,-8808.450710,766.095498
849.565968,-296.082377,-9992.780217,919.314598
849.566292,-296.082377,-10066.800811,0.000000
849.566616,1480.411884,-9770.718434,612.876398
849.566941,2812.782580,-9252.574275,612.876398
849.567265,2146.597232,-9622.677246,459.657299
849.567589,222.061783,-10362.883188,306.438199
849.567913,-518.144159,-10807.006753,0.000000
849.568237,444.123565,-10807.006753,536.266849
849.568561,1776.494261,-10066.800811,153.219100
849.568885,1924.535449,-9844.739029,229.828649
849.569210,444.123565,-10881.027347,306.438199
849.569534,-1036.288319,-11251.130318,383.047749
849.569858,-962.267725,-10658.965565,306.438199
849.570182,592.164754,-10288.862594,383.047749
849.570506,1036.288319,-9622.677246,536.266849
849.570830,888.247130,-9992.780217,536.266849
849.571154,-1110.308913,-11103.089130,306.438199
849.571479,-2220.617826,-11325.150913,-383.047749
849.571803,-1258.350101,-10881.027347,-689.485948
849.572127,-370.102971,-10066.800811,-612.876398
849.572451,-370.102971,-10066.800811,0.000000
849.572775,-1776.494261,-10584.944971,229.828649
849.573099,-1850.514855,-10510.924376,-153.219100
849.573424,-444.123565,-9844.739029,-383.047749
849.573748,1258.350101,-9252.574275,0.000000
849.574073,1776.494261,-9474.636058,0.000000
849.574397,370.102971,-9622.677246,153.219100
849.574721,-1628.453072,-9844.739029,0.000000
849.575045,-2368.659014,-9326.594869,0.000000
849.575370,-888.247130,-8512.368333,76.609550
849.575694,148.041188,-8438.347739,0.000000
849.576018,-444.123565,-8956.491898,459.657299
849.576342,-1480.411884,-9474.636058,76.609550
849.576667,-1406.391290,-8882.471304,153.219100
849.576991,-222.061783,-8216.285956,306.438199
849.577315,370.102971,-7550.100608,229.828649
849.577639,-370.102971,-8068.244768,76.609550
849.577964,-2220.617826,-9104.533087,-153.219100
849.578288,-2590.720797,-9622.677246,-459.657299
849.578612,-1332.370696,-8734.430116,0.000000
849.578936,666.185348,-8142.265362,229.828649
849.579261,962.267725,-8512.368333,306.438199
849.579585,0.000000,-9622.677246,383.047749
849.579909,-1258.350101,-9918.759623,-306.438199
849.580233,-740.205942,-9104.533087,306.438199
849.580557,814.226536,-8734.430116,229.828649
849.580882,2590.720797,-9104.533087,153.219100
849.581206,1998.556043,-9548.656652,153.219100
849.581530,222.061783,-10584.944971,0.000000
849.581854,-962.267725,-10362.883188,-995.924147
849.582179,148.041188,-9992.780217,-842.705048
849.582503,1850.514855,-9548.656652,-459.657299
849.582827,2072.576638,-10288.862594,-306.438199
849.583151,1036.288319,-10807.006753,0.000000
849.583476,-518.144159,-10436.903782,-383.047749
849.583800,518.144159,-10658.965565,-842.705048
849.584124,1924.535449,-10436.903782,-612.876398
849.584448,1628.453072,-10658.965565,0.000000
849.584772,0.000000,-11103.089130,459.657299
849.585097,-962.267725,-11399.171507,-536.266849
849.585421,-740.205942,-10881.027347,-383.047749
849.585745,444.123565,-10066.800811,-536.266849
849.586069,1628.453072,-10214.842000,-612.876398
849.586394,296.082377,-10584.944971,-153.219100
849.586718,-888.247130,-10584.944971,-306.438199
849.587042,-444.123565,-10140.821405,-766.095498
849.587366,1036.288319,-9474.636058,-229.828649
849.587691,2220.617826,-9104.533087,0.000000
849.588015,1332.370696,-9770.718434,-842.705048
849.588339,-370.102971,-10066.800811,-459.657299
849.588663,-1258.350101,-10066.800811,-536.266849
849.588988,-148.041188,-9104.533087,-766.095498
849.589312,888.247130,-8438.347739,-995.924147
849.589636,518.144159,-8586.388927,-153.219100
849.589960,-444.123565,-8808.450710,0.000000
849.590284,-1258.350101,-9178.553681,-459.657299
849.590609,-222.061783,-8512.368333,306.438199
849.590933,814.226536,-8216.285956,306.438199
849.591257,888.247130,-8438.347739,153.219100
849.591581,-814.226536,-9104.533087,383.047749
849.591906,-2516.700203,-9474.636058,689.485948
849.592230,-2590.720797,-9770.718434,0.000000
849.592554,-1332.370696,-9030.512492,-919.314598
849.592878,-1036.288319,-8734.430116,-612.876398
849.593203,-1184.329507,-8882.471304,-383.047749
849.593527,-2294.638420,-10066.800811,-229.828649
849.593851,-1776.494261,-10436.903782,-459.657299
849.594175,0.000000,-9474.636058,-229.828649
849.594499,1924.535449,-8586.388927,-306.438199
849.594824,1406.391290,-8512.368333,-383.047749
849.595148,-666.185348,-10066.800811,-229.828649
849.595472,-1998.556043,-11029.068536,-383.047749
849.595796,-1480.411884,-10436.903782,-536.266849
849.596121,0.000000,-9400.615463,0.000000
849.596445,814.226536,-9252.574275,229.828649
849.596769,444.123565,-10066.800811,536.266849
849.597093,-222.061783,-10658.965565,0.000000
849.597418,0.000000,-10214.842000,153.219100
849.597742,1036.288319,-9474.636058,383.047749
849.598066,1332.370696,-8808.450710,306.438199
849.598390,666.185348,-9474.636058,306.438199
849.598715,-814.226536,-10658.965565,0.000000
849.599039,-1258.350101,-10658.965565,-612.876398
849.599363,-148.041188,-10362.883188,-459.657299
849.599687,962.267725,-9696.697840,-459.657299
849.600011,962.267725,-9770.718434,-153.219100
849.600336,-296.082377,-10510.924376,153.219100
849.600660,-1036.288319,-10362.883188,0.000000
849.600984,74.020594,-9844.739029,76.609550
849.601308,2220.617826,-9474.636058,306.438199
849.601633,3182.885551,-9178.553681,536.266849
849.601957,1628.453072,-9622.677246,842.705048
849.602281,-370.102971,-9770.718434,76.609550
849.602605,-1110.308913,-9474.636058,459.657299
849.602930,370.102971,-8956.491898,-229.828649
849.603254,1554.432478,-8586.388927,153.219100
849.603578,1184.329507,-8956.491898,76.609550
849.603902,0.000000,-9474.636058,0.000000
849.604226,0.000000,-9622.677246,0.000000
849.604551,1110.308913,-8808.450710,-306.438199
849.604875,1998.556043,-8364.327145,229.828649
849.605199,814.226536,-8512.368333,229.828649
849.605523,-1110.308913,-9474.636058,229.828649
849.605848,-2294.638420,-9844.739029,229.828649
849.606172,-1998.556043,-9844.739029,-306.438199
849.606496,-962.267725,-9326.594869,-612.876398
849.606820,-592.164754,-9252.574275,-229.828649
849.607145,-1480.411884,-9770.718434,536.266849
849.607469,-2368.659014,-10658.965565,383.047749
849.607793,-2146.597232,-10436.903782,153.219100
849.608117,-444.123565,-9474.636058,306.438199
849.608442,888.247130,-9178.553681,0.000000
849.608766,74.020594,-9918.759623,-153.219100
849.609090,-1258.350101,-11103.089130,-383.047749
849.609414,-1702.473667,-10881.027347,-919.314598
849.609738,-518.144159,-9474.636058,-766.095498
849.610063,814.226536,-8956.491898,-306.438199
849.610387,740.205942,-10066.800811,-383.047749
849.610711,-962.267725,-10955.047942,-229.828649
849.611035,-1406.391290,-11399.171507,-229.828649
849.611360,-1036.288319,-10140.821405,-153.219100
849.611684,370.102971,-8882.471304,-459.657299
849.612008,1184.329507,-8956.491898,689.485948
849.612332,-592.164754,-9770.718434,689.485948
849.612657,-1998.556043,-9770.718434,153.219100
849.612981,-1480.411884,-9918.759623,306.438199
849.613305,-814.226536,-9104.533087,383.047749
849.613629,222.061783,-8734.430116,76.609550
849.613953,-370.102971,-9400.615463,306.438199
849.614278,-962.267725,-9918.759623,229.828649
849.614602,-888.247130,-10362.883188,0.000000
849.614926,666.185348,-9400.615463,153.219100
849.615250,2220.617826,-8068.244768,306.438199
849.615575,1480.411884,-9030.512492,306.438199
849.615899,148.041188,-10214.842000,0.000000
849.616223,-592.164754,-10510.924376,-383.047749
849.616547,0.000000,-9770.718434,-306.438199
849.616872,1776.494261,-9400.615463,-306.438199
849.617196,2664.741391,-9696.697840,612.876398
849.617520,1110.308913,-9622.677246,459.657299
849.617844,-222.061783,-9622.677246,383.047749
849.618169,-148.041188,-9474.636058,229.828649
849.618493,1480.411884,-9400.615463,306.438199
849.618817,2368.659014,-9030.512492,459.657299
849.619141,1258.350101,-9326.594869,842.705048
849.619465,-296.082377,-9992.780217,306.438199
849.619790,-1406.391290,-9918.759623,-919.314598
849.620114,0.000000,-8734.430116,-383.047749
849.620438,814.226536,-8734.430116,-383.047749
849.620762,148.041188,-9474.636058,-383.047749
849.621087,-740.205942,-10214.842000,-153.219100
849.621411,-740.205942,-10288.862594,-153.219100
849.621735,888.247130,-9548.656652,-536.266849
849.622059,1998.556043,-8660.409521,-459.657299
849.622384,1628.453072,-8882.471304,0.000000
849.622708,814.226536,-10807.006753,-383.047749
849.623032,-666.185348,-10881.027347,-766.095498
849.623356,-592.164754,-10214.842000,-766.095498
849.623680,666.185348,-9326.594869,-919.314598
849.624005,814.226536,-9178.553681,-306.438199
849.624329,-592.164754,-9770.718434,-153.219100
849.624653,-814.226536,-10658.965565,0.000000
849.624977,-740.205942,-10658.965565,-459.657299
849.625302,592.164754,-9918.759623,-919.314598
849.625626,1036.288319,-9474.636058,-536.266849
849.625950,0.000000,-9622.677246,-306.438199
849.626274,-1628.453072,-10732.986159,-306.438199
849.626599,-2516.700203,-10955.047942,-612.876398
849.626923,-1480.411884,-10436.903782,-842.705048
849.627247,-296.082377,-9474.636058,-306.438199
849.627571,-296.082377,-9474.636058,0.000000
849.627896,-814.226536,-10881.027347,306.438199
849.628220,-1776.494261,-11399.171507,0.000000
849.628544,-1406.391290,-10436.903782,-153.219100
849.628868,-296.082377,-9178.553681,0.000000
849.629192,666.185348,-8808.450710,0.000000
849.629517,0.000000,-9252.574275,-153.219100
849.629841,-1184.329507,-9992.780217,76.609550
849.630165,-1702.473667,-9474.636058,-383.047749
849.630489,0.000000,-8586.388927,-459.657299
849.630814,1184.329507,-7994.224174,153.219100
849.631138,962.267725,-8734.430116,0.000000
849.631462,-370.102971,-8882.471304,612.876398
849.631786,-1184.329507,-8660.409521,229.828649
849.632111,592.164754,-8586.388927,229.828649
849.632435,1850.514855,-8290.306550,459.657299
849.632759,1850.514855,-8438.347739,689.485948
849.633083,222.061783,-9326.594869,1072.533697
849.633407,-1406.391290,-10436.903782,459.657299
849.633732,-1110.308913,-9548.656652,-229.828649
849.634056,370.102971,-8734.430116,306.438199
849.634380,1036.288319,-9252.574275,919.314598
849.634704,0.000000,-9178.553681,536.266849
849.635029,-1332.370696,-10066.800811,459.657299
849.635353,-666.185348,-9992.780217,766.095498
849.635677,1406.391290,-9548.656652,842.705048
849.636001,2368.659014,-9252.574275,612.876398
849.636326,1480.411884,-9474.636058,689.485948
849.636650,-444.123565,-9696.697840,153.219100
849.636974,-1036.288319,-10436.903782,76.609550
849.637298,0.000000,-10510.924376,-383.047749
849.637623,1628.453072,-9030.512492,-766.095498
849.637947,1776.494261,-9030.512492,-153.219100
849.638271,666.185348,-9844.739029,-229.828649
849.638595,0.000000,-10436.903782,-842.705048
849.638919,74.020594,-10214.842000,-383.047749
849.639244,1480.411884,-9178.553681,-612.876398
849.639568,2294.638420,-9770.718434,0.000000
849.639892,888.247130,-10436.903782,0.000000
849.640216,-1110.308913,-11251.130318,0.000000
849.640541,-1850.514855,-11251.130318,76.609550
849.640865,-962.267725,-11029.068536,-76.609550
849.641189,-296.082377,-10140.821405,0.000000
849.641513,-666.185348,-10066.800811,0.000000
849.641838,-1702.473667,-10658.965565,76.609550
849.642162,-1924.535449,-10881.027347,0.000000
849.642486,-370.102971,-10584.944971,0.000000
849.642810,1332.370696,-9622.677246,0.000000
849.643134,962.267725,-9252.574275,-153.219100
849.643459,-814.226536,-9548.656652,0.000000
849.643783,-2146.597232,-10362.883188,-153.219100
849.644107,-1554.432478,-9696.697840,-306.438199
849.644431,0.000000,-8882.471304,-229.828649
849.644756,74.020594,-8734.430116,76.609550
849.645080,-444.123565,-9104.533087,536.266849
849.645404,-1554.432478,-9474.636058,459.657299
849.645728,-1332.370696,-9474.636058,919.314598
849.646053,444.123565,-8364.327145,689.485948
849.646377,1258.350101,-7550.100608,842.705048
849.646701,148.041188,-8290.306550,689.485948
849.647025,-2072.576638,-8956.491898,612.876398
849.647349,-2294.638420,-9474.636058,229.828649
849.647674,-1036.288319,-8808.450710,-306.438199
849.647998,0.000000,-8216.285956,-459.657299
849.648322,222.061783,-8956.491898,-229.828649
849.648646,-1406.391290,-9918.759623,0.000000
849.648971,-1776.494261,-10214.842000,383.047749
849.649295,-666.185348,-9696.697840,-383.047749
849.649619,444.123565,-9178.553681,-306.438199
849.649943,1332.370696,-9252.574275,0.000000
849.650268,666.185348,-9548.656652,383.047749
849.650592,-222.061783,-10658.965565,689.485948
849.650916,-518.144159,-10436.903782,-459.657299
849.651240,1258.350101,-9696.697840,383.047749
849.651565,2294.638420,-9696.697840,76.609550
849.651889,1998.556043,-10214.842000,383.047749
849.652213,518.144159,-10732.986159,0.000000
849.652537,148.041188,-10584.944971,-459.657299
849.652861,1258.350101,-9622.677246,-919.314598
849.653186,2516.700203,-9178.553681,-1608.800546
849.653510,1776.494261,-9696.697840,-689.485948
849.653834,74.020594,-10436.903782,-229.828649
849.654158,-962.267725,-11103.089130,-1072.533697
849.654483,0.000000,-10362.883188,-995.924147
849.654807,1258.350101,-9104.533087,-1225.752797
849.655131,1702.473667,-9844.739029,-459.657299
849.655455,518.144159,-10955.047942,1072.533697
849.655780,-222.061783,-11251.130318,383.047749
849.656104,-148.041188,-10288.862594,1378.971896
849.656428,1480.411884,-9622.677246,459.657299
849.656752,1628.453072,-9252.574275,-229.828649
849.657076,1036.288319,-9696.697840,0.000000
849.657401,-814.226536,-10658.965565,0.000000
849.657725,-1850.514855,-10584.944971,-459.657299
849.658049,-962.267725,-9326.594869,-689.485948
849.658373,148.041188,-8068.244768,-459.657299
849.658698,-148.041188,-8734.430116,-612.876398
849.659022,-1036.288319,-9622.677246,-383.047749
849.659346,-1628.453072,-9696.697840,-153.219100
849.659670,-444.123565,-9400.615463,0.000000
849.659995,1258.350101,-8586.388927,536.266849
849.660319,1776.494261,-8586.388927,919.314598
849.660643,0.000000,-8808.450710,842.705048
849.660967,-1036.288319,-9918.759623,1072.533697
849.661292,-740.205942,-9844.739029,612.876398
849.661616,-296.082377,-9178.553681,383.047749
849.661940,0.000000,-8512.368333,459.657299
849.662264,-1184.329507,-9400.615463,919.314598
849.662588,-2516.700203,-10214.842000,306.438199
849.662913,-2516.700203,-9474.636058,-459.657299
849.663237,-1036.288319,-8438.347739,0.000000
849.663561,444.123565,-7846.182985,-229.828649
849.663885,74.020594,-9326.594869,0.000000
849.664210,-1332.370696,-9918.759623,0.000000
849.664534,-2220.617826,-10066.800811,-306.438199
849.664858,-1184.329507,-9474.636058,-689.485948
849.665182,666.185348,-8882.471304,-612.876398
849.665507,1628.453072,-9252.574275,153.219100
849.665831,1110.308913,-10140.821405,689.485948
849.666155,296.082377,-10510.924376,229.828649
849.666479,-148.041188,-10214.842000,229.828649
849.666803,962.267725,-9696.697840,76.609550
849.667128,1184.329507,-9918.759623,0.000000
849.667452,0.000000,-10288.862594,0.000000
849.667776,-1332.370696,-10288.862594,0.000000
849.668100,-1332.370696,-10288.862594,-306.438199
849.668425,0.000000,-9770.718434,-153.219100
849.668749,888.247130,-9326.594869,-153.219100
849.669073,740.205942,-9770.718434,0.000000
849.669397,-592.164754,-10658.965565,-153.219100
849.669722,-1406.391290,-10362.883188,-306.438199
849.670046,0.000000,-9548.656652,76.609550
849.670370,1406.391290,-9400.615463,383.047749
849.670694,1850.514855,-9548.656652,0.000000
849.671019,444.123565,-10066.800811,229.828649
849.671343,-1258.350101,-10510.924376,0.000000
849.671667,-1036.288319,-10140.821405,-76.609550
849.671991,518.144159,-9104.533087,0.000000
849.672315,1850.514855,-8586.388927,229.828649
849.672640,1332.370696,-9474.636058,842.705048
849.672964,0.000000,-9696.697840,229.828649
849.673288,74.020594,-9474.636058,306.438199
849.673612,1406.391290,-8956.491898,-229.828649
849.673937,2146.597232,-8290.306550,0.000000
849.674261,1480.411884,-9178.553681,0.000000
849.674585,-518.144159,-10066.800811,0.000000
849.674909,-1554.432478,-9918.759623,-842.705048
849.675234,-962.267725,-9622.677246,-1072.533697
849.675558,74.020594,-9104.533087,-612.876398
849.675882,444.123565,-9474.636058,-229.828649
849.676206,-888.247130,-10066.800811,766.095498
849.676531,-1850.514855,-10584.944971,383.047749
849.676855,-1258.350101,-10288.862594,383.047749
849.677179,74.020594,-9770.718434,689.485948
849.677503,1184.329507,-9622.677246,689.485948
849.677828,0.000000,-9622.677246,383.047749
849.678152,-1850.514855,-10140.821405,306.438199
849.678476,-2146.597232,-10066.800811,0.000000
849.678801,-518.144159,-9474.636058,-229.828649
849.679125,518.144159,-8882.471304,-306.438199
849.679449,0.000000,-9326.594869,0.000000
849.679773,-1036.288319,-9844.739029,-459.657299
849.680098,-1554.432478,-10066.800811,-229.828649
849.680422,-1036.288319,-8882.471304,-766.095498
849.680746,1184.329507,-8808.450710,-306.438199
849.681070,666.185348,-9104.533087,0.000000
849.681395,-370.102971,-10436.903782,306.438199
849.681719,-1628.453072,-10436.903782,76.609550
849.682043,-1480.411884,-9622.677246,0.000000
849.682367,0.000000,-9030.512492,-383.047749
849.682692,-148.041188,-9252.574275,229.828649
849.683016,-296.082377,-10362.883188,153.219100
849.683340,-592.164754,-10436.903782,229.828649
849.683664,-370.102971,-9992.780217,459.657299
849.683989,962.267725,-9474.636058,-229.828649
849.684313,1628.453072,-9178.553681,-153.219100
849.684637,888.247130,-9770.718434,-306.438199
849.684962,-666.185348,-10955.047942,-383.047749
849.685286,-1850.514855,-10881.027347,-459.657299
849.685610,-888.247130,-9770.718434,-536.266849
849.685934,814.226536,-9104.533087,-229.828649
849.686259,1480.411884,-8734.430116,0.000000
849.686583,1110.308913,-10066.800811,0.000000
849.686907,222.061783,-10066.800811,383.047749
849.687231,740.205942,-9104.533087,229.828649
849.687556,2368.659014,-8216.285956,229.828649
849.687880,2886.803174,-8808.450710,612.876398
849.688204,1110.308913,-9178.553681,766.095498
849.688528,-444.123565,-9622.677246,459.657299
849.688853,-444.123565,-9474.636058,153.219100
849.689177,888.247130,-8882.471304,0.000000
849.689501,1776.494261,-8586.388927,-306.438199
849.689825,666.185348,-9326.594869,0.000000
849.690150,-296.082377,-9992.780217,0.000000
849.690474,-444.123565,-9622.677246,-1072.533697
849.690798,1184.329507,-9770.718434,-536.266849
849.691123,1998.556043,-9104.533087,-229.828649
849.691447,1110.308913,-9400.615463,-383.047749
849.691771,-518.144159,-10066.800811,0.000000
849.692095,-1850.514855,-10955.047942,-689.485948
849.692420,-1332.370696,-10510.924376,-919.314598
849.692744,0.000000,-9252.574275,-229.828649
849.693068,222.061783,-9326.594869,0.000000
849.693392,-444.123565,-10214.842000,-76.609550
849.693717,-1628.453072,-10362.883188,0.000000
849.694041,-1332.370696,-10066.800811,0.000000
849.694365,370.102971,-9474.636058,0.000000
849.694689,1036.288319,-9252.574275,76.609550
849.695014,222.061783,-9474.636058,766.095498
849.695338,-1036.288319,-10510.924376,0.000000
849.695662,-2146.597232,-10362.883188,-689.485948
849.695986,-740.205942,-9474.636058,-842.705048
849.696311,74.020594,-9474.636058,-919.314598
849.696635,-148.041188,-10140.821405,-689.485948
849.696959,-1628.453072,-10955.047942,-612.876398
849.697284,-1924.535449,-10436.903782,-536.266849
849.697608,-666.185348,-9178.553681,-766.095498
849.697932,1036.288319,-9104.533087,-612.876398
849.698256,1258.350101,-9844.739029,0.000000
849.698581,296.082377,-10436.903782,153.219100
849.698905,-1776.494261,-10955.047942,306.438199
849.699229,-2294.638420,-10362.883188,-229.828649
849.699553,-1036.288319,-9178.553681,0.000000
849.699878,148.041188,-8956.491898,536.266849
849.700202,0.000000,-9030.512492,459.657299
849.700526,-888.247130,-9992.780217,536.266849
849.700850,-444.123565,-9992.780217,536.266849
849.701175,888.247130,-9104.533087,0.000000
849.701499,1924.535449,-8364.327145,153.219100
849.701823,1480.411884,-8586.388927,229.828649
849.702147,0.000000,-9548.656652,0.000000
849.702472,-592.164754,-9696.697840,-383.047749
849.702796,74.020594,-9548.656652,-306.438199
849.703120,1850.514855,-8586.388927,0.000000
849.703445,1998.556043,-8438.347739,306.438199
849.703769,962.267725,-9326.594869,536.266849
849.704093,0.000000,-9696.697840,842.705048
849.704417,518.144159,-9030.512492,842.705048
849.704742,1702.473667,-8438.347739,1225.752797
849.705066,1776.494261,-8882.471304,766.095498
849.705390,814.226536,-9400.615463,536.266849
849.705714,-1332.370696,-10214.842000,766.095498
849.706039,-2146.597232,-10436.903782,-229.828649
849.706363,-1480.411884,-9178.553681,-766.095498
849.706687,-222.061783,-9030.512492,-536.266849
849.707011,0.000000,-9548.656652,-229.828649
849.707336,-296.082377,-11029.068536,0.000000
849.707660,-814.226536,-11103.089130,-536.266849
849.707984,-222.061783,-10510.924376,-383.047749
849.708308,1480.411884,-9326.594869,153.219100
849.708633,1924.535449,-9622.677246,153.219100
849.708957,518.144159,-10807.006753,383.047749
849.709281,-962.267725,-11843.295072,229.828649
849.709606,-1110.308913,-11177.109724,-229.828649
849.709930,74.020594,-10066.800811,0.000000
849.710254,0.000000,-9844.739029,-306.438199
849.710578,-740.205942,-10066.800811,0.000000
849.710903,-1850.514855,-10955.047942,-459.657299
849.711227,-1702.473667,-10658.965565,0.000000
849.711551,-370.102971,-9770.718434,-306.438199
849.711875,814.226536,-8808.450710,-383.047749
849.712200,592.164754,-9030.512492,229.828649
849.712524,-888.247130,-10140.821405,-612.876398
849.712848,-1776.494261,-11103.089130,0.000000
849.713172,-1406.391290,-9400.615463,-612.876398
849.713497,444.123565,-8364.327145,76.609550
849.713821,1480.411884,-9252.574275,766.095498
849.714145,888.247130,-10658.965565,766.095498
849.714469,-370.102971,-10436.903782,995.924147
849.714794,0.000000,-9992.780217,536.266849
849.715118,962.267725,-8808.450710,1072.533697
849.715442,888.247130,-8364.327145,766.095498
849.715767,-74.020594,-9178.553681,919.314598
849.716091,-1776.494261,-9622.677246,536.266849
849.716415,-1850.514855,-9252.574275,0.000000
849.716739,-518.144159,-8438.347739,0.000000
849.717064,666.185348,-7624.121203,-229.828649
849.717388,222.061783,-7772.162391,0.000000
849.717712,-740.205942,-9178.553681,0.000000
849.718036,-1184.329507,-9474.636058,459.657299
849.718361,-222.061783,-9400.615463,459.657299
849.718685,1184.329507,-8438.347739,842.705048
849.719009,1110.308913,-8438.347739,383.047749
849.719333,74.020594,-9622.677246,1149.143247
849.719658,-592.164754,-10658.965565,306.438199
849.719982,-444.123565,-10510.924376,689.485948
849.720306,740.205942,-8734.430116,383.047749
849.720630,888.247130,-8290.306550,0.000000
849.720955,0.000000,-9400.615463,0.000000
849.721279,-814.226536,-10584.944971,-306.438199
849.721603,-740.205942,-10288.862594,-153.219100
849.721928,1258.350101,-9474.636058,-536.266849
849.722252,2294.638420,-9104.533087,-383.047749
849.722576,2072.576638,-10140.821405,153.219100
849.722900,444.123565,-11399.171507,-76.609550
849.723225,-814.226536,-11843.295072,-689.485948
849.723549,-518.144159,-10658.965565,-995.924147
849.723873,518.144159,-10066.800811,-1072.533697
849.724197,740.205942,-9622.677246,-536.266849
849.724522,666.185348,-11103.089130,76.609550
849.724846,-740.205942,-10955.047942,-383.047749
849.725170,0.000000,-10658.965565,-689.485948
849.725494,1332.370696,-9548.656652,-612.876398
849.725819,1702.473667,-9252.574275,-1378.971896
849.726143,592.164754,-9992.780217,-1225.752797
849.726467,-1258.350101,-11029.068536,-766.095498
849.726791,-1776.494261,-11325.150913,-1302.362347
849.727116,-296.082377,-10362.883188,-995.924147
849.727440,1036.288319,-9030.512492,-306.438199
849.727764,1406.391290,-9548.656652,306.438199
849.728088,-148.041188,-10436.903782,-306.438199
849.728413,-222.061783,-10584.944971,383.047749
849.728737,888.247130,-9918.759623,306.438199
849.729061,1924.535449,-9178.553681,229.828649
849.729386,962.267725,-9252.574275,383.047749
849.729710,-1332.370696,-9548.656652,229.828649
849.730034,-2516.700203,-9992.780217,229.828649
849.730358,-1998.556043,-9474.636058,0.000000
849.730683,-1110.308913,-8142.265362,-689.485948
849.731007,-148.041188,-7402.059420,-153.219100
849.731331,-1332.370696,-8882.471304,229.828649
849.731655,-2220.617826,-9178.553681,383.047749
849.731980,-1628.453072,-8956.491898,383.047749
849.732304,74.020594,-7994.224174,306.438199
849.732628,1258.350101,-7698.141797,1072.533697
849.732952,-296.082377,-8068.244768,612.876398
849.733277,-1850.514855,-9030.512492,689.485948
849.733601,-2294.638420,-9696.697840,536.266849
849.733925,-1110.308913,-9030.512492,-229.828649
849.734249,222.061783,-8290.306550,-459.657299
849.734574,296.082377,-8216.285956,153.219100
849.734898,-148.041188,-9326.594869,0.000000
849.735222,-1406.391290,-9918.759623,0.000000
849.735547,-962.267725,-9696.697840,0.000000
849.735871,1036.288319,-8956.491898,0.000000
849.736195,1998.556043,-9400.615463,306.438199
849.736519,1036.288319,-10362.883188,459.657299
849.736844,-370.102971,-11103.089130,229.828649
849.737168,-592.164754,-11029.068536,0.000000
849.737492,888.247130,-10140.821405,0.000000
849.737816,1776.494261,-9770.718434,306.438199
849.738141,1184.329507,-10066.800811,383.047749
849.738465,0.000000,-11103.089130,76.609550
849.738789,-444.123565,-11029.068536,0.000000
849.739113,888.247130,-10140.821405,-612.876398
849.739438,2368.659014,-9622.677246,-612.876398
849.739762,2220.617826,-10214.842000,-689.485948
849.740086,0.000000,-10288.862594,-153.219100
849.740410,-1480.411884,-11399.171507,-1072.533697
849.740735,-1184.329507,-10436.903782,-842.705048
849.741059,518.144159,-9696.697840,-919.314598
849.741383,1850.514855,-9548.656652,-536.266849
849.741708,1258.350101,-10436.903782,229.828649
849.742032,222.061783,-11177.109724,536.266849
849.742356,666.185348,-11103.089130,383.047749
849.742680,888.247130,-9696.697840,383.047749
849.743005,1776.494261,-9030.512492,383.047749
849.743329,222.061783,-9326.594869,306.438199
849.743653,-1406.391290,-10362.883188,229.828649
849.743977,-2146.597232,-10288.862594,76.609550
849.744302,-1332.370696,-9400.615463,0.000000
849.744626,0.000000,-8068.244768,-306.438199
849.744950,-296.082377,-8068.244768,0.000000
849.745274,-1628.453072,-8586.388927,229.828649
849.745599,-2368.659014,-9178.553681,0.000000
849.745923,-1480.411884,-8808.450710,-229.828649
849.746247,0.000000,-7846.182985,-153.219100
849.746571,518.144159,-7624.121203,153.219100
849.746896,-518.144159,-8586.388927,0.000000
849.747220,-1924.535449,-9326.594869,153.219100
849.747544,-2146.597232,-9252.574275,-536.266849
849.747869,-370.102971,-8956.491898,995.924147
849.748193,888.247130,-9178.553681,536.266849
849.748517,148.041188,-9474.636058,459.657299
849.748841,-962.267725,-9770.718434,536.266849
849.749166,-1480.411884,-9992.780217,0.000000
849.749490,148.041188,-9770.718434,-229.828649
849.749814,1480.411884,-9622.677246,0.000000
849.750138,740.205942,-9622.677246,612.876398
849.750463,-740.205942,-10214.842000,153.219100
849.750787,-1924.535449,-10807.006753,-383.047749
849.751111,-1184.329507,-10584.944971,-536.266849
849.751435,444.123565,-10214.842000,-766.095498
849.751760,888.247130,-9918.759623,0.000000
849.752084,148.041188,-10732.986159,76.609550
849.752408,-666.185348,-10881.027347,-153.219100
849.752732,0.000000,-10140.821405,-612.876398
849.753057,1036.288319,-10288.862594,-383.047749
849.753381,1850.514855,-10288.862594,0.000000
849.753705,962.267725,-10658.965565,-229.828649
849.754030,-518.144159,-11251.130318,0.000000
849.754354,-296.082377,-11177.109724,-153.219100
849.754678,666.185348,-10066.800811,-842.705048
849.755002,1850.514855,-8956.491898,0.000000
849.755327,2294.638420,-10214.842000,76.609550
849.755651,1036.288319,-10732.986159,0.000000
849.755975,222.061783,-10362.883188,0.000000
849.756299,666.185348,-9474.636058,0.000000
849.756624,2146.597232,-8660.409521,383.047749
849.756948,2368.659014,-8438.347739,842.705048
849.757272,0.000000,-9326.594869,459.657299
849.757596,-1554.432478,-9474.636058,459.657299
849.757921,-1332.370696,-9474.636058,0.000000
849.758245,-296.082377,-8364.327145,76.609550
849.758569,222.061783,-8142.265362,76.609550
849.758893,-592.164754,-8734.430116,0.000000
849.759218,-1480.411884,-9104.533087,-306.438199
849.759542,-1184.329507,-9252.574275,-306.438199
849.759866,222.061783,-8216.285956,-229.828649
849.760191,2072.576638,-7920.203579,-229.828649
849.760515,1776.494261,-8438.347739,0.000000
849.760839,-148.041188,-9178.553681,-153.219100
849.761163,-1036.288319,-9844.739029,-612.876398
849.761488,-740.205942,-9770.718434,-536.266849
849.761812,592.164754,-9252.574275,0.000000
849.762136,1036.288319,-9474.636058,229.828649
849.762460,0.000000,-10066.800811,383.047749
849.762785,-740.205942,-10732.986159,76.609550
849.763109,0.000000,-10732.986159,0.000000
849.763433,962.267725,-10066.800811,0.000000
849.763757,1184.329507,-9474.636058,153.219100
849.764082,-222.061783,-9622.677246,76.609550
849.764406,-1628.453072,-10807.006753,229.828649
849.764730,-1702.473667,-10807.006753,-153.219100
849.765054,-444.123565,-10510.924376,-1149.143247
849.765379,-148.041188,-9474.636058,-1149.143247
849.765703,-888.247130,-10362.883188,-842.705048
849.766027,-1850.514855,-11251.130318,-842.705048
849.766352,-1628.453072,-10881.027347,-689.485948
849.766676,-222.061783,-9992.780217,-1302.362347
849.767000,148.041188,-9326.594869,-1455.581446
849.767324,814.226536,-9400.615463,-995.924147
849.767649,-370.102971,-11029.068536,-536.266849
849.767973,-1628.453072,-11547.212695,-306.438199
849.768297,-1332.370696,-10288.862594,-612.876398
849.768621,-370.102971,-9104.533087,-612.876398
849.768946,740.205942,-9252.574275,-612.876398
849.769270,518.144159,-10066.800811,0.000000
849.769594,0.000000,-10881.027347,995.924147
849.769918,-296.082377,-10807.006753,0.000000
849.770243,74.020594,-9400.615463,153.219100
849.770567,1184.329507,-8586.388927,383.047749
849.770891,1406.391290,-8882.471304,459.657299
849.771215,-296.082377,-9548.656652,383.047749
849.771540,-1406.391290,-9844.739029,-153.219100
849.771864,-1036.288319,-8734.430116,-536.266849
849.772188,740.205942,-7476.080014,-536.266849
849.772513,1110.308913,-7994.224174,153.219100
849.772837,0.000000,-8956.491898,0.000000
849.773161,-1184.329507,-9474.636058,306.438199
849.773485,-666.185348,-8512.368333,-153.219100
849.773810,814.226536,-7698.141797,-229.828649
849.774134,1850.514855,-7846.182985,229.828649
849.774458,962.267725,-8882.471304,459.657299
849.774782,-370.102971,-9548.656652,766.095498
849.775107,-740.205942,-9844.739029,306.438199
849.775431,370.102971,-8660.409521,0.000000
849.775755,1628.453072,-8438.347739,306.438199
849.776079,1480.411884,-9548.656652,612.876398
849.776403,888.247130,-10732.986159,536.266849
849.776727,222.061783,-10807.006753,153.219100
849.777051,888.247130,-9770.718434,0.000000
849.777376,1258.350101,-9474.636058,0.000000
849.777700,740.205942,-9918.759623,-536.266849
849.778024,-518.144159,-11029.068536,-1072.533697
849.778348,-1776.494261,-11769.274478,-766.095498
849.778672,-1554.432478,-11695.253884,-689.485948
849.778996,-518.144159,-10732.986159,-383.047749
849.779320,148.041188,-9918.759623,0.000000
849.779645,-518.144159,-10732.986159,153.219100
849.779969,-1554.432478,-10732.986159,306.438199
849.780293,-1110.308913,-10288.862594,0.000000
849.780617,0.000000,-9918.759623,229.828649
849.780941,814.226536,-9548.656652,229.828649
849.781265,0.000000,-9770.718434,153.219100
849.781589,-1776.494261,-10584.944971,76.609550
849.781914,-1924.535449,-10436.903782,-612.876398
849.782238,-148.041188,-9104.533087,-536.266849
849.782562,1110.308913,-8660.409521,-383.047749
849.782886,1036.288319,-8956.491898,306.438199
849.783210,-148.041188,-10436.903782,0.000000
849.783534,-1258.350101,-10362.883188,0.000000
849.783858,-1036.288319,-9696.697840,153.219100
849.784183,592.164754,-8956.491898,459.657299
849.784507,1036.288319,-8660.409521,995.924147
849.784831,222.061783,-9622.677246,1302.362347
849.785155,-1110.308913,-10140.821405,383.047749
849.785479,-1628.453072,-9844.739029,842.705048
849.785803,-814.226536,-9252.574275,766.095498
849.786128,0.000000,-7994.224174,612.876398
849.786452,-740.205942,-8438.347739,1455.581446
849.786776,-1702.473667,-9622.677246,1072.533697
849.787100,-1184.329507,-9252.574275,995.924147
849.787424,740.205942,-8290.306550,383.047749
849.787748,1850.514855,-7698.141797,0.000000
849.788072,814.226536,-8290.306550,0.000000
849.788397,-814.226536,-9474.636058,0.000000
849.788721,-1554.432478,-9548.656652,-612.876398
849.789045,-814.226536,-8808.450710,-842.705048
849.789369,962.267725,-8364.327145,-689.485948
849.789693,2368.659014,-8660.409521,383.047749
849.790017,2146.597232,-9622.677246,842.705048
849.790341,1702.473667,-10288.862594,536.266849
849.790666,888.247130,-10066.800811,306.438199
849.790990,1702.473667,-9474.636058,-383.047749
849.791314,2220.617826,-9178.553681,0.000000
849.791638,1184.329507,-9918.759623,383.047749
849.791962,-1110.308913,-11769.274478,0.000000
849.792286,-1850.514855,-11547.212695,-919.314598
849.792610,-1036.288319,-10214.842000,-995.924147
849.792935,518.144159,-9622.677246,-1302.362347
849.793259,444.123565,-9992.780217,-1302.362347
849.793583,-1332.370696,-10732.986159,-1149.143247
849.793907,-2072.576638,-10881.027347,-1072.533697
849.794231,-592.164754,-10214.842000,-1149.143247
849.794555,1776.494261,-9548.656652,-1149.143247
849.794880,2442.679609,-9622.677246,-1149.143247
849.795204,814.226536,-11029.068536,-306.438199
849.795528,-666.185348,-11991.336260,-612.876398
849.795852,-888.247130,-11473.192101,-919.314598
849.796176,0.000000,-10066.800811,-612.876398
849.796500,444.123565,-9326.594869,-459.657299
849.796824,222.061783,-10214.842000,-995.924147
849.797149,-222.061783,-11029.068536,-153.219100
849.797473,74.020594,-11029.068536,0.000000
849.797797,1554.432478,-9844.739029,-229.828649
849.798121,2368.659014,-8586.388927,-536.266849
849.798445,1702.473667,-8808.450710,-383.047749
849.798769,0.000000,-9844.739029,-153.219100
849.799093,-1480.411884,-10881.027347,-689.485948
849.799418,-1702.473667,-9474.636058,-153.219100
849.799742,-148.041188,-8586.388927,0.000000
849.800066,0.000000,-8660.409521,0.000000
849.800390,-740.205942,-9178.553681,0.000000
849.800714,-1776.494261,-9622.677246,229.828649
849.801038,-1184.329507,-9400.615463,383.047749
849.801362,148.041188,-8512.368333,0.000000
849.801687,0.000000,-7772.162391,383.047749
849.802011,-962.267725,-8290.306550,306.438199
849.802335,-2664.741391,-9474.636058,229.828649
849.802659,-2590.720797,-9770.718434,-689.485948
849.802983,-962.267725,-8882.471304,-612.876398
849.803307,592.164754,-8068.244768,-459.657299
849.803631,1258.350101,-8586.388927,0.000000
849.803956,-296.082377,-9770.718434,-306.438199
849.804280,-1036.288319,-9918.759623,76.609550
849.804604,-148.041188,-9474.636058,-459.657299
849.804928,1480.411884,-8808.450710,0.000000
849.805252,2220.617826,-8586.388927,383.047749
849.805576,1110.308913,-9548.656652,76.609550
849.805901,-370.102971,-10140.821405,76.609550
849.806225,-222.061783,-10436.903782,153.219100
849.806549,814.226536,-10510.924376,459.657299
849.806873,888.247130,-9474.636058,306.438199
849.807197,-296.082377,-9770.718434,0.000000
849.807521,-1702.473667,-10584.944971,153.219100
849.807845,-962.267725,-10732.986159,-229.828649
849.808170,962.267725,-10288.862594,0.000000
849.808494,2664.741391,-9548.656652,229.828649
849.808818,1332.370696,-9474.636058,-229.828649
849.809142,-1184.329507,-10436.903782,-306.438199
849.809466,-1850.514855,-11029.068536,-1149.143247
849.809790,-740.205942,-10807.006753,-1149.143247
849.810114,666.185348,-9770.718434,-842.705048
849.810439,1110.308913,-10140.821405,-459.657299
849.810763,296.082377,-10881.027347,-306.438199
849.811087,-296.082377,-11325.150913,-383.047749
849.811411,74.020594,-10881.027347,76.609550
849.811735,1406.391290,-9992.780217,919.314598
849.812059,2516.700203,-9696.697840,1225.752797
849.812383,1406.391290,-10288.862594,842.705048
849.812708,-296.082377,-10881.027347,1532.190996
849.813032,-1036.288319,-11029.068536,612.876398
849.813356,74.020594,-10140.821405,0.000000
849.813680,814.226536,-8956.491898,0.000000
849.814004,518.144159,-9030.512492,459.657299
849.814328,-740.205942,-9474.636058,536.266849
849.814653,-1406.391290,-9622.677246,153.219100
849.814977,-148.041188,-8956.491898,229.828649
849.815301,1480.411884,-8586.388927,-229.828649
849.815625,1036.288319,-8142.265362,459.657299
849.815949,-888.247130,-8734.430116,536.266849
849.816273,-2516.700203,-9474.636058,459.657299
849.816597,-2294.638420,-9400.615463,229.828649
849.816922,-1036.288319,-8216.285956,306.438199
849.817246,-888.247130,-7846.182985,612.876398
849.817570,-1628.453072,-8512.368333,612.876398
849.817894,-2294.638420,-9474.636058,229.828649
849.818218,-1628.453072,-9548.656652,229.828649
849.818542,148.041188,-9030.512492,306.438199
849.818866,1332.370696,-8438.347739,766.095498
849.819191,888.247130,-8734.430116,842.705048
849.819515,-1258.350101,-9548.656652,383.047749
849.819839,-1554.432478,-10658.965565,0.000000
849.820163,-888.247130,-9992.780217,0.000000
849.820487,888.247130,-9474.636058,-383.047749
849.820811,1036.288319,-9474.636058,0.000000
849.821135,0.000000,-9918.759623,76.609550
849.821460,-1036.288319,-10807.006753,0.000000
849.821784,-222.061783,-10288.862594,-383.047749
849.822108,1776.494261,-10066.800811,-306.438199
849.822432,1480.411884,-9844.739029,229.828649
849.822756,0.000000,-10658.965565,153.219100
849.823080,-1776.494261,-11029.068536,0.000000
849.823405,-2072.576638,-10436.903782,-306.438199
849.823729,-888.247130,-9844.739029,-612.876398
849.824053,1110.308913,-9696.697840,-383.047749
849.824377,888.247130,-9696.697840,0.000000
849.824701,148.041188,-10658.965565,0.000000
849.825025,0.000000,-10436.903782,-153.219100
849.825349,1480.411884,-9992.780217,-229.828649
849.825674,2812.782580,-9622.677246,0.000000
849.825998,2812.782580,-10140.821405,0.000000
849.826322,1110.308913,-10288.862594,306.438199
849.826646,-148.041188,-10732.986159,153.219100
849.826970,0.000000,-10066.800811,-536.266849
849.827294,1406.391290,-9474.636058,-689.485948
849.827618,1258.350101,-9178.553681,-306.438199
849.827943,74.020594,-9622.677246,-229.828649
849.828267,-1110.308913,-9992.780217,-306.438199
849.828591,-592.164754,-9548.656652,-383.047749
849.828915,1406.391290,-9326.594869,0.000000
849.829239,2294.638420,-8216.285956,459.657299
849.829563,1258.350101,-9326.594869,459.657299
849.829887,-1480.411884,-9770.718434,-229.828649
849.830212,-2294.638420,-9770.718434,-536.266849
849.830536,-740.205942,-8660.409521,-689.485948
849.830860,740.205942,-8438.347739,-459.657299
849.831184,370.102971,-8734.430116,0.000000
849.831508,-814.226536,-9548.656652,-612.876398
849.831832,-1480.411884,-9548.656652,-383.047749
849.832156,-888.247130,-9326.594869,-995.924147
849.832481,518.144159,-8364.327145,-842.705048
849.832805,1036.288319,-8808.450710,-153.219100
849.833129,-444.123565,-9548.656652,-229.828649
849.833453,-1998.556043,-10288.862594,-536.266849
849.833777,-1628.453072,-10066.800811,-689.485948
849.834101,296.082377,-9474.636058,-459.657299
849.834426,814.226536,-9104.533087,0.000000
849.834750,296.082377,-9918.759623,536.266849
849.835074,-1776.494261,-10288.862594,-153.219100
849.835398,-2072.576638,-10732.986159,-536.266849
849.835722,-444.123565,-9992.780217,-689.485948
849.836046,518.144159,-9400.615463,-689.485948
849.836370,-148.041188,-9326.594869,-536.266849
849.836695,-1850.514855,-10510.924376,-459.657299
849.837019,-2516.700203,-11029.068536,-1455.581446
849.837343,-1628.453072,-10362.883188,-1685.410096
849.837667,-296.082377,-9696.697840,-1455.581446
849.837991,-222.061783,-10066.800811,-766.095498
849.838315,-814.226536,-11177.109724,-383.047749
849.838639,-888.247130,-11399.171507,-153.219100
849.838964,-148.041188,-10436.903782,229.828649
849.839288,1332.370696,-9622.677246,153.219100
849.839612,2368.659014,-9844.739029,306.438199
849.839936,1628.453072,-9844.739029,689.485948
849.840260,0.000000,-10510.924376,612.876398
849.840584,-370.102971,-10807.006753,383.047749
849.840908,666.185348,-10140.821405,229.828649
849.841233,1702.473667,-9104.533087,459.657299
849.841557,1258.350101,-8586.388927,1302.362347
849.841881,74.020594,-8882.471304,536.266849
849.842205,-740.205942,-9474.636058,536.266849
849.842529,296.082377,-8734.430116,536.266849
849.842853,2072.576638,-7624.121203,612.876398
849.843178,2072.576638,-7254.018232,995.924147
849.843502,370.102971,-8142.265362,1302.362347
849.843826,-1110.308913,-8956.491898,1072.533697
849.844150,-962.267725,-8660.409521,306.438199
849.844474,0.000000,-7624.121203,153.219100
849.844798,222.061783,-7402.059420,76.609550
849.845122,-518.144159,-8586.388927,766.095498
849.845447,-1184.329507,-9844.739029,842.705048
849.845771,-962.267725,-9622.677246,383.047749
849.846095,814.226536,-9400.615463,306.438199
849.846419,1850.514855,-8586.388927,383.047749
849.846743,1184.329507,-9622.677246,229.828649
849.847067,-666.185348,-11029.068536,459.657299
849.847391,-1628.453072,-11399.171507,0.000000
849.847716,-740.205942,-10955.047942,-306.438199
849.848040,296.082377,-10214.842000,-459.657299
849.848364,666.185348,-10436.903782,229.828649
849.848688,0.000000,-11325.150913,306.438199
849.849012,-1110.308913,-11547.212695,-306.438199
849.849336,-888.247130,-11029.068536,0.000000
849.849660,666.185348,-10436.903782,-229.828649
849.849985,962.267725,-9696.697840,-229.828649
849.850309,-740.205942,-10140.821405,-383.047749
849.850633,-2442.679609,-10807.006753,-383.047749
849.850957,-2664.741391,-10658.965565,-1072.533697
849.851281,-1628.453072,-9178.553681,-766.095498
849.851605,-518.144159,-8808.450710,-995.924147
849.851929,-1036.288319,-9252.574275,-766.095498
849.852254,-1850.514855,-10140.821405,0.000000
849.852578,-1702.473667,-10658.965565,229.828649
849.852902,296.082377,-10140.821405,229.828649
849.853226,2368.659014,-8882.471304,229.828649
849.853550,2220.617826,-9104.533087,766.095498
849.853874,370.102971,-10510.924376,459.657299
849.854199,-296.082377,-11325.150913,153.219100
849.854523,148.041188,-10140.821405,0.000000
849.854847,1480.411884,-9474.636058,536.266849
849.855171,1406.391290,-9696.697840,229.828649
849.855495,148.041188,-9622.677246,0.000000
849.855819,-1332.370696,-10066.800811,0.000000
849.856143,-1406.391290,-9474.636058,0.000000
849.856468,0.000000,-8882.471304,0.000000
849.856792,666.185348,-7846.182985,229.828649
849.857116,0.000000,-7550.100608,459.657299
849.857440,-1184.329507,-7772.162391,0.000000
849.857764,-1924.535449,-8586.388927,0.000000
849.858088,-666.185348,-8734.430116,0.000000
849.858412,814.226536,-7994.224174,229.828649
849.858737,1110.308913,-8290.306550,153.219100
849.859061,74.020594,-8216.285956,536.266849
849.859385,-222.061783,-8882.471304,0.000000
849.859709,1110.308913,-9104.533087,76.609550
849.860033,2812.782580,-9104.533087,0.000000
849.860357,3256.906145,-9474.636058,383.047749
849.860681,1628.453072,-9918.759623,689.485948
849.861006,0.000000,-10436.903782,0.000000
849.861330,-148.041188,-10658.965565,-383.047749
849.861654,518.144159,-9844.739029,-229.828649
849.861978,1702.473667,-10066.800811,76.609550
849.862302,740.205942,-10955.047942,76.609550
849.862626,-296.082377,-11621.233289,76.609550
849.862951,-1406.391290,-11177.109724,-612.876398
849.863275,-518.144159,-10214.842000,-766.095498
