#time,accel_x,accel_y,accel_z
462.652099,6735.874072,-6957.935855,2221.676944
462.652424,7846.182985,-7994.224174,2451.505594
462.652748,7772.162391,-9474.636058,2681.334243
462.653072,6439.791695,-10807.006753,2068.457845
462.653396,4219.173869,-11917.315666,459.657299
462.653720,1332.370696,-11473.192101,0.000000
462.654044,-148.041188,-11251.130318,-766.095498
462.654368,-2072.576638,-11991.336260,-919.314598
462.654692,-3108.864956,-12065.356855,-766.095498
462.655016,-3108.864956,-10658.965565,0.000000
462.655340,-2738.761985,-8956.491898,995.924147
462.655664,-1776.494261,-7402.059420,919.314598
462.655988,0.000000,-6735.874072,1149.143247
462.656312,740.205942,-6957.935855,995.924147
462.656637,1850.514855,-7328.038826,306.438199
462.656961,2738.761985,-7698.141797,1608.800546
462.657285,3775.050304,-9030.512492,2145.067394
462.657609,4441.235652,-10288.862594,1072.533697
462.657933,3701.029710,-11177.109724,-383.047749
462.658257,2886.803174,-11991.336260,-612.876398
462.658581,2294.638420,-12583.501014,-842.705048
462.658905,1702.473667,-12805.562797,689.485948
462.659229,888.247130,-11991.336260,1225.752797
462.659553,814.226536,-10658.965565,1378.971896
462.659877,1110.308913,-10066.800811,1685.410096
462.660201,2220.617826,-10436.903782,1915.238745
462.660525,2664.741391,-10214.842000,2451.505594
462.660850,2590.720797,-9400.615463,2145.067394
462.661174,2368.659014,-8586.388927,2298.286494
462.661498,2368.659014,-9178.553681,1838.629195
462.661822,2442.679609,-9696.697840,1838.629195
462.662146,2516.700203,-9918.759623,1149.143247
462.662470,2960.823768,-10288.862594,459.657299
462.662794,2960.823768,-10362.883188,1455.581446
462.663118,3997.112087,-10955.047942,2298.286494
462.663442,4071.132681,-10955.047942,3140.991542
462.663766,3552.988522,-10732.986159,3524.039291
462.664090,2442.679609,-10214.842000,3830.477490
462.664414,2220.617826,-9918.759623,3983.696590
462.664738,2220.617826,-9104.533087,4519.963438
462.665062,2368.659014,-7920.203579,5056.230287
462.665387,2738.761985,-7105.977043,4596.572988
462.665711,2590.720797,-6365.771101,4519.963438
462.666035,2368.659014,-5921.647536,3830.477490
462.666359,2368.659014,-5921.647536,2987.772442
462.666683,2072.576638,-5995.668130,2451.505594
462.667007,2294.638420,-6957.935855,2068.457845
462.667331,2368.659014,-8808.450710,2298.286494
462.667655,2590.720797,-10510.924376,3370.820191
462.667979,2294.638420,-11399.171507,4060.306139
462.668303,1480.411884,-12213.398043,4749.792088
462.668627,370.102971,-11769.274478,4903.011187
462.668951,74.020594,-11325.150913,4366.744339
462.669275,740.205942,-10658.965565,4749.792088
462.669600,2516.700203,-10140.821405,4749.792088
462.669924,4515.256246,-9474.636058,4826.401637
462.670248,5847.626942,-8142.265362,4366.744339
462.670572,5551.544565,-7254.018232,3140.991542
462.670896,4293.194464,-6883.915261,2681.334243
462.671220,2146.597232,-7772.162391,1685.410096
462.671544,0.000000,-9178.553681,1149.143247
462.671868,-1554.432478,-10140.821405,1149.143247
462.672192,-2368.659014,-10584.944971,1302.362347
462.672516,-1702.473667,-10066.800811,2145.067394
462.672840,222.061783,-10732.986159,2221.676944
462.673164,1850.514855,-10510.924376,2757.943793
462.673488,1184.329507,-10140.821405,2451.505594
462.673813,-74.020594,-9474.636058,1685.410096
462.674137,-1332.370696,-8734.430116,1838.629195
462.674461,-1406.391290,-8142.265362,1378.971896
462.674785,888.247130,-8290.306550,919.314598
462.675109,3108.864956,-7772.162391,612.876398
462.675433,3849.070898,-7920.203579,-229.828649
462.675757,4885.359217,-9474.636058,0.000000
462.676081,4145.153275,-11473.192101,-842.705048
462.676405,2516.700203,-12361.439231,-919.314598
462.676729,222.061783,-12139.377449,-612.876398
462.677053,-444.123565,-11917.315666,153.219100
462.677377,592.164754,-12287.418637,766.095498
462.677701,2368.659014,-11547.212695,1302.362347
462.678026,3330.926739,-11029.068536,995.924147
462.678350,1998.556043,-9474.636058,612.876398
462.678674,-222.061783,-9178.553681,0.000000
462.678998,-1776.494261,-7402.059420,-842.705048
462.679322,-2072.576638,-6439.791695,-1685.410096
462.679646,-814.226536,-6809.894666,-2145.067394
462.679970,740.205942,-8216.285956,-2451.505594
462.680294,1554.432478,-9400.615463,-2221.676944
462.680618,2294.638420,-10510.924376,-2068.457845
462.680942,1406.391290,-10288.862594,-1991.848295
462.681267,740.205942,-10066.800811,-1532.190996
462.681591,1480.411884,-10658.965565,-766.095498
462.681916,2664.741391,-11991.336260,-536.266849
462.682240,2812.782580,-12731.542202,-383.047749
462.682564,814.226536,-11695.253884,0.000000
462.682889,-962.267725,-11029.068536,-919.314598
462.683213,-1480.411884,-9622.677246,-1225.752797
462.683537,-962.267725,-8512.368333,-995.924147
462.683862,0.000000,-8586.388927,-1302.362347
462.684186,444.123565,-9992.780217,-1455.581446
462.684510,-296.082377,-10658.965565,-1378.971896
462.684835,-1036.288319,-10288.862594,-919.314598
462.685159,-296.082377,-9770.718434,-689.485948
462.685483,296.082377,-9844.739029,0.000000
462.685808,2516.700203,-10140.821405,-229.828649
462.686132,2738.761985,-10362.883188,-229.828649
462.686456,1036.288319,-10436.903782,-612.876398
462.686781,-1850.514855,-9992.780217,-459.657299
462.687105,-3182.885551,-8956.491898,-766.095498
462.687429,-3256.906145,-7994.224174,76.609550
462.687754,-2590.720797,-7476.080014,-306.438199
462.688078,-1406.391290,-8142.265362,459.657299
462.688403,-1036.288319,-8734.430116,995.924147
462.688727,-666.185348,-8660.409521,919.314598
462.689051,-888.247130,-8512.368333,1455.581446
462.689376,-1036.288319,-8290.306550,1915.238745
462.689700,-740.205942,-9400.615463,1762.019645
462.690024,-296.082377,-10436.903782,1225.752797
462.690349,-888.247130,-11029.068536,536.266849
462.690673,-1554.432478,-10214.842000,-229.828649
462.690997,-1850.514855,-9252.574275,-842.705048
462.691322,-592.164754,-8808.450710,0.000000
462.691646,592.164754,-9104.533087,306.438199
462.691970,518.144159,-10510.924376,842.705048
462.692295,0.000000,-10066.800811,0.000000
462.692619,-1110.308913,-8956.491898,459.657299
462.692943,-1184.329507,-8660.409521,459.657299
462.693268,1258.350101,-8586.388927,1915.238745
462.693592,3034.844362,-9844.739029,2681.334243
462.693916,3701.029710,-11473.192101,2911.162892
462.694241,2738.761985,-11251.130318,1762.019645
462.694565,74.020594,-10362.883188,842.705048
462.694889,-2220.617826,-8808.450710,-459.657299
462.695214,-2368.659014,-8364.327145,-459.657299
462.695538,-666.185348,-9400.615463,-306.438199
462.695863,518.144159,-10288.862594,383.047749
462.696187,740.205942,-10881.027347,306.438199
462.696511,74.020594,-9696.697840,-306.438199
462.696836,-370.102971,-8290.306550,-536.266849
462.697160,444.123565,-8216.285956,229.828649
462.697484,1332.370696,-9326.594869,919.314598
462.697809,1776.494261,-10955.047942,1532.190996
462.698133,1406.391290,-11103.089130,1072.533697
462.698457,814.226536,-10066.800811,536.266849
462.698782,962.267725,-9474.636058,0.000000
462.699106,2072.576638,-9178.553681,0.000000
462.699430,1924.535449,-10288.862594,153.219100
462.699755,1332.370696,-11473.192101,-229.828649
462.700079,-296.082377,-11103.089130,-766.095498
462.700403,-1924.535449,-10066.800811,-1149.143247
462.700728,-1628.453072,-8956.491898,-1149.143247
462.701052,0.000000,-8660.409521,-459.657299
462.701376,1776.494261,-9474.636058,919.314598
462.701701,2294.638420,-10214.842000,383.047749
462.702025,1850.514855,-10881.027347,459.657299
462.702350,444.123565,-9474.636058,0.000000
462.702674,222.061783,-7994.224174,-153.219100
462.702998,962.267725,-8142.265362,0.000000
462.703323,1332.370696,-9326.594869,76.609550
462.703647,814.226536,-10584.944971,459.657299
462.703971,-148.041188,-10658.965565,-459.657299
462.704296,-1258.350101,-9474.636058,-919.314598
462.704620,-1480.411884,-8660.409521,-383.047749
462.704944,-962.267725,-8512.368333,0.000000
462.705269,-444.123565,-9326.594869,459.657299
462.705593,-740.205942,-9918.759623,383.047749
462.705917,-666.185348,-9548.656652,-689.485948
462.706242,-1110.308913,-8216.285956,-383.047749
462.706566,0.000000,-7772.162391,-306.438199
462.706890,1628.453072,-7994.224174,0.000000
462.707215,1036.288319,-9548.656652,0.000000
462.707539,-592.164754,-10881.027347,-153.219100
462.707863,-2812.782580,-10955.047942,-536.266849
462.708188,-3552.988522,-9622.677246,-1838.629195
462.708512,-2960.823768,-8586.388927,-1378.971896
462.708837,-1480.411884,-9474.636058,-766.095498
462.709161,592.164754,-10436.903782,0.000000
462.709485,370.102971,-11103.089130,-153.219100
462.709810,-666.185348,-10510.924376,-536.266849
462.710134,-1258.350101,-9030.512492,-1149.143247
462.710458,-888.247130,-8512.368333,-689.485948
462.710783,0.000000,-8438.347739,-459.657299
462.711107,592.164754,-10436.903782,-612.876398
462.711431,0.000000,-11917.315666,-1302.362347
462.711756,-1406.391290,-11843.295072,-1455.581446
462.712080,-1850.514855,-10658.965565,-1838.629195
462.712404,-1184.329507,-10140.821405,-1302.362347
462.712729,-666.185348,-10362.883188,-459.657299
462.713053,0.000000,-11399.171507,-842.705048
462.713377,-74.020594,-11103.089130,-1072.533697
462.713702,-296.082377,-10510.924376,-612.876398
462.714026,592.164754,-9400.615463,-612.876398
462.714350,1850.514855,-8512.368333,0.000000
462.714675,2664.741391,-9252.574275,612.876398
462.714999,2368.659014,-10214.842000,612.876398
462.715324,518.144159,-11029.068536,-229.828649
462.715648,-1998.556043,-10362.883188,-766.095498
462.715972,-2812.782580,-9252.574275,-919.314598
462.716297,-1480.411884,-8882.471304,-229.828649
462.716621,0.000000,-9474.636058,383.047749
462.716945,740.205942,-10066.800811,612.876398
462.717270,444.123565,-9992.780217,0.000000
462.717594,222.061783,-8586.388927,-383.047749
462.717918,0.000000,-7550.100608,-919.314598
462.718243,1036.288319,-6735.874072,383.047749
462.718567,1924.535449,-8068.244768,1072.533697
462.718891,1554.432478,-10214.842000,995.924147
462.719216,518.144159,-10140.821405,612.876398
462.719540,-370.102971,-9326.594869,-153.219100
462.719864,-444.123565,-8438.347739,0.000000
462.720189,222.061783,-8512.368333,612.876398
462.720513,1036.288319,-9252.574275,1685.410096
462.720837,592.164754,-9844.739029,612.876398
462.721162,-222.061783,-9770.718434,536.266849
462.721486,-888.247130,-8808.450710,229.828649
462.721811,-518.144159,-7476.080014,459.657299
462.722135,666.185348,-7698.141797,842.705048
462.722459,1406.391290,-9104.533087,1302.362347
462.722784,740.205942,-10732.986159,1378.971896
462.723108,0.000000,-11251.130318,842.705048
462.723432,-1702.473667,-9696.697840,229.828649
462.723757,-1776.494261,-8808.450710,0.000000
462.724081,-222.061783,-9400.615463,306.438199
462.724405,1036.288319,-10436.903782,1378.971896
462.724730,2072.576638,-11251.130318,1302.362347
462.725054,1776.494261,-10881.027347,1072.533697
462.725378,888.247130,-9178.553681,766.095498
462.725703,444.123565,-7920.203579,536.266849
462.726027,740.205942,-8660.409521,0.000000
462.726351,1184.329507,-10140.821405,459.657299
462.726676,518.144159,-11399.171507,229.828649
462.727000,-888.247130,-11621.233289,-306.438199
462.727324,-1924.535449,-10584.944971,-919.314598
462.727649,-1702.473667,-9474.636058,0.000000
462.727973,-1110.308913,-9918.759623,0.000000
462.728298,-814.226536,-11103.089130,383.047749
462.728622,-1924.535449,-11399.171507,-153.219100
462.728946,-2516.700203,-10658.965565,-459.657299
462.729271,-2516.700203,-9252.574275,-459.657299
462.729595,-740.205942,-8142.265362,-306.438199
462.729919,962.267725,-8586.388927,76.609550
462.730244,1628.453072,-9844.739029,76.609550
462.730568,444.123565,-10362.883188,-229.828649
462.730892,-1702.473667,-10140.821405,-1225.752797
462.731217,-2516.700203,-9622.677246,-1225.752797
462.731541,-2442.679609,-8586.388927,-995.924147
462.731865,-814.226536,-8956.491898,-153.219100
462.732190,222.061783,-9918.759623,-306.438199
462.732514,222.061783,-10214.842000,-229.828649
462.732838,0.000000,-9326.594869,-919.314598
462.733163,148.041188,-7994.224174,-1072.533697
462.733487,592.164754,-7031.956449,-689.485948
462.733811,1628.453072,-8068.244768,0.000000
462.734136,1776.494261,-9844.739029,76.609550
462.734460,1258.350101,-11399.171507,0.000000
462.734785,0.000000,-10881.027347,-919.314598
462.735109,-444.123565,-9474.636058,-995.924147
462.735433,148.041188,-8882.471304,-229.828649
462.735758,888.247130,-9844.739029,-229.828649
462.736082,1480.411884,-10807.006753,-536.266849
462.736406,222.061783,-10807.006753,-1149.143247
462.736731,-592.164754,-9844.739029,-1302.362347
462.737055,-444.123565,-8438.347739,-1378.971896
462.737379,888.247130,-8068.244768,-689.485948
462.737704,1998.556043,-9178.553681,0.000000
462.738028,1110.308913,-10362.883188,76.609550
462.738352,-740.205942,-10955.047942,-459.657299
462.738677,-2072.576638,-10362.883188,-1225.752797
462.739001,-1924.535449,-9104.533087,-536.266849
462.739325,0.000000,-9104.533087,-229.828649
462.739650,1406.391290,-10214.842000,383.047749
462.739974,1702.473667,-11103.089130,306.438199
462.740298,1036.288319,-10584.944971,0.000000
462.740623,370.102971,-9252.574275,-1149.143247
462.740947,666.185348,-7698.141797,-689.485948
462.741272,1480.411884,-8068.244768,306.438199
462.741596,2368.659014,-9992.780217,689.485948
462.741920,2368.659014,-11473.192101,689.485948
462.742245,962.267725,-11843.295072,612.876398
462.742569,-444.123565,-11029.068536,76.609550
462.742893,-962.267725,-10362.883188,-153.219100
462.743218,-592.164754,-9474.636058,919.314598
462.743542,-592.164754,-10214.842000,1685.410096
462.743866,-444.123565,-11177.109724,1608.800546
462.744191,-1776.494261,-10214.842000,689.485948
462.744515,-2220.617826,-8438.347739,76.609550
462.744839,-1554.432478,-7179.997637,76.609550
462.745164,74.020594,-7105.977043,842.705048
462.745488,1036.288319,-8290.306550,1838.629195
462.745812,592.164754,-9548.656652,919.314598
462.746137,-1110.308913,-9252.574275,612.876398
462.746461,-2664.741391,-8512.368333,612.876398
462.746785,-2960.823768,-7846.182985,689.485948
462.747110,-1776.494261,-8216.285956,1149.143247
462.747434,-222.061783,-9622.677246,1149.143247
462.747758,0.000000,-9918.759623,1378.971896
462.748083,-370.102971,-9622.677246,1072.533697
462.748407,-1036.288319,-7994.224174,995.924147
462.748732,0.000000,-7402.059420,612.876398
462.749056,814.226536,-8068.244768,766.095498
462.749380,1332.370696,-9770.718434,842.705048
462.749705,518.144159,-11103.089130,383.047749
462.750029,-148.041188,-11177.109724,-229.828649
462.750353,-962.267725,-9992.780217,0.000000
462.750678,-370.102971,-9474.636058,-229.828649
462.751002,444.123565,-9474.636058,766.095498
462.751326,370.102971,-11177.109724,383.047749
462.751651,-1036.288319,-11251.130318,-383.047749
462.751975,-1850.514855,-10510.924376,-1225.752797
462.752299,-1258.350101,-8956.491898,-1149.143247
462.752624,444.123565,-8068.244768,-459.657299
462.752948,1998.556043,-9918.759623,229.828649
462.753272,1258.350101,-10066.800811,612.876398
462.753597,370.102971,-11029.068536,-76.609550
462.753921,-1036.288319,-10584.944971,-1302.362347
462.754245,-1036.288319,-9474.636058,-1838.629195
462.754570,-148.041188,-9326.594869,-995.924147
462.754894,1258.350101,-10214.842000,-689.485948
462.755219,1332.370696,-10955.047942,0.000000
462.755543,518.144159,-11177.109724,-842.705048
462.755867,0.000000,-9844.739029,-1762.019645
462.756192,-296.082377,-8808.450710,-2068.457845
462.756516,814.226536,-8512.368333,-1149.143247
462.756840,2368.659014,-9326.594869,-536.266849
462.757165,2812.782580,-11029.068536,-306.438199
462.757489,1628.453072,-11103.089130,-1072.533697
462.757813,296.082377,-10658.965565,-1915.238745
462.758138,0.000000,-9770.718434,-1532.190996
462.758462,0.000000,-8956.491898,-1149.143247
462.758786,148.041188,-10066.800811,-766.095498
462.759111,-296.082377,-10881.027347,-536.266849
462.759435,-1184.329507,-10584.944971,-1302.362347
462.759759,-1184.329507,-9400.615463,-1378.971896
462.760084,0.000000,-7920.203579,-1378.971896
462.760408,1332.370696,-7994.224174,-612.876398
462.760732,1554.432478,-8660.409521,0.000000
462.761057,1036.288319,-10140.821405,153.219100
462.761381,-814.226536,-9992.780217,-459.657299
462.761706,-2146.597232,-9252.574275,-842.705048
462.762030,-1924.535449,-8512.368333,-306.438199
462.762354,74.020594,-8734.430116,383.047749
462.762679,1702.473667,-9622.677246,842.705048
462.763003,1406.391290,-10436.903782,1072.533697
462.763327,0.000000,-10066.800811,153.219100
462.763652,-962.267725,-8956.491898,-153.219100
462.763976,-518.144159,-8142.265362,0.000000
462.764300,296.082377,-8142.265362,459.657299
462.764625,1036.288319,-8956.491898,1608.800546
462.764949,666.185348,-11029.068536,1455.581446
462.765273,-444.123565,-10658.965565,306.438199
462.765598,-1850.514855,-9178.553681,-153.219100
462.765922,-2146.597232,-9104.533087,0.000000
462.766246,-1184.329507,-9474.636058,689.485948
462.766571,-370.102971,-10807.006753,1149.143247
462.766895,-814.226536,-11177.109724,1149.143247
462.767219,-962.267725,-11029.068536,536.266849
462.767544,-962.267725,-9474.636058,153.219100
462.767868,0.000000,-8512.368333,459.657299
462.768193,1036.288319,-8956.491898,1149.143247
462.768517,666.185348,-10362.883188,1302.362347
462.768841,-296.082377,-11029.068536,919.314598
462.769166,-2220.617826,-10510.924376,153.219100
462.769490,-2812.782580,-9400.615463,-229.828649
462.769814,-1554.432478,-8956.491898,0.000000
462.770139,74.020594,-9474.636058,1149.143247
462.770463,518.144159,-10362.883188,689.485948
462.770787,296.082377,-10362.883188,689.485948
462.771112,-666.185348,-9844.739029,-229.828649
462.771436,-1036.288319,-8586.388927,-689.485948
462.771760,0.000000,-8512.368333,-306.438199
462.772085,1628.453072,-9326.594869,383.047749
462.772409,2146.597232,-10732.986159,766.095498
462.772733,1776.494261,-11769.274478,76.609550
462.773058,296.082377,-10658.965565,0.000000
462.773382,444.123565,-9474.636058,-229.828649
462.773706,74.020594,-9326.594869,-612.876398
462.774031,1480.411884,-10288.862594,306.438199
462.774355,1702.473667,-11399.171507,0.000000
462.774680,962.267725,-11177.109724,-229.828649
462.775004,518.144159,-9844.739029,-842.705048
462.775328,666.185348,-8586.388927,-689.485948
462.775653,1924.535449,-8216.285956,-229.828649
462.775977,2442.679609,-9104.533087,229.828649
462.776301,1998.556043,-10288.862594,0.000000
462.776626,74.020594,-10214.842000,-536.266849
462.776950,-1628.453072,-9252.574275,-1072.533697
462.777274,-1554.432478,-8438.347739,-919.314598
462.777599,-518.144159,-7698.141797,-229.828649
462.777923,962.267725,-8586.388927,536.266849
462.778247,1332.370696,-9474.636058,153.219100
462.778572,296.082377,-9104.533087,-306.438199
462.778896,-740.205942,-8068.244768,-689.485948
462.779220,-666.185348,-7328.038826,-612.876398
462.779545,222.061783,-7846.182985,-536.266849
462.779869,962.267725,-9030.512492,0.000000
462.780193,444.123565,-9992.780217,76.609550
462.780518,-962.267725,-10807.006753,-153.219100
462.780842,-1702.473667,-9474.636058,-919.314598
462.781167,-1628.453072,-9326.594869,-766.095498
462.781491,-592.164754,-9474.636058,-153.219100
462.781815,296.082377,-10732.986159,153.219100
462.782139,222.061783,-11695.253884,612.876398
462.782463,-814.226536,-10955.047942,0.000000
462.782787,-1406.391290,-9400.615463,-459.657299
462.783112,-962.267725,-8586.388927,-536.266849
462.783436,666.185348,-9178.553681,306.438199
462.783760,1184.329507,-10881.027347,995.924147
462.784084,666.185348,-11399.171507,459.657299
462.784408,-1184.329507,-10732.986159,0.000000
462.784732,-2146.597232,-9696.697840,-689.485948
462.785057,-2294.638420,-9030.512492,-612.876398
462.785381,-444.123565,-9326.594869,0.000000
462.785705,148.041188,-10436.903782,612.876398
462.786029,0.000000,-10658.965565,229.828649
462.786353,-962.267725,-9918.759623,-383.047749
462.786677,-1406.391290,-8660.409521,-459.657299
462.787002,-1258.350101,-7920.203579,-612.876398
462.787326,0.000000,-8882.471304,76.609550
462.787650,148.041188,-10214.842000,229.828649
462.787974,-444.123565,-11399.171507,0.000000
462.788298,-962.267725,-10881.027347,-536.266849
462.788623,-1480.411884,-10140.821405,-689.485948
462.788947,-1110.308913,-9770.718434,-383.047749
462.789271,74.020594,-10584.944971,306.438199
462.789595,444.123565,-11621.233289,229.828649
462.789919,0.000000,-11621.233289,-153.219100
462.790243,-1036.288319,-10362.883188,-1455.581446
462.790568,0.000000,-9178.553681,-766.095498
462.790892,1184.329507,-8438.347739,-229.828649
462.791216,2664.741391,-9252.574275,76.609550
462.791540,2072.576638,-10362.883188,229.828649
462.791864,0.000000,-10510.924376,-383.047749
462.792188,-1554.432478,-9474.636058,-766.095498
462.792513,-1776.494261,-7920.203579,-1225.752797
462.792837,-592.164754,-7550.100608,-153.219100
462.793161,1110.308913,-8438.347739,-229.828649
462.793485,1776.494261,-9548.656652,536.266849
462.793809,1110.308913,-9474.636058,0.000000
462.794134,74.020594,-8586.388927,-612.876398
462.794458,-222.061783,-7550.100608,-766.095498
462.794782,592.164754,-7031.956449,-383.047749
462.795106,1110.308913,-8882.471304,0.000000
462.795430,1554.432478,-10658.965565,-306.438199
462.795754,1406.391290,-11769.274478,-383.047749
462.796079,296.082377,-10807.006753,-766.095498
462.796403,148.041188,-10066.800811,-766.095498
462.796727,962.267725,-10436.903782,76.609550
462.797051,2146.597232,-11547.212695,536.266849
462.797375,962.267725,-11843.295072,1072.533697
462.797699,222.061783,-11473.192101,306.438199
462.798024,518.144159,-10066.800811,76.609550
462.798348,1036.288319,-8660.409521,76.609550
462.798672,2886.803174,-8956.491898,1149.143247
462.798996,3256.906145,-9844.739029,1838.629195
462.799320,2072.576638,-10732.986159,1072.533697
462.799644,-222.061783,-9918.759623,153.219100
462.799969,-1998.556043,-8882.471304,229.828649
462.800293,-1776.494261,-8882.471304,229.828649
462.800617,-740.205942,-8660.409521,919.314598
462.800941,-148.041188,-9548.656652,1455.581446
462.801265,-1036.288319,-9622.677246,1378.971896
462.801590,-1924.535449,-9326.594869,459.657299
462.801914,-2368.659014,-8142.265362,612.876398
462.802238,-2072.576638,-7550.100608,229.828649
462.802562,-666.185348,-7254.018232,995.924147
462.802886,-74.020594,-9030.512492,1225.752797
462.803210,-962.267725,-10658.965565,612.876398
462.803535,-1998.556043,-10362.883188,153.219100
462.803859,-2368.659014,-9474.636058,-306.438199
462.804183,-1924.535449,-8808.450710,0.000000
462.804507,-740.205942,-9252.574275,612.876398
462.804831,0.000000,-10732.986159,1225.752797
462.805155,222.061783,-11769.274478,842.705048
462.805480,-444.123565,-10881.027347,-459.657299
462.805804,-370.102971,-8882.471304,-229.828649
462.806128,370.102971,-8068.244768,-306.438199
462.806452,1554.432478,-8808.450710,229.828649
462.806776,1702.473667,-10288.862594,383.047749
462.807100,296.082377,-11029.068536,-306.438199
462.807425,-814.226536,-10362.883188,-842.705048
462.807749,-1628.453072,-8956.491898,-1378.971896
462.808073,-592.164754,-8882.471304,-919.314598
462.808397,518.144159,-9770.718434,-536.266849
462.808721,666.185348,-10881.027347,0.000000
462.809046,0.000000,-11103.089130,-1302.362347
462.809370,-1110.308913,-9918.759623,-1991.848295
462.809694,-888.247130,-9030.512492,-1991.848295
462.810018,-518.144159,-8734.430116,-842.705048
462.810342,1258.350101,-9622.677246,-995.924147
462.810666,1110.308913,-10955.047942,-842.705048
462.810991,0.000000,-11917.315666,-1762.019645
462.811315,-888.247130,-11399.171507,-2145.067394
462.811639,-814.226536,-10214.842000,-2068.457845
462.811963,0.000000,-9770.718434,-1378.971896
462.812287,1036.288319,-10807.006753,-919.314598
462.812611,1998.556043,-11621.233289,-689.485948
462.812936,1406.391290,-11769.274478,-919.314598
462.813260,592.164754,-10066.800811,-1532.190996
462.813584,1258.350101,-8882.471304,-995.924147
462.813908,2220.617826,-8586.388927,-306.438199
462.814232,2960.823768,-9326.594869,383.047749
462.814557,2368.659014,-10288.862594,612.876398
462.814881,370.102971,-10140.821405,0.000000
462.815205,-518.144159,-8956.491898,-229.828649
462.815529,-296.082377,-8216.285956,536.266849
462.815853,666.185348,-7920.203579,459.657299
462.816177,1406.391290,-8660.409521,919.314598
462.816502,1184.329507,-9252.574275,1072.533697
462.816826,222.061783,-8956.491898,612.876398
462.817150,-814.226536,-7772.162391,-306.438199
462.817474,-1258.350101,-6809.894666,0.000000
462.817798,-370.102971,-7698.141797,689.485948
462.818122,222.061783,-9178.553681,1072.533697
462.818447,-962.267725,-9770.718434,995.924147
462.818771,-1998.556043,-10436.903782,689.485948
462.819095,-2886.803174,-9474.636058,229.828649
462.819419,-2590.720797,-9104.533087,306.438199
462.819743,-1332.370696,-9844.739029,1225.752797
462.820067,-814.226536,-10510.924376,1302.362347
462.820392,-740.205942,-11103.089130,536.266849
462.820716,-666.185348,-10436.903782,689.485948
462.821040,-888.247130,-9030.512492,229.828649
462.821364,518.144159,-8216.285956,459.657299
462.821688,2368.659014,-8956.491898,1149.143247
462.822013,2886.803174,-10584.944971,1838.629195
462.822337,2072.576638,-11621.233289,766.095498
462.822661,444.123565,-11177.109724,76.609550
462.822985,-1258.350101,-10510.924376,0.000000
462.823309,-1110.308913,-9474.636058,153.219100
462.823633,-296.082377,-10214.842000,689.485948
462.823958,148.041188,-10807.006753,1149.143247
462.824282,-296.082377,-10881.027347,536.266849
462.824606,-1332.370696,-9844.739029,0.000000
462.824930,-1406.391290,-8660.409521,-612.876398
462.825254,-1332.370696,-7698.141797,-766.095498
462.825578,-296.082377,-8364.327145,-306.438199
462.825903,-518.144159,-9770.718434,-536.266849
462.826227,-592.164754,-11399.171507,-612.876398
462.826551,-1184.329507,-11251.130318,-995.924147
462.826875,-1406.391290,-10288.862594,-995.924147
462.827199,-1036.288319,-9844.739029,-766.095498
462.827523,-296.082377,-10362.883188,-306.438199
462.827848,222.061783,-11621.233289,0.000000
462.828172,-296.082377,-11769.274478,-536.266849
462.828496,-518.144159,-10362.883188,-689.485948
462.828820,0.000000,-8882.471304,-536.266849
462.829144,1036.288319,-8586.388927,0.000000
462.829469,2368.659014,-9474.636058,76.609550
462.829793,1924.535449,-10214.842000,383.047749
462.830117,888.247130,-10436.903782,-459.657299
462.830441,-740.205942,-9474.636058,-1302.362347
462.830765,-1110.308913,-8512.368333,-1302.362347
462.831089,148.041188,-8142.265362,-612.876398
462.831414,1258.350101,-9104.533087,-306.438199
462.831738,1110.308913,-9844.739029,-306.438199
462.832062,518.144159,-9696.697840,-1149.143247
462.832386,-222.061783,-7846.182985,-689.485948
462.832710,74.020594,-6883.915261,-383.047749
462.833034,1258.350101,-7105.977043,-612.876398
462.833359,1406.391290,-7994.224174,76.609550
462.833683,888.247130,-9474.636058,76.609550
462.834007,-370.102971,-10214.842000,-383.047749
462.834331,-1184.329507,-9770.718434,-229.828649
462.834655,-1258.350101,-8364.327145,-536.266849
462.834980,-1332.370696,-8364.327145,-153.219100
462.835304,-740.205942,-9696.697840,153.219100
462.835628,-814.226536,-10881.027347,0.000000
462.835952,-814.226536,-10732.986159,-689.485948
462.836276,-444.123565,-9326.594869,-995.924147
462.836600,814.226536,-8364.327145,-689.485948
462.836925,2664.741391,-8660.409521,-306.438199
462.837249,2590.720797,-10362.883188,459.657299
462.837573,814.226536,-11621.233289,-153.219100
462.837897,-148.041188,-11621.233289,0.000000
462.838221,-1480.411884,-10732.986159,-459.657299
462.838545,-370.102971,-10214.842000,153.219100
462.838870,888.247130,-10214.842000,689.485948
462.839194,1184.329507,-10658.965565,766.095498
462.839518,518.144159,-11177.109724,766.095498
462.839842,-592.164754,-10436.903782,0.000000
462.840166,-1406.391290,-9252.574275,-536.266849
462.840490,-1036.288319,-8364.327145,0.000000
462.840815,0.000000,-8586.388927,383.047749
462.841139,148.041188,-9770.718434,383.047749
462.841463,-444.123565,-11177.109724,-153.219100
462.841787,-1628.453072,-11029.068536,-612.876398
462.842111,-2294.638420,-9548.656652,-459.657299
462.842436,-2442.679609,-9104.533087,-229.828649
462.842760,-1776.494261,-10214.842000,-383.047749
462.843084,-1406.391290,-11399.171507,383.047749
462.843408,-1628.453072,-11769.274478,383.047749
462.843732,-1480.411884,-10881.027347,0.000000
462.844056,-444.123565,-9030.512492,-306.438199
462.844381,962.267725,-7846.182985,306.438199
462.844705,2220.617826,-8142.265362,1149.143247
462.845029,1924.535449,-9770.718434,1225.752797
462.845353,148.041188,-10732.986159,0.000000
462.845677,-1332.370696,-9992.780217,-229.828649
462.846001,-1850.514855,-8586.388927,-612.876398
462.846326,-666.185348,-7994.224174,0.000000
462.846650,518.144159,-8512.368333,459.657299
462.846974,666.185348,-9326.594869,689.485948
462.847298,-222.061783,-9696.697840,0.000000
462.847622,-1628.453072,-7624.121203,-1455.581446
462.847947,-1628.453072,-7031.956449,-842.705048
462.848271,74.020594,-6735.874072,-229.828649
462.848595,1480.411884,-8216.285956,383.047749
462.848919,1110.308913,-9918.759623,383.047749
462.849243,-592.164754,-9622.677246,383.047749
462.849567,-1258.350101,-9178.553681,-1072.533697
462.849892,-1110.308913,-9104.533087,-1225.752797
462.850216,222.061783,-9178.553681,0.000000
462.850540,1258.350101,-10288.862594,76.609550
462.850864,1480.411884,-11547.212695,459.657299
462.851188,666.185348,-11621.233289,-153.219100
462.851512,370.102971,-10140.821405,-919.314598
462.851837,1332.370696,-8956.491898,-612.876398
462.852161,2664.741391,-9030.512492,0.000000
462.852485,3256.906145,-9918.759623,536.266849
462.852809,2442.679609,-11547.212695,153.219100
462.853133,592.164754,-11325.150913,-919.314598
462.853457,-1332.370696,-10214.842000,-919.314598
462.853782,-1258.350101,-9770.718434,-536.266849
462.854106,0.000000,-9918.759623,-229.828649
462.854430,888.247130,-10362.883188,153.219100
462.854754,962.267725,-10807.006753,383.047749
462.855078,296.082377,-10510.924376,536.266849
462.855403,-296.082377,-9178.553681,-612.876398
462.855727,-148.041188,-7846.182985,229.828649
462.856051,1110.308913,-8586.388927,229.828649
462.856375,1036.288319,-9622.677246,0.000000
462.856699,444.123565,-11251.130318,689.485948
462.857023,-148.041188,-11177.109724,229.828649
462.857348,-592.164754,-9918.759623,-229.828649
462.857672,-666.185348,-9030.512492,0.000000
462.857996,-296.082377,-9030.512492,1072.533697
462.858320,0.000000,-10584.944971,1072.533697
462.858644,-962.267725,-10584.944971,766.095498
462.858968,-1406.391290,-9770.718434,536.266849
462.859293,-1332.370696,-8364.327145,0.000000
462.859617,0.000000,-7476.080014,153.219100
462.859941,888.247130,-8216.285956,612.876398
462.860265,592.164754,-9400.615463,766.095498
462.860589,-888.247130,-10214.842000,383.047749
462.860913,-2590.720797,-9770.718434,306.438199
462.861238,-3330.926739,-8660.409521,-153.219100
462.861562,-2516.700203,-8364.327145,0.000000
462.861886,-666.185348,-9104.533087,459.657299
462.862210,0.000000,-10066.800811,612.876398
462.862534,-370.102971,-10362.883188,229.828649
462.862859,-740.205942,-9326.594869,0.000000
462.863183,-518.144159,-8216.285956,-153.219100
462.863507,518.144159,-7994.224174,306.438199
462.863831,666.185348,-8438.347739,689.485948
462.864155,592.164754,-10066.800811,383.047749
462.864479,-148.041188,-10881.027347,0.000000
462.864804,-1184.329507,-10288.862594,-459.657299
462.865128,-1628.453072,-9474.636058,-306.438199
462.865452,-370.102971,-9474.636058,76.609550
462.865776,0.000000,-10140.821405,306.438199
462.866100,-666.185348,-10584.944971,-536.266849
462.866424,-1628.453072,-10510.924376,-995.924147
462.866749,-1628.453072,-9622.677246,-1608.800546
462.867073,-518.144159,-8734.430116,-1225.752797
462.867397,1184.329507,-8290.306550,-383.047749
462.867721,2368.659014,-9696.697840,-229.828649
462.868045,1480.411884,-10658.965565,-536.266849
462.868370,370.102971,-10807.006753,-842.705048
462.868694,-666.185348,-10584.944971,-1762.019645
462.869018,-148.041188,-9992.780217,-995.924147
462.869342,962.267725,-10140.821405,0.000000
462.869666,2146.597232,-11251.130318,383.047749
462.869990,1776.494261,-11621.233289,76.609550
462.870315,814.226536,-11251.130318,0.000000
462.870639,518.144159,-9548.656652,-1072.533697
462.870963,444.123565,-8808.450710,-1072.533697
462.871287,1258.350101,-9104.533087,0.000000
462.871611,1702.473667,-10066.800811,0.000000
462.871935,666.185348,-10807.006753,0.000000
462.872260,-592.164754,-11103.089130,-689.485948
462.872584,-962.267725,-9770.718434,-919.314598
462.872908,-444.123565,-8364.327145,-306.438199
462.873232,666.185348,-8956.491898,0.000000
462.873556,1184.329507,-9622.677246,842.705048
462.873880,222.061783,-10584.944971,306.438199
462.874205,-888.247130,-9622.677246,-306.438199
462.874529,-592.164754,-8586.388927,-229.828649
462.874853,296.082377,-7328.038826,0.000000
462.875177,1628.453072,-7772.162391,383.047749
462.875501,2146.597232,-9326.594869,1225.752797
462.875826,962.267725,-9770.718434,612.876398
462.876150,-888.247130,-10140.821405,-306.438199
462.876474,-1702.473667,-9252.574275,-306.438199
462.876798,-962.267725,-8956.491898,76.609550
462.877122,370.102971,-9474.636058,919.314598
462.877446,962.267725,-10436.903782,842.705048
462.877771,222.061783,-11325.150913,536.266849
462.878095,-1110.308913,-9844.739029,-153.219100
462.878419,-1258.350101,-8660.409521,-1225.752797
462.878743,-814.226536,-7698.141797,-306.438199
462.879067,74.020594,-8364.327145,76.609550
462.879391,74.020594,-9918.759623,229.828649
462.879716,-740.205942,-10955.047942,0.000000
462.880040,-2146.597232,-10214.842000,-383.047749
462.880364,-2368.659014,-8956.491898,-842.705048
462.880688,-2368.659014,-8512.368333,-536.266849
462.881012,-962.267725,-9696.697840,76.609550
462.881337,-518.144159,-10881.027347,612.876398
462.881661,-888.247130,-11547.212695,0.000000
462.881985,-1258.350101,-10214.842000,-459.657299
462.882309,-296.082377,-8882.471304,-383.047749
462.882633,1110.308913,-8290.306550,-229.828649
462.882957,2368.659014,-9622.677246,689.485948
462.883281,2072.576638,-11547.212695,842.705048
462.883606,296.082377,-11547.212695,-229.828649
462.883930,-1332.370696,-10140.821405,-1149.143247
462.884254,-1628.453072,-8956.491898,-1149.143247
462.884578,-222.061783,-9400.615463,0.000000
462.884902,814.226536,-10362.883188,153.219100
462.885226,962.267725,-10807.006753,306.438199
462.885551,-148.041188,-10362.883188,0.000000
462.885875,-1110.308913,-8808.450710,-995.924147
462.886199,-962.267725,-7846.182985,-612.876398
462.886523,518.144159,-8216.285956,76.609550
462.886847,1924.535449,-9326.594869,842.705048
462.887171,1258.350101,-10362.883188,766.095498
462.887495,-814.226536,-10881.027347,306.438199
462.887820,-1554.432478,-10066.800811,-995.924147
462.888144,-1406.391290,-9474.636058,-1685.410096
462.888468,-444.123565,-9770.718434,-383.047749
462.888792,148.041188,-10436.903782,76.609550
462.889116,444.123565,-11177.109724,153.219100
462.889440,-148.041188,-10658.965565,-153.219100
462.889765,-592.164754,-9400.615463,-766.095498
462.890089,296.082377,-8290.306550,-689.485948
462.890413,1998.556043,-8660.409521,0.000000
462.890737,2442.679609,-10066.800811,536.266849
462.891061,1702.473667,-10955.047942,229.828649
462.891385,74.020594,-11029.068536,0.000000
462.891710,-814.226536,-9992.780217,-459.657299
462.892034,-592.164754,-9252.574275,-229.828649
462.892358,814.226536,-9252.574275,459.657299
462.892682,1776.494261,-10362.883188,612.876398
462.893006,1332.370696,-10140.821405,612.876398
462.893330,296.082377,-9918.759623,-383.047749
462.893654,0.000000,-8216.285956,-612.876398
462.893979,592.164754,-7476.080014,-153.219100
462.894303,1332.370696,-7846.182985,0.000000
462.894627,2146.597232,-9474.636058,459.657299
462.894951,1480.411884,-9918.759623,536.266849
462.895275,518.144159,-10658.965565,-306.438199
462.895599,-592.164754,-9622.677246,-229.828649
462.895924,-370.102971,-9178.553681,229.828649
462.896248,296.082377,-9770.718434,1225.752797
462.896572,148.041188,-10807.006753,1455.581446
462.896896,-740.205942,-10955.047942,995.924147
462.897220,-1702.473667,-9696.697840,153.219100
462.897544,-1776.494261,-8364.327145,0.000000
462.897868,-666.185348,-7105.977043,153.219100
462.898193,592.164754,-8364.327145,153.219100
462.898517,814.226536,-10140.821405,459.657299
462.898841,-444.123565,-10881.027347,0.000000
462.899165,-2220.617826,-10140.821405,-459.657299
462.899489,-3034.844362,-8882.471304,-842.705048
462.899813,-2072.576638,-9030.512492,-383.047749
462.900138,-370.102971,-9844.739029,306.438199
462.900462,-296.082377,-10658.965565,459.657299
462.900786,-296.082377,-10807.006753,229.828649
462.901110,-888.247130,-9992.780217,-383.047749
462.901434,-1184.329507,-8734.430116,-229.828649
462.901758,-74.020594,-8512.368333,-229.828649
462.902083,296.082377,-9474.636058,536.266849
462.902407,74.020594,-10881.027347,-306.438199
462.902731,-1184.329507,-11473.192101,-383.047749
462.903055,-2368.659014,-10362.883188,-1225.752797
462.903379,-1776.494261,-9548.656652,-1072.533697
462.903703,-1110.308913,-9696.697840,-612.876398
462.904027,0.000000,-10362.883188,-383.047749
462.904352,0.000000,-10881.027347,-229.828649
462.904676,-1184.329507,-10584.944971,-612.876398
462.905000,-1110.308913,-9474.636058,-1455.581446
462.905324,74.020594,-8586.388927,-536.266849
462.905648,1628.453072,-8438.347739,-306.438199
462.905972,2590.720797,-9696.697840,229.828649
462.906297,2146.597232,-11251.130318,153.219100
462.906621,518.144159,-11177.109724,0.000000
462.906945,-370.102971,-10362.883188,-459.657299
462.907269,-370.102971,-9104.533087,-919.314598
462.907593,1110.308913,-9326.594869,-153.219100
462.907917,2368.659014,-10584.944971,229.828649
462.908242,1998.556043,-10807.006753,0.000000
462.908566,814.226536,-10362.883188,-612.876398
462.908890,0.000000,-9474.636058,-1225.752797
462.909214,592.164754,-7772.162391,-919.314598
462.909538,1628.453072,-8290.306550,383.047749
462.909862,1850.514855,-9252.574275,229.828649
462.910186,1628.453072,-10955.047942,0.000000
462.910511,148.041188,-10436.903782,-229.828649
462.910835,-740.205942,-9400.615463,-612.876398
462.911159,-962.267725,-8586.388927,0.000000
462.911483,-222.061783,-8586.388927,229.828649
462.911807,-370.102971,-9400.615463,459.657299
462.912131,-1036.288319,-9622.677246,0.000000
462.912456,-1702.473667,-8956.491898,-229.828649
462.912780,-1332.370696,-7772.162391,-1072.533697
462.913104,0.000000,-7179.997637,0.000000
462.913428,1036.288319,-7846.182985,383.047749
462.913752,1924.535449,-9474.636058,1149.143247
462.914076,518.144159,-10214.842000,536.266849
462.914400,-296.082377,-10288.862594,536.266849
462.914725,-1258.350101,-9326.594869,306.438199
462.915049,-370.102971,-9252.574275,766.095498
462.915373,1110.308913,-9474.636058,1378.971896
462.915697,1258.350101,-10510.924376,1455.581446
462.916021,222.061783,-11029.068536,689.485948
462.916345,-1036.288319,-9844.739029,0.000000
462.916670,-1554.432478,-8660.409521,0.000000
462.916994,-1036.288319,-7772.162391,0.000000
462.917318,-296.082377,-8808.450710,229.828649
462.917642,0.000000,-10732.986159,689.485948
462.917966,-962.267725,-11769.274478,153.219100
462.918290,-1998.556043,-11177.109724,-459.657299
462.918615,-2146.597232,-10288.862594,0.000000
462.918939,-1850.514855,-9400.615463,306.438199
462.919263,-592.164754,-9696.697840,306.438199
462.919587,0.000000,-11029.068536,995.924147
462.919911,-666.185348,-11843.295072,383.047749
462.920235,-666.185348,-10584.944971,-229.828649
462.920559,74.020594,-8956.491898,-153.219100
462.920884,1110.308913,-7920.203579,0.000000
462.921208,1628.453072,-8586.388927,0.000000
462.921532,962.267725,-10584.944971,0.000000
462.921856,-1184.329507,-10807.006753,-612.876398
462.922180,-1998.556043,-10732.986159,-766.095498
462.922504,-2146.597232,-8956.491898,-842.705048
462.922829,-740.205942,-8734.430116,-306.438199
462.923153,740.205942,-9474.636058,0.000000
462.923477,592.164754,-10658.965565,-459.657299
462.923801,-666.185348,-10732.986159,-842.705048
462.924125,-1036.288319,-9548.656652,-1378.971896
462.924449,-666.185348,-8438.347739,-1915.238745
462.924773,888.247130,-8364.327145,-612.876398
462.925098,2368.659014,-9474.636058,-153.219100
462.925422,2072.576638,-11103.089130,-612.876398
462.925746,666.185348,-11695.253884,-1072.533697
462.926070,-518.144159,-10584.944971,-1149.143247
462.926394,0.000000,-9104.533087,-1149.143247
462.926718,592.164754,-9326.594869,-229.828649
462.927043,2072.576638,-10214.842000,76.609550
462.927367,1332.370696,-10732.986159,0.000000
462.927691,222.061783,-10140.821405,-766.095498
462.928015,-296.082377,-8660.409521,-995.924147
462.928339,74.020594,-7328.038826,-536.266849
462.928663,1702.473667,-7105.977043,0.000000
462.928988,1924.535449,-9104.533087,459.657299
462.929312,296.082377,-9622.677246,-229.828649
462.929636,-1258.350101,-10140.821405,-1149.143247
462.929960,-1998.556043,-9474.636058,-1378.971896
462.930284,-1184.329507,-9178.553681,-536.266849
462.930608,296.082377,-9474.636058,153.219100
462.930932,1332.370696,-9992.780217,306.438199
462.931257,888.247130,-11029.068536,536.266849
462.931581,74.020594,-11029.068536,-459.657299
462.931905,-296.082377,-9474.636058,-766.095498
462.932229,296.082377,-8956.491898,-153.219100
462.932553,1332.370696,-9474.636058,383.047749
462.932877,1628.453072,-11251.130318,689.485948
462.933202,666.185348,-11843.295072,842.705048
462.933526,-962.267725,-11103.089130,229.828649
462.933850,-1702.473667,-10362.883188,229.828649
462.934174,-1480.411884,-9326.594869,536.266849
462.934498,-592.164754,-9474.636058,459.657299
462.934822,-592.164754,-10288.862594,995.924147
462.935146,-1036.288319,-10510.924376,766.095498
462.935471,-1554.432478,-9474.636058,-306.438199
462.935795,-1406.391290,-7846.182985,0.000000
462.936119,74.020594,-6883.915261,536.266849
462.936443,1332.370696,-8142.265362,766.095498
462.936767,814.226536,-9474.636058,1149.143247
462.937091,-518.144159,-10214.842000,459.657299
462.937416,-1776.494261,-9992.780217,229.828649
462.937740,-1850.514855,-8956.491898,536.266849
462.938064,-962.267725,-7994.224174,1072.533697
462.938388,296.082377,-9030.512492,1608.800546
462.938712,592.164754,-9844.739029,1149.143247
462.939036,-444.123565,-10436.903782,842.705048
462.939361,-1110.308913,-10066.800811,153.219100
462.939685,-962.267725,-8586.388927,0.000000
462.940009,222.061783,-8142.265362,459.657299
462.940333,1110.308913,-9252.574275,689.485948
462.940657,1332.370696,-10881.027347,1225.752797
462.940981,74.020594,-11251.130318,612.876398
462.941305,-740.205942,-10732.986159,-383.047749
462.941630,-666.185348,-9252.574275,-153.219100
462.941954,222.061783,-9474.636058,76.609550
462.942278,592.164754,-9844.739029,612.876398
462.942602,296.082377,-10732.986159,383.047749
462.942926,-518.144159,-10658.965565,-459.657299
462.943250,-888.247130,-9252.574275,-1149.143247
462.943575,0.000000,-7920.203579,-383.047749
462.943899,1406.391290,-7772.162391,153.219100
462.944223,2294.638420,-9474.636058,536.266849
462.944547,1184.329507,-10658.965565,153.219100
462.944871,-740.205942,-10955.047942,-383.047749
462.945195,-2072.576638,-10066.800811,-919.314598
462.945519,-1628.453072,-9030.512492,-842.705048
462.945844,148.041188,-9474.636058,-229.828649
462.946168,814.226536,-10436.903782,0.000000
462.946492,592.164754,-10658.965565,-306.438199
462.946816,74.020594,-10510.924376,-766.095498
462.947140,0.000000,-9918.759623,-1149.143247
462.947464,888.247130,-8956.491898,-306.438199
462.947789,1924.535449,-9252.574275,153.219100
462.948113,2072.576638,-10732.986159,229.828649
462.948437,1258.350101,-11177.109724,153.219100
462.948761,370.102971,-11399.171507,-612.876398
462.949085,-814.226536,-10066.800811,-842.705048
462.949409,444.123565,-9548.656652,-306.438199
462.949734,1332.370696,-9474.636058,383.047749
462.950058,962.267725,-10066.800811,612.876398
462.950382,-444.123565,-10436.903782,153.219100
462.950706,-1184.329507,-9326.594869,-612.876398
462.951030,-518.144159,-7402.059420,-689.485948
462.951354,222.061783,-7031.956449,0.000000
462.951678,1998.556043,-7698.141797,536.266849
462.952003,1776.494261,-8734.430116,229.828649
462.952327,148.041188,-9770.718434,76.609550
462.952651,-1554.432478,-9474.636058,-536.266849
462.952975,-1924.535449,-8660.409521,-459.657299
462.953299,-592.164754,-8660.409521,-229.828649
462.953623,888.247130,-8882.471304,536.266849
462.953948,666.185348,-9696.697840,536.266849
462.954272,-666.185348,-10584.944971,153.219100
462.954596,-2146.597232,-9992.780217,-536.266849
462.954920,-1998.556043,-8882.471304,-842.705048
462.955244,-888.247130,-8216.285956,-459.657299
462.955568,444.123565,-8956.491898,-229.828649
462.955892,740.205942,-11103.089130,306.438199
462.956217,-296.082377,-11621.233289,-229.828649
462.956541,-666.185348,-11177.109724,-306.438199
462.956865,-1406.391290,-10066.800811,-1072.533697
462.957189,-1258.350101,-9622.677246,-306.438199
462.957513,-592.164754,-10214.842000,0.000000
462.957837,-814.226536,-11325.150913,-383.047749
462.958162,-1184.329507,-11103.089130,-383.047749
462.958486,-1480.411884,-10288.862594,-1685.410096
462.958810,-296.082377,-8512.368333,-919.314598
462.959134,1110.308913,-8068.244768,-383.047749
462.959458,2220.617826,-9474.636058,0.000000
462.959782,740.205942,-10658.965565,0.000000
462.960107,-1258.350101,-10732.986159,-536.266849
462.960431,-2368.659014,-10140.821405,-1302.362347
462.960755,-1406.391290,-9548.656652,-766.095498
462.961079,0.000000,-9104.533087,-153.219100
462.961403,1184.329507,-9918.759623,459.657299
462.961727,888.247130,-11325.150913,306.438199
462.962051,0.000000,-11251.130318,0.000000
462.962376,-740.205942,-9992.780217,-383.047749
462.962700,-666.185348,-8586.388927,-612.876398
462.963024,222.061783,-8068.244768,-306.438199
462.963348,1110.308913,-9252.574275,-383.047749
462.963672,1110.308913,-11177.109724,0.000000
462.963996,148.041188,-11177.109724,-306.438199
462.964321,-444.123565,-10140.821405,-306.438199
462.964645,-148.041188,-8882.471304,153.219100
462.964969,1036.288319,-9178.553681,689.485948
462.965293,1554.432478,-10214.842000,995.924147
462.965617,1036.288319,-10584.944971,766.095498
462.965941,74.020594,-9770.718434,0.000000
462.966265,74.020594,-8882.471304,153.219100
462.966590,296.082377,-7550.100608,0.000000
462.966914,1628.453072,-7846.182985,689.485948
462.967238,1702.473667,-8956.491898,612.876398
462.967562,0.000000,-9844.739029,76.609550
462.967886,-2072.576638,-9474.636058,-612.876398
462.968210,-2516.700203,-8512.368333,76.609550
462.968535,-1110.308913,-8512.368333,0.000000
462.968859,296.082377,-8438.347739,919.314598
462.969183,1036.288319,-9696.697840,1149.143247
462.969507,148.041188,-9992.780217,689.485948
462.969831,-1036.288319,-9622.677246,-153.219100
462.970155,-1110.308913,-8660.409521,-306.438199
462.970480,296.082377,-8068.244768,459.657299
462.970804,1184.329507,-9030.512492,1225.752797
462.971128,1406.391290,-10288.862594,1532.190996
462.971452,1332.370696,-11251.130318,1225.752797
462.971776,518.144159,-11029.068536,459.657299
462.972100,-222.061783,-10584.944971,459.657299
462.972424,-148.041188,-9844.739029,76.609550
462.972749,740.205942,-10214.842000,689.485948
462.973073,740.205942,-11177.109724,995.924147
462.973397,592.164754,-11917.315666,459.657299
462.973721,-518.144159,-10288.862594,0.000000
462.974045,0.000000,-8734.430116,229.828649
462.974369,740.205942,-7994.224174,76.609550
462.974694,1628.453072,-8734.430116,689.485948
462.975018,888.247130,-9992.780217,766.095498
462.975342,-1184.329507,-10436.903782,-229.828649
462.975666,-3034.844362,-9622.677246,-306.438199
462.975990,-3627.009116,-8364.327145,-536.266849
462.976314,-2146.597232,-8586.388927,0.000000
462.976638,-444.123565,-9400.615463,612.876398
462.976963,-296.082377,-10436.903782,459.657299
462.977287,-1480.411884,-10214.842000,0.000000
462.977611,-2368.659014,-9474.636058,-842.705048
462.977935,-1998.556043,-8216.285956,-1149.143247
462.978259,-1628.453072,-7476.080014,76.609550
462.978583,222.061783,-8956.491898,0.000000
462.978908,518.144159,-10436.903782,229.828649
462.979232,-296.082377,-10955.047942,-612.876398
462.979556,-1110.308913,-10436.903782,-1072.533697
462.979880,-814.226536,-9696.697840,-689.485948
462.980204,74.020594,-9622.677246,-229.828649
462.980528,888.247130,-10584.944971,0.000000
462.980853,962.267725,-11177.109724,-229.828649
462.981177,222.061783,-10436.903782,-842.705048
462.981501,-222.061783,-9474.636058,-1072.533697
462.981825,1036.288319,-8290.306550,-689.485948
462.982149,1998.556043,-8142.265362,-153.219100
462.982473,1776.494261,-9178.553681,-229.828649
462.982798,888.247130,-10362.883188,-536.266849
462.983122,-592.164754,-10288.862594,-612.876398
462.983446,-1628.453072,-9548.656652,-1378.971896
462.983770,-1110.308913,-9104.533087,-1149.143247
462.984094,0.000000,-8438.347739,-612.876398
462.984418,888.247130,-9622.677246,-383.047749
462.984743,592.164754,-10955.047942,-306.438199
462.985067,-444.123565,-10658.965565,-995.924147
462.985391,-666.185348,-9474.636058,-1225.752797
462.985715,74.020594,-8512.368333,-612.876398
462.986039,1554.432478,-8734.430116,0.000000
462.986364,1924.535449,-10140.821405,-229.828649
462.986688,1332.370696,-11621.233289,-536.266849
462.987012,-296.082377,-11621.233289,-919.314598
462.987336,-1036.288319,-10807.006753,-1302.362347
462.987660,-666.185348,-9918.759623,-919.314598
462.987985,148.041188,-10510.924376,0.000000
462.988309,666.185348,-11029.068536,689.485948
462.988633,444.123565,-11251.130318,306.438199
462.988957,74.020594,-10658.965565,-459.657299
462.989281,518.144159,-9178.553681,-229.828649
462.989606,2146.597232,-7994.224174,383.047749
462.989930,2738.761985,-8364.327145,995.924147
462.990254,1924.535449,-9474.636058,766.095498
462.990578,0.000000,-10584.944971,766.095498
462.990902,-1702.473667,-9844.739029,919.314598
462.991226,-2368.659014,-8734.430116,383.047749
462.991551,-1554.432478,-7698.141797,0.000000
462.991875,-666.185348,-8216.285956,766.095498
462.992199,-962.267725,-9030.512492,919.314598
462.992523,-1998.556043,-9252.574275,229.828649
462.992847,-2442.679609,-8734.430116,229.828649
462.993172,-1776.494261,-7105.977043,0.000000
462.993496,-370.102971,-6735.874072,306.438199
462.993820,814.226536,-7550.100608,1072.533697
462.994144,592.164754,-9474.636058,1149.143247
462.994468,148.041188,-10658.965565,766.095498
462.994793,-592.164754,-10732.986159,612.876398
462.995117,-888.247130,-9918.759623,689.485948
462.995441,0.000000,-9178.553681,1072.533697
462.995765,888.247130,-10140.821405,1455.581446
462.996089,444.123565,-11547.212695,995.924147
462.996414,-444.123565,-11843.295072,842.705048
462.996738,-1258.350101,-10584.944971,0.000000
462.997062,-370.102971,-9104.533087,0.000000
462.997386,1184.329507,-8808.450710,229.828649
462.997710,2368.659014,-9992.780217,689.485948
462.998034,1480.411884,-11103.089130,689.485948
462.998359,-370.102971,-11251.130318,76.609550
462.998683,-2220.617826,-10362.883188,-459.657299
462.999007,-1924.535449,-9696.697840,-766.095498
462.999331,-444.123565,-9178.553681,0.000000
462.999655,962.267725,-9844.739029,536.266849
462.999980,1036.288319,-10881.027347,153.219100
463.000304,-444.123565,-10288.862594,0.000000
463.000628,-962.267725,-9326.594869,-1378.971896
463.000952,-740.205942,-8438.347739,-459.657299
463.001276,518.144159,-8512.368333,-383.047749
463.001601,1332.370696,-9030.512492,0.000000
463.001925,1036.288319,-10288.862594,-306.438199
463.002249,0.000000,-10881.027347,-995.924147
463.002573,-592.164754,-10066.800811,-1225.752797
463.002897,-592.164754,-9178.553681,-459.657299
463.003222,148.041188,-9474.636058,-229.828649
463.003546,1110.308913,-10362.883188,153.219100
463.003870,962.267725,-10807.006753,-306.438199
463.004194,444.123565,-10362.883188,-766.095498
463.004518,370.102971,-9400.615463,-919.314598
463.004842,1036.288319,-8364.327145,-612.876398
463.005167,2146.597232,-8216.285956,-229.828649
463.005491,2146.597232,-9548.656652,0.000000
463.005815,592.164754,-10510.924376,153.219100
463.006139,-1258.350101,-10584.944971,-2221.676944
463.006463,-2220.617826,-9178.553681,-1149.143247
463.006788,-1554.432478,-8142.265362,-842.705048
463.007112,-148.041188,-8660.409521,-306.438199
463.007436,296.082377,-9770.718434,459.657299
463.007760,-222.061783,-9474.636058,0.000000
463.008084,-740.205942,-9400.615463,-919.314598
463.008409,-814.226536,-7994.224174,-1072.533697
463.008733,148.041188,-7772.162391,-459.657299
463.009057,1258.350101,-8660.409521,229.828649
463.009381,1850.514855,-10288.862594,383.047749
463.009705,888.247130,-11473.192101,306.438199
463.010030,-148.041188,-11473.192101,-612.876398
463.010354,-148.041188,-10066.800811,-459.657299
463.010678,814.226536,-9548.656652,459.657299
463.011002,888.247130,-9918.759623,766.095498
463.011326,962.267725,-11177.109724,842.705048
463.011650,0.000000,-11251.130318,306.438199
463.011975,-962.267725,-10584.944971,0.000000
463.012299,-814.226536,-8660.409521,0.000000
463.012623,148.041188,-8068.244768,153.219100
463.012947,518.144159,-8956.491898,383.047749
463.013271,0.000000,-10066.800811,1149.143247
463.013596,-1628.453072,-10881.027347,76.609550
463.013920,-2516.700203,-10140.821405,0.000000
463.014244,-2220.617826,-8956.491898,306.438199
463.014568,-888.247130,-8512.368333,689.485948
463.014892,0.000000,-8808.450710,995.924147
463.015217,0.000000,-9770.718434,612.876398
463.015541,-814.226536,-10066.800811,383.047749
463.015865,-1184.329507,-9326.594869,76.609550
463.016189,-888.247130,-8068.244768,-229.828649
463.016513,74.020594,-7402.059420,0.000000
463.016838,962.267725,-8438.347739,0.000000
463.017162,592.164754,-9918.759623,0.000000
463.017486,-518.144159,-10807.006753,76.609550
463.017810,-1480.411884,-10288.862594,-229.828649
463.018134,-1110.308913,-9474.636058,-229.828649
463.018458,-370.102971,-9252.574275,459.657299
463.018783,148.041188,-10510.924376,612.876398
463.019107,0.000000,-11843.295072,536.266849
463.019431,-1036.288319,-11325.150913,0.000000
463.019755,-1110.308913,-9622.677246,-766.095498
463.020079,0.000000,-8438.347739,0.000000
463.020404,2294.638420,-8808.450710,459.657299
463.020728,2738.761985,-9770.718434,612.876398
463.021052,1480.411884,-11325.150913,229.828649
463.021376,-148.041188,-11325.150913,-689.485948
463.021700,-1258.350101,-10288.862594,-689.485948
463.022025,-814.226536,-9252.574275,0.000000
463.022349,814.226536,-9030.512492,76.609550
463.022673,1332.370696,-9918.759623,459.657299
463.022997,1258.350101,-10881.027347,612.876398
463.023321,-518.144159,-9770.718434,-229.828649
463.023645,-740.205942,-8586.388927,-612.876398
463.023970,74.020594,-7550.100608,153.219100
463.024294,1702.473667,-7920.203579,459.657299
463.024618,1702.473667,-8586.388927,536.266849
463.024942,1258.350101,-9992.780217,229.828649
463.025266,-148.041188,-9918.759623,-229.828649
463.025591,-592.164754,-9326.594869,-383.047749
463.025915,-148.041188,-8882.471304,0.000000
463.026239,592.164754,-9474.636058,306.438199
463.026563,1184.329507,-10732.986159,612.876398
463.026887,296.082377,-10807.006753,383.047749
463.027212,-148.041188,-10436.903782,-153.219100
463.027536,74.020594,-9178.553681,-153.219100
463.027860,1184.329507,-8660.409521,536.266849
463.028184,2072.576638,-9030.512492,1072.533697
463.028508,1406.391290,-10140.821405,536.266849
463.028833,-222.061783,-10732.986159,459.657299
463.029157,-1480.411884,-10362.883188,0.000000
463.029481,-2294.638420,-9030.512492,-153.219100
463.029805,-1184.329507,-8290.306550,0.000000
463.030129,0.000000,-8660.409521,383.047749
463.030453,0.000000,-9770.718434,383.047749
463.030778,-148.041188,-9696.697840,612.876398
463.031102,-1998.556043,-9030.512492,-153.219100
463.031426,-1776.494261,-7698.141797,-766.095498
463.031750,-962.267725,-7328.038826,-842.705048
463.032074,74.020594,-8956.491898,-229.828649
463.032399,518.144159,-10732.986159,0.000000
463.032723,-296.082377,-11177.109724,-306.438199
463.033047,-1850.514855,-10214.842000,-766.095498
463.033371,-1850.514855,-9918.759623,-612.876398
463.033695,-1184.329507,-9844.739029,-842.705048
463.034020,-666.185348,-10732.986159,-536.266849
463.034344,-740.205942,-11695.253884,-612.876398
463.034668,-1184.329507,-11621.233289,-995.924147
463.034992,-962.267725,-10288.862594,-1149.143247
463.035316,0.000000,-9252.574275,-1685.410096
463.035641,740.205942,-9104.533087,-766.095498
463.035965,1332.370696,-9918.759623,-689.485948
463.036289,666.185348,-11695.253884,-842.705048
463.036613,-888.247130,-11621.233289,-1149.143247
463.036937,-1776.494261,-10584.944971,-1072.533697
463.037261,-1258.350101,-9326.594869,-1149.143247
463.037586,296.082377,-8586.388927,-766.095498
463.037910,1258.350101,-9548.656652,153.219100
463.038234,1258.350101,-10658.965565,-306.438199
463.038558,0.000000,-9770.718434,-383.047749
463.038882,-444.123565,-8586.388927,-1149.143247
463.039207,0.000000,-7550.100608,-842.705048
463.039531,1406.391290,-7920.203579,-229.828649
463.039855,2146.597232,-9252.574275,612.876398
463.040179,1480.411884,-10436.903782,0.000000
463.040503,148.041188,-10807.006753,-306.438199
463.040828,-814.226536,-9918.759623,-229.828649
463.041152,-592.164754,-9548.656652,0.000000
463.041476,444.123565,-9548.656652,229.828649
463.041800,740.205942,-10732.986159,612.876398
463.042124,0.000000,-11399.171507,536.266849
463.042449,-1184.329507,-10066.800811,-306.438199
463.042773,-1258.350101,-8586.388927,0.000000
463.043097,1110.308913,-7994.224174,459.657299
463.043421,1850.514855,-7920.203579,766.095498
463.043745,2220.617826,-9474.636058,1149.143247
463.044069,1110.308913,-10214.842000,842.705048
463.044394,-444.123565,-9844.739029,306.438199
463.044718,-1184.329507,-9030.512492,0.000000
463.045042,-444.123565,-8438.347739,919.314598
463.045366,296.082377,-8882.471304,919.314598
463.045690,666.185348,-9474.636058,1762.019645
463.046015,-148.041188,-10140.821405,1225.752797
463.046339,-814.226536,-9474.636058,383.047749
463.046663,-814.226536,-8364.327145,229.828649
463.046987,370.102971,-7402.059420,612.876398
463.047311,1554.432478,-7476.080014,1378.971896
463.047636,1628.453072,-9252.574275,1302.362347
463.047960,518.144159,-10510.924376,766.095498
463.048284,-740.205942,-9992.780217,76.609550
463.048608,-1184.329507,-9252.574275,153.219100
463.048932,-444.123565,-9252.574275,306.438199
463.049257,296.082377,-9992.780217,689.485948
463.049581,222.061783,-11103.089130,919.314598
463.049905,-518.144159,-11103.089130,383.047749
463.050229,-888.247130,-10288.862594,0.000000
463.050553,-1258.350101,-8882.471304,0.000000
463.050877,814.226536,-8956.491898,306.438199
463.051202,1406.391290,-9622.677246,689.485948
463.051526,1036.288319,-10955.047942,459.657299
463.051850,-444.123565,-11547.212695,-306.438199
463.052174,-1184.329507,-10955.047942,-536.266849
463.052498,-1332.370696,-9770.718434,-536.266849
463.052823,0.000000,-9548.656652,919.314598
463.053147,1036.288319,-10510.924376,383.047749
463.053471,518.144159,-11251.130318,306.438199
463.053795,0.000000,-11177.109724,-383.047749
463.054119,-814.226536,-9548.656652,-766.095498
463.054444,-666.185348,-7994.224174,-306.438199
463.054768,0.000000,-7698.141797,-153.219100
463.055092,222.061783,-9178.553681,0.000000
463.055416,-296.082377,-10214.842000,229.828649
463.055740,-1628.453072,-10288.862594,-459.657299
463.056065,-2146.597232,-9548.656652,-1072.533697
463.056389,-1924.535449,-8660.409521,-995.924147
463.056713,-740.205942,-8734.430116,-306.438199
463.057037,0.000000,-9474.636058,76.609550
463.057361,-666.185348,-10362.883188,76.609550
463.057685,-1036.288319,-10362.883188,-995.924147
463.058010,-592.164754,-9104.533087,-306.438199
463.058334,444.123565,-8216.285956,-689.485948
463.058658,1850.514855,-8142.265362,0.000000
463.058982,1776.494261,-9696.697840,229.828649
463.059306,962.267725,-10955.047942,-153.219100
463.059631,-222.061783,-10881.027347,-842.705048
463.059955,-1258.350101,-9104.533087,-1532.190996
463.060279,-666.185348,-8216.285956,-689.485948
463.060603,518.144159,-8882.471304,-306.438199
463.060927,1036.288319,-10066.800811,-153.219100
463.061252,222.061783,-10658.965565,-383.047749
463.061576,-888.247130,-9696.697840,-1149.143247
463.061900,-592.164754,-8290.306550,-1532.190996
463.062224,370.102971,-8364.327145,-536.266849
463.062548,962.267725,-8438.347739,-229.828649
463.062873,666.185348,-10140.821405,-383.047749
463.063197,-148.041188,-11103.089130,-995.924147
463.063521,-1628.453072,-10881.027347,-1608.800546
463.063845,-1554.432478,-10288.862594,-1762.019645
463.064169,-666.185348,-9622.677246,-919.314598
463.064493,518.144159,-10140.821405,-229.828649
463.064818,592.164754,-10881.027347,0.000000
463.065142,370.102971,-11103.089130,-153.219100
463.065466,-444.123565,-10214.842000,-842.705048
463.065790,0.000000,-9326.594869,-1302.362347
463.066114,1554.432478,-8956.491898,-383.047749
463.066439,2368.659014,-9770.718434,536.266849
463.066763,1924.535449,-11103.089130,229.828649
463.067087,518.144159,-11621.233289,-153.219100
463.067411,-1110.308913,-11399.171507,-383.047749
463.067735,-2220.617826,-9548.656652,-536.266849
463.068060,-296.082377,-9474.636058,383.047749
463.068384,888.247130,-9770.718434,919.314598
463.068708,1480.411884,-10584.944971,1072.533697
463.069032,740.205942,-10436.903782,612.876398
463.069356,-370.102971,-8882.471304,0.000000
463.069681,-592.164754,-7624.121203,459.657299
463.070005,148.041188,-7105.977043,306.438199
463.070329,1110.308913,-8290.306550,1072.533697
463.070653,740.205942,-9844.739029,995.924147
463.070977,-814.226536,-9992.780217,383.047749
463.071301,-1924.535449,-9548.656652,229.828649
463.071626,-2220.617826,-8586.388927,383.047749
463.071950,-1924.535449,-8586.388927,153.219100
463.072274,-888.247130,-9030.512492,689.485948
463.072598,-592.164754,-10584.944971,1302.362347
463.072922,-1258.350101,-10066.800811,536.266849
463.073247,-1480.411884,-9030.512492,689.485948
463.073571,-296.082377,-7772.162391,459.657299
463.073895,888.247130,-7402.059420,536.266849
463.074219,1924.535449,-9474.636058,1302.362347
463.074543,518.144159,-10732.986159,919.314598
463.074868,-370.102971,-11473.192101,383.047749
463.075192,-1924.535449,-9844.739029,-229.828649
463.075516,-1924.535449,-9252.574275,-459.657299
463.075840,0.000000,-9474.636058,306.438199
463.076164,1036.288319,-10881.027347,689.485948
463.076488,518.144159,-11325.150913,536.266849
463.076813,-518.144159,-10732.986159,-229.828649
463.077137,-1184.329507,-8586.388927,0.000000
463.077461,-148.041188,-7994.224174,-536.266849
463.077785,1184.329507,-8808.450710,0.000000
463.078109,1850.514855,-10140.821405,536.266849
463.078434,1110.308913,-11251.130318,76.609550
463.078758,-518.144159,-11325.150913,-612.876398
463.079082,-888.247130,-10510.924376,-1072.533697
463.079406,-888.247130,-9474.636058,-383.047749
463.079730,222.061783,-9548.656652,-383.047749
463.080055,1554.432478,-10584.944971,229.828649
463.080379,370.102971,-11029.068536,-536.266849
463.080703,-370.102971,-10140.821405,-1149.143247
463.081027,-222.061783,-9252.574275,-1378.971896
463.081351,1258.350101,-8364.327145,-919.314598
463.081676,2442.679609,-8956.491898,-229.828649
463.082000,2664.741391,-10214.842000,306.438199
463.082324,1258.350101,-11621.233289,-229.828649
463.082648,-222.061783,-10510.924376,-1072.533697
463.082972,-814.226536,-9474.636058,-995.924147
463.083296,0.000000,-8956.491898,-536.266849
463.083620,962.267725,-9474.636058,229.828649
463.083945,1184.329507,-10140.821405,459.657299
463.084269,518.144159,-9992.780217,153.219100
463.084593,74.020594,-9474.636058,76.609550
463.084917,0.000000,-7920.203579,-1072.533697
463.085241,370.102971,-7476.080014,-689.485948
463.085565,1480.411884,-8660.409521,0.000000
463.085889,1480.411884,-10214.842000,383.047749
463.086213,592.164754,-10955.047942,229.828649
463.086538,-888.247130,-10362.883188,-229.828649
463.086862,-518.144159,-9918.759623,-306.438199
463.087186,222.061783,-9770.718434,383.047749
463.087510,1110.308913,-10140.821405,919.314598
463.087834,148.041188,-10732.986159,995.924147
463.088158,-666.185348,-10807.006753,76.609550
463.088482,-1702.473667,-9474.636058,-306.438199
463.088806,-1332.370696,-8216.285956,-689.485948
463.089130,0.000000,-7698.141797,0.000000
463.089455,222.061783,-8956.491898,459.657299
463.089779,0.000000,-10436.903782,919.314598
463.090103,-1628.453072,-10807.006753,-153.219100
463.090427,-2738.761985,-9770.718434,-306.438199
463.090751,-2442.679609,-8956.491898,-153.219100
463.091075,-1184.329507,-8586.388927,383.047749
463.091399,74.020594,-10140.821405,76.609550
463.091723,0.000000,-10732.986159,0.000000
463.092048,-666.185348,-10807.006753,-153.219100
463.092372,-1258.350101,-9104.533087,0.000000
463.092696,-666.185348,-8364.327145,-229.828649
463.093020,370.102971,-8290.306550,0.000000
463.093344,518.144159,-9622.677246,0.000000
463.093668,-222.061783,-11029.068536,229.828649
463.093992,-518.144159,-11769.274478,-306.438199
463.094316,-1924.535449,-10362.883188,-383.047749
463.094641,-1258.350101,-9622.677246,0.000000
463.094965,-814.226536,-9918.759623,153.219100
463.095289,0.000000,-10807.006753,0.000000
463.095613,-740.205942,-11621.233289,0.000000
463.095937,-1258.350101,-10362.883188,-766.095498
463.096261,-592.164754,-8882.471304,-1225.752797
463.096585,592.164754,-8512.368333,-689.485948
463.096909,1998.556043,-8734.430116,0.000000
463.097233,2072.576638,-10288.862594,536.266849
463.097558,740.205942,-11103.089130,0.000000
463.097882,-962.267725,-10658.965565,-919.314598
463.098206,-1406.391290,-9696.697840,-459.657299
463.098530,0.000000,-9178.553681,0.000000
463.098854,1702.473667,-9474.636058,536.266849
463.099178,2220.617826,-9770.718434,459.657299
463.099502,1480.411884,-10140.821405,0.000000
463.099826,296.082377,-10140.821405,-766.095498
463.100151,-148.041188,-8956.491898,-995.924147
463.100475,370.102971,-7624.121203,-536.266849
463.100799,1406.391290,-8734.430116,-229.828649
463.101123,1628.453072,-10584.944971,153.219100
463.101447,888.247130,-11621.233289,229.828649
463.101771,0.000000,-11029.068536,-459.657299
463.102095,-518.144159,-9696.697840,0.000000
463.102419,74.020594,-9474.636058,153.219100
463.102743,888.247130,-9696.697840,536.266849
463.103068,518.144159,-10658.965565,689.485948
463.103392,-444.123565,-10584.944971,229.828649
463.103716,-740.205942,-9178.553681,0.000000
463.104040,148.041188,-7994.224174,0.000000
463.104364,1480.411884,-7698.141797,459.657299
463.104688,2146.597232,-8660.409521,766.095498
463.105012,1480.411884,-9474.636058,612.876398
463.105336,-222.061783,-9770.718434,153.219100
463.105661,-1998.556043,-9474.636058,-459.657299
463.105985,-2220.617826,-8438.347739,-306.438199
463.106309,-296.082377,-8586.388927,689.485948
463.106633,444.123565,-8882.471304,766.095498
463.106957,1036.288319,-9696.697840,459.657299
463.107281,0.000000,-9918.759623,153.219100
463.107605,-666.185348,-8956.491898,-229.828649
463.107929,-518.144159,-7920.203579,0.000000
463.108253,444.123565,-7994.224174,459.657299
463.108578,1480.411884,-9622.677246,383.047749
463.108902,740.205942,-10510.924376,459.657299
463.109226,-370.102971,-11695.253884,306.438199
463.109550,-1480.411884,-10658.965565,-306.438199
463.109874,-1776.494261,-9992.780217,0.000000
463.110198,-1258.350101,-9918.759623,76.609550
463.110522,-888.247130,-10807.006753,459.657299
463.110846,-1258.350101,-11251.130318,76.609550
463.111171,-1776.494261,-10658.965565,-612.876398
463.111495,-1850.514855,-9400.615463,-689.485948
463.111819,-740.205942,-8068.244768,-919.314598
463.112143,444.123565,-8216.285956,0.000000
463.112467,1258.350101,-9622.677246,153.219100
463.112791,222.061783,-10658.965565,153.219100
463.113115,-740.205942,-10732.986159,0.000000
463.113439,-1850.514855,-9770.718434,-306.438199
463.113764,-1184.329507,-9030.512492,-689.485948
463.114088,296.082377,-8734.430116,0.000000
463.114412,1480.411884,-10288.862594,229.828649
463.114736,1110.308913,-11029.068536,0.000000
463.115060,0.000000,-10362.883188,-766.095498
463.115384,-222.061783,-9030.512492,-1455.581446
463.115708,0.000000,-7624.121203,-1302.362347
463.116032,740.205942,-8512.368333,-612.876398
463.116356,1184.329507,-10658.965565,-306.438199
463.116681,740.205942,-11547.212695,-306.438199
463.117005,0.000000,-11251.130318,-689.485948
463.117329,-740.205942,-9474.636058,-1072.533697
463.117653,-222.061783,-8956.491898,-612.876398
463.117977,592.164754,-9844.739029,-229.828649
463.118301,444.123565,-11103.089130,153.219100
463.118625,-444.123565,-11177.109724,-536.266849
463.118949,-1258.350101,-9474.636058,-919.314598
463.119274,-962.267725,-7920.203579,-1378.971896
463.119598,148.041188,-7698.141797,-766.095498
463.119922,1628.453072,-9030.512492,-153.219100
463.120246,1258.350101,-9992.780217,306.438199
463.120570,148.041188,-10510.924376,-229.828649
463.120894,-1258.350101,-9992.780217,-842.705048
463.121218,-1258.350101,-8808.450710,-766.095498
463.121542,0.000000,-8290.306550,153.219100
463.121866,1332.370696,-9030.512492,459.657299
463.122191,2072.576638,-10436.903782,536.266849
463.122515,1258.350101,-10510.924376,536.266849
463.122839,740.205942,-9474.636058,0.000000
463.123163,518.144159,-8142.265362,0.000000
463.123487,1924.535449,-7920.203579,306.438199
463.123811,2368.659014,-9474.636058,536.266849
463.124135,2442.679609,-10881.027347,919.314598
463.124459,1110.308913,-11399.171507,536.266849
463.124784,-740.205942,-10807.006753,306.438199
463.125108,-888.247130,-9770.718434,76.609550
463.125432,-296.082377,-9622.677246,842.705048
463.125756,74.020594,-10214.842000,995.924147
463.126080,-296.082377,-10510.924376,1302.362347
463.126404,-1480.411884,-9696.697840,153.219100
463.126728,-1554.432478,-8808.450710,229.828649
463.127052,-888.247130,-7698.141797,689.485948
463.127376,518.144159,-7624.121203,919.314598
463.127701,962.267725,-8512.368333,919.314598
463.128025,74.020594,-9770.718434,766.095498
463.128349,-1554.432478,-10214.842000,153.219100
463.128673,-2368.659014,-9696.697840,0.000000
463.128997,-2442.679609,-8882.471304,229.828649
463.129321,-1332.370696,-8660.409521,76.609550
463.129645,-222.061783,-9548.656652,995.924147
463.129969,0.000000,-10584.944971,689.485948
463.130294,-518.144159,-10510.924376,0.000000
463.130618,-1332.370696,-9104.533087,0.000000
463.130942,-814.226536,-7772.162391,-229.828649
463.131266,592.164754,-8438.347739,306.438199
463.131590,740.205942,-9918.759623,459.657299
463.131914,0.000000,-11769.274478,229.828649
463.132238,-1480.411884,-11547.212695,-459.657299
463.132562,-1924.535449,-10288.862594,-1072.533697
463.132887,-1406.391290,-9770.718434,-306.438199
463.133211,-370.102971,-9844.739029,0.000000
463.133535,148.041188,-10510.924376,306.438199
463.133859,-518.144159,-10955.047942,0.000000
463.134183,-1184.329507,-9770.718434,-995.924147
463.134507,-592.164754,-8808.450710,-536.266849
463.134831,0.000000,-7772.162391,-383.047749
463.135155,1554.432478,-8216.285956,0.000000
463.135479,1850.514855,-9548.656652,383.047749
463.135804,962.267725,-10140.821405,-76.609550
463.136128,-1036.288319,-9548.656652,-919.314598
463.136452,-1702.473667,-8438.347739,-1455.581446
463.136776,-740.205942,-7698.141797,-1302.362347
463.137100,814.226536,-9030.512492,-459.657299
463.137424,1776.494261,-10584.944971,459.657299
463.137748,888.247130,-10807.006753,-229.828649
463.138072,-148.041188,-9548.656652,-1072.533697
463.138397,0.000000,-8068.244768,-1302.362347
463.138721,1110.308913,-7846.182985,-1072.533697
463.139045,2368.659014,-9474.636058,0.000000
463.139369,2294.638420,-10807.006753,306.438199
463.139693,1184.329507,-11695.253884,0.000000
463.140017,0.000000,-11177.109724,-689.485948
463.140341,-740.205942,-9918.759623,-1225.752797
463.140665,370.102971,-10214.842000,-306.438199
463.140989,592.164754,-10584.944971,229.828649
463.141314,1036.288319,-11473.192101,0.000000
463.141638,-296.082377,-11029.068536,-842.705048
463.141962,-1110.308913,-9918.759623,-1149.143247
463.142286,0.000000,-8438.347739,-1302.362347
463.142610,1110.308913,-8216.285956,-536.266849
463.142934,1702.473667,-9326.594869,76.609550
463.143258,1406.391290,-10510.924376,536.266849
463.143582,0.000000,-10140.821405,-459.657299
463.143907,-1184.329507,-9400.615463,-1072.533697
463.144231,-1110.308913,-8290.306550,-766.095498
463.144555,148.041188,-8586.388927,153.219100
463.144879,1110.308913,-9696.697840,1149.143247
463.145203,888.247130,-10362.883188,919.314598
463.145527,-444.123565,-9622.677246,0.000000
463.145851,-1776.494261,-9030.512492,-459.657299
463.146175,-1110.308913,-8068.244768,229.828649
463.146500,-222.061783,-8660.409521,0.000000
463.146824,370.102971,-9844.739029,842.705048
463.147148,148.041188,-11399.171507,1072.533697
463.147472,-814.226536,-11621.233289,459.657299
463.147796,-1258.350101,-10881.027347,0.000000
463.148120,-888.247130,-9992.780217,0.000000
463.148444,148.041188,-9844.739029,919.314598
463.148768,444.123565,-10807.006753,1608.800546
463.149092,370.102971,-10732.986159,1149.143247
463.149417,-666.185348,-9918.759623,153.219100
463.149741,-1332.370696,-8660.409521,-229.828649
463.150065,-740.205942,-7846.182985,-459.657299
463.150389,-296.082377,-8068.244768,0.000000
463.150713,518.144159,-9104.533087,229.828649
463.151037,0.000000,-10436.903782,612.876398
463.151361,-1998.556043,-9918.759623,-383.047749
463.151685,-2812.782580,-8882.471304,-766.095498
463.152010,-2294.638420,-8290.306550,-612.876398
463.152334,-814.226536,-9104.533087,76.609550
463.152658,518.144159,-10436.903782,306.438199
463.152982,518.144159,-10807.006753,612.876398
463.153306,74.020594,-10214.842000,0.000000
463.153630,-444.123565,-8290.306550,-612.876398
463.153954,148.041188,-8216.285956,-459.657299
463.154278,1036.288319,-9474.636058,-229.828649
463.154602,1184.329507,-11177.109724,0.000000
463.154927,1036.288319,-11917.315666,0.000000
463.155251,444.123565,-11473.192101,-459.657299
463.155575,0.000000,-10214.842000,-1225.752797
463.155899,222.061783,-9400.615463,-229.828649
463.156223,444.123565,-10140.821405,0.000000
463.156547,666.185348,-10955.047942,-153.219100
463.156871,0.000000,-10510.924376,0.000000
463.157195,-222.061783,-9474.636058,-842.705048
463.157520,444.123565,-7698.141797,-766.095498
463.157844,1776.494261,-7402.059420,383.047749
463.158168,2516.700203,-8290.306550,0.000000
463.158492,2368.659014,-10584.944971,306.438199
463.158816,666.185348,-10362.883188,0.000000
463.159140,-814.226536,-9548.656652,-229.828649
463.159464,-1036.288319,-8882.471304,-459.657299
463.159788,74.020594,-9104.533087,-229.828649
463.160112,1332.370696,-9696.697840,383.047749
463.160437,1554.432478,-9918.759623,1072.533697
463.160761,1480.411884,-10658.965565,689.485948
463.161085,222.061783,-9400.615463,-536.266849
463.161409,-666.185348,-8364.327145,-536.266849
463.161733,-148.041188,-8438.347739,-153.219100
463.162057,518.144159,-9326.594869,0.000000
463.162381,814.226536,-11325.150913,383.047749
463.162705,222.061783,-11473.192101,0.000000
463.163030,-962.267725,-10066.800811,0.000000
463.163354,-1258.350101,-8956.491898,-383.047749
463.163678,-518.144159,-8956.491898,0.000000
463.164002,296.082377,-10584.944971,306.438199
463.164326,0.000000,-11621.233289,689.485948
463.164650,-296.082377,-10955.047942,306.438199
463.164974,-444.123565,-9104.533087,-306.438199
463.165298,0.000000,-7994.224174,0.000000
463.165623,1036.288319,-8438.347739,-229.828649
463.165947,1480.411884,-9474.636058,536.266849
463.166271,444.123565,-10510.924376,536.266849
463.166595,-1406.391290,-9992.780217,0.000000
463.166919,-2738.761985,-9178.553681,-383.047749
463.167243,-2738.761985,-8438.347739,-383.047749
463.167567,-1998.556043,-8364.327145,0.000000
463.167891,-1258.350101,-10288.862594,306.438199
463.168215,-1628.453072,-10066.800811,306.438199
463.168540,-1776.494261,-9844.739029,-459.657299
463.168864,-1850.514855,-8882.471304,-612.876398
463.169188,-814.226536,-8068.244768,-459.657299
463.169512,518.144159,-8734.430116,0.000000
463.169836,1258.350101,-10584.944971,306.438199
463.170160,518.144159,-11695.253884,766.095498
463.170484,0.000000,-11325.150913,0.000000
463.170808,-814.226536,-10140.821405,-1225.752797
463.171133,-148.041188,-9844.739029,0.000000
463.171457,444.123565,-10584.944971,229.828649
463.171781,592.164754,-11695.253884,536.266849
463.172105,222.061783,-11621.233289,76.609550
463.172429,-814.226536,-10066.800811,-842.705048
463.172753,-1036.288319,-7846.182985,-1149.143247
463.173077,-296.082377,-7254.018232,-1225.752797
463.173401,814.226536,-8512.368333,-612.876398
463.173725,592.164754,-9770.718434,-153.219100
463.174050,-592.164754,-10140.821405,-612.876398
463.174374,-2220.617826,-9474.636058,-1149.143247
463.174698,-2516.700203,-8512.368333,-1225.752797
463.175022,-888.247130,-8142.265362,-536.266849
463.175346,148.041188,-9178.553681,-306.438199
463.175670,888.247130,-10362.883188,0.000000
463.175994,296.082377,-10732.986159,0.000000
463.176318,0.000000,-9770.718434,-766.095498
463.176643,0.000000,-8586.388927,-459.657299
463.176967,962.267725,-8290.306550,-459.657299
463.177291,2072.576638,-9548.656652,-153.219100
463.177615,1998.556043,-11399.171507,153.219100
463.177939,1332.370696,-11843.295072,-306.438199
463.178263,444.123565,-10955.047942,-229.828649
463.178587,296.082377,-9992.780217,-536.266849
463.178911,814.226536,-9474.636058,0.000000
463.179235,1332.370696,-10362.883188,459.657299
463.179560,592.164754,-11103.089130,536.266849
463.179884,518.144159,-11103.089130,0.000000
463.180208,-222.061783,-9104.533087,-459.657299
463.180532,370.102971,-7402.059420,-229.828649
463.180856,1406.391290,-7328.038826,229.828649
463.181180,1850.514855,-9030.512492,689.485948
463.181504,814.226536,-10066.800811,0.000000
463.181828,-666.185348,-10288.862594,-229.828649
463.182153,-2072.576638,-8956.491898,-766.095498
463.182477,-888.247130,-8956.491898,0.000000
463.182801,74.020594,-9030.512492,229.828649
463.183125,1258.350101,-9400.615463,1225.752797
463.183449,592.164754,-10214.842000,842.705048
463.183773,-370.102971,-10362.883188,0.000000
463.184097,-1110.308913,-9326.594869,-229.828649
463.184421,-296.082377,-8438.347739,306.438199
463.184746,814.226536,-8216.285956,383.047749
463.185070,888.247130,-9696.697840,842.705048
463.185394,-148.041188,-10881.027347,0.000000
463.185718,-1406.391290,-11399.171507,-383.047749
463.186042,-1998.556043,-10362.883188,-306.438199
463.186366,-1702.473667,-9178.553681,-306.438199
463.186690,-592.164754,-9474.636058,153.219100
463.187014,0.000000,-10658.965565,0.000000
463.187339,-370.102971,-11251.130318,0.000000
463.187663,-962.267725,-10140.821405,-536.266849
463.187987,-962.267725,-9252.574275,-306.438199
463.188311,-370.102971,-7846.182985,-229.828649
463.188635,666.185348,-8660.409521,229.828649
463.188959,1110.308913,-10140.821405,689.485948
463.189283,0.000000,-11029.068536,76.609550
463.189607,-1850.514855,-10140.821405,0.000000
463.189931,-2516.700203,-9252.574275,-383.047749
463.190256,-1924.535449,-8586.388927,-229.828649
463.190580,-148.041188,-9030.512492,76.609550
463.190904,370.102971,-10140.821405,459.657299
463.191228,0.000000,-10362.883188,-153.219100
463.191552,-1036.288319,-9474.636058,-919.314598
463.191876,-1480.411884,-8068.244768,-1149.143247
463.192200,-296.082377,-7328.038826,-1378.971896
463.192524,740.205942,-8364.327145,-1072.533697
463.192849,1110.308913,-10066.800811,-153.219100
463.193173,814.226536,-11473.192101,0.000000
463.193497,0.000000,-10881.027347,-383.047749
463.193821,-444.123565,-9770.718434,-536.266849
463.194145,0.000000,-9104.533087,0.000000
463.194469,1110.308913,-9622.677246,0.000000
463.194793,1480.411884,-11325.150913,383.047749
463.195117,1258.350101,-11399.171507,0.000000
463.195442,1110.308913,-10214.842000,-536.266849
463.195766,1332.370696,-8734.430116,-842.705048
463.196090,2146.597232,-8290.306550,-383.047749
463.196414,2664.741391,-9770.718434,-229.828649
463.196738,2294.638420,-11103.089130,153.219100
463.197062,962.267725,-11473.192101,-229.828649
463.197386,-740.205942,-10288.862594,-1225.752797
463.197710,-1258.350101,-9844.739029,-766.095498
463.198035,-740.205942,-9326.594869,-306.438199
463.198359,148.041188,-9696.697840,306.438199
463.198683,296.082377,-10732.986159,229.828649
463.199007,-444.123565,-9918.759623,-459.657299
463.199331,-666.185348,-8438.347739,-306.438199
463.199655,-666.185348,-7772.162391,-229.828649
463.199979,814.226536,-7920.203579,-306.438199
463.200303,1184.329507,-9030.512492,383.047749
463.200628,1036.288319,-10288.862594,383.047749
463.200952,296.082377,-11103.089130,76.609550
463.201276,-592.164754,-9992.780217,0.000000
463.201600,-740.205942,-9178.553681,383.047749
463.201924,0.000000,-9548.656652,842.705048
463.202248,0.000000,-9918.759623,612.876398
463.202572,-148.041188,-10362.883188,76.609550
463.202896,-592.164754,-10066.800811,0.000000
463.203220,-518.144159,-9104.533087,-306.438199
463.203545,0.000000,-7698.141797,76.609550
463.203869,518.144159,-7698.141797,383.047749
463.204193,370.102971,-8660.409521,689.485948
463.204517,-222.061783,-10658.965565,612.876398
463.204841,-1480.411884,-10584.944971,76.609550
463.205165,-2442.679609,-9474.636058,-306.438199
463.205489,-2294.638420,-8882.471304,383.047749
463.205813,-740.205942,-8956.491898,842.705048
463.206138,0.000000,-9992.780217,919.314598
463.206462,-370.102971,-10288.862594,766.095498
463.206786,-1110.308913,-9992.780217,0.000000
463.207110,-1406.391290,-9178.553681,-612.876398
463.207434,-888.247130,-8438.347739,-766.095498
463.207758,444.123565,-8438.347739,0.000000
463.208082,888.247130,-9918.759623,459.657299
463.208406,296.082377,-11103.089130,153.219100
463.208731,-814.226536,-11621.233289,-306.438199
463.209055,-2146.597232,-9992.780217,-842.705048
463.209379,-1406.391290,-9030.512492,0.000000
463.209703,-296.082377,-9400.615463,612.876398
463.210027,0.000000,-10658.965565,229.828649
463.210351,-592.164754,-11177.109724,-153.219100
463.210675,-1110.308913,-10288.862594,-766.095498
463.210999,-962.267725,-8734.430116,-689.485948
463.211324,814.226536,-7846.182985,-689.485948
463.211648,2516.700203,-9548.656652,0.000000
463.211972,2294.638420,-10288.862594,689.485948
463.212296,962.267725,-11103.089130,-153.219100
463.212620,-518.144159,-11029.068536,-612.876398
463.212944,-1036.288319,-9844.739029,-383.047749
463.213268,148.041188,-9622.677246,-153.219100
463.213592,1406.391290,-9548.656652,306.438199
463.213917,1702.473667,-9770.718434,459.657299
463.214241,444.123565,-10140.821405,0.000000
463.214565,-296.082377,-9622.677246,-1072.533697
463.214889,-962.267725,-8512.368333,-842.705048
463.215213,-148.041188,-7624.121203,-459.657299
463.215537,1184.329507,-8290.306550,0.000000
463.215861,1480.411884,-10140.821405,0.000000
463.216185,444.123565,-10584.944971,0.000000
463.216510,74.020594,-10510.924376,-766.095498
463.216834,0.000000,-9178.553681,-766.095498
463.217158,666.185348,-9400.615463,-229.828649
463.217482,888.247130,-9992.780217,229.828649
463.217806,1110.308913,-11029.068536,383.047749
463.218130,740.205942,-10881.027347,-229.828649
463.218454,518.144159,-9400.615463,-766.095498
463.218778,814.226536,-8290.306550,-229.828649
463.219102,1776.494261,-8364.327145,383.047749
463.219427,2368.659014,-9918.759623,0.000000
463.219751,1036.288319,-11399.171507,76.609550
463.220075,-666.185348,-11547.212695,-229.828649
463.220399,-2368.659014,-10658.965565,-612.876398
463.220723,-2220.617826,-9326.594869,153.219100
463.221047,-1110.308913,-9104.533087,383.047749
463.221371,222.061783,-9474.636058,689.485948
463.221695,-222.061783,-10066.800811,689.485948
463.222020,-1258.350101,-9696.697840,-383.047749
463.222344,-2220.617826,-8142.265362,-383.047749
463.222668,-1332.370696,-7254.018232,76.609550
463.222992,0.000000,-7624.121203,459.657299
463.223316,888.247130,-8882.471304,919.314598
463.223640,814.226536,-10066.800811,536.266849
463.223964,222.061783,-10807.006753,306.438199
463.224288,-888.247130,-9696.697840,-229.828649
463.224613,-1110.308913,-9400.615463,229.828649
463.224937,-666.185348,-9548.656652,536.266849
463.225261,-444.123565,-10732.986159,612.876398
463.225585,-444.123565,-11547.212695,459.657299
463.225909,-592.164754,-10584.944971,0.000000
463.226233,0.000000,-9474.636058,0.000000
463.226557,1184.329507,-8808.450710,229.828649
463.226881,2220.617826,-9030.512492,919.314598
463.227206,1850.514855,-10066.800811,612.876398
463.227530,148.041188,-10955.047942,76.609550
463.227854,-1776.494261,-10436.903782,-689.485948
463.228178,-2368.659014,-9474.636058,-766.095498
463.228502,-2072.576638,-9030.512492,-306.438199
463.228826,-888.247130,-9030.512492,229.828649
463.229150,148.041188,-9992.780217,536.266849
463.229474,-518.144159,-10584.944971,306.438199
463.229799,-1110.308913,-9918.759623,-153.219100
463.230123,-1258.350101,-8142.265362,-612.876398
463.230447,-370.102971,-7254.018232,-306.438199
463.230771,1036.288319,-8512.368333,536.266849
463.231095,1184.329507,-10658.965565,383.047749
463.231419,1110.308913,-11177.109724,459.657299
463.231743,148.041188,-10658.965565,-306.438199
463.232067,-518.144159,-8882.471304,-383.047749
463.232391,592.164754,-8660.409521,0.000000
463.232716,1406.391290,-9992.780217,153.219100
463.233040,1554.432478,-11103.089130,76.609550
463.233364,518.144159,-10584.944971,-153.219100
463.233688,-444.123565,-9104.533087,-995.924147
463.234012,-518.144159,-7772.162391,-1762.019645
463.234336,518.144159,-7550.100608,-995.924147
463.234660,1480.411884,-9030.512492,-153.219100
463.234984,1184.329507,-10658.965565,0.000000
463.235309,-592.164754,-11103.089130,-306.438199
463.235633,-1480.411884,-10510.924376,-919.314598
463.235957,-1332.370696,-9696.697840,-689.485948
463.236281,148.041188,-9622.677246,-229.828649
463.236605,1110.308913,-10288.862594,229.828649
463.236929,1776.494261,-11029.068536,612.876398
463.237253,1332.370696,-10658.965565,0.000000
463.237577,740.205942,-9548.656652,-766.095498
463.237902,518.144159,-8660.409521,-842.705048
463.238226,1036.288319,-8808.450710,-689.485948
463.238550,1110.308913,-10066.800811,0.000000
463.238874,666.185348,-11029.068536,-229.828649
463.239198,0.000000,-10510.924376,76.609550
463.239522,-1184.329507,-9104.533087,-995.924147
463.239846,-1110.308913,-8586.388927,-536.266849
463.240170,-740.205942,-8808.450710,-153.219100
463.240495,0.000000,-9992.780217,536.266849
463.240819,-148.041188,-10658.965565,919.314598
463.241143,-296.082377,-9992.780217,459.657299
463.241467,-370.102971,-8734.430116,306.438199
463.241791,592.164754,-7402.059420,1378.971896
463.242115,1776.494261,-8364.327145,919.314598
463.242439,1628.453072,-9844.739029,842.705048
463.242763,444.123565,-11103.089130,536.266849
463.243088,-962.267725,-10584.944971,0.000000
463.243412,-1924.535449,-9918.759623,-229.828649
463.243736,-2072.576638,-9030.512492,0.000000
463.244060,-1332.370696,-8808.450710,612.876398
463.244384,-740.205942,-10362.883188,995.924147
463.244708,-1258.350101,-10584.944971,459.657299
463.245032,-1776.494261,-9770.718434,0.000000
463.245356,-1776.494261,-8808.450710,0.000000
463.245681,-1332.370696,-7328.038826,76.609550
463.246005,-370.102971,-7698.141797,766.095498
463.246329,-444.123565,-9474.636058,536.266849
463.246653,-1110.308913,-10732.986159,536.266849
463.246977,-1332.370696,-10436.903782,0.000000
463.247301,-1480.411884,-9474.636058,-229.828649
463.247625,-1406.391290,-8956.491898,-306.438199
463.247949,-592.164754,-9474.636058,153.219100
463.248273,-296.082377,-10881.027347,153.219100
463.248598,-592.164754,-10881.027347,306.438199
463.248922,-962.267725,-10214.842000,-842.705048
463.249246,-592.164754,-8734.430116,-612.876398
463.249570,740.205942,-8660.409521,-229.828649
463.249894,1776.494261,-9548.656652,0.000000
463.250218,1406.391290,-11103.089130,0.000000
463.250542,-222.061783,-11547.212695,-229.828649
463.250866,-1184.329507,-10510.924376,-766.095498
463.251191,-518.144159,-9622.677246,-536.266849
463.251515,0.000000,-9474.636058,-459.657299
463.251839,1480.411884,-9918.759623,153.219100
463.252163,1628.453072,-11029.068536,0.000000
463.252487,1258.350101,-10955.047942,-536.266849
463.252811,592.164754,-9622.677246,-1072.533697
463.253135,740.205942,-8290.306550,-612.876398
463.253459,1480.411884,-8142.265362,-536.266849
463.253784,2590.720797,-9474.636058,0.000000
463.254108,2072.576638,-10658.965565,76.609550
463.254432,1036.288319,-11547.212695,-383.047749
463.254756,-222.061783,-10362.883188,-919.314598
463.255080,74.020594,-9252.574275,-459.657299
463.255404,888.247130,-9252.574275,-383.047749
463.255728,1184.329507,-9918.759623,306.438199
463.256052,740.205942,-10510.924376,229.828649
463.256377,370.102971,-9770.718434,306.438199
463.256701,0.000000,-8808.450710,-612.876398
463.257025,370.102971,-7624.121203,-536.266849
463.257349,1406.391290,-7624.121203,-229.828649
463.257673,1702.473667,-9326.594869,0.000000
463.257997,740.205942,-10881.027347,76.609550
463.258321,-888.247130,-10658.965565,-229.828649
463.258645,-1184.329507,-10214.842000,-306.438199
463.258970,-1110.308913,-9326.594869,0.000000
463.259294,444.123565,-9696.697840,689.485948
463.259618,1184.329507,-10658.965565,1378.971896
463.259942,1110.308913,-10955.047942,1149.143247
463.260266,0.000000,-10288.862594,766.095498
463.260590,-444.123565,-8364.327145,306.438199
463.260914,-592.164754,-7550.100608,76.609550
463.261238,0.000000,-7476.080014,766.095498
463.261562,74.020594,-9474.636058,536.266849
463.261887,-1184.329507,-10584.944971,306.438199
463.262211,-1924.535449,-10436.903782,0.000000
463.262535,-2960.823768,-9178.553681,153.219100
463.262859,-2664.741391,-8142.265362,306.438199
463.263183,-2590.720797,-8438.347739,689.485948
463.263507,-2590.720797,-9622.677246,229.828649
463.263831,-2146.597232,-10214.842000,229.828649
463.264155,-1998.556043,-9918.759623,-536.266849
463.264480,-1332.370696,-8290.306550,-229.828649
463.264804,74.020594,-7328.038826,0.000000
463.265128,1776.494261,-8364.327145,153.219100
463.265452,1702.473667,-10436.903782,459.657299
463.265776,222.061783,-11325.150913,0.000000
463.266100,-1332.370696,-11029.068536,-383.047749
463.266424,-1184.329507,-10214.842000,-153.219100
463.266748,-592.164754,-9844.739029,-229.828649
463.267073,518.144159,-10584.944971,153.219100
463.267397,666.185348,-11547.212695,383.047749
463.267721,222.061783,-11769.274478,0.000000
463.268045,-444.123565,-10140.821405,-919.314598
463.268369,-740.205942,-8364.327145,-919.314598
463.268693,-148.041188,-7846.182985,-459.657299
463.269017,1406.391290,-8882.471304,-306.438199
463.269341,1628.453072,-10510.924376,-153.219100
463.269666,888.247130,-10955.047942,-153.219100
463.269990,0.000000,-10510.924376,-383.047749
463.270314,-296.082377,-9178.553681,-536.266849
463.270638,814.226536,-8808.450710,-612.876398
463.270962,1480.411884,-9474.636058,459.657299
463.271286,1184.329507,-10436.903782,306.438199
463.271610,814.226536,-10732.986159,-153.219100
463.271934,296.082377,-9474.636058,-689.485948
463.272259,666.185348,-7698.141797,-689.485948
463.272583,1628.453072,-7698.141797,-153.219100
463.272907,2220.617826,-9326.594869,306.438199
463.273231,1998.556043,-11177.109724,536.266849
463.273555,0.000000,-10955.047942,459.657299
463.273879,-1110.308913,-10436.903782,-306.438199
463.274203,-1406.391290,-9474.636058,-536.266849
463.274527,-296.082377,-9474.636058,306.438199
463.274852,592.164754,-10510.924376,995.924147
463.275176,296.082377,-11325.150913,689.485948
463.275500,-370.102971,-10214.842000,-689.485948
463.275824,-740.205942,-8438.347739,-383.047749
463.276148,-296.082377,-7624.121203,459.657299
463.276472,888.247130,-7920.203579,76.609550
463.276796,1184.329507,-9252.574275,383.047749
463.277120,370.102971,-10362.883188,229.828649
463.277444,-518.144159,-10732.986159,76.609550
463.277769,-1332.370696,-9844.739029,-153.219100
463.278093,-888.247130,-8808.450710,1072.533697
463.278417,-370.102971,-8956.491898,1149.143247
463.278741,444.123565,-10214.842000,1149.143247
463.279065,-148.041188,-10732.986159,995.924147
463.279389,-962.267725,-9992.780217,383.047749
463.279713,-888.247130,-8438.347739,-383.047749
463.280037,0.000000,-7179.997637,-306.438199
463.280362,888.247130,-7476.080014,153.219100
463.280686,962.267725,-9104.533087,842.705048
463.281010,148.041188,-10807.006753,153.219100
463.281334,-1184.329507,-10881.027347,0.000000
463.281658,-1850.514855,-9844.739029,0.000000
463.281982,-1258.350101,-9178.553681,-383.047749
463.282306,0.000000,-9400.615463,153.219100
463.282630,814.226536,-10732.986159,689.485948
463.282955,444.123565,-11473.192101,612.876398
463.283279,-518.144159,-10732.986159,-306.438199
463.283603,-1332.370696,-8808.450710,-383.047749
463.283930,-888.247130,-8216.285956,-383.047749
463.284254,296.082377,-8956.491898,0.000000
463.284578,222.061783,-10584.944971,383.047749
463.284902,-444.123565,-11695.253884,766.095498
463.285227,-1776.494261,-11251.130318,-536.266849
463.285551,-1850.514855,-9770.718434,-995.924147
463.285875,-1332.370696,-9178.553681,-995.924147
463.286199,-888.247130,-9918.759623,0.000000
463.286523,-222.061783,-10584.944971,-383.047749
463.286847,-444.123565,-10807.006753,-459.657299
463.287172,-814.226536,-9474.636058,-919.314598
463.287496,-296.082377,-8142.265362,-766.095498
463.287820,1258.350101,-7698.141797,-536.266849
463.288144,1924.535449,-8956.491898,-76.609550
463.288468,1406.391290,-10510.924376,153.219100
463.288792,-592.164754,-11251.130318,-153.219100
463.289116,-2146.597232,-10362.883188,-995.924147
463.289441,-2368.659014,-9326.594869,-766.095498
463.289765,-296.082377,-9252.574275,-536.266849
463.290089,1184.329507,-10288.862594,76.609550
463.290413,1406.391290,-11177.109724,383.047749
463.290737,222.061783,-10436.903782,-766.095498
463.291061,0.000000,-9474.636058,-1378.971896
463.291386,148.041188,-8290.306550,-1072.533697
463.291710,1406.391290,-8216.285956,-689.485948
463.292034,2220.617826,-9548.656652,0.000000
463.292358,2294.638420,-11103.089130,383.047749
463.292682,1184.329507,-11769.274478,0.000000
463.293006,518.144159,-10214.842000,-153.219100
463.293330,592.164754,-9400.615463,0.000000
463.293655,1036.288319,-8956.491898,0.000000
463.293979,1036.288319,-9474.636058,0.000000
463.294303,296.082377,-10362.883188,536.266849
463.294627,0.000000,-9918.759623,0.000000
463.294951,-222.061783,-8586.388927,-536.266849
463.295275,296.082377,-7105.977043,0.000000
463.295599,1924.535449,-7254.018232,153.219100
463.295924,1998.556043,-9474.636058,459.657299
463.296248,592.164754,-10288.862594,842.705048
463.296572,-1184.329507,-10436.903782,383.047749
463.296896,-2220.617826,-9252.574275,0.000000
463.297220,-1406.391290,-9252.574275,229.828649
463.297544,-148.041188,-9400.615463,689.485948
463.297869,888.247130,-9844.739029,1455.581446
463.298193,1036.288319,-10584.944971,1302.362347
463.298517,-148.041188,-9696.697840,459.657299
463.298841,-888.247130,-8734.430116,0.000000
463.299165,-666.185348,-7846.182985,0.000000
463.299489,0.000000,-8734.430116,383.047749
463.299813,296.082377,-10362.883188,612.876398
463.300138,0.000000,-11325.150913,459.657299
463.300462,-962.267725,-10955.047942,0.000000
463.300786,-1702.473667,-9918.759623,-229.828649
463.301110,-1924.535449,-9400.615463,76.609550
463.301434,-1258.350101,-9474.636058,766.095498
463.301758,-1110.308913,-10436.903782,919.314598
463.302083,-1406.391290,-10510.924376,842.705048
463.302407,-1332.370696,-9622.677246,0.000000
463.302731,-814.226536,-7920.203579,0.000000
463.303055,592.164754,-7105.977043,153.219100
463.303379,1480.411884,-8142.265362,383.047749
463.303703,666.185348,-9696.697840,536.266849
463.304027,-296.082377,-10436.903782,229.828649
463.304352,-1850.514855,-9844.739029,-383.047749
463.304676,-2442.679609,-9178.553681,-766.095498
463.305000,-1480.411884,-9104.533087,-766.095498
463.305324,444.123565,-9548.656652,0.000000
463.305648,666.185348,-10436.903782,0.000000
463.305972,74.020594,-10881.027347,76.609550
463.306296,-222.061783,-10214.842000,-689.485948
463.306621,-148.041188,-9030.512492,-536.266849
463.306945,740.205942,-8586.388927,-153.219100
463.307269,1776.494261,-9622.677246,0.000000
463.307593,2072.576638,-11399.171507,-229.828649
463.307917,888.247130,-11547.212695,0.000000
463.308241,296.082377,-11029.068536,-1149.143247
463.308566,148.041188,-9400.615463,-383.047749
463.308890,888.247130,-9770.718434,-459.657299
463.309214,1184.329507,-9992.780217,-229.828649
463.309538,518.144159,-10881.027347,-459.657299
463.309862,0.000000,-10658.965565,-1072.533697
463.310186,-148.041188,-9104.533087,-1072.533697
463.310510,222.061783,-7920.203579,-1149.143247
463.310835,888.247130,-7624.121203,-766.095498
463.311159,1628.453072,-8660.409521,-612.876398
463.311483,444.123565,-10288.862594,-689.485948
463.311807,-888.247130,-10436.903782,-995.924147
463.312131,-1998.556043,-9696.697840,-1072.533697
463.312455,-1554.432478,-8882.471304,-995.924147
463.312780,74.020594,-9030.512492,0.000000
463.313104,1406.391290,-10214.842000,383.047749
463.313428,1480.411884,-10881.027347,76.609550
463.313752,888.247130,-10362.883188,-383.047749
463.314076,0.000000,-8956.491898,-995.924147
463.314400,148.041188,-8290.306550,-842.705048
463.314724,962.267725,-9030.512492,-153.219100
463.315049,1628.453072,-10362.883188,0.000000
463.315373,1480.411884,-11621.233289,689.485948
463.315697,222.061783,-11251.130318,-383.047749
463.316021,-888.247130,-9622.677246,-229.828649
463.316345,-1036.288319,-9400.615463,0.000000
463.316669,-222.061783,-9400.615463,842.705048
463.316993,-148.041188,-10288.862594,995.924147
463.317318,-666.185348,-10436.903782,919.314598
463.317642,-1184.329507,-9770.718434,459.657299
463.317966,-962.267725,-8068.244768,0.000000
463.318290,-296.082377,-7105.977043,-306.438199
463.318614,-148.041188,-7772.162391,153.219100
463.318938,0.000000,-9474.636058,766.095498
463.319263,-444.123565,-10658.965565,612.876398
463.319587,-1702.473667,-10510.924376,383.047749
463.319911,-2368.659014,-9474.636058,76.609550
463.320235,-1998.556043,-8660.409521,536.266849
463.320559,-592.164754,-9474.636058,1072.533697
463.320883,148.041188,-10584.944971,1302.362347
463.321207,-296.082377,-10732.986159,919.314598
463.321532,-814.226536,-9770.718434,612.876398
463.321856,-1036.288319,-8438.347739,229.828649
463.322180,-296.082377,-7698.141797,153.219100
463.322504,592.164754,-8364.327145,536.266849
463.322828,814.226536,-10436.903782,995.924147
463.323152,222.061783,-11251.130318,76.609550
463.323477,-740.205942,-10362.883188,0.000000
463.323801,-888.247130,-9326.594869,0.000000
463.324125,-148.041188,-9252.574275,76.609550
463.324449,518.144159,-9844.739029,383.047749
463.324773,740.205942,-11029.068536,459.657299
463.325097,0.000000,-10658.965565,306.438199
463.325421,-666.185348,-9622.677246,-612.876398
463.325746,0.000000,-8216.285956,-383.047749
463.326070,592.164754,-7920.203579,0.000000
463.326394,1184.329507,-9326.594869,-229.828649
463.326718,370.102971,-10807.006753,0.000000
463.327042,-962.267725,-11103.089130,-842.705048
463.327366,-1924.535449,-9696.697840,-995.924147
463.327690,-1702.473667,-9178.553681,-1378.971896
463.328015,222.061783,-9622.677246,-229.828649
463.328339,1628.453072,-10510.924376,0.000000
463.328663,1184.329507,-11251.130318,229.828649
463.328987,444.123565,-11103.089130,-689.485948
463.329311,0.000000,-9622.677246,-1225.752797
463.329635,370.102971,-7920.203579,-995.924147
463.329960,1776.494261,-8142.265362,-1455.581446
463.330284,2220.617826,-9474.636058,0.000000
463.330608,1554.432478,-10955.047942,-459.657299
463.330932,74.020594,-11251.130318,-459.657299
463.331256,-814.226536,-9844.739029,-1378.971896
463.331580,-740.205942,-8808.450710,-1532.190996
463.331904,370.102971,-8808.450710,-766.095498
463.332229,1628.453072,-10066.800811,-536.266849
463.332553,1628.453072,-11399.171507,76.609550
463.332877,74.020594,-10140.821405,-689.485948
463.333201,-222.061783,-8660.409521,-842.705048
463.333525,518.144159,-7920.203579,-842.705048
463.333849,1406.391290,-8438.347739,-459.657299
463.334174,1406.391290,-10066.800811,0.000000
463.334498,0.000000,-10584.944971,76.609550
463.334822,-1258.350101,-10584.944971,-536.266849
463.335146,-1924.535449,-9178.553681,-536.266849
463.335470,-1480.411884,-9400.615463,-383.047749
463.335794,-592.164754,-9474.636058,0.000000
463.336118,0.000000,-9696.697840,459.657299
463.336443,-370.102971,-10584.944971,842.705048
463.336767,-666.185348,-9622.677246,0.000000
463.337091,-962.267725,-7994.224174,-229.828649
463.337415,-148.041188,-7476.080014,306.438199
463.337739,1184.329507,-8438.347739,0.000000
463.338063,1554.432478,-10436.903782,842.705048
463.338387,370.102971,-11103.089130,383.047749
463.338712,-1184.329507,-10510.924376,-229.828649
463.339036,-1850.514855,-9622.677246,-459.657299
463.339360,-1480.411884,-9474.636058,-306.438199
463.339684,-74.020594,-10066.800811,1072.533697
463.340008,296.082377,-10584.944971,612.876398
463.340332,-148.041188,-10658.965565,0.000000
463.340657,-1110.308913,-9770.718434,-306.438199
463.340981,-1184.329507,-8586.388927,-459.657299
463.341305,-296.082377,-8068.244768,0.000000
463.341629,370.102971,-9178.553681,306.438199
463.341953,74.020594,-10510.924376,0.000000
463.342277,-1332.370696,-10732.986159,-383.047749
463.342601,-1554.432478,-10362.883188,0.000000
463.342926,-1480.411884,-9696.697840,-459.657299
463.343250,-740.205942,-9104.533087,0.000000
463.343574,222.061783,-9844.739029,306.438199
463.343898,370.102971,-10807.006753,459.657299
463.344222,-370.102971,-10658.965565,0.000000
463.344546,-444.123565,-9622.677246,-536.266849
463.344871,-444.123565,-8216.285956,-612.876398
463.345195,740.205942,-8068.244768,-153.219100
463.345519,1332.370696,-9252.574275,153.219100
463.345843,1554.432478,-11029.068536,229.828649
463.346167,814.226536,-11325.150913,0.000000
463.346491,0.000000,-10140.821405,-459.657299
463.346815,0.000000,-8882.471304,0.000000
463.347140,-444.123565,-9104.533087,306.438199
463.347464,592.164754,-9770.718434,612.876398
463.347788,888.247130,-10881.027347,459.657299
463.348112,962.267725,-10955.047942,0.000000
463.348436,1036.288319,-9696.697840,-153.219100
463.348760,1406.391290,-8586.388927,0.000000
463.349084,2294.638420,-7920.203579,459.657299
463.349409,2368.659014,-9918.759623,306.438199
463.349733,1184.329507,-11325.150913,919.314598
463.350057,-740.205942,-11177.109724,-383.047749
463.350381,-1998.556043,-9770.718434,-766.095498
463.350705,-1110.308913,-8882.471304,-536.266849
463.351029,296.082377,-8734.430116,0.000000
463.351354,1110.308913,-10140.821405,919.314598
463.351678,0.000000,-10140.821405,689.485948
463.352002,-592.164754,-9548.656652,76.609550
463.352326,-1258.350101,-8142.265362,-383.047749
463.352650,-518.144159,-7624.121203,-612.876398
463.352974,740.205942,-8290.306550,229.828649
463.353298,1702.473667,-9844.739029,689.485948
463.353623,1332.370696,-11103.089130,995.924147
463.353947,296.082377,-10807.006753,919.314598
463.354271,-444.123565,-9696.697840,0.000000
463.354595,-444.123565,-9400.615463,229.828649
463.354919,74.020594,-9474.636058,689.485948
463.355243,518.144159,-10881.027347,842.705048
463.355568,296.082377,-10807.006753,689.485948
463.355892,0.000000,-9844.739029,0.000000
463.356216,0.000000,-8290.306550,-229.828649
463.356540,148.041188,-7550.100608,-153.219100
463.356864,444.123565,-8068.244768,536.266849
463.357188,222.061783,-9770.718434,459.657299
463.357512,-888.247130,-10658.965565,0.000000
463.357837,-2368.659014,-9992.780217,0.000000
463.358161,-2812.782580,-9252.574275,-153.219100
463.358485,-1850.514855,-9030.512492,0.000000
463.358809,-888.247130,-9178.553681,536.266849
463.359133,-592.164754,-10140.821405,1072.533697
463.359457,-370.102971,-10732.986159,306.438199
463.359781,-1554.432478,-9770.718434,0.000000
463.360106,-1480.411884,-8364.327145,-306.438199
463.360430,-222.061783,-7772.162391,-459.657299
463.360754,1036.288319,-8882.471304,-306.438199
463.361078,1332.370696,-10732.986159,153.219100
463.361402,814.226536,-11473.192101,0.000000
463.361726,-148.041188,-10955.047942,-612.876398
463.362051,-962.267725,-9918.759623,-995.924147
463.362375,-962.267725,-9918.759623,-689.485948
463.362699,-518.144159,-10658.965565,-306.438199
463.363023,-222.061783,-11695.253884,-153.219100
463.363347,-296.082377,-11695.253884,-383.047749
463.363671,-740.205942,-10436.903782,-1685.410096
463.363995,296.082377,-8586.388927,-306.438199
463.364320,592.164754,-8586.388927,-766.095498
463.364644,1258.350101,-10288.862594,0.000000
463.364968,148.041188,-11325.150913,-689.485948
463.365292,-1702.473667,-10881.027347,-1378.971896
463.365616,-2368.659014,-9770.718434,-1838.629195
463.365940,-1702.473667,-9030.512492,-1762.019645
463.366265,222.061783,-9030.512492,-842.705048
463.366589,1258.350101,-9326.594869,-383.047749
463.366913,1332.370696,-10140.821405,0.000000
463.367237,222.061783,-9844.739029,-995.924147
463.367561,-222.061783,-8808.450710,-1225.752797
463.367885,148.041188,-7698.141797,-919.314598
463.368209,1628.453072,-8290.306550,-229.828649
463.368534,2368.659014,-9696.697840,383.047749
463.368858,1998.556043,-10955.047942,383.047749
463.369182,888.247130,-10732.986159,0.000000
463.369506,222.061783,-9696.697840,-153.219100
463.369830,518.144159,-9326.594869,-536.266849
463.370154,740.205942,-9178.553681,76.609550
463.370478,740.205942,-10214.842000,536.266849
463.370803,518.144159,-10881.027347,689.485948
463.371127,370.102971,-10362.883188,-153.219100
463.371451,444.123565,-8586.388927,-229.828649
463.371775,1036.288319,-7476.080014,-306.438199
463.372099,2072.576638,-8364.327145,306.438199
463.372423,1628.453072,-9770.718434,1149.143247
463.372748,148.041188,-10807.006753,612.876398
463.373072,-1776.494261,-10066.800811,0.000000
463.373396,-2664.741391,-9178.553681,0.000000
463.373720,-1628.453072,-8882.471304,153.219100
463.374044,-370.102971,-9104.533087,1225.752797
463.374368,222.061783,-9918.759623,919.314598
463.374692,-740.205942,-9844.739029,919.314598
463.375017,-1628.453072,-9252.574275,306.438199
463.375341,-1924.535449,-7994.224174,306.438199
463.375665,-444.123565,-7402.059420,612.876398
463.375989,740.205942,-8438.347739,995.924147
463.376313,1258.350101,-10140.821405,1455.581446
463.376637,370.102971,-10955.047942,536.266849
463.376962,-666.185348,-10881.027347,306.438199
463.377286,-1332.370696,-10214.842000,0.000000
463.377610,-1036.288319,-9844.739029,459.657299
463.377934,-518.144159,-10584.944971,766.095498
463.378258,-444.123565,-11103.089130,842.705048
463.378582,-1036.288319,-11029.068536,306.438199
463.378906,-1184.329507,-9992.780217,-153.219100
463.379231,-814.226536,-8512.368333,153.219100
463.379555,370.102971,-8290.306550,459.657299
463.379879,962.267725,-9400.615463,689.485948
463.380203,296.082377,-10732.986159,689.485948
463.380527,-888.247130,-10584.944971,842.705048
463.380851,-2146.597232,-9992.780217,-383.047749
463.381175,-1924.535449,-9326.594869,-689.485948
463.381500,-296.082377,-9104.533087,229.828649
463.381824,666.185348,-9622.677246,229.828649
463.382148,1110.308913,-10140.821405,153.219100
463.382472,592.164754,-10140.821405,-383.047749
463.382796,148.041188,-9252.574275,-995.924147
463.383120,74.020594,-8142.265362,-1072.533697
463.383445,296.082377,-7846.182985,-1149.143247
463.383769,1702.473667,-9178.553681,-229.828649
463.384093,1258.350101,-11251.130318,-229.828649
463.384417,222.061783,-11399.171507,-995.924147
463.384741,-740.205942,-10140.821405,-1302.362347
463.385065,-592.164754,-9252.574275,-1072.533697
463.385389,592.164754,-9400.615463,-459.657299
463.385713,1554.432478,-10658.965565,0.000000
463.386037,518.144159,-10510.924376,229.828649
463.386362,0.000000,-10362.883188,-612.876398
463.386686,74.020594,-9178.553681,-1302.362347
463.387010,666.185348,-8512.368333,-995.924147
463.387334,1628.453072,-8808.450710,-689.485948
463.387658,1924.535449,-10214.842000,0.000000
463.387982,888.247130,-10955.047942,-153.219100
463.388306,-370.102971,-11177.109724,-612.876398
463.388630,-1332.370696,-9992.780217,-1225.752797
463.388954,-1406.391290,-8438.347739,-1302.362347
463.389279,74.020594,-8882.471304,-612.876398
463.389603,666.185348,-9548.656652,76.609550
463.389927,666.185348,-9918.759623,0.000000
463.390251,74.020594,-9252.574275,0.000000
463.390575,-222.061783,-8068.244768,-689.485948
463.390899,222.061783,-7624.121203,-842.705048
463.391223,740.205942,-7846.182985,-306.438199
463.391547,444.123565,-9326.594869,76.609550
463.391871,-148.041188,-10955.047942,0.000000
463.392196,-1184.329507,-11103.089130,-459.657299
463.392520,-1850.514855,-9992.780217,-459.657299
463.392844,-1332.370696,-9030.512492,0.000000
463.393168,0.000000,-10288.862594,842.705048
463.393492,518.144159,-11251.130318,1149.143247
463.393816,0.000000,-11177.109724,536.266849
463.394140,0.000000,-10436.903782,306.438199
463.394464,296.082377,-9030.512492,76.609550
463.394788,1258.350101,-8364.327145,612.876398
463.395112,2072.576638,-9400.615463,1149.143247
463.395437,1332.370696,-10955.047942,689.485948
463.395761,-666.185348,-10955.047942,153.219100
463.396085,-2072.576638,-10436.903782,0.000000
463.396409,-2886.803174,-9548.656652,0.000000
463.396733,-1924.535449,-8956.491898,383.047749
463.397057,-740.205942,-8808.450710,766.095498
463.397381,-592.164754,-9474.636058,842.705048
463.397705,-888.247130,-9770.718434,76.609550
463.398029,-2072.576638,-8660.409521,-995.924147
463.398354,-1702.473667,-7031.956449,306.438199
463.398678,74.020594,-7105.977043,536.266849
463.399002,1258.350101,-8660.409521,536.266849
463.399326,888.247130,-10214.842000,1225.752797
463.399650,222.061783,-11399.171507,536.266849
463.399974,-370.102971,-10436.903782,-459.657299
463.400298,-888.247130,-10066.800811,689.485948
463.400622,-296.082377,-9770.718434,306.438199
463.400946,74.020594,-10066.800811,459.657299
463.401271,-296.082377,-11547.212695,459.657299
463.401595,-814.226536,-11399.171507,-306.438199
463.401919,-1036.288319,-10066.800811,-766.095498
463.402243,-592.164754,-8660.409521,-842.705048
463.402567,444.123565,-8364.327145,-383.047749
463.402891,1406.391290,-9474.636058,536.266849
463.403215,740.205942,-10732.986159,0.000000
463.403539,-1036.288319,-10732.986159,-153.219100
463.403863,-2072.576638,-9474.636058,-536.266849
463.404187,-1184.329507,-8808.450710,-766.095498
463.404512,444.123565,-9104.533087,229.828649
463.404836,1628.453072,-9252.574275,995.924147
463.405160,1924.535449,-10066.800811,76.609550
463.405484,1258.350101,-9474.636058,0.000000
463.405808,0.000000,-8808.450710,-766.095498
463.406132,0.000000,-7698.141797,-1072.533697
463.406456,962.267725,-8142.265362,-459.657299
463.406780,1258.350101,-9770.718434,0.000000
463.407104,888.247130,-11029.068536,-536.266849
463.407429,0.000000,-10807.006753,-1378.971896
463.407753,-592.164754,-9844.739029,-1225.752797
463.408077,-148.041188,-9252.574275,-995.924147
463.408401,666.185348,-9400.615463,-306.438199
463.408725,1258.350101,-10584.944971,76.609550
463.409049,888.247130,-11029.068536,153.219100
463.409373,592.164754,-10436.903782,-459.657299
463.409697,814.226536,-8808.450710,-1072.533697
463.410021,1850.514855,-7994.224174,-383.047749
463.410346,2664.741391,-8808.450710,153.219100
463.410670,2442.679609,-10288.862594,306.438199
463.410994,814.226536,-11029.068536,0.000000
463.411318,-962.267725,-10584.944971,-612.876398
463.411642,-1924.535449,-9696.697840,-842.705048
463.411966,-1184.329507,-9104.533087,-842.705048
463.412290,0.000000,-8586.388927,229.828649
463.412614,74.020594,-9622.677246,766.095498
463.412938,-296.082377,-10288.862594,0.000000
463.413262,-1184.329507,-9400.615463,0.000000
463.413587,-962.267725,-7772.162391,-229.828649
463.413911,0.000000,-7105.977043,-383.047749
463.414235,370.102971,-8142.265362,76.609550
463.414559,-296.082377,-9474.636058,153.219100
463.414883,-814.226536,-10955.047942,76.609550
463.415207,-1998.556043,-10658.965565,-612.876398
463.415531,-2220.617826,-9548.656652,-153.219100
463.415855,-1332.370696,-9474.636058,0.000000
463.416179,-592.164754,-10066.800811,153.219100
463.416504,-888.247130,-11177.109724,229.828649
463.416828,-1480.411884,-11621.233289,0.000000
463.417152,-1850.514855,-10732.986159,-229.828649
463.417476,-1258.350101,-8734.430116,-383.047749
463.417800,666.185348,-8734.430116,76.609550
463.418124,1480.411884,-9548.656652,383.047749
463.418448,296.082377,-11029.068536,0.000000
463.418772,-1332.370696,-11473.192101,-612.876398
463.419096,-2294.638420,-10362.883188,-1149.143247
463.419421,-1332.370696,-9474.636058,-1072.533697
463.419745,-296.082377,-8956.491898,-459.657299
463.420069,444.123565,-10066.800811,0.000000
463.420393,0.000000,-10288.862594,0.000000
463.420717,-1110.308913,-10658.965565,-919.314598
463.421041,-1406.391290,-9548.656652,-1225.752797
463.421365,-1036.288319,-8068.244768,-1072.533697
463.421689,518.144159,-7698.141797,-306.438199
463.422013,1776.494261,-9030.512492,689.485948
463.422337,1036.288319,-10436.903782,0.000000
463.422662,296.082377,-11029.068536,-229.828649
463.422986,-814.226536,-10140.821405,-766.095498
463.423310,-222.061783,-9326.594869,-459.657299
463.423634,888.247130,-9326.594869,-306.438199
463.423958,1628.453072,-10436.903782,153.219100
463.424282,1628.453072,-11251.130318,0.000000
463.424606,888.247130,-10807.006753,-612.876398
463.424930,814.226536,-9474.636058,-842.705048
463.425254,1480.411884,-7772.162391,-229.828649
463.425579,2738.761985,-7994.224174,153.219100
463.425903,2960.823768,-9770.718434,383.047749
463.426227,2072.576638,-10955.047942,306.438199
463.426551,74.020594,-9992.780217,-153.219100
463.426875,-1480.411884,-8808.450710,-689.485948
463.427199,-1184.329507,-7772.162391,-919.314598
463.427523,592.164754,-8586.388927,306.438199
463.427847,1480.411884,-9770.718434,1149.143247
463.428171,740.205942,-10066.800811,842.705048
463.428496,0.000000,-9548.656652,229.828649
463.428820,-592.164754,-8364.327145,229.828649
463.429144,148.041188,-7624.121203,459.657299
463.429468,962.267725,-8068.244768,459.657299
463.429792,1702.473667,-9918.759623,1532.190996
463.430116,740.205942,-11103.089130,1072.533697
463.430440,-740.205942,-10955.047942,153.219100
463.430764,-1480.411884,-9474.636058,0.000000
463.431088,-1480.411884,-9104.533087,229.828649
463.431412,-148.041188,-9918.759623,306.438199
463.431737,222.061783,-10881.027347,612.876398
463.432061,0.000000,-11103.089130,995.924147
463.432385,-592.164754,-9474.636058,612.876398
463.432709,-222.061783,-8290.306550,383.047749
463.433033,518.144159,-7994.224174,383.047749
463.433357,666.185348,-8660.409521,842.705048
463.433681,222.061783,-10288.862594,1072.533697
463.434005,-814.226536,-10955.047942,459.657299
463.434329,-2220.617826,-10584.944971,229.828649
463.434654,-2590.720797,-9622.677246,-153.219100
463.434978,-1702.473667,-8734.430116,306.438199
463.435302,-222.061783,-9770.718434,536.266849
463.435626,148.041188,-10807.006753,612.876398
463.435950,-148.041188,-10881.027347,0.000000
463.436274,-740.205942,-9622.677246,0.000000
463.436598,-666.185348,-7994.224174,153.219100
463.436922,-296.082377,-7772.162391,0.000000
463.437246,518.144159,-9104.533087,0.000000
463.437571,148.041188,-10214.842000,0.000000
463.437895,-888.247130,-11325.150913,-383.047749
463.438219,-1628.453072,-10584.944971,-766.095498
463.438543,-1332.370696,-9474.636058,-689.485948
463.438867,-518.144159,-9030.512492,-306.438199
463.439191,0.000000,-9622.677246,-229.828649
463.439515,-888.247130,-10288.862594,-689.485948
463.439839,-962.267725,-10214.842000,-536.266849
463.440163,-740.205942,-9548.656652,-1532.190996
463.440487,296.082377,-8586.388927,-689.485948
463.440812,1924.535449,-8364.327145,-383.047749
463.441136,2368.659014,-9918.759623,-153.219100
463.441460,1184.329507,-11103.089130,-919.314598
463.441784,-666.185348,-11029.068536,-1225.752797
463.442108,-1776.494261,-10140.821405,-1991.848295
463.442432,-888.247130,-9252.574275,-1685.410096
463.442756,518.144159,-9548.656652,-612.876398
463.443080,1406.391290,-10362.883188,0.000000
463.443404,888.247130,-10732.986159,-459.657299
463.443729,74.020594,-10584.944971,-1149.143247
463.444053,-222.061783,-9030.512492,-1378.971896
463.444377,296.082377,-7846.182985,-1302.362347
463.444701,1406.391290,-8068.244768,-229.828649
463.445025,1850.514855,-9918.759623,229.828649
463.445349,962.267725,-10881.027347,0.000000
463.445673,-444.123565,-10732.986159,-689.485948
463.445997,-1036.288319,-9770.718434,-842.705048
463.446321,222.061783,-8882.471304,0.000000
463.446646,740.205942,-8956.491898,153.219100
463.446970,1406.391290,-10140.821405,1072.533697
463.447294,740.205942,-10362.883188,76.609550
463.447618,-148.041188,-9992.780217,-689.485948
463.447942,-444.123565,-8290.306550,-919.314598
463.448266,962.267725,-7476.080014,-459.657299
463.448590,2146.597232,-8364.327145,306.438199
463.448914,1924.535449,-10140.821405,459.657299
463.449238,0.000000,-10658.965565,229.828649
463.449562,-1332.370696,-10288.862594,153.219100
463.449887,-2072.576638,-9918.759623,0.000000
463.450211,-1110.308913,-9548.656652,536.266849
463.450535,148.041188,-9844.739029,1225.752797
463.450859,814.226536,-10955.047942,1685.410096
463.451183,518.144159,-11473.192101,1302.362347
463.451507,-592.164754,-9474.636058,229.828649
463.451831,0.000000,-8142.265362,229.828649
463.452155,0.000000,-7624.121203,0.000000
463.452479,444.123565,-8808.450710,612.876398
463.452804,0.000000,-10140.821405,689.485948
463.453128,-1110.308913,-11251.130318,459.657299
463.453452,-2442.679609,-10362.883188,-229.828649
463.453776,-2664.741391,-8734.430116,0.000000
463.454100,-1850.514855,-8290.306550,536.266849
463.454424,-740.205942,-9474.636058,1149.143247
463.454748,-518.144159,-10658.965565,1225.752797
463.455072,-740.205942,-10436.903782,1149.143247
463.455396,-962.267725,-9030.512492,153.219100
463.455721,0.000000,-7846.182985,76.609550
463.456045,1036.288319,-7476.080014,689.485948
463.456369,1998.556043,-8956.491898,1225.752797
463.456693,1036.288319,-10658.965565,306.438199
463.457017,-592.164754,-10881.027347,0.000000
463.457341,-1924.535449,-10214.842000,-842.705048
463.457665,-1628.453072,-9548.656652,-689.485948
463.457989,-518.144159,-9474.636058,0.000000
463.458313,370.102971,-10214.842000,306.438199
463.458637,444.123565,-10584.944971,383.047749
463.458962,-148.041188,-10140.821405,0.000000
463.459286,-296.082377,-8956.491898,-842.705048
463.459610,222.061783,-7772.162391,-229.828649
463.459934,1554.432478,-7920.203579,76.609550
463.460258,1850.514855,-9696.697840,383.047749
463.460582,1036.288319,-10732.986159,0.000000
463.460906,-592.164754,-10584.944971,-383.047749
463.461230,-2072.576638,-9474.636058,-1685.410096
463.461554,-1036.288319,-9252.574275,-1762.019645
463.461879,222.061783,-9770.718434,-536.266849
463.462203,888.247130,-10584.944971,-153.219100
463.462527,814.226536,-11177.109724,-383.047749
463.462851,-148.041188,-10436.903782,-919.314598
463.463175,296.082377,-8956.491898,-995.924147
463.463499,1332.370696,-8290.306550,-612.876398
463.463823,2738.761985,-8586.388927,153.219100
463.464147,2368.659014,-9992.780217,689.485948
463.464471,1110.308913,-11251.130318,153.219100
463.464796,-444.123565,-11103.089130,-459.657299
463.465120,-1332.370696,-9918.759623,-1149.143247
463.465444,-666.185348,-9104.533087,-995.924147
463.465768,148.041188,-9326.594869,-306.438199
463.466092,814.226536,-10584.944971,0.000000
463.466416,74.020594,-10436.903782,-536.266849
463.466740,-444.123565,-9474.636058,-1302.362347
463.467064,-666.185348,-8290.306550,-1149.143247
463.467388,666.185348,-8068.244768,-612.876398
463.467712,1850.514855,-8882.471304,306.438199
463.468037,2220.617826,-9992.780217,612.876398
463.468361,888.247130,-10881.027347,766.095498
463.468685,0.000000,-10436.903782,306.438199
463.469009,-740.205942,-9622.677246,0.000000
463.469333,-296.082377,-9326.594869,153.219100
463.469657,74.020594,-9474.636058,459.657299
463.469981,74.020594,-10436.903782,689.485948
463.470305,-740.205942,-10066.800811,229.828649
463.470629,-1776.494261,-8882.471304,-229.828649
463.470954,-1554.432478,-8068.244768,-1072.533697
463.471278,-592.164754,-7105.977043,-306.438199
463.471602,592.164754,-9030.512492,0.000000
463.471926,0.000000,-10732.986159,153.219100
463.472250,-1184.329507,-10955.047942,229.828649
