#time,accel_x,accel_y,accel_z
508.938791,148.041188,-10066.800811,0.000000
508.939115,222.061783,-9326.594869,0.000000
508.939439,0.000000,-9548.656652,0.000000
508.939763,74.020594,-9474.636058,0.000000
508.940087,0.000000,-9622.677246,0.000000
508.940411,74.020594,-9918.759623,0.000000
508.940735,0.000000,-9548.656652,-153.219100
508.941059,-370.102971,-9474.636058,-153.219100
508.941383,0.000000,-9400.615463,0.000000
508.941707,-148.041188,-9844.739029,-306.438199
508.942031,0.000000,-9696.697840,153.219100
508.942355,-222.061783,-9918.759623,0.000000
508.942679,-148.041188,-9844.739029,0.000000
508.943003,-222.061783,-9622.677246,-229.828649
508.943327,-222.061783,-9622.677246,-383.047749
508.943651,-370.102971,-9474.636058,-306.438199
508.943975,-296.082377,-9992.780217,0.000000
508.944299,-148.041188,-9474.636058,-383.047749
508.944623,-222.061783,-9326.594869,0.000000
508.944948,-444.123565,-9622.677246,-229.828649
508.945272,-296.082377,-9770.718434,-229.828649
508.945596,0.000000,-9770.718434,0.000000
508.945920,0.000000,-9474.636058,-153.219100
508.946244,74.020594,-9474.636058,0.000000
508.946568,370.102971,-9622.677246,76.609550
508.946892,296.082377,-9548.656652,0.000000
508.947216,74.020594,-9548.656652,-306.438199
508.947540,0.000000,-9770.718434,-306.438199
508.947864,0.000000,-9770.718434,-383.047749
508.948188,148.041188,-9474.636058,0.000000
508.948512,444.123565,-9474.636058,76.609550
508.948836,888.247130,-9770.718434,0.000000
508.949160,1110.308913,-10066.800811,-306.438199
508.949484,444.123565,-9696.697840,0.000000
508.949808,0.000000,-10140.821405,0.000000
508.950132,-814.226536,-10140.821405,-229.828649
508.950456,-1110.308913,-9400.615463,-306.438199
508.950780,-666.185348,-9252.574275,76.609550
508.951104,518.144159,-9696.697840,842.705048
508.951429,1480.411884,-9548.656652,919.314598
508.951753,1554.432478,-8956.491898,459.657299
508.952077,1184.329507,-9252.574275,229.828649
508.952401,1110.308913,-9918.759623,0.000000
508.952725,888.247130,-9622.677246,-459.657299
508.953049,0.000000,-9992.780217,-919.314598
508.953373,-1036.288319,-9992.780217,0.000000
508.953697,-1036.288319,-10436.903782,-383.047749
508.954021,-370.102971,-9992.780217,459.657299
508.954345,592.164754,-9918.759623,842.705048
508.954669,1480.411884,-9474.636058,1225.752797
508.954993,2516.700203,-9548.656652,1532.190996
508.955317,2960.823768,-9696.697840,1915.238745
508.955641,3108.864956,-9696.697840,1455.581446
508.955965,2368.659014,-9622.677246,842.705048
508.956289,1776.494261,-8956.491898,76.609550
508.956613,370.102971,-9474.636058,-306.438199
508.956937,0.000000,-9918.759623,-536.266849
508.957261,-592.164754,-10288.862594,-306.438199
508.957585,-888.247130,-9918.759623,0.000000
508.957910,148.041188,-9622.677246,766.095498
508.958234,2516.700203,-9474.636058,1532.190996
508.958558,3627.009116,-9474.636058,1915.238745
508.958882,4293.194464,-9622.677246,2604.724693
508.959206,4441.235652,-9548.656652,3140.991542
508.959530,4293.194464,-9992.780217,2911.162892
508.959854,3701.029710,-10288.862594,1991.848295
508.960178,2516.700203,-10362.883188,1455.581446
508.960502,1554.432478,-10288.862594,1302.362347
508.960826,1184.329507,-10881.027347,842.705048
508.961150,814.226536,-10881.027347,766.095498
508.961474,1332.370696,-10214.842000,1532.190996
508.961798,2664.741391,-10066.800811,2911.162892
508.962122,3923.091493,-9548.656652,2987.772442
508.962446,4441.235652,-9326.594869,3753.867940
508.962770,4515.256246,-9622.677246,4366.744339
508.963094,3849.070898,-10140.821405,4366.744339
508.963418,2886.803174,-10214.842000,4290.134789
508.963742,1554.432478,-9252.574275,3830.477490
508.964066,-148.041188,-8956.491898,2987.772442
508.964391,-1628.453072,-8438.347739,2374.896044
508.964715,-1480.411884,-8512.368333,1991.848295
508.965039,-814.226536,-7772.162391,1915.238745
508.965363,518.144159,-6957.935855,2298.286494
508.965687,1406.391290,-6661.853478,2528.115143
508.966011,2368.659014,-6661.853478,3370.820191
508.966335,3701.029710,-6735.874072,3217.601092
508.966659,3849.070898,-7328.038826,3524.039291
508.966983,4071.132681,-9474.636058,4596.572988
508.967307,4737.318029,-10584.944971,3983.696590
508.967631,3997.112087,-11103.089130,4213.525239
508.967955,2368.659014,-11843.295072,3753.867940
508.968279,0.000000,-12731.542202,2911.162892
508.968603,-1998.556043,-12287.418637,2145.067394
508.968927,-2368.659014,-11621.233289,1608.800546
508.969251,-1258.350101,-9992.780217,1225.752797
508.969575,1036.288319,-8512.368333,1762.019645
508.969899,3701.029710,-7846.182985,1991.848295
508.970223,5329.482782,-7920.203579,2145.067394
508.970547,5921.647536,-7624.121203,1915.238745
508.970872,5773.606348,-8068.244768,1838.629195
508.971196,4589.276840,-9622.677246,2298.286494
508.971520,2368.659014,-11325.150913,2604.724693
508.971844,296.082377,-11843.295072,2604.724693
508.972168,-740.205942,-12361.439231,2068.457845
508.972492,-1776.494261,-11251.130318,1378.971896
508.972816,-1554.432478,-10732.986159,1608.800546
508.973140,0.000000,-9992.780217,1225.752797
508.973464,1332.370696,-9178.553681,1149.143247
508.973788,2368.659014,-8364.327145,1378.971896
508.974112,2368.659014,-7846.182985,536.266849
508.974436,2812.782580,-8586.388927,612.876398
508.974760,2590.720797,-8660.409521,76.609550
508.975084,2960.823768,-8512.368333,-153.219100
508.975408,4071.132681,-9030.512492,0.000000
508.975732,5403.503377,-10807.006753,919.314598
508.976056,6365.771101,-11843.295072,1915.238745
508.976380,5181.441594,-12361.439231,2298.286494
508.976704,2812.782580,-12287.418637,1455.581446
508.977028,-740.205942,-11399.171507,1149.143247
508.977353,-3108.864956,-10807.006753,459.657299
508.977677,-3627.009116,-9918.759623,76.609550
508.978001,-2072.576638,-8734.430116,459.657299
508.978325,518.144159,-8068.244768,1149.143247
508.978649,2146.597232,-7476.080014,919.314598
508.978973,2664.741391,-6587.832884,229.828649
508.979297,2960.823768,-6439.791695,0.000000
508.979621,3404.947333,-6587.832884,0.000000
508.979945,4293.194464,-7920.203579,229.828649
508.980269,5033.400406,-10362.883188,1378.971896
508.980593,5107.421000,-11991.336260,1838.629195
508.980917,3997.112087,-11843.295072,2221.676944
508.981241,2072.576638,-10140.821405,1532.190996
508.981565,740.205942,-10066.800811,919.314598
508.981889,222.061783,-10955.047942,1225.752797
508.982213,-148.041188,-11325.150913,1532.190996
508.982537,-1036.288319,-11177.109724,1532.190996
508.982861,-1702.473667,-10066.800811,1455.581446
508.983185,-222.061783,-7920.203579,1072.533697
508.983510,2294.638420,-7624.121203,1838.629195
508.983834,4737.318029,-7772.162391,1685.410096
508.984158,5181.441594,-9400.615463,1455.581446
508.984482,2960.823768,-10066.800811,1225.752797
508.984806,814.226536,-9992.780217,689.485948
508.985130,-296.082377,-10436.903782,1072.533697
508.985454,518.144159,-11177.109724,2451.505594
508.985778,2072.576638,-11325.150913,2374.896044
508.986102,2664.741391,-10807.006753,2681.334243
508.986426,2442.679609,-10066.800811,2451.505594
508.986750,1776.494261,-9326.594869,2604.724693
508.987074,1258.350101,-9474.636058,2681.334243
508.987398,74.020594,-9770.718434,2911.162892
508.987722,-1480.411884,-9326.594869,2451.505594
508.988046,-2072.576638,-7994.224174,2145.067394
508.988370,-962.267725,-7105.977043,1455.581446
508.988694,2072.576638,-7920.203579,1991.848295
508.989018,5403.503377,-9400.615463,2528.115143
508.989342,5699.585753,-8734.430116,2068.457845
508.989666,4293.194464,-8068.244768,1915.238745
508.989991,3034.844362,-8882.471304,2298.286494
508.990315,2368.659014,-11251.130318,2451.505594
508.990639,740.205942,-11695.253884,1915.238745
508.990963,-592.164754,-10288.862594,1915.238745
508.991287,-2146.597232,-9104.533087,1838.629195
508.991611,-1480.411884,-9844.739029,1685.410096
508.991935,-148.041188,-10955.047942,2604.724693
508.992259,740.205942,-10066.800811,2604.724693
508.992583,1258.350101,-8438.347739,2221.676944
508.992907,1036.288319,-7328.038826,2528.115143
508.993231,1184.329507,-8586.388927,1685.410096
508.993555,1036.288319,-9326.594869,842.705048
508.993879,962.267725,-8808.450710,-229.828649
508.994203,0.000000,-8068.244768,-766.095498
508.994527,0.000000,-8882.471304,-766.095498
508.994851,-148.041188,-9622.677246,-689.485948
508.995175,-444.123565,-9104.533087,-229.828649
508.995499,0.000000,-8068.244768,-306.438199
508.995823,888.247130,-8808.450710,383.047749
508.996147,1036.288319,-10881.027347,1455.581446
508.996472,1628.453072,-11547.212695,1915.238745
508.996796,1850.514855,-10140.821405,2221.676944
508.997120,1776.494261,-9030.512492,1608.800546
508.997444,666.185348,-9918.759623,459.657299
508.997768,-592.164754,-10807.006753,0.000000
508.998092,-1850.514855,-10510.924376,-919.314598
508.998416,-1702.473667,-9622.677246,-1915.238745
508.998740,-2072.576638,-9104.533087,-3600.648841
508.999064,-3775.050304,-10288.862594,-3907.087040
508.999388,-4219.173869,-11029.068536,-3370.820191
508.999712,-2886.803174,-10214.842000,-2757.943793
509.000036,-592.164754,-9104.533087,-2145.067394
509.000360,666.185348,-8956.491898,-689.485948
509.000684,1776.494261,-9326.594869,-919.314598
509.001008,3775.050304,-10362.883188,1149.143247
509.001332,4737.318029,-11251.130318,2374.896044
509.001656,4737.318029,-11769.274478,1838.629195
509.001980,1850.514855,-11695.253884,459.657299
509.002304,-1628.453072,-10732.986159,0.000000
509.002628,-2886.803174,-7920.203579,-3370.820191
509.002952,-4515.256246,-8808.450710,-4443.353888
509.003276,-5847.626942,-11769.274478,-4136.915689
509.003600,-3923.091493,-12731.542202,-4366.744339
509.003924,-2146.597232,-10658.965565,-3447.429741
509.004248,-1702.473667,-8512.368333,-1685.410096
509.004572,-1036.288319,-9474.636058,-2374.896044
509.004896,-148.041188,-11621.233289,-2298.286494
509.005220,2220.617826,-10140.821405,-459.657299
509.005544,4515.256246,-9252.574275,1072.533697
509.005868,4441.235652,-9474.636058,919.314598
509.006192,3330.926739,-9622.677246,1991.848295
509.006516,2886.803174,-9326.594869,2681.334243
509.006840,3923.091493,-7772.162391,1072.533697
509.007165,1258.350101,-7624.121203,-1072.533697
509.007489,-3404.947333,-9326.594869,-2451.505594
509.007813,-5107.421000,-9548.656652,-2604.724693
509.008137,-3552.988522,-8290.306550,-1991.848295
509.008461,-2960.823768,-7402.059420,-919.314598
509.008785,-3923.091493,-8586.388927,-153.219100
509.009109,-2664.741391,-10436.903782,-995.924147
509.009433,0.000000,-8290.306550,-1149.143247
509.009757,888.247130,-6809.894666,153.219100
509.010081,0.000000,-8660.409521,306.438199
509.010405,-740.205942,-10140.821405,76.609550
509.010729,0.000000,-9696.697840,1149.143247
509.011053,1924.535449,-8068.244768,1762.019645
509.011377,1776.494261,-8808.450710,766.095498
509.011701,592.164754,-10436.903782,76.609550
509.012025,1554.432478,-9844.739029,536.266849
509.012349,4219.173869,-9030.512492,995.924147
509.012673,4219.173869,-9992.780217,1072.533697
509.012997,814.226536,-11843.295072,1685.410096
509.013321,-1480.411884,-12583.501014,1072.533697
509.013645,-518.144159,-10510.924376,1149.143247
509.013969,-222.061783,-9548.656652,306.438199
509.014293,-1406.391290,-10362.883188,0.000000
509.014617,-1702.473667,-11399.171507,-383.047749
509.014941,-740.205942,-10436.903782,153.219100
509.015265,-888.247130,-9030.512492,306.438199
509.015589,-2590.720797,-9770.718434,-153.219100
509.015913,-4071.132681,-10436.903782,-306.438199
509.016237,-1628.453072,-9400.615463,459.657299
509.016561,1850.514855,-7994.224174,1072.533697
509.016885,2590.720797,-9326.594869,1455.581446
509.017209,3034.844362,-10066.800811,2068.457845
509.017533,3034.844362,-10214.842000,2374.896044
509.017857,4219.173869,-9474.636058,2834.553343
509.018181,3034.844362,-9548.656652,1685.410096
509.018505,-740.205942,-11251.130318,842.705048
509.018829,-2590.720797,-11991.336260,536.266849
509.019153,-1850.514855,-10955.047942,153.219100
509.019477,-1110.308913,-9474.636058,766.095498
509.019801,-1628.453072,-10066.800811,612.876398
509.020125,-1776.494261,-10732.986159,612.876398
509.020449,-962.267725,-9252.574275,689.485948
509.020773,-518.144159,-7698.141797,306.438199
509.021097,-1554.432478,-8438.347739,0.000000
509.021421,-1776.494261,-9252.574275,0.000000
509.021745,370.102971,-7846.182985,1225.752797
509.022070,3182.885551,-6439.791695,2068.457845
509.022394,2812.782580,-7328.038826,1149.143247
509.022718,1924.535449,-8438.347739,995.924147
509.023042,2294.638420,-7772.162391,995.924147
509.023366,2590.720797,-7105.977043,536.266849
509.023690,296.082377,-7846.182985,536.266849
509.024014,-2220.617826,-9474.636058,306.438199
509.024338,-2738.761985,-9622.677246,1072.533697
509.024662,-1850.514855,-8734.430116,0.000000
509.024986,-1184.329507,-8734.430116,-612.876398
509.025310,-1924.535449,-10510.924376,-612.876398
509.025634,-2368.659014,-11991.336260,-995.924147
509.025958,-1480.411884,-10732.986159,-1149.143247
509.026282,-1258.350101,-9770.718434,-1072.533697
509.026606,-2368.659014,-11029.068536,-1915.238745
509.026930,-2072.576638,-12213.398043,-2298.286494
509.027254,1036.288319,-10140.821405,-1685.410096
509.027578,3627.009116,-9178.553681,-1149.143247
509.027902,4367.215058,-10288.862594,-612.876398
509.028226,4367.215058,-10732.986159,-689.485948
509.028550,4959.379811,-9844.739029,153.219100
509.028874,3997.112087,-9474.636058,1149.143247
509.029198,1258.350101,-10214.842000,-1378.971896
509.029522,-1924.535449,-11917.315666,-1378.971896
509.029846,-3108.864956,-11991.336260,-1149.143247
509.030170,-2516.700203,-10955.047942,-1915.238745
509.030494,-2886.803174,-10214.842000,-2374.896044
509.030818,-3478.967927,-11251.130318,-2528.115143
509.031142,-3330.926739,-11843.295072,-2451.505594
509.031466,-3108.864956,-9844.739029,-3064.381992
509.031790,-2960.823768,-9030.512492,-3447.429741
509.032114,-3182.885551,-10066.800811,-2451.505594
509.032438,-962.267725,-11399.171507,-2374.896044
509.032762,2220.617826,-9770.718434,-766.095498
509.033086,4145.153275,-8956.491898,153.219100
509.033410,4737.318029,-9770.718434,689.485948
509.033734,4885.359217,-10140.821405,1608.800546
509.034058,5477.523971,-9548.656652,2451.505594
509.034382,3404.947333,-9474.636058,2451.505594
509.034706,-444.123565,-10584.944971,919.314598
509.035030,-3923.091493,-10658.965565,-383.047749
509.035354,-4811.338623,-9252.574275,-459.657299
509.035678,-4071.132681,-7624.121203,-1225.752797
509.036002,-3108.864956,-7179.997637,-842.705048
509.036326,-2960.823768,-8068.244768,-1302.362347
509.036650,-1628.453072,-7920.203579,-612.876398
509.036975,-1332.370696,-6809.894666,-1072.533697
509.037299,-2146.597232,-7031.956449,-1149.143247
509.037623,-1998.556043,-8882.471304,-766.095498
509.037947,74.020594,-9474.636058,153.219100
509.038271,2294.638420,-8438.347739,1225.752797
509.038595,3478.967927,-8586.388927,2145.067394
509.038919,3034.844362,-9844.739029,2298.286494
509.039243,3923.091493,-10288.862594,2451.505594
509.039567,3256.906145,-9844.739029,1915.238745
509.039891,1332.370696,-9770.718434,1608.800546
509.040215,-1406.391290,-11177.109724,842.705048
509.040539,-2516.700203,-11621.233289,842.705048
509.040863,-2294.638420,-9622.677246,1225.752797
509.041187,-1110.308913,-8068.244768,766.095498
509.041511,-962.267725,-9326.594869,0.000000
509.041835,-444.123565,-11029.068536,229.828649
509.042159,74.020594,-10658.965565,0.000000
509.042483,-518.144159,-9474.636058,0.000000
509.042807,-2072.576638,-10214.842000,76.609550
509.043131,-1998.556043,-11621.233289,229.828649
509.043455,518.144159,-11029.068536,612.876398
509.043779,2590.720797,-9252.574275,1378.971896
509.044103,3330.926739,-9104.533087,1072.533697
509.044427,3701.029710,-10436.903782,2068.457845
509.044751,3923.091493,-9622.677246,2145.067394
509.045075,3701.029710,-9030.512492,2145.067394
509.045399,740.205942,-9326.594869,1455.581446
509.045723,-1850.514855,-10881.027347,842.705048
509.046047,-2368.659014,-10881.027347,766.095498
509.046371,-1258.350101,-8956.491898,919.314598
509.046695,0.000000,-8882.471304,1685.410096
509.047019,-814.226536,-9548.656652,919.314598
509.047343,-1406.391290,-10362.883188,612.876398
509.047667,-1480.411884,-9104.533087,0.000000
509.047991,-2368.659014,-7920.203579,-459.657299
509.048315,-2960.823768,-8660.409521,-1149.143247
509.048639,-2664.741391,-9548.656652,-689.485948
509.048963,-444.123565,-7846.182985,306.438199
509.049287,2072.576638,-7031.956449,612.876398
509.049611,2072.576638,-8290.306550,459.657299
509.049935,1850.514855,-9030.512492,306.438199
509.050259,2220.617826,-7994.224174,612.876398
509.050583,2294.638420,-7994.224174,842.705048
509.050907,518.144159,-10066.800811,1378.971896
509.051231,-1184.329507,-11547.212695,536.266849
509.051555,-1184.329507,-10140.821405,229.828649
509.051880,-222.061783,-8660.409521,-536.266849
509.052204,-222.061783,-8068.244768,-612.876398
509.052528,-296.082377,-9918.759623,-1378.971896
509.052852,0.000000,-9770.718434,-1455.581446
509.053176,-148.041188,-8512.368333,-1378.971896
509.053500,-1776.494261,-8956.491898,-1915.238745
509.053824,-2960.823768,-10214.842000,-2221.676944
509.054148,-2220.617826,-11029.068536,-2451.505594
509.054472,0.000000,-10066.800811,-1608.800546
509.054796,1406.391290,-9548.656652,-1762.019645
509.055120,1332.370696,-10584.944971,-1532.190996
509.055444,1258.350101,-11473.192101,-612.876398
509.055768,1924.535449,-10584.944971,383.047749
509.056092,1924.535449,-10140.821405,766.095498
509.056416,-444.123565,-11177.109724,229.828649
509.056740,-1406.391290,-12435.459826,-229.828649
509.057064,-1184.329507,-10066.800811,-919.314598
509.057388,518.144159,-8660.409521,-1378.971896
509.057712,-148.041188,-9770.718434,-1762.019645
509.058036,-1332.370696,-11473.192101,-2221.676944
509.058360,-1258.350101,-11547.212695,-2374.896044
509.058684,-1110.308913,-10140.821405,-2221.676944
509.059008,-1924.535449,-10510.924376,-1762.019645
509.059332,-2664.741391,-12213.398043,-2068.457845
509.059656,-962.267725,-12065.356855,-1072.533697
509.059980,1554.432478,-10066.800811,-229.828649
509.060304,2442.679609,-9548.656652,153.219100
509.060628,1776.494261,-10584.944971,459.657299
509.060952,1702.473667,-10066.800811,0.000000
509.061276,2886.803174,-8216.285956,919.314598
509.061600,2072.576638,-7624.121203,1225.752797
509.061924,74.020594,-9474.636058,995.924147
509.062248,-1702.473667,-9474.636058,306.438199
509.062572,-888.247130,-7105.977043,153.219100
509.062896,-296.082377,-6069.688724,-383.047749
509.063220,-1406.391290,-7476.080014,-612.876398
509.063544,-2442.679609,-9400.615463,-766.095498
509.063868,-2294.638420,-8438.347739,-306.438199
509.064192,-1776.494261,-8068.244768,-383.047749
509.064516,-2368.659014,-9252.574275,0.000000
509.064840,-2442.679609,-10955.047942,-153.219100
509.065164,-148.041188,-9770.718434,459.657299
509.065488,2368.659014,-8068.244768,383.047749
509.065812,2590.720797,-8216.285956,229.828649
509.066136,1776.494261,-9918.759623,459.657299
509.066460,2072.576638,-9252.574275,919.314598
509.066785,3034.844362,-8586.388927,1455.581446
509.067109,1998.556043,-9178.553681,1072.533697
509.067433,-592.164754,-10436.903782,153.219100
509.067757,-1628.453072,-9992.780217,0.000000
509.068081,-370.102971,-8512.368333,0.000000
509.068405,370.102971,-8882.471304,383.047749
509.068729,-222.061783,-10584.944971,842.705048
509.069053,-740.205942,-10881.027347,459.657299
509.069377,-814.226536,-9474.636058,689.485948
509.069701,-1258.350101,-9622.677246,383.047749
509.070025,-2516.700203,-11547.212695,-229.828649
509.070349,-2664.741391,-12139.377449,-229.828649
509.070673,-148.041188,-10732.986159,536.266849
509.070997,2442.679609,-9622.677246,689.485948
509.071321,2812.782580,-11177.109724,1149.143247
509.071645,2516.700203,-12213.398043,1225.752797
509.071969,3034.844362,-10881.027347,1532.190996
509.072293,2812.782580,-9474.636058,1149.143247
509.072617,518.144159,-9918.759623,842.705048
509.072941,-1406.391290,-10732.986159,306.438199
509.073265,-1036.288319,-9474.636058,536.266849
509.073589,0.000000,-7772.162391,1302.362347
509.073913,1036.288319,-8586.388927,1532.190996
509.074237,0.000000,-9400.615463,1762.019645
509.074561,-1406.391290,-8586.388927,1455.581446
509.074885,-1480.411884,-7031.956449,766.095498
509.075209,-2442.679609,-7476.080014,766.095498
509.075533,-3627.009116,-9622.677246,0.000000
509.075857,-2738.761985,-9770.718434,536.266849
509.076181,-296.082377,-7402.059420,1225.752797
509.076505,1110.308913,-6957.935855,306.438199
509.076829,888.247130,-9326.594869,0.000000
509.077153,592.164754,-10288.862594,0.000000
509.077477,1702.473667,-9178.553681,459.657299
509.077801,1850.514855,-8882.471304,766.095498
509.078125,740.205942,-10214.842000,766.095498
509.078449,-370.102971,-10807.006753,459.657299
509.078773,74.020594,-10288.862594,689.485948
509.079097,962.267725,-9400.615463,1072.533697
509.079421,0.000000,-9696.697840,0.000000
509.079745,-1628.453072,-10658.965565,0.000000
509.080069,-1850.514855,-9770.718434,-306.438199
509.080393,-592.164754,-9104.533087,-1149.143247
509.080717,-1554.432478,-9104.533087,-1072.533697
509.081041,-2664.741391,-10214.842000,-1838.629195
509.081366,-2072.576638,-9918.759623,-1225.752797
509.081690,296.082377,-8438.347739,-1762.019645
509.082014,1998.556043,-9104.533087,-1302.362347
509.082338,1776.494261,-10658.965565,-1532.190996
509.082662,1998.556043,-10732.986159,-995.924147
509.082986,2590.720797,-9622.677246,-1072.533697
509.083310,2738.761985,-9474.636058,-1302.362347
509.083634,962.267725,-12065.356855,-919.314598
509.083958,-814.226536,-12213.398043,-1149.143247
509.084282,0.000000,-11251.130318,-383.047749
509.084606,740.205942,-10214.842000,-689.485948
509.084930,74.020594,-10658.965565,-1149.143247
509.085254,-1184.329507,-11399.171507,-1838.629195
509.085578,-1258.350101,-10732.986159,-2451.505594
509.085902,-1332.370696,-9622.677246,-2068.457845
509.086226,-2368.659014,-10362.883188,-1838.629195
509.086550,-3552.988522,-11177.109724,-2221.676944
509.086874,-1554.432478,-9992.780217,-1838.629195
509.087198,1036.288319,-8290.306550,-1378.971896
509.087522,1702.473667,-8882.471304,-995.924147
509.087846,888.247130,-10288.862594,-766.095498
509.088170,1258.350101,-10140.821405,-383.047749
509.088494,1554.432478,-9030.512492,306.438199
509.088818,1110.308913,-8586.388927,76.609550
509.089142,-1258.350101,-9918.759623,-383.047749
509.089466,-2072.576638,-10066.800811,-229.828649
509.089790,-518.144159,-8808.450710,383.047749
509.090114,888.247130,-8364.327145,536.266849
509.090438,-222.061783,-8290.306550,229.828649
509.090762,-666.185348,-8882.471304,306.438199
509.091086,0.000000,-7624.121203,-153.219100
509.091410,-666.185348,-7920.203579,-689.485948
509.091734,-2294.638420,-9178.553681,-1225.752797
509.092058,-2960.823768,-9844.739029,-1302.362347
509.092382,-1332.370696,-8956.491898,-766.095498
509.092706,1110.308913,-7994.224174,153.219100
509.093030,1998.556043,-10214.842000,766.095498
509.093354,740.205942,-11251.130318,229.828649
509.093678,814.226536,-10510.924376,995.924147
509.094002,962.267725,-10066.800811,1455.581446
509.094326,0.000000,-10584.944971,1225.752797
509.094650,-1036.288319,-11695.253884,536.266849
509.094974,-518.144159,-10510.924376,383.047749
509.095298,370.102971,-9252.574275,766.095498
509.095622,740.205942,-9992.780217,229.828649
509.095946,74.020594,-10140.821405,383.047749
509.096271,-222.061783,-9548.656652,-153.219100
509.096595,518.144159,-8660.409521,306.438199
509.096919,444.123565,-9474.636058,306.438199
509.097243,-962.267725,-11177.109724,76.609550
509.097567,-1628.453072,-10955.047942,536.266849
509.097891,0.000000,-9474.636058,689.485948
509.098215,1480.411884,-9252.574275,1302.362347
509.098539,1406.391290,-10510.924376,383.047749
509.098863,1184.329507,-11103.089130,1149.143247
509.099187,1998.556043,-9918.759623,1991.848295
509.099511,2072.576638,-9178.553681,1685.410096
509.099835,148.041188,-10066.800811,1455.581446
509.100159,-1110.308913,-10658.965565,76.609550
509.100483,-666.185348,-8882.471304,229.828649
509.100807,740.205942,-8068.244768,1225.752797
509.101131,444.123565,-8882.471304,1225.752797
509.101455,-222.061783,-9474.636058,1149.143247
509.101779,-148.041188,-8660.409521,1149.143247
509.102103,74.020594,-7698.141797,1685.410096
509.102427,0.000000,-8438.347739,1225.752797
509.102751,-1332.370696,-10584.944971,536.266849
509.103075,-962.267725,-9474.636058,1608.800546
509.103399,888.247130,-7698.141797,995.924147
509.103723,1628.453072,-7772.162391,1685.410096
509.104048,296.082377,-9326.594869,995.924147
509.104372,-296.082377,-9178.553681,383.047749
509.104696,0.000000,-7846.182985,76.609550
509.105020,74.020594,-7550.100608,153.219100
509.105344,-814.226536,-9474.636058,0.000000
509.105668,-1850.514855,-10066.800811,76.609550
509.105992,-1110.308913,-9030.512492,153.219100
509.106316,444.123565,-8142.265362,0.000000
509.106640,0.000000,-9474.636058,-383.047749
509.106964,-592.164754,-10584.944971,-306.438199
509.107288,518.144159,-9474.636058,229.828649
509.107612,814.226536,-8734.430116,0.000000
509.107936,-1036.288319,-9918.759623,-612.876398
509.108260,-2442.679609,-10881.027347,-2298.286494
509.108584,-1998.556043,-10066.800811,-1532.190996
509.108908,666.185348,-9474.636058,-1302.362347
509.109233,1554.432478,-10214.842000,-1455.581446
509.109557,296.082377,-11399.171507,-1302.362347
509.109881,148.041188,-11029.068536,-1685.410096
509.110205,1258.350101,-10658.965565,-1302.362347
509.110529,740.205942,-10732.986159,-1532.190996
509.110853,-1110.308913,-12657.521608,-2298.286494
509.111177,-1480.411884,-12509.480420,-2221.676944
509.111501,296.082377,-11547.212695,-1608.800546
509.111825,1702.473667,-10584.944971,-995.924147
509.112149,1184.329507,-11103.089130,-1685.410096
509.112473,-444.123565,-10881.027347,-2145.067394
509.112797,0.000000,-10362.883188,-1455.581446
509.113121,0.000000,-10066.800811,-2068.457845
509.113445,-1776.494261,-10807.006753,-1608.800546
509.113769,-2664.741391,-10955.047942,-1991.848295
509.114093,-1628.453072,-9548.656652,-1685.410096
509.114418,518.144159,-8438.347739,-1455.581446
509.114742,666.185348,-9474.636058,-536.266849
509.115066,-148.041188,-9918.759623,-919.314598
509.115390,444.123565,-9474.636058,-229.828649
509.115714,1406.391290,-8438.347739,459.657299
509.116038,1036.288319,-9030.512492,76.609550
509.116362,-444.123565,-10140.821405,0.000000
509.116686,-666.185348,-9474.636058,-459.657299
509.117010,1258.350101,-8216.285956,153.219100
509.117334,1184.329507,-8290.306550,459.657299
509.117658,888.247130,-9622.677246,612.876398
509.117982,370.102971,-8734.430116,842.705048
509.118306,740.205942,-7698.141797,689.485948
509.118630,-1184.329507,-7846.182985,229.828649
509.118954,-3256.906145,-9474.636058,-306.438199
509.119278,-3997.112087,-9622.677246,0.000000
509.119602,-1110.308913,-7772.162391,612.876398
509.119927,962.267725,-6957.935855,1072.533697
509.120251,296.082377,-8216.285956,383.047749
509.120575,0.000000,-9548.656652,306.438199
509.120899,962.267725,-9178.553681,766.095498
509.121223,1702.473667,-8956.491898,919.314598
509.121547,888.247130,-10436.903782,1072.533697
509.121871,-592.164754,-11251.130318,459.657299
509.122195,-518.144159,-10881.027347,995.924147
509.122519,1258.350101,-9918.759623,1225.752797
509.122843,1628.453072,-11029.068536,383.047749
509.123167,296.082377,-11991.336260,153.219100
509.123491,-370.102971,-11325.150913,612.876398
509.123815,-148.041188,-9770.718434,689.485948
509.124139,-888.247130,-10140.821405,0.000000
509.124463,-2516.700203,-10658.965565,-612.876398
509.124787,-2442.679609,-10214.842000,-1532.190996
509.125112,-296.082377,-8586.388927,-229.828649
509.125436,1406.391290,-8586.388927,536.266849
509.125760,1036.288319,-9918.759623,459.657299
509.126084,888.247130,-10066.800811,459.657299
509.126408,2146.597232,-9178.553681,1149.143247
509.126732,2664.741391,-9326.594869,1149.143247
509.127056,1332.370696,-10955.047942,1149.143247
509.127380,370.102971,-11769.274478,1685.410096
509.127704,518.144159,-10807.006753,2068.457845
509.128028,1554.432478,-10510.924376,1685.410096
509.128352,518.144159,-10436.903782,995.924147
509.128676,-888.247130,-10732.986159,229.828649
509.129000,-814.226536,-9918.759623,306.438199
509.129324,-148.041188,-8808.450710,383.047749
509.129648,-1480.411884,-9104.533087,306.438199
509.129972,-3182.885551,-9474.636058,-536.266849
509.130297,-1924.535449,-7920.203579,-766.095498
509.130621,444.123565,-5921.647536,0.000000
509.130945,1628.453072,-7031.956449,919.314598
509.131269,1036.288319,-9030.512492,919.314598
509.131593,1480.411884,-9178.553681,1532.190996
509.131917,2590.720797,-8364.327145,2374.896044
509.132241,2220.617826,-8660.409521,2298.286494
509.132565,-74.020594,-10362.883188,995.924147
509.132889,-1628.453072,-10955.047942,229.828649
509.133213,-1332.370696,-9548.656652,612.876398
509.133537,-444.123565,-8808.450710,76.609550
509.133861,-1110.308913,-9770.718434,-383.047749
509.134185,-2220.617826,-10214.842000,-612.876398
509.134509,-1850.514855,-8734.430116,-1072.533697
509.134833,-1184.329507,-7698.141797,-1991.848295
509.135157,-2368.659014,-8512.368333,-2451.505594
509.135482,-3552.988522,-9770.718434,-2298.286494
509.135806,-1924.535449,-8808.450710,-1072.533697
509.136130,962.267725,-8364.327145,-612.876398
509.136454,1628.453072,-8586.388927,-612.876398
509.136778,962.267725,-9326.594869,-1072.533697
509.137102,1702.473667,-9252.574275,0.000000
509.137426,2294.638420,-9696.697840,153.219100
509.137750,2368.659014,-11325.150913,-383.047749
509.138074,-592.164754,-12065.356855,-766.095498
509.138398,-2368.659014,-12139.377449,-1838.629195
509.138722,-1258.350101,-11325.150913,-2145.067394
509.139046,-148.041188,-11251.130318,-2145.067394
509.139370,-296.082377,-12213.398043,-2374.896044
509.139694,-370.102971,-12287.418637,-2528.115143
509.140018,444.123565,-10732.986159,-2145.067394
509.140342,444.123565,-10140.821405,-2145.067394
509.140667,-222.061783,-12213.398043,-2834.553343
509.140991,-740.205942,-11473.192101,-2757.943793
509.141315,740.205942,-9918.759623,-1532.190996
509.141639,2220.617826,-9474.636058,-383.047749
509.141963,1924.535449,-9548.656652,-766.095498
509.142287,1554.432478,-9696.697840,0.000000
509.142611,2294.638420,-8808.450710,1072.533697
509.142935,2442.679609,-8808.450710,459.657299
509.143259,444.123565,-9622.677246,0.000000
509.143583,-2220.617826,-10658.965565,-306.438199
509.143907,-2664.741391,-10362.883188,-229.828649
509.144231,-1406.391290,-8882.471304,-383.047749
509.144555,-888.247130,-8512.368333,0.000000
509.144879,-1850.514855,-9770.718434,-536.266849
509.145203,-1110.308913,-9400.615463,-612.876398
509.145527,518.144159,-8068.244768,-766.095498
509.145852,222.061783,-7846.182985,0.000000
509.146176,-1110.308913,-9252.574275,-612.876398
509.146500,-1110.308913,-9548.656652,-612.876398
509.146824,592.164754,-7920.203579,612.876398
509.147148,1850.514855,-7624.121203,1532.190996
509.147472,1554.432478,-9178.553681,1455.581446
509.147796,1258.350101,-9548.656652,1455.581446
509.148120,1554.432478,-8364.327145,2298.286494
509.148444,1332.370696,-7994.224174,1915.238745
509.148768,-888.247130,-9622.677246,919.314598
509.149092,-3849.070898,-10955.047942,459.657299
509.149416,-3627.009116,-10288.862594,842.705048
509.149740,-1258.350101,-9030.512492,919.314598
509.150064,-296.082377,-9178.553681,229.828649
509.150388,-888.247130,-10807.006753,76.609550
509.150712,296.082377,-11917.315666,229.828649
509.151037,1332.370696,-10658.965565,229.828649
509.151361,1036.288319,-9992.780217,76.609550
509.151685,-444.123565,-11177.109724,-153.219100
509.152009,0.000000,-11029.068536,76.609550
509.152333,2146.597232,-9548.656652,919.314598
509.152657,2664.741391,-9178.553681,1685.410096
509.152981,1850.514855,-10214.842000,1225.752797
509.153305,1628.453072,-9770.718434,1378.971896
509.153629,2220.617826,-8660.409521,2298.286494
509.153953,1480.411884,-8512.368333,1378.971896
509.154277,-1480.411884,-9696.697840,1378.971896
509.154601,-3478.967927,-10955.047942,383.047749
509.154925,-3034.844362,-9622.677246,1302.362347
509.155249,-518.144159,-9400.615463,842.705048
509.155573,0.000000,-9992.780217,995.924147
509.155897,-370.102971,-10510.924376,612.876398
509.156222,296.082377,-10066.800811,459.657299
509.156546,814.226536,-9104.533087,229.828649
509.156870,370.102971,-9622.677246,0.000000
509.157194,-1406.391290,-9474.636058,-383.047749
509.157518,444.123565,-9178.553681,0.000000
509.157842,2220.617826,-7550.100608,766.095498
509.158166,2590.720797,-8142.265362,919.314598
509.158490,1406.391290,-9178.553681,459.657299
509.158814,1036.288319,-8142.265362,229.828649
509.159138,1332.370696,-6439.791695,459.657299
509.159462,370.102971,-7179.997637,0.000000
509.159786,-1924.535449,-9474.636058,229.828649
509.160110,-3552.988522,-10066.800811,0.000000
509.160434,-2664.741391,-9252.574275,229.828649
509.160758,-1850.514855,-8956.491898,-306.438199
509.161082,-2294.638420,-10214.842000,-1072.533697
509.161407,-2294.638420,-11473.192101,0.000000
509.161731,-814.226536,-10807.006753,-995.924147
509.162055,0.000000,-9474.636058,-1072.533697
509.162379,-1850.514855,-10140.821405,-1838.629195
509.162703,-2220.617826,-11103.089130,-2068.457845
509.163027,74.020594,-10584.944971,-1455.581446
509.163351,2590.720797,-9178.553681,-842.705048
509.163675,3108.864956,-9252.574275,-1532.190996
509.163999,2368.659014,-9622.677246,-1072.533697
509.164323,2442.679609,-9252.574275,-612.876398
509.164647,2960.823768,-8512.368333,0.000000
509.164971,1554.432478,-9918.759623,-766.095498
509.165295,-1554.432478,-11177.109724,-1455.581446
509.165619,-3404.947333,-11399.171507,-1915.238745
509.165943,-3256.906145,-10807.006753,-2221.676944
509.166267,-2368.659014,-10288.862594,-2528.115143
509.166592,-1998.556043,-10584.944971,-2221.676944
509.166916,-1702.473667,-11547.212695,-1991.848295
509.167240,0.000000,-11399.171507,-1915.238745
509.167564,740.205942,-10214.842000,-1991.848295
509.167888,74.020594,-11029.068536,-2374.896044
509.168212,1702.473667,-11843.295072,-1685.410096
509.168536,3478.967927,-11177.109724,-1149.143247
509.168860,4367.215058,-10436.903782,0.000000
509.169184,3182.885551,-11029.068536,0.000000
509.169508,2664.741391,-11621.233289,0.000000
509.169832,2368.659014,-10288.862594,1149.143247
509.170156,1406.391290,-9252.574275,306.438199
509.170480,-814.226536,-9252.574275,383.047749
509.170804,-4219.173869,-9474.636058,-76.609550
509.171128,-4219.173869,-8734.430116,306.438199
509.171452,-2368.659014,-7254.018232,153.219100
509.171777,-1776.494261,-7105.977043,-306.438199
509.172101,-2146.597232,-7476.080014,-153.219100
509.172425,-1776.494261,-7328.038826,76.609550
509.172749,74.020594,-7031.956449,229.828649
509.173073,0.000000,-8142.265362,-383.047749
509.173397,-1554.432478,-9400.615463,-306.438199
509.173721,-222.061783,-9770.718434,-153.219100
509.174045,2516.700203,-9104.533087,842.705048
509.174369,3404.947333,-9400.615463,1991.848295
509.174693,2960.823768,-10140.821405,1455.581446
509.175017,1776.494261,-10214.842000,1838.629195
509.175341,2442.679609,-9474.636058,2221.676944
509.175665,1554.432478,-9178.553681,2145.067394
509.175989,-1480.411884,-9770.718434,995.924147
509.176313,-3849.070898,-10214.842000,306.438199
509.176637,-3330.926739,-9178.553681,536.266849
509.176962,-1776.494261,-8734.430116,153.219100
509.177286,-1258.350101,-9474.636058,76.609550
509.177610,-1850.514855,-10510.924376,-306.438199
509.177934,-1480.411884,-9844.739029,-153.219100
509.178258,-666.185348,-9696.697840,-689.485948
509.178582,-888.247130,-10436.903782,-919.314598
509.178906,-1036.288319,-11695.253884,-383.047749
509.179230,1480.411884,-11473.192101,0.000000
509.179554,3701.029710,-9918.759623,842.705048
509.179878,3923.091493,-9696.697840,612.876398
509.180202,2368.659014,-9918.759623,612.876398
509.180526,1776.494261,-9696.697840,612.876398
509.180850,2886.803174,-8808.450710,1072.533697
509.181174,1924.535449,-9030.512492,1225.752797
509.181498,-518.144159,-10584.944971,766.095498
509.181822,-2146.597232,-10584.944971,689.485948
509.182147,-1258.350101,-9104.533087,1149.143247
509.182471,-814.226536,-8734.430116,689.485948
509.182795,-888.247130,-9918.759623,306.438199
509.183119,-1776.494261,-10362.883188,76.609550
509.183443,-370.102971,-9992.780217,76.609550
509.183767,74.020594,-9252.574275,0.000000
509.184091,-740.205942,-9992.780217,-689.485948
509.184415,-1850.514855,-10584.944971,-612.876398
509.184739,-814.226536,-9030.512492,0.000000
509.185063,1998.556043,-8142.265362,919.314598
509.185387,2368.659014,-8882.471304,842.705048
509.185711,962.267725,-9548.656652,459.657299
509.186035,1184.329507,-8734.430116,1072.533697
509.186359,1998.556043,-7846.182985,1608.800546
509.186683,370.102971,-8290.306550,919.314598
509.187007,-2368.659014,-9400.615463,-306.438199
509.187332,-3404.947333,-8734.430116,536.266849
509.187656,-2072.576638,-7994.224174,76.609550
509.187980,-1184.329507,-7698.141797,-689.485948
509.188304,-2220.617826,-8438.347739,-1072.533697
509.188628,-1998.556043,-9474.636058,-1149.143247
509.188952,-296.082377,-9474.636058,-536.266849
509.189276,444.123565,-9400.615463,-1455.581446
509.189600,-962.267725,-10510.924376,-1302.362347
509.189924,-1184.329507,-11325.150913,-1149.143247
509.190248,148.041188,-11029.068536,-766.095498
509.190572,2294.638420,-10436.903782,-306.438199
509.190896,1628.453072,-11177.109724,-1149.143247
509.191220,222.061783,-11547.212695,-1378.971896
509.191544,1332.370696,-10881.027347,-306.438199
509.191868,2146.597232,-9400.615463,-536.266849
509.192192,740.205942,-9770.718434,-1225.752797
509.192517,-2220.617826,-10732.986159,-1762.019645
509.192841,-2812.782580,-10288.862594,-1838.629195
509.193165,-1332.370696,-9326.594869,-1762.019645
509.193489,-370.102971,-9548.656652,-1915.238745
509.193813,-740.205942,-10807.006753,-1685.410096
509.194137,-592.164754,-11695.253884,-1225.752797
509.194461,148.041188,-10584.944971,-1302.362347
509.194785,0.000000,-10436.903782,-1302.362347
509.195109,-814.226536,-11769.274478,-1685.410096
509.195433,296.082377,-11843.295072,-1302.362347
509.195757,3182.885551,-10881.027347,0.000000
509.196081,3997.112087,-9696.697840,-229.828649
509.196405,2442.679609,-10214.842000,-689.485948
509.196729,814.226536,-10510.924376,-689.485948
509.197053,1332.370696,-8734.430116,0.000000
509.197377,1406.391290,-8364.327145,-153.219100
509.197702,-814.226536,-9326.594869,-153.219100
509.198026,-2812.782580,-9104.533087,-919.314598
509.198350,-2960.823768,-8142.265362,-306.438199
509.198674,-1406.391290,-7550.100608,306.438199
509.198998,-1332.370696,-7994.224174,-229.828649
509.199322,-1702.473667,-9622.677246,459.657299
509.199646,-296.082377,-9400.615463,1149.143247
509.199970,1110.308913,-8808.450710,1225.752797
509.200294,518.144159,-9104.533087,689.485948
509.200618,-962.267725,-10214.842000,0.000000
509.200942,-518.144159,-10510.924376,153.219100
509.201266,2072.576638,-9178.553681,995.924147
509.201590,2516.700203,-9104.533087,1072.533697
509.201914,740.205942,-9844.739029,536.266849
509.202238,666.185348,-9548.656652,-229.828649
509.202562,1258.350101,-7994.224174,229.828649
509.202887,518.144159,-8586.388927,153.219100
509.203211,-2294.638420,-10140.821405,-153.219100
509.203535,-3775.050304,-10436.903782,76.609550
509.203859,-1924.535449,-8364.327145,459.657299
509.204183,-296.082377,-8290.306550,536.266849
509.204507,-814.226536,-9474.636058,612.876398
509.204831,-1776.494261,-10807.006753,229.828649
509.205155,-888.247130,-10584.944971,995.924147
509.205479,518.144159,-9918.759623,919.314598
509.205803,148.041188,-10658.965565,229.828649
509.206127,-962.267725,-12139.377449,-459.657299
509.206451,518.144159,-11399.171507,229.828649
509.206775,2886.803174,-10362.883188,383.047749
509.207099,2590.720797,-10362.883188,306.438199
509.207424,962.267725,-11103.089130,-229.828649
509.207748,1258.350101,-10214.842000,0.000000
509.208072,2590.720797,-8956.491898,229.828649
509.208396,2294.638420,-9474.636058,919.314598
509.208720,-592.164754,-10214.842000,0.000000
509.209044,-888.247130,-10214.842000,612.876398
509.209368,222.061783,-8734.430116,1455.581446
509.209692,1332.370696,-8438.347739,1302.362347
509.210016,0.000000,-9474.636058,612.876398
509.210340,-740.205942,-9844.739029,1072.533697
509.210664,148.041188,-9844.739029,1455.581446
509.210988,444.123565,-9474.636058,689.485948
509.211312,-1110.308913,-9696.697840,229.828649
509.211636,-2516.700203,-9696.697840,0.000000
509.211960,-592.164754,-10066.800811,0.000000
509.212285,1850.514855,-9918.759623,306.438199
509.212609,1998.556043,-10066.800811,689.485948
509.212933,518.144159,-10140.821405,306.438199
509.213257,1110.308913,-8956.491898,76.609550
509.213581,2442.679609,-7994.224174,229.828649
509.213905,1924.535449,-9104.533087,306.438199
509.214229,-666.185348,-9474.636058,459.657299
509.214553,-1184.329507,-9326.594869,536.266849
509.214877,0.000000,-7476.080014,995.924147
509.215201,148.041188,-7402.059420,689.485948
509.215525,-1036.288319,-8882.471304,0.000000
509.215849,-1702.473667,-8734.430116,0.000000
509.216173,-666.185348,-7994.224174,-306.438199
509.216497,-666.185348,-7920.203579,-1072.533697
509.216822,-3108.864956,-8956.491898,-1991.848295
509.217146,-4293.194464,-9474.636058,-2145.067394
509.217470,-2368.659014,-8882.471304,-1838.629195
509.217794,0.000000,-8808.450710,-1455.581446
509.218118,-148.041188,-10362.883188,-1762.019645
509.218442,-740.205942,-10955.047942,-2221.676944
509.218766,518.144159,-10510.924376,-1302.362347
509.219090,2368.659014,-10955.047942,-766.095498
509.219414,962.267725,-11843.295072,-1302.362347
509.219738,-1702.473667,-12583.501014,-995.924147
509.220062,-1702.473667,-11695.253884,-1149.143247
509.220386,370.102971,-10807.006753,-766.095498
509.220710,1480.411884,-10658.965565,-1149.143247
509.221034,370.102971,-11103.089130,-1225.752797
509.221358,444.123565,-10288.862594,-536.266849
509.221683,1480.411884,-9400.615463,-153.219100
509.222007,888.247130,-9400.615463,-1072.533697
509.222331,-666.185348,-9770.718434,-1608.800546
509.222655,-814.226536,-9992.780217,-1685.410096
509.222979,1110.308913,-9474.636058,-1532.190996
509.223303,2072.576638,-8512.368333,-995.924147
509.223627,740.205942,-9178.553681,-1072.533697
509.223951,-148.041188,-9918.759623,-612.876398
509.224275,666.185348,-10066.800811,229.828649
509.224599,1702.473667,-9252.574275,0.000000
509.224923,-962.267725,-9474.636058,0.000000
509.225247,-3182.885551,-9992.780217,-612.876398
509.225571,-1998.556043,-9918.759623,0.000000
509.225895,-148.041188,-9326.594869,612.876398
509.226220,0.000000,-10140.821405,306.438199
509.226544,-740.205942,-10362.883188,536.266849
509.226868,-148.041188,-9104.533087,459.657299
509.227192,1332.370696,-8586.388927,153.219100
509.227516,592.164754,-9400.615463,229.828649
509.227840,-1184.329507,-10584.944971,0.000000
509.228164,-1480.411884,-10362.883188,612.876398
509.228488,370.102971,-9326.594869,1302.362347
509.228812,888.247130,-8290.306550,536.266849
509.229136,0.000000,-8734.430116,536.266849
509.229460,-148.041188,-9178.553681,459.657299
509.229784,1036.288319,-8512.368333,842.705048
509.230108,370.102971,-8808.450710,689.485948
509.230432,-1924.535449,-9178.553681,459.657299
509.230756,-2590.720797,-9104.533087,0.000000
509.231081,-1036.288319,-8068.244768,306.438199
509.231405,666.185348,-8364.327145,536.266849
509.231729,518.144159,-8956.491898,842.705048
509.232053,0.000000,-9326.594869,76.609550
509.232377,1184.329507,-8512.368333,306.438199
509.232701,1332.370696,-8882.471304,-153.219100
509.233025,-666.185348,-9918.759623,-689.485948
509.233349,-2738.761985,-11103.089130,-766.095498
509.233673,-2368.659014,-10362.883188,-229.828649
509.233997,370.102971,-9622.677246,306.438199
509.234321,962.267725,-9770.718434,-306.438199
509.234645,0.000000,-10584.944971,0.000000
509.234969,1036.288319,-11177.109724,229.828649
509.235293,2294.638420,-10362.883188,459.657299
509.235618,1036.288319,-10732.986159,76.609550
509.235942,-888.247130,-11325.150913,0.000000
509.236266,-888.247130,-11029.068536,-229.828649
509.236590,1258.350101,-9548.656652,-689.485948
509.236914,2664.741391,-9326.594869,-383.047749
509.237238,1998.556043,-9770.718434,-995.924147
509.237562,1776.494261,-10732.986159,-306.438199
509.237886,2368.659014,-9992.780217,689.485948
509.238210,1554.432478,-9622.677246,612.876398
509.238534,-740.205942,-10140.821405,0.000000
509.238858,-3034.844362,-11177.109724,-689.485948
509.239182,-1850.514855,-9918.759623,383.047749
509.239506,-296.082377,-8586.388927,612.876398
509.239830,-740.205942,-8956.491898,536.266849
509.240155,-1480.411884,-9696.697840,459.657299
509.240479,-888.247130,-9104.533087,766.095498
509.240803,740.205942,-8142.265362,689.485948
509.241127,0.000000,-8216.285956,306.438199
509.241451,-1924.535449,-9252.574275,-229.828649
509.241775,-1998.556043,-9326.594869,76.609550
509.242099,740.205942,-8438.347739,459.657299
509.242423,1702.473667,-8068.244768,536.266849
509.242747,962.267725,-9326.594869,689.485948
509.243071,1036.288319,-9474.636058,689.485948
509.243395,2072.576638,-8586.388927,1685.410096
509.243719,962.267725,-8586.388927,1225.752797
509.244043,-1850.514855,-8586.388927,76.609550
509.244367,-2368.659014,-9252.574275,612.876398
509.244691,-592.164754,-8808.450710,612.876398
509.245016,592.164754,-8364.327145,76.609550
509.245340,-444.123565,-8734.430116,0.000000
509.245664,-1258.350101,-9252.574275,-689.485948
509.245988,-296.082377,-9030.512492,-459.657299
509.246312,666.185348,-9252.574275,-153.219100
509.246636,-370.102971,-10288.862594,-1072.533697
509.246960,-2220.617826,-11251.130318,-1991.848295
509.247284,-1628.453072,-11621.233289,-1302.362347
509.247608,444.123565,-11029.068536,-766.095498
509.247932,1332.370696,-10955.047942,-842.705048
509.248256,1110.308913,-11473.192101,-459.657299
509.248580,1628.453072,-11473.192101,-383.047749
509.248904,2072.576638,-11103.089130,-1149.143247
509.249228,-592.164754,-11325.150913,-1072.533697
509.249553,-2590.720797,-11325.150913,-1838.629195
509.249877,-1628.453072,-10584.944971,-1072.533697
509.250201,814.226536,-9844.739029,-229.828649
509.250525,2960.823768,-9548.656652,-1455.581446
509.250849,962.267725,-10066.800811,-2068.457845
509.251173,740.205942,-9918.759623,-1455.581446
509.251497,1554.432478,-9474.636058,-919.314598
509.251821,1924.535449,-9400.615463,-612.876398
509.252145,-518.144159,-9992.780217,-995.924147
509.252469,-2146.597232,-10732.986159,-766.095498
509.252793,-740.205942,-10510.924376,-766.095498
509.253117,962.267725,-9622.677246,-536.266849
509.253441,74.020594,-9178.553681,-689.485948
509.253765,-666.185348,-10436.903782,-612.876398
509.254089,148.041188,-9474.636058,0.000000
509.254414,148.041188,-8734.430116,383.047749
509.254738,-1554.432478,-9400.615463,-306.438199
509.255062,-2886.803174,-10140.821405,-383.047749
509.255386,-1924.535449,-9474.636058,-536.266849
509.255710,666.185348,-7846.182985,383.047749
509.256034,1258.350101,-7550.100608,689.485948
509.256358,592.164754,-8438.347739,0.000000
509.256682,0.000000,-9178.553681,76.609550
509.257006,814.226536,-8438.347739,306.438199
509.257330,518.144159,-8364.327145,229.828649
509.257654,-2146.597232,-9326.594869,-459.657299
509.257978,-3478.967927,-9548.656652,-612.876398
509.258302,-1924.535449,-8808.450710,229.828649
509.258626,0.000000,-8808.450710,919.314598
509.258951,0.000000,-9326.594869,-153.219100
509.259275,-296.082377,-10066.800811,459.657299
509.259599,370.102971,-9104.533087,612.876398
509.259923,518.144159,-8586.388927,229.828649
509.260247,-1332.370696,-10066.800811,-459.657299
509.260571,-2072.576638,-10807.006753,-612.876398
509.260895,-296.082377,-10140.821405,153.219100
509.261219,2294.638420,-9326.594869,842.705048
509.261543,2812.782580,-9918.759623,459.657299
509.261867,1998.556043,-10214.842000,-306.438199
509.262191,1628.453072,-10362.883188,153.219100
509.262515,2590.720797,-10510.924376,919.314598
509.262839,1554.432478,-11325.150913,459.657299
509.263163,-1184.329507,-12065.356855,153.219100
509.263487,-1924.535449,-11769.274478,383.047749
509.263812,-148.041188,-10881.027347,842.705048
509.264136,74.020594,-10140.821405,0.000000
509.264460,-222.061783,-11473.192101,0.000000
509.264784,-148.041188,-10881.027347,766.095498
509.265108,1628.453072,-9844.739029,766.095498
509.265432,1480.411884,-9400.615463,766.095498
509.265756,0.000000,-9548.656652,0.000000
509.266080,-444.123565,-9326.594869,76.609550
509.266404,1258.350101,-8586.388927,-612.876398
509.266728,3034.844362,-8068.244768,842.705048
509.267052,2368.659014,-8290.306550,536.266849
509.267376,666.185348,-9104.533087,536.266849
509.267700,518.144159,-9104.533087,1225.752797
509.268024,962.267725,-9178.553681,1378.971896
509.268349,-666.185348,-9178.553681,1072.533697
509.268673,-2812.782580,-9918.759623,536.266849
509.268997,-3108.864956,-9844.739029,1149.143247
509.269321,-888.247130,-8882.471304,1302.362347
509.269645,-592.164754,-8586.388927,459.657299
509.269969,-1776.494261,-9252.574275,0.000000
509.270293,-1332.370696,-9252.574275,0.000000
509.270617,-296.082377,-7920.203579,-306.438199
509.270941,-444.123565,-7994.224174,0.000000
509.271265,-1258.350101,-9030.512492,-995.924147
509.271589,-1332.370696,-8882.471304,-689.485948
509.271913,592.164754,-8364.327145,229.828649
509.272237,2368.659014,-8734.430116,229.828649
509.272561,1776.494261,-9770.718434,-153.219100
509.272885,666.185348,-10140.821405,0.000000
509.273210,888.247130,-9104.533087,766.095498
509.273534,1110.308913,-9326.594869,995.924147
509.273858,-1554.432478,-10288.862594,153.219100
509.274182,-3775.050304,-10658.965565,-1378.971896
509.274506,-3701.029710,-10436.903782,-1149.143247
509.274830,-1776.494261,-9548.656652,-1532.190996
509.275154,-518.144159,-9992.780217,-1838.629195
509.275478,-370.102971,-10955.047942,-1455.581446
509.275802,0.000000,-10807.006753,-1149.143247
509.276126,592.164754,-10510.924376,-1072.533697
509.276450,0.000000,-10584.944971,-1991.848295
509.276774,-592.164754,-11917.315666,-1838.629195
509.277098,666.185348,-11621.233289,-1225.752797
509.277422,3256.906145,-10436.903782,153.219100
509.277747,3849.070898,-10362.883188,306.438199
509.278071,2146.597232,-10288.862594,-306.438199
509.278395,1480.411884,-9696.697840,536.266849
509.278719,2220.617826,-9474.636058,1302.362347
509.279043,1850.514855,-9474.636058,229.828649
509.279367,-888.247130,-9992.780217,-459.657299
509.279691,-3034.844362,-9622.677246,-995.924147
509.280015,-2368.659014,-8956.491898,-689.485948
509.280339,-814.226536,-8956.491898,-995.924147
509.280663,-1110.308913,-9104.533087,-1149.143247
509.280987,-1702.473667,-9326.594869,-612.876398
509.281311,0.000000,-9474.636058,-536.266849
509.281635,740.205942,-9326.594869,-153.219100
509.281959,-592.164754,-9474.636058,-612.876398
509.282283,-1628.453072,-9474.636058,-842.705048
509.282608,-296.082377,-9030.512492,-153.219100
509.282932,1628.453072,-8216.285956,536.266849
509.283256,1628.453072,-8882.471304,1149.143247
509.283580,888.247130,-9696.697840,1378.971896
509.283904,814.226536,-9474.636058,1378.971896
509.284228,1998.556043,-8956.491898,1302.362347
509.284552,814.226536,-9326.594869,1149.143247
509.284876,-1628.453072,-10140.821405,306.438199
509.285200,-3256.906145,-10510.924376,0.000000
509.285524,-2368.659014,-9400.615463,0.000000
509.285848,-962.267725,-8660.409521,0.000000
509.286172,-1036.288319,-9548.656652,-1378.971896
509.286496,-2220.617826,-9992.780217,-1072.533697
509.286820,-888.247130,-9400.615463,-842.705048
509.287145,0.000000,-9252.574275,-919.314598
509.287469,-1554.432478,-9918.759623,-1302.362347
509.287793,-2590.720797,-10140.821405,-842.705048
509.288117,-370.102971,-9622.677246,459.657299
509.288441,2442.679609,-9918.759623,1685.410096
509.288765,2516.700203,-10732.986159,1072.533697
509.289089,1406.391290,-10140.821405,919.314598
509.289413,2146.597232,-9030.512492,1149.143247
509.289737,2590.720797,-9252.574275,919.314598
509.290061,888.247130,-10658.965565,459.657299
509.290385,-1776.494261,-11103.089130,0.000000
509.290709,-2664.741391,-10362.883188,-153.219100
509.291033,-1480.411884,-9548.656652,-153.219100
509.291357,-592.164754,-9622.677246,-689.485948
509.291682,-666.185348,-10732.986159,-919.314598
509.292006,-666.185348,-10955.047942,-306.438199
509.292330,74.020594,-10362.883188,383.047749
509.292654,592.164754,-10066.800811,153.219100
509.292978,-888.247130,-10214.842000,-536.266849
509.293302,-740.205942,-10066.800811,0.000000
509.293626,1554.432478,-9178.553681,919.314598
509.293950,3182.885551,-9030.512492,1149.143247
509.294274,2368.659014,-9178.553681,1149.143247
509.294598,1332.370696,-9104.533087,1532.190996
509.294922,2294.638420,-8142.265362,2298.286494
509.295246,2812.782580,-7772.162391,1608.800546
509.295570,296.082377,-8438.347739,995.924147
509.295894,-2886.803174,-9326.594869,153.219100
509.296218,-2738.761985,-9622.677246,229.828649
509.296543,-1702.473667,-9104.533087,536.266849
509.296867,-1924.535449,-8734.430116,689.485948
509.297191,-2738.761985,-9474.636058,0.000000
509.297515,-1998.556043,-9622.677246,153.219100
509.297839,-518.144159,-8808.450710,-306.438199
509.298163,-740.205942,-8364.327145,-612.876398
509.298487,-2294.638420,-9400.615463,0.000000
509.298811,-1406.391290,-9548.656652,0.000000
509.299135,1184.329507,-8290.306550,459.657299
509.299459,2812.782580,-7920.203579,383.047749
509.299783,2146.597232,-8808.450710,0.000000
509.300107,1924.535449,-9326.594869,383.047749
509.300431,2960.823768,-8882.471304,0.000000
509.300755,2294.638420,-8808.450710,919.314598
509.301080,-518.144159,-10584.944971,0.000000
509.301403,-2590.720797,-11547.212695,-766.095498
509.301727,-2368.659014,-11103.089130,-689.485948
509.302052,-1406.391290,-9918.759623,-919.314598
509.302376,-1554.432478,-9992.780217,-1532.190996
509.302700,-2220.617826,-11325.150913,-1378.971896
509.303024,-888.247130,-11473.192101,-1225.752797
509.303348,222.061783,-10658.965565,-1302.362347
509.303672,-592.164754,-10955.047942,-2374.896044
509.303996,-1850.514855,-11547.212695,-2451.505594
509.304320,-74.020594,-11399.171507,-1532.190996
509.304644,2368.659014,-10066.800811,-1302.362347
509.304968,3404.947333,-9770.718434,-1149.143247
509.305292,1850.514855,-10214.842000,-229.828649
509.305617,2886.803174,-11103.089130,153.219100
509.305941,3404.947333,-9844.739029,842.705048
509.306265,1776.494261,-9178.553681,306.438199
509.306589,-1480.411884,-9770.718434,-383.047749
509.306913,-3034.844362,-10436.903782,-995.924147
509.307237,-2442.679609,-9696.697840,-766.095498
509.307561,-1184.329507,-8882.471304,-459.657299
509.307885,-1702.473667,-8808.450710,-995.924147
509.308209,-1480.411884,-9474.636058,-689.485948
509.308533,0.000000,-9474.636058,-306.438199
509.308857,740.205942,-8956.491898,-612.876398
509.309182,-592.164754,-9622.677246,-842.705048
509.309506,-1184.329507,-10584.944971,-1149.143247
509.309830,814.226536,-9918.759623,-612.876398
509.310154,2886.803174,-8142.265362,153.219100
509.310478,2738.761985,-8216.285956,766.095498
509.310802,1554.432478,-9548.656652,766.095498
509.311126,1406.391290,-9474.636058,1532.190996
509.311450,1998.556043,-8586.388927,1685.410096
509.311774,148.041188,-8586.388927,1532.190996
509.312098,-2886.803174,-9326.594869,612.876398
509.312423,-4293.194464,-9400.615463,612.876398
509.312747,-3404.947333,-8586.388927,229.828649
509.313071,-1702.473667,-8438.347739,612.876398
509.313395,-1998.556043,-9474.636058,76.609550
509.313719,-1480.411884,-9918.759623,-306.438199
509.314043,-592.164754,-9918.759623,-153.219100
509.314367,-592.164754,-10214.842000,-383.047749
509.314691,-1258.350101,-10881.027347,-383.047749
509.315015,-1110.308913,-11103.089130,-612.876398
509.315339,1628.453072,-10510.924376,-229.828649
509.315663,3552.988522,-9770.718434,766.095498
509.315988,3330.926739,-10584.944971,766.095498
509.316312,1998.556043,-10658.965565,766.095498
509.316636,2072.576638,-9400.615463,1378.971896
509.316960,1998.556043,-9104.533087,1685.410096
509.317284,-444.123565,-10140.821405,766.095498
509.317608,-3108.864956,-10436.903782,0.000000
509.317932,-2664.741391,-9844.739029,153.219100
509.318256,-814.226536,-9548.656652,919.314598
509.318580,-962.267725,-9474.636058,153.219100
509.318904,-1998.556043,-9474.636058,0.000000
509.319228,-1406.391290,-10066.800811,383.047749
509.319553,592.164754,-10214.842000,766.095498
509.319877,740.205942,-9622.677246,306.438199
509.320201,0.000000,-10807.006753,0.000000
509.320525,592.164754,-9622.677246,536.266849
509.320849,3256.906145,-9474.636058,919.314598
509.321173,4515.256246,-9400.615463,1302.362347
509.321497,3330.926739,-9844.739029,842.705048
509.321821,1702.473667,-9770.718434,689.485948
509.322145,2294.638420,-8586.388927,1991.848295
509.322469,2664.741391,-7994.224174,1915.238745
509.322794,0.000000,-9326.594869,1302.362347
509.323118,-3108.864956,-9252.574275,76.609550
509.323442,-2960.823768,-8734.430116,306.438199
509.323766,-1110.308913,-8364.327145,689.485948
509.324090,-592.164754,-8512.368333,229.828649
509.324414,-1628.453072,-8956.491898,-459.657299
509.324738,-1332.370696,-8660.409521,0.000000
509.325062,148.041188,-8882.471304,-306.438199
509.325386,-592.164754,-9474.636058,-1378.971896
509.325710,-1850.514855,-9992.780217,-1225.752797
509.326034,-1406.391290,-9992.780217,-383.047749
509.326359,1332.370696,-9770.718434,76.609550
509.326683,2664.741391,-9622.677246,229.828649
509.327007,1628.453072,-10214.842000,0.000000
509.327331,814.226536,-10510.924376,0.000000
509.327655,1332.370696,-9844.739029,536.266849
509.327979,444.123565,-9474.636058,-229.828649
509.328303,-2368.659014,-9770.718434,-689.485948
509.328627,-3627.009116,-10066.800811,-1302.362347
509.328951,-2146.597232,-9696.697840,-1225.752797
509.329275,-814.226536,-9326.594869,-1072.533697
509.329599,0.000000,-10066.800811,-1225.752797
509.329924,-740.205942,-9844.739029,-1225.752797
509.330248,-370.102971,-10288.862594,-689.485948
509.330572,-666.185348,-10658.965565,-1378.971896
509.330896,-1776.494261,-10658.965565,-2451.505594
509.331220,-2812.782580,-11251.130318,-2528.115143
509.331544,-1332.370696,-11621.233289,-1072.533697
509.331868,2368.659014,-11325.150913,76.609550
509.332192,3330.926739,-10881.027347,76.609550
509.332516,2590.720797,-11029.068536,-459.657299
509.332840,2220.617826,-10066.800811,-229.828649
509.333165,2886.803174,-9474.636058,76.609550
509.333489,1924.535449,-9992.780217,-153.219100
509.333813,-518.144159,-10362.883188,-383.047749
509.334137,-1702.473667,-9400.615463,-459.657299
509.334461,-666.185348,-8068.244768,-459.657299
509.334785,740.205942,-8808.450710,-995.924147
509.335109,-518.144159,-8438.347739,-995.924147
509.335433,-1184.329507,-8808.450710,-1149.143247
509.335757,-518.144159,-9030.512492,-766.095498
509.336081,-1036.288319,-9252.574275,-536.266849
509.336405,-2590.720797,-9474.636058,-919.314598
509.336730,-2812.782580,-9548.656652,-536.266849
509.337054,-666.185348,-9770.718434,76.609550
509.337378,1628.453072,-9252.574275,229.828649
509.337702,1480.411884,-9474.636058,0.000000
509.338026,888.247130,-9548.656652,-383.047749
509.338350,2072.576638,-9770.718434,229.828649
509.338674,3256.906145,-9474.636058,1149.143247
509.338998,2294.638420,-10288.862594,1149.143247
509.339322,-740.205942,-10732.986159,0.000000
509.339646,-2146.597232,-9992.780217,-229.828649
509.339970,-814.226536,-9178.553681,459.657299
509.340295,-370.102971,-9844.739029,689.485948
509.340619,-1258.350101,-10510.924376,459.657299
509.340943,-1554.432478,-9918.759623,919.314598
509.341267,-888.247130,-9400.615463,1149.143247
509.341591,-666.185348,-9696.697840,0.000000
509.341915,-2368.659014,-10288.862594,306.438199
509.342239,-2516.700203,-10214.842000,0.000000
509.342563,-148.041188,-9178.553681,459.657299
509.342887,1628.453072,-9030.512492,1149.143247
509.343211,1702.473667,-9400.615463,919.314598
509.343536,1628.453072,-9400.615463,766.095498
509.343860,2738.761985,-9252.574275,842.705048
509.344184,2812.782580,-8438.347739,1838.629195
509.344508,814.226536,-9770.718434,919.314598
509.344832,-1184.329507,-10658.965565,1149.143247
509.345156,-814.226536,-9844.739029,1838.629195
509.345480,666.185348,-9474.636058,1378.971896
509.345804,74.020594,-9474.636058,1072.533697
509.346128,-666.185348,-9844.739029,919.314598
509.346452,-148.041188,-9548.656652,1685.410096
509.346776,888.247130,-9400.615463,1149.143247
509.347101,-148.041188,-9252.574275,995.924147
509.347425,-2294.638420,-9770.718434,229.828649
509.347749,-1628.453072,-9992.780217,459.657299
509.348073,740.205942,-9178.553681,536.266849
509.348397,2146.597232,-9178.553681,766.095498
509.348721,814.226536,-9178.553681,76.609550
509.349045,370.102971,-9326.594869,229.828649
509.349369,1702.473667,-8438.347739,842.705048
509.349693,1776.494261,-8216.285956,689.485948
509.350017,-296.082377,-9252.574275,76.609550
509.350341,-2516.700203,-9844.739029,0.000000
509.350666,-1850.514855,-8734.430116,76.609550
509.350990,0.000000,-8068.244768,229.828649
509.351314,0.000000,-9030.512492,306.438199
509.351638,-1184.329507,-9548.656652,153.219100
509.351962,-962.267725,-9474.636058,-229.828649
509.352286,-296.082377,-9326.594869,76.609550
509.352610,-1332.370696,-10288.862594,-1072.533697
509.352934,-2664.741391,-10732.986159,-1455.581446
509.353258,-1702.473667,-10214.842000,-919.314598
509.353582,814.226536,-10140.821405,-842.705048
509.353907,1554.432478,-10436.903782,-995.924147
509.354231,666.185348,-11103.089130,-1225.752797
509.354555,148.041188,-10732.986159,-1072.533697
509.354879,1480.411884,-10807.006753,-383.047749
509.355203,962.267725,-10288.862594,-536.266849
509.355527,-1258.350101,-11177.109724,-1608.800546
509.355851,-2072.576638,-11695.253884,-1225.752797
509.356175,-740.205942,-10881.027347,-229.828649
509.356499,370.102971,-10140.821405,-995.924147
509.356823,-1332.370696,-9696.697840,-1532.190996
509.357147,-2220.617826,-9400.615463,-2221.676944
509.357472,-1184.329507,-9326.594869,-995.924147
509.357796,0.000000,-9252.574275,-1991.848295
509.358120,-1184.329507,-9104.533087,-2221.676944
509.358444,-2368.659014,-9918.759623,-1915.238745
509.358768,-222.061783,-9622.677246,-1991.848295
509.359092,2590.720797,-9326.594869,-766.095498
509.359416,2960.823768,-9622.677246,-689.485948
509.359740,2072.576638,-10584.944971,-536.266849
509.360064,1702.473667,-10066.800811,-153.219100
509.360388,2368.659014,-9622.677246,536.266849
509.360712,1628.453072,-9770.718434,229.828649
509.361037,-666.185348,-10510.924376,-459.657299
509.361361,-1480.411884,-10066.800811,-153.219100
509.361685,-296.082377,-8956.491898,0.000000
509.362009,222.061783,-8808.450710,-459.657299
509.362333,-1036.288319,-8438.347739,-995.924147
509.362657,-1480.411884,-8586.388927,-153.219100
509.362981,-370.102971,-8364.327145,-306.438199
509.363305,74.020594,-8364.327145,-306.438199
509.363629,-1184.329507,-9178.553681,-612.876398
509.363953,-1332.370696,-9474.636058,-842.705048
509.364278,814.226536,-9474.636058,536.266849
509.364602,2960.823768,-9844.739029,1915.238745
509.364926,1776.494261,-10066.800811,995.924147
509.365250,444.123565,-9548.656652,766.095498
509.365574,592.164754,-9400.615463,919.314598
509.365898,814.226536,-9474.636058,766.095498
509.366222,-444.123565,-9992.780217,229.828649
509.366546,-2590.720797,-9992.780217,306.438199
509.366870,-2220.617826,-8956.491898,689.485948
509.367194,74.020594,-8068.244768,306.438199
509.367518,444.123565,-8438.347739,229.828649
509.367843,-814.226536,-9252.574275,153.219100
509.368167,-1184.329507,-9548.656652,0.000000
509.368491,74.020594,-9326.594869,689.485948
509.368815,-370.102971,-9918.759623,842.705048
509.369139,-1628.453072,-11473.192101,766.095498
509.369463,-1776.494261,-11473.192101,919.314598
509.369787,518.144159,-10584.944971,1149.143247
509.370111,2072.576638,-10732.986159,1149.143247
509.370435,1850.514855,-11177.109724,1072.533697
509.370759,1628.453072,-10955.047942,1225.752797
509.371083,2072.576638,-10214.842000,2068.457845
509.371408,2146.597232,-9844.739029,1685.410096
509.371732,0.000000,-10510.924376,459.657299
509.372056,-2146.597232,-10510.924376,0.000000
509.372380,-1184.329507,-9474.636058,612.876398
509.372704,1036.288319,-8512.368333,1149.143247
509.373028,1036.288319,-8660.409521,1149.143247
509.373352,-296.082377,-9104.533087,1072.533697
509.373676,-666.185348,-8808.450710,1072.533697
509.374000,592.164754,-8512.368333,1149.143247
509.374324,0.000000,-8734.430116,766.095498
509.374649,-1480.411884,-9400.615463,536.266849
509.374973,-666.185348,-9030.512492,1838.629195
509.375297,1480.411884,-7994.224174,1685.410096
509.375621,1924.535449,-8290.306550,1225.752797
509.375945,666.185348,-9030.512492,766.095498
509.376269,740.205942,-9474.636058,995.924147
509.376593,2146.597232,-9252.574275,1302.362347
509.376917,1628.453072,-8660.409521,766.095498
509.377241,-1184.329507,-9030.512492,-612.876398
509.377565,-2294.638420,-10140.821405,-612.876398
509.377889,-1184.329507,-9696.697840,383.047749
509.378214,148.041188,-8882.471304,229.828649
509.378538,-1258.350101,-8734.430116,-689.485948
509.378862,-1480.411884,-8956.491898,-995.924147
509.379186,-518.144159,-8734.430116,-383.047749
509.379510,0.000000,-9030.512492,-612.876398
509.379834,-1702.473667,-9844.739029,-1302.362347
509.380158,-3627.009116,-10362.883188,-2298.286494
509.380482,-2220.617826,-9622.677246,-1072.533697
509.380806,1184.329507,-9474.636058,-536.266849
509.381130,2220.617826,-10214.842000,-919.314598
509.381454,814.226536,-10881.027347,-1149.143247
509.381779,666.185348,-11325.150913,-1378.971896
509.382103,1258.350101,-10807.006753,-1225.752797
509.382427,518.144159,-10658.965565,-1991.848295
509.382751,-1480.411884,-10881.027347,-2451.505594
509.383075,-2442.679609,-11473.192101,-2374.896044
509.383399,-740.205942,-11325.150913,-2068.457845
509.383723,444.123565,-10658.965565,-1915.238745
509.384047,-148.041188,-10436.903782,-1991.848295
509.384371,-444.123565,-10214.842000,-1915.238745
509.384695,666.185348,-9918.759623,-1225.752797
509.385019,1110.308913,-10584.944971,-1149.143247
509.385344,-740.205942,-10807.006753,-1762.019645
509.385668,-1924.535449,-10436.903782,-1532.190996
509.385992,-888.247130,-9548.656652,-1072.533697
509.386316,1628.453072,-9622.677246,-459.657299
509.386640,1924.535449,-9992.780217,-766.095498
509.386964,1036.288319,-9622.677246,-919.314598
509.387288,2146.597232,-9474.636058,-306.438199
509.387612,2812.782580,-9548.656652,76.609550
509.387936,1776.494261,-9622.677246,-459.657299
509.388260,-1554.432478,-9104.533087,-689.485948
509.388585,-2738.761985,-9474.636058,-306.438199
509.388909,0.000000,-9696.697840,229.828649
509.389233,1184.329507,-9474.636058,383.047749
509.389557,370.102971,-9326.594869,612.876398
509.389881,-148.041188,-8290.306550,306.438199
509.390205,518.144159,-7772.162391,612.876398
509.390529,-962.267725,-8068.244768,459.657299
509.390853,-3108.864956,-9178.553681,76.609550
509.391177,-3701.029710,-9030.512492,-459.657299
509.391501,-1332.370696,-7550.100608,0.000000
509.391825,666.185348,-7550.100608,229.828649
509.392150,296.082377,-8660.409521,229.828649
509.392474,-666.185348,-9252.574275,0.000000
509.392798,0.000000,-8586.388927,383.047749
509.393122,0.000000,-8512.368333,919.314598
509.393446,-962.267725,-9992.780217,612.876398
509.393770,-2294.638420,-10807.006753,689.485948
509.394094,-962.267725,-10807.006753,919.314598
509.394418,962.267725,-9918.759623,1378.971896
509.394742,1406.391290,-10362.883188,919.314598
509.395066,666.185348,-11325.150913,919.314598
509.395390,1184.329507,-10732.986159,1302.362347
509.395715,1184.329507,-10066.800811,842.705048
509.396039,-666.185348,-10288.862594,153.219100
509.396363,-3108.864956,-10658.965565,-995.924147
509.396687,-2516.700203,-10214.842000,-612.876398
509.397011,518.144159,-9474.636058,0.000000
509.397335,2590.720797,-9548.656652,153.219100
509.397659,2294.638420,-9622.677246,766.095498
509.397983,1702.473667,-9474.636058,995.924147
509.398307,2738.761985,-9474.636058,1149.143247
509.398631,1776.494261,-9622.677246,1072.533697
509.398956,0.000000,-11325.150913,766.095498
509.399280,-962.267725,-11917.315666,1455.581446
509.399604,814.226536,-11103.089130,2145.067394
509.399928,2812.782580,-10140.821405,2068.457845
509.400252,2146.597232,-9918.759623,1072.533697
509.400576,666.185348,-9696.697840,919.314598
509.400900,888.247130,-9770.718434,919.314598
509.401224,962.267725,-9622.677246,689.485948
509.401548,-740.205942,-9326.594869,459.657299
509.401872,-2516.700203,-9252.574275,-306.438199
509.402196,-1850.514855,-8142.265362,0.000000
509.402521,370.102971,-7402.059420,-459.657299
509.402845,296.082377,-7624.121203,0.000000
509.403169,-1184.329507,-8808.450710,-459.657299
509.403493,-1258.350101,-8438.347739,459.657299
509.403817,370.102971,-7994.224174,1149.143247
509.404141,0.000000,-8216.285956,1302.362347
509.404465,-2516.700203,-9252.574275,306.438199
509.404789,-3478.967927,-9474.636058,153.219100
509.405113,-1480.411884,-8438.347739,229.828649
509.405437,888.247130,-7846.182985,0.000000
509.405762,962.267725,-9030.512492,0.000000
509.406086,0.000000,-9992.780217,0.000000
509.406410,518.144159,-9696.697840,306.438199
509.406734,1036.288319,-8882.471304,-612.876398
509.407058,-1184.329507,-8956.491898,-1532.190996
509.407382,-2960.823768,-9918.759623,-1762.019645
509.407706,-1628.453072,-9030.512492,-1532.190996
509.408031,1258.350101,-7994.224174,-995.924147
509.408355,1628.453072,-9104.533087,-689.485948
509.408679,-222.061783,-10214.842000,-1072.533697
509.409003,-296.082377,-9918.759623,-995.924147
509.409327,296.082377,-9326.594869,-536.266849
509.409651,222.061783,-9918.759623,-995.924147
509.409975,-2072.576638,-11547.212695,-1149.143247
509.410299,-2664.741391,-12657.521608,-995.924147
509.410624,-666.185348,-12139.377449,-919.314598
509.410948,962.267725,-11399.171507,-1149.143247
509.411272,592.164754,-12213.398043,-1455.581446
509.411596,740.205942,-12953.603985,-1608.800546
509.411920,1776.494261,-11917.315666,-1762.019645
509.412244,1776.494261,-10881.027347,-1685.410096
509.412568,0.000000,-11473.192101,-2987.772442
509.412893,-1332.370696,-11325.150913,-2911.162892
509.413217,814.226536,-10214.842000,-1378.971896
509.413541,2812.782580,-9326.594869,-766.095498
509.413865,1776.494261,-8956.491898,-1225.752797
509.414189,0.000000,-9326.594869,-1225.752797
509.414513,222.061783,-8882.471304,153.219100
509.414837,592.164754,-8956.491898,153.219100
509.415161,-1184.329507,-9770.718434,0.000000
509.415486,-3330.926739,-10362.883188,-383.047749
509.415810,-3182.885551,-9696.697840,-459.657299
509.416134,-814.226536,-8734.430116,-536.266849
509.416458,148.041188,-9104.533087,-229.828649
509.416782,-592.164754,-9918.759623,-766.095498
509.417106,74.020594,-10436.903782,536.266849
509.417430,1850.514855,-9474.636058,766.095498
509.417755,1776.494261,-9104.533087,0.000000
509.418079,-296.082377,-9104.533087,-766.095498
509.418403,-518.144159,-9400.615463,-306.438199
509.418727,1036.288319,-8438.347739,0.000000
509.419051,1554.432478,-7994.224174,306.438199
509.419375,-370.102971,-7772.162391,229.828649
509.419699,-1258.350101,-8216.285956,842.705048
509.420024,-296.082377,-7550.100608,229.828649
509.420348,-296.082377,-7402.059420,229.828649
509.420672,-2146.597232,-8438.347739,536.266849
509.420996,-4071.132681,-9400.615463,689.485948
509.421320,-2664.741391,-9474.636058,1225.752797
509.421644,370.102971,-8290.306550,919.314598
509.421968,1110.308913,-8438.347739,612.876398
509.422292,740.205942,-9696.697840,0.000000
509.422617,1480.411884,-9844.739029,-383.047749
509.422941,2590.720797,-10288.862594,0.000000
509.423265,2072.576638,-10807.006753,306.438199
509.423589,0.000000,-11695.253884,-76.609550
509.423913,-148.041188,-11325.150913,-612.876398
509.424237,1110.308913,-9474.636058,0.000000
509.424561,1776.494261,-9178.553681,-306.438199
509.424886,518.144159,-10658.965565,383.047749
509.425210,0.000000,-10214.842000,995.924147
509.425534,666.185348,-9474.636058,1838.629195
509.425858,74.020594,-9474.636058,1225.752797
509.426182,-2368.659014,-10584.944971,153.219100
509.426506,-3182.885551,-11399.171507,612.876398
509.426830,-962.267725,-10584.944971,689.485948
509.427154,1110.308913,-10066.800811,689.485948
509.427479,962.267725,-10881.027347,1225.752797
509.427803,962.267725,-11325.150913,919.314598
509.428127,2294.638420,-11547.212695,612.876398
509.428451,2590.720797,-11029.068536,383.047749
509.428775,962.267725,-10807.006753,229.828649
509.429099,-888.247130,-10066.800811,0.000000
509.429423,0.000000,-9622.677246,229.828649
509.429748,1702.473667,-7920.203579,995.924147
509.430072,1332.370696,-7402.059420,842.705048
509.430396,-370.102971,-8142.265362,229.828649
509.430720,-962.267725,-7402.059420,459.657299
509.431044,0.000000,-6661.853478,1378.971896
509.431368,-592.164754,-7031.956449,1302.362347
509.431692,-3034.844362,-8512.368333,612.876398
509.432016,-4367.215058,-9326.594869,612.876398
509.432341,-2368.659014,-9104.533087,919.314598
509.432665,-740.205942,-9474.636058,153.219100
509.432989,-148.041188,-10288.862594,306.438199
509.433313,74.020594,-11399.171507,995.924147
509.433637,2072.576638,-11103.089130,995.924147
509.433961,2368.659014,-10140.821405,536.266849
509.434285,370.102971,-9844.739029,-459.657299
509.434610,-1332.370696,-10362.883188,-1532.190996
509.434934,0.000000,-8956.491898,-1608.800546
509.435258,1702.473667,-7698.141797,-689.485948
509.435582,814.226536,-8290.306550,-459.657299
509.435906,-666.185348,-8660.409521,-1455.581446
509.436230,-222.061783,-8068.244768,-383.047749
509.436554,-370.102971,-7105.977043,-919.314598
509.436878,-1480.411884,-8364.327145,-919.314598
509.437203,-3256.906145,-10362.883188,-1762.019645
509.437527,-3701.029710,-10732.986159,-995.924147
509.437851,-1628.453072,-10140.821405,-842.705048
509.438175,148.041188,-10436.903782,-842.705048
509.438499,962.267725,-11843.295072,-919.314598
509.438823,2220.617826,-12805.562797,-1302.362347
509.439147,3108.864956,-11843.295072,-689.485948
509.439472,3034.844362,-11843.295072,-2145.067394
509.439796,1036.288319,-12435.459826,-1915.238745
509.440120,518.144159,-12583.501014,-2221.676944
509.440444,1998.556043,-11399.171507,-1532.190996
509.440768,2368.659014,-10288.862594,-1225.752797
509.441092,1036.288319,-10288.862594,-1302.362347
509.441416,-1258.350101,-9844.739029,-1149.143247
509.441740,-296.082377,-8956.491898,-612.876398
509.442065,0.000000,-7994.224174,153.219100
509.442389,-2590.720797,-9030.512492,-536.266849
509.442713,-4737.318029,-9326.594869,-612.876398
509.443037,-3627.009116,-8956.491898,0.000000
509.443361,-888.247130,-8586.388927,766.095498
509.443685,666.185348,-8956.491898,766.095498
509.444009,1036.288319,-8882.471304,0.000000
509.444334,2812.782580,-8734.430116,306.438199
509.444658,3775.050304,-8956.491898,383.047749
509.444982,2442.679609,-9844.739029,229.828649
509.445306,592.164754,-10658.965565,-76.609550
509.445630,296.082377,-9918.759623,-306.438199
509.445954,1184.329507,-8290.306550,153.219100
509.446278,666.185348,-9104.533087,-306.438199
509.446602,-1258.350101,-9178.553681,-842.705048
509.446927,-2738.761985,-8586.388927,-229.828649
509.447251,-1924.535449,-7846.182985,995.924147
509.447575,-1554.432478,-8290.306550,919.314598
509.447899,-3552.988522,-9104.533087,536.266849
509.448223,-5033.400406,-9252.574275,459.657299
509.448547,-3108.864956,-8512.368333,229.828649
509.448871,-592.164754,-8364.327145,766.095498
509.449196,0.000000,-10066.800811,612.876398
509.449520,444.123565,-10807.006753,383.047749
509.449844,2590.720797,-10288.862594,459.657299
509.450168,3701.029710,-9992.780217,0.000000
509.450492,2220.617826,-11251.130318,-612.876398
509.450816,222.061783,-11843.295072,-612.876398
509.451140,1184.329507,-10881.027347,0.000000
509.451464,2442.679609,-9030.512492,-383.047749
509.451789,2368.659014,-9400.615463,306.438199
509.452113,592.164754,-10066.800811,-459.657299
509.452437,370.102971,-9474.636058,0.000000
509.452761,1110.308913,-8364.327145,536.266849
509.453085,222.061783,-9030.512492,536.266849
509.453409,-2590.720797,-10658.965565,0.000000
509.453733,-3849.070898,-10658.965565,229.828649
509.454058,-1184.329507,-10214.842000,995.924147
509.454382,1258.350101,-10584.944971,995.924147
509.454706,1110.308913,-11695.253884,842.705048
509.455030,1110.308913,-11843.295072,459.657299
509.455354,2294.638420,-11103.089130,383.047749
509.455678,2516.700203,-10658.965565,612.876398
509.456002,444.123565,-11325.150913,-229.828649
509.456326,-888.247130,-11251.130318,-459.657299
509.456651,-592.164754,-9548.656652,76.609550
509.456975,666.185348,-7920.203579,612.876398
509.457299,0.000000,-8216.285956,459.657299
509.457623,-1628.453072,-8808.450710,0.000000
509.457947,-1406.391290,-6587.832884,766.095498
509.458271,-1184.329507,-5329.482782,1302.362347
509.458595,-1702.473667,-6217.729913,995.924147
509.458920,-4145.153275,-7698.141797,612.876398
509.459244,-3849.070898,-8438.347739,919.314598
509.459568,-1628.453072,-7328.038826,1455.581446
509.459892,222.061783,-7994.224174,1532.190996
509.460216,666.185348,-9474.636058,995.924147
509.460540,1554.432478,-9844.739029,536.266849
509.460864,2442.679609,-9178.553681,1225.752797
509.461189,1998.556043,-9474.636058,306.438199
509.461513,-592.164754,-10584.944971,-383.047749
509.461837,-1776.494261,-11325.150913,-536.266849
509.462161,-518.144159,-10066.800811,-689.485948
509.462485,222.061783,-9252.574275,-612.876398
509.462809,-370.102971,-9474.636058,-1149.143247
509.463133,-1776.494261,-9474.636058,-1838.629195
509.463457,-1406.391290,-8586.388927,-689.485948
509.463782,-296.082377,-7772.162391,-842.705048
509.464106,-888.247130,-8586.388927,-995.924147
509.464430,-2294.638420,-10140.821405,-1378.971896
509.464754,-1332.370696,-10288.862594,-1072.533697
509.465078,1184.329507,-9622.677246,-306.438199
509.465402,2368.659014,-10658.965565,-536.266849
509.465726,2590.720797,-11843.295072,-766.095498
509.466051,2738.761985,-11769.274478,-1225.752797
509.466375,3775.050304,-11991.336260,-1455.581446
509.466699,2590.720797,-12657.521608,-1685.410096
509.467023,296.082377,-14063.912898,-2451.505594
509.467347,-148.041188,-14285.974681,-2298.286494
509.467671,1036.288319,-12213.398043,-1225.752797
509.467995,1480.411884,-11621.233289,-1225.752797
509.468319,518.144159,-11621.233289,-1685.410096
509.468644,-1406.391290,-10955.047942,-1762.019645
509.468968,-592.164754,-9770.718434,-1149.143247
509.469292,-814.226536,-9030.512492,-766.095498
509.469616,-2294.638420,-9622.677246,-1072.533697
509.469940,-3923.091493,-9918.759623,-1225.752797
509.470264,-2812.782580,-8364.327145,-995.924147
509.470588,0.000000,-7698.141797,-229.828649
509.470913,518.144159,-8586.388927,0.000000
509.471237,444.123565,-9844.739029,306.438199
509.471561,1110.308913,-9474.636058,1149.143247
509.471885,1850.514855,-8882.471304,1225.752797
509.472209,740.205942,-9252.574275,612.876398
509.472533,-888.247130,-9770.718434,306.438199
509.472857,-740.205942,-9326.594869,536.266849
509.473181,1406.391290,-7846.182985,1378.971896
509.473506,1628.453072,-7254.018232,1149.143247
509.473830,148.041188,-7476.080014,383.047749
509.474154,-888.247130,-6957.935855,459.657299
509.474478,0.000000,-6069.688724,689.485948
509.474802,-370.102971,-6365.771101,689.485948
509.475126,-2368.659014,-7476.080014,536.266849
509.475450,-3627.009116,-8290.306550,383.047749
509.475775,-1702.473667,-7476.080014,1302.362347
509.476099,518.144159,-8586.388927,1532.190996
509.476423,740.205942,-9622.677246,1302.362347
509.476747,592.164754,-10584.944971,1072.533697
509.477071,1480.411884,-10658.965565,1378.971896
509.477395,2146.597232,-10658.965565,1302.362347
509.477719,1332.370696,-11325.150913,689.485948
509.478043,-888.247130,-11547.212695,0.000000
509.478368,222.061783,-11695.253884,-229.828649
509.478692,1702.473667,-10584.944971,-459.657299
509.479016,1924.535449,-10214.842000,-612.876398
509.479340,666.185348,-10881.027347,-612.876398
509.479664,296.082377,-10362.883188,-995.924147
509.479988,740.205942,-8882.471304,-612.876398
509.480312,-518.144159,-9326.594869,-536.266849
509.480637,-2220.617826,-11769.274478,-842.705048
509.480961,-2738.761985,-11547.212695,-1072.533697
509.481285,-592.164754,-10288.862594,306.438199
509.481609,1036.288319,-10288.862594,306.438199
509.481933,814.226536,-11547.212695,76.609550
509.482257,962.267725,-11843.295072,0.000000
509.482581,1776.494261,-10955.047942,1149.143247
509.482905,1628.453072,-11029.068536,536.266849
509.483230,370.102971,-11991.336260,-459.657299
509.483554,-1258.350101,-11917.315666,-689.485948
509.483878,-592.164754,-10510.924376,-229.828649
509.484202,814.226536,-9770.718434,0.000000
509.484526,296.082377,-10584.944971,-536.266849
509.484850,-962.267725,-9918.759623,-383.047749
509.485174,-814.226536,-8364.327145,306.438199
509.485499,74.020594,-7476.080014,1225.752797
509.485823,-296.082377,-7920.203579,689.485948
509.486147,-2220.617826,-9030.512492,153.219100
509.486471,-2960.823768,-8142.265362,842.705048
509.486795,-1258.350101,-6957.935855,1302.362347
509.487119,0.000000,-7031.956449,1072.533697
509.487443,-518.144159,-7698.141797,383.047749
509.487767,-148.041188,-7328.038826,536.266849
509.488092,518.144159,-6883.915261,1608.800546
509.488416,296.082377,-7772.162391,612.876398
509.488740,-1110.308913,-8956.491898,0.000000
509.489064,-1480.411884,-9252.574275,0.000000
509.489388,-148.041188,-8290.306550,0.000000
509.489712,1776.494261,-8216.285956,459.657299
509.490036,1628.453072,-9326.594869,459.657299
509.490361,814.226536,-10140.821405,-229.828649
509.490685,592.164754,-8956.491898,0.000000
509.491009,592.164754,-8290.306550,-459.657299
509.491333,-592.164754,-9770.718434,-1455.581446
509.491657,-2294.638420,-11029.068536,-1532.190996
509.491981,-2294.638420,-10066.800811,-1302.362347
509.492305,-592.164754,-9400.615463,-306.438199
509.492629,74.020594,-10288.862594,-1072.533697
509.492954,592.164754,-11843.295072,-995.924147
509.493278,1036.288319,-11843.295072,-1072.533697
509.493602,1628.453072,-11325.150913,-1072.533697
509.493926,888.247130,-11621.233289,-1532.190996
509.494250,-518.144159,-12509.480420,-2374.896044
509.494574,-740.205942,-12583.501014,-2068.457845
509.494898,1702.473667,-11325.150913,-612.876398
509.495223,2442.679609,-10732.986159,-1378.971896
509.495547,1924.535449,-11399.171507,-2068.457845
509.495871,740.205942,-11251.130318,-2145.067394
509.496195,962.267725,-10362.883188,-766.095498
509.496519,814.226536,-10214.842000,-536.266849
509.496843,-888.247130,-10362.883188,-1072.533697
509.497167,-2664.741391,-10362.883188,-919.314598
509.497491,-1850.514855,-9030.512492,-689.485948
509.497816,222.061783,-8586.388927,-459.657299
509.498140,296.082377,-9030.512492,-536.266849
509.498464,-666.185348,-8956.491898,-612.876398
509.498788,-518.144159,-8142.265362,-459.657299
509.499112,0.000000,-8142.265362,-459.657299
509.499436,-740.205942,-8734.430116,-459.657299
509.499760,-1258.350101,-9918.759623,-153.219100
509.500085,-592.164754,-9400.615463,383.047749
509.500409,592.164754,-7994.224174,689.485948
509.500733,1332.370696,-8660.409521,536.266849
509.501057,444.123565,-9918.759623,536.266849
509.501381,-296.082377,-9918.759623,766.095498
509.501705,222.061783,-9326.594869,1225.752797
509.502029,-370.102971,-9178.553681,1225.752797
509.502354,-1850.514855,-9622.677246,383.047749
509.502678,-2516.700203,-9178.553681,0.000000
509.503002,-1480.411884,-8068.244768,383.047749
509.503326,-222.061783,-7402.059420,229.828649
509.503650,-370.102971,-8068.244768,-153.219100
509.503974,0.000000,-8586.388927,0.000000
509.504299,740.205942,-7772.162391,153.219100
509.504623,1554.432478,-7772.162391,919.314598
509.504947,148.041188,-9104.533087,229.828649
509.505271,-1258.350101,-11177.109724,0.000000
509.505595,-814.226536,-10807.006753,153.219100
509.505919,814.226536,-10066.800811,766.095498
509.506244,1702.473667,-10658.965565,919.314598
509.506568,1406.391290,-11325.150913,536.266849
509.506892,1406.391290,-11103.089130,995.924147
509.507216,1776.494261,-10214.842000,1378.971896
509.507540,592.164754,-10732.986159,0.000000
509.507864,-1184.329507,-10807.006753,-306.438199
509.508189,-1406.391290,-10436.903782,-306.438199
509.508513,-148.041188,-9918.759623,0.000000
509.508837,370.102971,-10288.862594,-306.438199
509.509161,-814.226536,-9770.718434,-919.314598
509.509485,-1258.350101,-8956.491898,-306.438199
509.509809,0.000000,-9252.574275,306.438199
509.510134,0.000000,-9992.780217,995.924147
509.510458,-518.144159,-10881.027347,766.095498
509.510782,-1184.329507,-10584.944971,766.095498
509.511106,74.020594,-9622.677246,1532.190996
509.511430,2072.576638,-9844.739029,1532.190996
509.511754,2294.638420,-10510.924376,2068.457845
509.512079,1258.350101,-9770.718434,1225.752797
509.512403,962.267725,-8290.306550,1302.362347
509.512727,1554.432478,-8882.471304,842.705048
509.513051,962.267725,-9474.636058,536.266849
509.513375,-370.102971,-9992.780217,0.000000
509.513699,-1036.288319,-9178.553681,0.000000
509.514024,-444.123565,-7772.162391,-383.047749
509.514348,-296.082377,-8290.306550,0.000000
509.514672,-814.226536,-8956.491898,-229.828649
509.514996,-1036.288319,-8956.491898,76.609550
509.515320,-592.164754,-8290.306550,536.266849
509.515644,-962.267725,-8660.409521,306.438199
509.515969,-2294.638420,-9918.759623,76.609550
509.516293,-2368.659014,-10140.821405,306.438199
509.516617,-222.061783,-8438.347739,536.266849
509.516941,1702.473667,-7846.182985,919.314598
509.517265,1036.288319,-9252.574275,76.609550
509.517589,0.000000,-10066.800811,-229.828649
509.517914,592.164754,-9474.636058,306.438199
509.518238,888.247130,-9252.574275,0.000000
509.518562,-296.082377,-10214.842000,-919.314598
509.518886,-1702.473667,-10955.047942,-1532.190996
509.519210,-1850.514855,-10584.944971,-1225.752797
509.519534,-296.082377,-9844.739029,-1072.533697
509.519859,-222.061783,-10140.821405,-1149.143247
509.520183,-148.041188,-11029.068536,-1225.752797
509.520507,444.123565,-9918.759623,-1225.752797
509.520831,1184.329507,-9178.553681,-995.924147
509.521155,222.061783,-9844.739029,-995.924147
509.521479,-1036.288319,-11029.068536,-1608.800546
509.521804,-962.267725,-10288.862594,-1072.533697
509.522128,740.205942,-9622.677246,-153.219100
509.522452,2442.679609,-10140.821405,0.000000
509.522776,1850.514855,-10510.924376,-919.314598
509.523100,962.267725,-10362.883188,-1149.143247
509.523424,962.267725,-9844.739029,-1072.533697
509.523748,518.144159,-9992.780217,-919.314598
509.524073,-814.226536,-11251.130318,-689.485948
509.524397,-1480.411884,-11251.130318,-1225.752797
509.524721,-814.226536,-9844.739029,-842.705048
509.525045,74.020594,-9548.656652,-1302.362347
509.525369,148.041188,-10584.944971,-1685.410096
509.525693,-148.041188,-11103.089130,-842.705048
509.526018,222.061783,-10288.862594,153.219100
509.526342,740.205942,-9104.533087,0.000000
509.526666,-518.144159,-9770.718434,689.485948
509.526990,-1998.556043,-9992.780217,-383.047749
509.527314,-888.247130,-9178.553681,-153.219100
509.527638,296.082377,-7994.224174,0.000000
509.527963,518.144159,-7994.224174,-229.828649
509.528287,-444.123565,-8660.409521,-383.047749
509.528611,-518.144159,-7994.224174,-536.266849
509.528935,592.164754,-7550.100608,-383.047749
509.529259,0.000000,-8512.368333,-919.314598
509.529583,-2072.576638,-9474.636058,-995.924147
509.529908,-2590.720797,-9622.677246,-995.924147
509.530232,-814.226536,-9252.574275,306.438199
509.530556,1998.556043,-10066.800811,1072.533697
509.530880,2072.576638,-11177.109724,766.095498
509.531204,1184.329507,-10584.944971,842.705048
509.531528,296.082377,-9622.677246,1225.752797
509.531853,370.102971,-9474.636058,76.609550
509.532177,-1776.494261,-10732.986159,-383.047749
509.532501,-2812.782580,-10362.883188,-459.657299
509.532825,-1332.370696,-9252.574275,-229.828649
509.533149,962.267725,-8586.388927,0.000000
509.533473,1628.453072,-9030.512492,0.000000
509.533798,888.247130,-9770.718434,0.000000
509.534122,962.267725,-9104.533087,383.047749
509.534446,1258.350101,-9030.512492,153.219100
509.534770,148.041188,-10214.842000,0.000000
509.535094,-1110.308913,-11103.089130,229.828649
509.535418,-444.123565,-11325.150913,1072.533697
509.535743,1110.308913,-10436.903782,1072.533697
509.536067,2146.597232,-9844.739029,1302.362347
509.536391,1332.370696,-10362.883188,995.924147
509.536715,888.247130,-10807.006753,1302.362347
509.537039,1554.432478,-9622.677246,1455.581446
509.537363,814.226536,-9104.533087,842.705048
509.537688,-1702.473667,-9918.759623,-153.219100
509.538012,-2590.720797,-9770.718434,-459.657299
509.538336,-1406.391290,-8364.327145,229.828649
509.538660,74.020594,-8216.285956,995.924147
509.538984,0.000000,-8956.491898,383.047749
509.539308,-814.226536,-9844.739029,919.314598
509.539633,-1184.329507,-8808.450710,995.924147
509.539957,-740.205942,-8808.450710,1149.143247
509.540281,-1480.411884,-10362.883188,1302.362347
509.540605,-2294.638420,-11769.274478,1302.362347
509.540929,-1554.432478,-10214.842000,1685.410096
509.541253,74.020594,-8882.471304,2681.334243
509.541578,1628.453072,-8882.471304,1838.629195
509.541902,1110.308913,-9992.780217,766.095498
509.542226,666.185348,-9400.615463,766.095498
509.542550,888.247130,-7920.203579,919.314598
509.542874,148.041188,-8290.306550,76.609550
509.543198,-1036.288319,-8586.388927,-919.314598
509.543523,-1998.556043,-7994.224174,-1072.533697
509.543847,-888.247130,-7402.059420,-229.828649
509.544171,74.020594,-7772.162391,-689.485948
509.544495,-444.123565,-8808.450710,-612.876398
509.544819,-1036.288319,-9548.656652,-383.047749
509.545143,-296.082377,-9104.533087,-153.219100
509.545468,518.144159,-8586.388927,-459.657299
509.545792,-370.102971,-10436.903782,0.000000
509.546116,-1554.432478,-11843.295072,-306.438199
509.546440,-296.082377,-11251.130318,0.000000
509.546764,1628.453072,-10584.944971,306.438199
509.547088,2664.741391,-10955.047942,-536.266849
509.547413,2368.659014,-11991.336260,-1685.410096
509.547737,1702.473667,-11621.233289,-2145.067394
509.548061,1480.411884,-10881.027347,-2221.676944
509.548385,370.102971,-10732.986159,-2221.676944
509.548709,-1184.329507,-11917.315666,-3064.381992
509.549033,-962.267725,-10658.965565,-2451.505594
509.549358,444.123565,-8956.491898,-1915.238745
509.549682,1554.432478,-9400.615463,-1991.848295
509.550006,814.226536,-10658.965565,-1915.238745
509.550330,296.082377,-10658.965565,-1378.971896
509.550654,1258.350101,-9178.553681,306.438199
509.550978,962.267725,-9252.574275,0.000000
509.551303,0.000000,-10584.944971,229.828649
509.551627,-592.164754,-11325.150913,-306.438199
509.551951,0.000000,-9844.739029,-612.876398
509.552275,444.123565,-9178.553681,-1072.533697
509.552599,444.123565,-9770.718434,-1072.533697
509.552923,666.185348,-10362.883188,-1149.143247
509.553248,1480.411884,-10214.842000,-383.047749
509.553572,740.205942,-9474.636058,-536.266849
509.553896,-1480.411884,-9178.553681,-1302.362347
509.554220,-2738.761985,-9844.739029,-1685.410096
509.554544,-1776.494261,-9326.594869,-1302.362347
509.554868,-592.164754,-7624.121203,-153.219100
509.555193,-148.041188,-7254.018232,0.000000
509.555517,-1258.350101,-7698.141797,306.438199
509.555841,-1406.391290,-7994.224174,536.266849
509.556165,-888.247130,-7328.038826,1455.581446
509.556489,-1776.494261,-8068.244768,1149.143247
509.556813,-2886.803174,-9326.594869,612.876398
509.557138,-3108.864956,-9844.739029,306.438199
509.557462,-1702.473667,-8882.471304,842.705048
509.557786,370.102971,-8586.388927,995.924147
509.558110,1110.308913,-10214.842000,919.314598
509.558434,1110.308913,-10955.047942,612.876398
509.558758,1628.453072,-9844.739029,995.924147
509.559083,1036.288319,-9696.697840,689.485948
509.559407,-148.041188,-10881.027347,-306.438199
509.559731,-1110.308913,-11103.089130,-689.485948
509.560055,-740.205942,-10066.800811,-383.047749
509.560379,0.000000,-9104.533087,-229.828649
509.560703,148.041188,-9400.615463,-229.828649
509.561028,0.000000,-9400.615463,612.876398
509.561352,740.205942,-9252.574275,766.095498
509.561676,1184.329507,-8734.430116,842.705048
509.562000,-148.041188,-9770.718434,612.876398
509.562324,-1850.514855,-10732.986159,459.657299
509.562648,-2072.576638,-10807.006753,306.438199
509.562973,0.000000,-10066.800811,766.095498
509.563297,1258.350101,-10140.821405,919.314598
509.563621,2368.659014,-11695.253884,1149.143247
509.563945,2368.659014,-11695.253884,536.266849
509.564269,2664.741391,-10584.944971,919.314598
509.564593,1924.535449,-9992.780217,76.609550
509.564918,296.082377,-10658.965565,-383.047749
509.565242,0.000000,-11177.109724,0.000000
509.565566,666.185348,-9474.636058,306.438199
509.565890,1480.411884,-8290.306550,919.314598
509.566214,444.123565,-8364.327145,689.485948
509.566538,0.000000,-8882.471304,229.828649
509.566863,296.082377,-7920.203579,1685.410096
509.567187,148.041188,-7402.059420,1149.143247
509.567511,-1480.411884,-8512.368333,842.705048
509.567835,-2590.720797,-9844.739029,536.266849
509.568159,-2590.720797,-8882.471304,766.095498
509.568483,-1110.308913,-8290.306550,995.924147
509.568808,-296.082377,-9252.574275,1225.752797
509.569132,0.000000,-10288.862594,459.657299
509.569456,666.185348,-10214.842000,842.705048
509.569780,1184.329507,-9252.574275,1072.533697
509.570104,962.267725,-9918.759623,612.876398
509.570428,-740.205942,-10510.924376,-306.438199
509.570753,-962.267725,-9252.574275,0.000000
509.571077,-148.041188,-7772.162391,0.000000
509.571401,444.123565,-7698.141797,-383.047749
509.571725,444.123565,-8438.347739,-459.657299
509.572049,0.000000,-8808.450710,-229.828649
509.572373,0.000000,-7698.141797,0.000000
509.572698,-370.102971,-7624.121203,-229.828649
509.573022,-1924.535449,-8956.491898,-612.876398
509.573346,-2960.823768,-10214.842000,-689.485948
509.573670,-2146.597232,-10732.986159,-766.095498
509.573994,-1184.329507,-9622.677246,-153.219100
509.574318,0.000000,-10658.965565,229.828649
509.574643,1184.329507,-12361.439231,0.000000
509.574967,2220.617826,-12213.398043,229.828649
509.575291,2368.659014,-10807.006753,-229.828649
509.575615,1184.329507,-10584.944971,-1225.752797
509.575939,-296.082377,-12583.501014,-1685.410096
509.576263,0.000000,-11177.109724,-1915.238745
509.576588,888.247130,-9326.594869,-919.314598
509.576912,814.226536,-9178.553681,-1378.971896
509.577236,444.123565,-9918.759623,-1762.019645
509.577560,0.000000,-9474.636058,-1378.971896
509.577884,0.000000,-7994.224174,-1378.971896
509.578208,-740.205942,-8808.450710,-1149.143247
509.578533,-2886.803174,-10955.047942,-995.924147
509.578857,-2886.803174,-11325.150913,-383.047749
509.579181,-1184.329507,-9622.677246,-229.828649
509.579505,518.144159,-9400.615463,612.876398
509.579829,2072.576638,-10732.986159,459.657299
509.580153,2886.803174,-11325.150913,459.657299
509.580478,3775.050304,-9918.759623,689.485948
509.580802,3404.947333,-9104.533087,76.609550
509.581126,1332.370696,-9844.739029,-995.924147
509.581450,-888.247130,-10807.006753,-1608.800546
509.581774,-1480.411884,-9918.759623,-1378.971896
509.582098,-962.267725,-8808.450710,-1455.581446
509.582423,-888.247130,-8438.347739,-1455.581446
509.582747,-1776.494261,-8956.491898,-766.095498
509.583071,-962.267725,-8512.368333,-766.095498
509.583395,-888.247130,-6735.874072,-842.705048
509.583719,-2368.659014,-7179.997637,-459.657299
509.584043,-4589.276840,-9104.533087,-612.876398
509.584368,-4219.173869,-9696.697840,-153.219100
509.584692,-2146.597232,-8660.409521,1072.533697
509.585016,148.041188,-8660.409521,1991.848295
509.585340,2072.576638,-10510.924376,1915.238745
509.585664,2812.782580,-11325.150913,1072.533697
509.585988,3775.050304,-10436.903782,766.095498
509.586313,2146.597232,-10066.800811,459.657299
509.586637,1406.391290,-11325.150913,-459.657299
509.586961,666.185348,-11917.315666,-459.657299
509.587285,1036.288319,-10510.924376,-536.266849
509.587609,1406.391290,-9400.615463,383.047749
509.587933,518.144159,-10288.862594,-842.705048
509.588258,-296.082377,-9918.759623,-995.924147
509.588582,-1036.288319,-8216.285956,0.000000
509.588906,-888.247130,-7328.038826,306.438199
509.589230,-2294.638420,-8512.368333,76.609550
509.589554,-3923.091493,-10436.903782,536.266849
509.589878,-2664.741391,-10066.800811,1225.752797
509.590203,222.061783,-9474.636058,2451.505594
509.590527,1850.514855,-9622.677246,1991.848295
509.590851,2368.659014,-10140.821405,1991.848295
509.591175,3108.864956,-10288.862594,1685.410096
509.591499,2960.823768,-9992.780217,1149.143247
509.591823,2220.617826,-10732.986159,612.876398
509.592148,0.000000,-11325.150913,-383.047749
509.592472,-296.082377,-10807.006753,-153.219100
509.592796,0.000000,-8364.327145,459.657299
509.593120,1184.329507,-8586.388927,1149.143247
509.593444,-518.144159,-9104.533087,153.219100
509.593768,-1850.514855,-8956.491898,153.219100
509.594093,-1924.535449,-7624.121203,536.266849
509.594417,-2146.597232,-6883.915261,1225.752797
509.594741,-3256.906145,-7920.203579,842.705048
509.595065,-3997.112087,-8586.388927,919.314598
509.595389,-2590.720797,-8364.327145,1838.629195
509.595713,148.041188,-8364.327145,1455.581446
509.596038,1480.411884,-8586.388927,1838.629195
509.596362,1406.391290,-9770.718434,919.314598
509.596686,1924.535449,-10214.842000,1072.533697
509.597010,2072.576638,-10436.903782,306.438199
509.597334,814.226536,-11029.068536,0.000000
509.597658,-740.205942,-11473.192101,-766.095498
509.597983,-592.164754,-11621.233289,-919.314598
509.598307,222.061783,-9844.739029,-536.266849
509.598631,296.082377,-9474.636058,-919.314598
509.598955,-370.102971,-10658.965565,-1072.533697
509.599279,-592.164754,-10584.944971,-459.657299
509.599603,-296.082377,-8956.491898,76.609550
509.599928,-962.267725,-8216.285956,-76.609550
509.600252,-2368.659014,-9400.615463,0.000000
509.600576,-2812.782580,-10658.965565,-459.657299
509.600900,-666.185348,-9844.739029,383.047749
509.601224,1110.308913,-9474.636058,229.828649
509.601548,2072.576638,-10510.924376,153.219100
509.601873,2516.700203,-11621.233289,-306.438199
509.602197,2812.782580,-10510.924376,-459.657299
509.602521,2294.638420,-9622.677246,-1149.143247
509.602845,666.185348,-11325.150913,-1762.019645
509.603169,-222.061783,-12287.418637,-1838.629195
509.603493,518.144159,-11029.068536,-1149.143247
509.603818,2294.638420,-9178.553681,-612.876398
509.604142,2220.617826,-9104.533087,-612.876398
509.604466,814.226536,-9622.677246,-1072.533697
509.604790,518.144159,-9178.553681,-689.485948
509.605114,148.041188,-7105.977043,0.000000
509.605439,-518.144159,-7772.162391,-306.438199
509.605763,-2146.597232,-9474.636058,-153.219100
509.606087,-2886.803174,-9474.636058,0.000000
509.606411,-1406.391290,-8290.306550,229.828649
509.606735,0.000000,-8512.368333,-229.828649
509.607060,148.041188,-9474.636058,0.000000
509.607384,222.061783,-10362.883188,-689.485948
509.607708,1184.329507,-10140.821405,0.000000
509.608032,666.185348,-9696.697840,-229.828649
509.608356,-592.164754,-9992.780217,-1302.362347
509.608681,-1850.514855,-11103.089130,-1302.362347
509.609005,-666.185348,-10214.842000,-995.924147
509.609329,962.267725,-8956.491898,-766.095498
509.609653,592.164754,-8808.450710,-689.485948
509.609977,0.000000,-9400.615463,-842.705048
509.610302,-592.164754,-8216.285956,-1149.143247
509.610626,0.000000,-7402.059420,-153.219100
509.610950,-1258.350101,-7920.203579,-612.876398
509.611274,-2516.700203,-9548.656652,-842.705048
509.611598,-2590.720797,-9622.677246,-153.219100
509.611923,-518.144159,-8438.347739,0.000000
509.612247,444.123565,-9104.533087,0.000000
509.612571,0.000000,-10732.986159,0.000000
509.612895,370.102971,-11621.233289,306.438199
509.613219,1036.288319,-11251.130318,306.438199
509.613544,444.123565,-10955.047942,76.609550
509.613868,-888.247130,-11621.233289,-383.047749
509.614192,-444.123565,-12509.480420,-842.705048
509.614516,740.205942,-11029.068536,-995.924147
509.614840,1332.370696,-10288.862594,-383.047749
509.615165,740.205942,-10584.944971,-1149.143247
509.615489,518.144159,-10436.903782,-1608.800546
509.615813,518.144159,-9252.574275,-229.828649
509.616137,518.144159,-8734.430116,383.047749
509.616461,-962.267725,-9918.759623,-306.438199
509.616786,-2738.761985,-10288.862594,0.000000
509.617110,-2294.638420,-8734.430116,306.438199
509.617434,-222.061783,-8512.368333,612.876398
509.617758,518.144159,-8882.471304,766.095498
509.618082,518.144159,-9844.739029,1378.971896
509.618407,1554.432478,-9622.677246,2068.457845
509.618731,2516.700203,-9030.512492,1762.019645
509.619055,1480.411884,-9548.656652,995.924147
509.619379,-370.102971,-10436.903782,1072.533697
509.619703,0.000000,-10066.800811,1072.533697
509.620028,1702.473667,-9030.512492,1302.362347
509.620352,1924.535449,-8586.388927,1532.190996
509.620676,814.226536,-9400.615463,689.485948
509.621000,592.164754,-9326.594869,842.705048
509.621324,444.123565,-8364.327145,1149.143247
509.621649,0.000000,-7772.162391,689.485948
509.621973,-2146.597232,-8364.327145,1302.362347
509.622297,-3330.926739,-9030.512492,1302.362347
509.622621,-2516.700203,-8586.388927,1302.362347
509.622945,-962.267725,-7846.182985,1838.629195
509.623270,-74.020594,-8290.306550,1838.629195
509.623594,148.041188,-9474.636058,1991.848295
509.623918,1184.329507,-9104.533087,1838.629195
509.624242,1628.453072,-8068.244768,1532.190996
509.624566,-296.082377,-8512.368333,-459.657299
509.624891,-1406.391290,-10584.944971,306.438199
509.625215,-518.144159,-10436.903782,-383.047749
509.625539,1628.453072,-8438.347739,0.000000
509.625863,1850.514855,-8438.347739,0.000000
509.626187,296.082377,-10066.800811,-842.705048
509.626512,-148.041188,-11103.089130,-1149.143247
509.626836,148.041188,-9844.739029,-306.438199
509.627160,-592.164754,-9918.759623,-306.438199
509.627484,-2220.617826,-11029.068536,-919.314598
509.627808,-2442.679609,-11843.295072,-383.047749
509.628133,-1036.288319,-11325.150913,0.000000
509.628457,0.000000,-10955.047942,-306.438199
509.628781,-370.102971,-11547.212695,-919.314598
509.629105,-148.041188,-11843.295072,-995.924147
509.629429,814.226536,-10881.027347,-459.657299
509.629754,814.226536,-9918.759623,-1378.971896
509.630078,-296.082377,-10807.006753,-1378.971896
509.630402,-1184.329507,-12213.398043,-1608.800546
509.630726,296.082377,-11547.212695,-1532.190996
509.631050,2294.638420,-9844.739029,-1225.752797
509.631375,2516.700203,-9474.636058,-842.705048
509.631699,1998.556043,-10510.924376,-1378.971896
509.632023,814.226536,-10066.800811,-919.314598
509.632347,1998.556043,-9178.553681,0.000000
509.632672,444.123565,-9400.615463,0.000000
509.632996,-1406.391290,-10214.842000,-383.047749
509.633320,-2072.576638,-9474.636058,-383.047749
509.633644,-814.226536,-8068.244768,-383.047749
509.633968,0.000000,-7920.203579,-306.438199
509.634293,-1258.350101,-9030.512492,-229.828649
509.634617,-888.247130,-9178.553681,536.266849
509.634941,296.082377,-8142.265362,383.047749
509.635265,0.000000,-7476.080014,-383.047749
509.635589,-2072.576638,-8882.471304,-919.314598
509.635914,-2294.638420,-10510.924376,-1072.533697
509.636238,-740.205942,-9992.780217,-612.876398
509.636562,296.082377,-8068.244768,-459.657299
509.636886,0.000000,-8438.347739,76.609550
509.637210,0.000000,-10140.821405,-306.438199
509.637535,888.247130,-9474.636058,229.828649
509.637859,518.144159,-8364.327145,459.657299
509.638183,-962.267725,-8586.388927,-229.828649
509.638507,-2442.679609,-9844.739029,-612.876398
509.638831,-1702.473667,-9400.615463,-536.266849
509.639156,74.020594,-7698.141797,0.000000
509.639480,1332.370696,-7994.224174,0.000000
509.639804,592.164754,-9474.636058,-459.657299
509.640128,888.247130,-9548.656652,-766.095498
509.640452,666.185348,-9326.594869,-459.657299
509.640777,0.000000,-9770.718434,-919.314598
509.641101,-1406.391290,-11769.274478,-1378.971896
509.641425,-1628.453072,-12287.418637,-1225.752797
509.641749,0.000000,-11177.109724,-1225.752797
509.642073,592.164754,-10584.944971,-612.876398
509.642398,1258.350101,-11991.336260,-689.485948
509.642722,1406.391290,-12953.603985,-229.828649
509.643046,1850.514855,-11991.336260,383.047749
509.643370,1480.411884,-10955.047942,689.485948
509.643694,0.000000,-11695.253884,459.657299
509.644019,-962.267725,-12139.377449,-383.047749
509.644343,296.082377,-11251.130318,1225.752797
509.644667,1554.432478,-9474.636058,842.705048
509.644991,740.205942,-9622.677246,536.266849
509.645315,296.082377,-10066.800811,459.657299
509.645640,666.185348,-9252.574275,612.876398
509.645964,740.205942,-8512.368333,536.266849
509.646288,-814.226536,-8586.388927,0.000000
509.646612,-2960.823768,-9030.512492,-153.219100
509.646936,-2368.659014,-8512.368333,383.047749
509.647261,-444.123565,-7105.977043,1455.581446
509.647585,1258.350101,-7920.203579,1762.019645
509.647909,962.267725,-8808.450710,2298.286494
509.648233,1036.288319,-8660.409521,2374.896044
509.648557,1850.514855,-7772.162391,2681.334243
509.648882,1332.370696,-8068.244768,2145.067394
509.649206,-814.226536,-9400.615463,1838.629195
509.649530,-1998.556043,-10214.842000,1532.190996
509.649854,-1184.329507,-8586.388927,1072.533697
509.650178,-296.082377,-7328.038826,1225.752797
509.650503,-592.164754,-8142.265362,995.924147
509.650827,-962.267725,-8660.409521,536.266849
509.651151,-222.061783,-8512.368333,536.266849
509.651475,-740.205942,-8068.244768,536.266849
509.651799,-2294.638420,-8882.471304,536.266849
509.652124,-2812.782580,-9474.636058,229.828649
509.652448,-1554.432478,-9400.615463,536.266849
509.652772,814.226536,-8734.430116,766.095498
509.653096,1480.411884,-9252.574275,536.266849
509.653420,1036.288319,-10140.821405,536.266849
509.653745,1110.308913,-10288.862594,612.876398
509.654069,1776.494261,-9474.636058,612.876398
509.654393,1406.391290,-9918.759623,153.219100
509.654717,148.041188,-11621.233289,-229.828649
509.655041,-444.123565,-12287.418637,-229.828649
509.655366,740.205942,-11399.171507,-995.924147
509.655690,1110.308913,-10288.862594,-995.924147
509.656014,444.123565,-11473.192101,-1225.752797
509.656338,222.061783,-12657.521608,-1072.533697
509.656662,592.164754,-11843.295072,-766.095498
509.656987,370.102971,-10881.027347,-766.095498
509.657311,-1480.411884,-11103.089130,-1378.971896
509.657635,-2220.617826,-11251.130318,-2145.067394
509.657959,-1036.288319,-10214.842000,-2068.457845
509.658283,518.144159,-8660.409521,-1225.752797
509.658608,888.247130,-9326.594869,-1072.533697
509.658932,740.205942,-10436.903782,-1225.752797
509.659256,1406.391290,-10140.821405,-612.876398
509.659580,1850.514855,-8364.327145,-459.657299
509.659904,1406.391290,-8364.327145,-842.705048
509.660229,0.000000,-9696.697840,-1225.752797
509.660553,-370.102971,-10140.821405,-1532.190996
509.660877,666.185348,-8808.450710,-383.047749
509.661201,1406.391290,-8956.491898,-766.095498
509.661525,1036.288319,-10140.821405,-1072.533697
509.661850,370.102971,-10658.965565,-766.095498
509.662174,0.000000,-8882.471304,-766.095498
509.662498,-1036.288319,-8660.409521,-1302.362347
509.662822,-3108.864956,-9992.780217,-1532.190996
509.663146,-3404.947333,-10362.883188,-1608.800546
509.663471,-2072.576638,-8660.409521,-1149.143247
509.663795,-148.041188,-7846.182985,-459.657299
509.664119,148.041188,-8660.409521,-689.485948
509.664443,0.000000,-9844.739029,-995.924147
509.664767,444.123565,-9548.656652,-76.609550
509.665092,74.020594,-9178.553681,306.438199
509.665416,-962.267725,-9992.780217,0.000000
509.665740,-1924.535449,-10807.006753,76.609550
509.666064,-1184.329507,-10362.883188,0.000000
509.666388,370.102971,-8882.471304,0.000000
509.666713,1184.329507,-9178.553681,0.000000
509.667037,740.205942,-10362.883188,-153.219100
509.667361,444.123565,-10214.842000,306.438199
509.667685,444.123565,-8438.347739,459.657299
509.668009,-518.144159,-8734.430116,0.000000
509.668334,-1480.411884,-9474.636058,-536.266849
509.668658,-1332.370696,-9474.636058,-229.828649
509.668982,222.061783,-9030.512492,306.438199
509.669306,888.247130,-8734.430116,0.000000
509.669630,148.041188,-9178.553681,383.047749
509.669955,0.000000,-9474.636058,459.657299
509.670279,1258.350101,-9992.780217,459.657299
509.670603,888.247130,-10510.924376,842.705048
509.670927,-888.247130,-11621.233289,689.485948
509.671251,-2146.597232,-12139.377449,689.485948
509.671576,-1184.329507,-11991.336260,1149.143247
509.671900,518.144159,-10658.965565,1302.362347
509.672224,666.185348,-10955.047942,1378.971896
509.672548,740.205942,-11547.212695,995.924147
509.672872,1332.370696,-10807.006753,1072.533697
509.673197,1554.432478,-9474.636058,1302.362347
509.673521,-518.144159,-9474.636058,459.657299
509.673845,-1850.514855,-9696.697840,0.000000
509.674169,-740.205942,-9178.553681,689.485948
509.674493,740.205942,-7550.100608,459.657299
509.674818,888.247130,-7254.018232,842.705048
509.675142,0.000000,-8142.265362,612.876398
509.675466,666.185348,-7846.182985,995.924147
509.675790,1110.308913,-7476.080014,1455.581446
509.676114,444.123565,-7846.182985,1149.143247
509.676439,-1406.391290,-9696.697840,919.314598
509.676763,-1702.473667,-10362.883188,842.705048
509.677087,-148.041188,-9400.615463,1072.533697
509.677411,1184.329507,-8364.327145,1149.143247
509.677735,1184.329507,-9474.636058,1225.752797
509.678060,1036.288319,-10362.883188,459.657299
509.678384,1406.391290,-9252.574275,0.000000
509.678708,814.226536,-8068.244768,0.000000
509.679032,-1554.432478,-9104.533087,-842.705048
509.679356,-2738.761985,-9992.780217,-1225.752797
509.679681,-1776.494261,-8734.430116,-612.876398
509.680005,148.041188,-8068.244768,0.000000
509.680329,592.164754,-9474.636058,76.609550
509.680653,-814.226536,-10066.800811,-1072.533697
509.680977,-1480.411884,-9252.574275,-459.657299
509.681302,-296.082377,-8734.430116,76.609550
509.681626,-222.061783,-9696.697840,306.438199
509.681950,-1480.411884,-11399.171507,-153.219100
509.682274,-1480.411884,-11399.171507,0.000000
509.682598,-370.102971,-9844.739029,0.000000
509.682923,888.247130,-9992.780217,-995.924147
509.683247,1480.411884,-11547.212695,-995.924147
509.683571,2294.638420,-12065.356855,-536.266849
509.683895,3404.947333,-10955.047942,-306.438199
509.684219,3108.864956,-10214.842000,-919.314598
509.684544,148.041188,-10288.862594,-1838.629195
509.684868,-1110.308913,-11103.089130,-2374.896044
509.685192,-518.144159,-10214.842000,-1608.800546
509.685516,592.164754,-9326.594869,-995.924147
509.685840,0.000000,-9474.636058,-689.485948
509.686165,-1184.329507,-9844.739029,-536.266849
509.686489,-296.082377,-9474.636058,-383.047749
509.686813,0.000000,-9030.512492,0.000000
509.687137,-1924.535449,-9622.677246,-612.876398
509.687461,-3182.885551,-11177.109724,-459.657299
509.687786,-1850.514855,-10881.027347,153.219100
509.688110,1110.308913,-9918.759623,229.828649
509.688434,2072.576638,-9548.656652,0.000000
509.688758,1924.535449,-10362.883188,0.000000
509.689082,1924.535449,-10362.883188,0.000000
509.689407,2072.576638,-9622.677246,0.000000
509.689731,740.205942,-9326.594869,-766.095498
509.690055,-1110.308913,-9400.615463,-1532.190996
509.690379,-1850.514855,-9030.512492,-1225.752797
509.690703,-1184.329507,-7846.182985,-306.438199
509.691028,-148.041188,-7550.100608,-153.219100
509.691352,-962.267725,-7920.203579,-383.047749
509.691676,-1332.370696,-8512.368333,-153.219100
509.692000,-444.123565,-7772.162391,459.657299
509.692324,666.185348,-7550.100608,383.047749
509.692649,-1036.288319,-8734.430116,306.438199
509.692973,-3256.906145,-9548.656652,229.828649
509.693297,-2442.679609,-9400.615463,76.609550
509.693621,-296.082377,-9030.512492,0.000000
509.693945,1036.288319,-9474.636058,-306.438199
509.694270,1184.329507,-10658.965565,-76.609550
509.694594,2294.638420,-11103.089130,-306.438199
509.694918,2294.638420,-10436.903782,-383.047749
509.695242,222.061783,-10881.027347,-383.047749
509.695566,-888.247130,-11917.315666,-1225.752797
509.695891,-740.205942,-11547.212695,-1302.362347
509.696215,592.164754,-10436.903782,-536.266849
509.696539,1332.370696,-9474.636058,-459.657299
509.696863,444.123565,-9622.677246,-842.705048
509.697187,0.000000,-9622.677246,76.609550
509.697512,370.102971,-9400.615463,0.000000
509.697836,370.102971,-9474.636058,76.609550
509.698160,-1924.535449,-10140.821405,76.609550
509.698484,-3034.844362,-10807.006753,0.000000
509.698808,-2368.659014,-10658.965565,0.000000
509.699133,-814.226536,-10436.903782,-153.219100
509.699457,0.000000,-10732.986159,766.095498
509.699781,592.164754,-11769.274478,306.438199
509.700105,2368.659014,-11325.150913,306.438199
509.700429,2886.803174,-10584.944971,995.924147
509.700754,1628.453072,-11177.109724,536.266849
509.701078,370.102971,-11325.150913,383.047749
509.701402,518.144159,-10140.821405,766.095498
509.701726,1480.411884,-8512.368333,1378.971896
509.702050,1110.308913,-8142.265362,766.095498
509.702375,0.000000,-8290.306550,536.266849
509.702699,148.041188,-7328.038826,1302.362347
509.703023,-148.041188,-6439.791695,1378.971896
509.703347,-962.267725,-7031.956449,1072.533697
509.703672,-3478.967927,-8438.347739,842.705048
509.703996,-3775.050304,-8956.491898,842.705048
509.704320,-2146.597232,-7550.100608,1532.190996
509.704644,-222.061783,-7550.100608,1072.533697
509.704969,-370.102971,-8956.491898,2145.067394
509.705293,888.247130,-9770.718434,1915.238745
509.705617,2368.659014,-9548.656652,1608.800546
509.705942,2146.597232,-8660.409521,766.095498
509.706266,222.061783,-9178.553681,153.219100
509.706590,-444.123565,-10214.842000,-153.219100
509.706914,222.061783,-9252.574275,0.000000
509.707239,888.247130,-8290.306550,-459.657299
509.707563,0.000000,-8364.327145,-842.705048
509.707887,-1258.350101,-9252.574275,-1072.533697
509.708212,-1332.370696,-9474.636058,-459.657299
509.708536,-1184.329507,-8364.327145,0.000000
509.708860,-2146.597232,-9252.574275,-459.657299
509.709185,-3627.009116,-11029.068536,-306.438199
509.709509,-2960.823768,-12213.398043,306.438199
509.709833,-962.267725,-10881.027347,-153.219100
509.710157,148.041188,-9622.677246,0.000000
509.710482,444.123565,-11103.089130,-306.438199
509.710806,1554.432478,-12435.459826,-995.924147
509.711130,3182.885551,-11547.212695,-1149.143247
509.711455,2960.823768,-10881.027347,-1378.971896
509.711779,2220.617826,-11843.295072,-2145.067394
509.712103,2368.659014,-12065.356855,-2451.505594
509.712427,3108.864956,-10584.944971,-1685.410096
509.712752,2960.823768,-9992.780217,-1225.752797
509.713076,1480.411884,-10288.862594,-1838.629195
509.713400,148.041188,-10881.027347,-1378.971896
509.713725,592.164754,-10066.800811,0.000000
509.714049,518.144159,-9030.512492,612.876398
509.714373,-1480.411884,-8956.491898,0.000000
509.714697,-3552.988522,-9326.594869,-536.266849
509.715022,-3404.947333,-9178.553681,0.000000
509.715346,-1924.535449,-8512.368333,0.000000
509.715670,-444.123565,-8734.430116,0.000000
509.715995,74.020594,-9474.636058,-306.438199
509.716319,1406.391290,-9252.574275,-536.266849
509.716643,2146.597232,-8364.327145,-153.219100
509.716968,1184.329507,-9178.553681,-766.095498
509.717292,0.000000,-10955.047942,-919.314598
509.717616,-148.041188,-10214.842000,-1149.143247
509.717940,666.185348,-9474.636058,-766.095498
509.718265,814.226536,-8364.327145,-306.438199
509.718589,0.000000,-9178.553681,-459.657299
509.718913,-296.082377,-9992.780217,0.000000
509.719238,-592.164754,-8068.244768,229.828649
509.719562,-740.205942,-7846.182985,383.047749
509.719886,-2812.782580,-8290.306550,153.219100
509.720210,-3997.112087,-9548.656652,153.219100
509.720535,-2442.679609,-9104.533087,536.266849
509.720859,-814.226536,-8438.347739,0.000000
509.721183,-518.144159,-9622.677246,-306.438199
509.721508,-370.102971,-11177.109724,0.000000
509.721832,1702.473667,-11917.315666,0.000000
509.722156,2812.782580,-11473.192101,306.438199
509.722480,1628.453072,-11547.212695,-612.876398
509.722805,0.000000,-11769.274478,-1378.971896
509.723129,-296.082377,-11547.212695,-1455.581446
509.723453,1332.370696,-10732.986159,-153.219100
509.723778,1850.514855,-10436.903782,229.828649
509.724102,962.267725,-9992.780217,-306.438199
509.724426,222.061783,-9400.615463,689.485948
509.724750,592.164754,-8586.388927,995.924147
509.725075,296.082377,-8808.450710,383.047749
509.725399,-2368.659014,-9918.759623,0.000000
509.725723,-3701.029710,-9844.739029,76.609550
509.726048,-1776.494261,-9400.615463,229.828649
509.726372,296.082377,-8956.491898,0.000000
509.726696,1110.308913,-9326.594869,383.047749
509.727021,1554.432478,-10436.903782,-229.828649
509.727345,3108.864956,-11029.068536,1072.533697
509.727669,3404.947333,-10510.924376,842.705048
509.727993,1554.432478,-10658.965565,536.266849
509.728318,0.000000,-10955.047942,459.657299
509.728642,296.082377,-10140.821405,459.657299
509.728966,1332.370696,-9400.615463,919.314598
509.729291,370.102971,-8216.285956,459.657299
509.729615,-1184.329507,-8660.409521,459.657299
509.729939,-1332.370696,-7550.100608,842.705048
509.730263,-1184.329507,-6809.894666,842.705048
509.730588,-2442.679609,-6957.935855,919.314598
509.730912,-4441.235652,-8364.327145,459.657299
509.731236,-4589.276840,-8512.368333,153.219100
509.731561,-2294.638420,-7105.977043,842.705048
509.731885,-222.061783,-7254.018232,536.266849
509.732209,592.164754,-8364.327145,383.047749
509.732533,1184.329507,-9548.656652,306.438199
509.732858,2294.638420,-9622.677246,1225.752797
509.733182,2442.679609,-10214.842000,919.314598
509.733506,888.247130,-11251.130318,383.047749
509.733831,0.000000,-11103.089130,306.438199
509.734155,0.000000,-10140.821405,536.266849
509.734479,962.267725,-9178.553681,0.000000
509.734804,518.144159,-9770.718434,0.000000
509.735128,-888.247130,-10362.883188,-766.095498
509.735452,-888.247130,-9400.615463,-459.657299
509.735776,-962.267725,-8216.285956,-766.095498
509.736101,-2294.638420,-8808.450710,-1532.190996
509.736425,-3330.926739,-10140.821405,-1532.190996
509.736749,-2368.659014,-10288.862594,-1072.533697
509.737074,74.020594,-9548.656652,-766.095498
509.737398,1110.308913,-10140.821405,-1149.143247
509.737722,1628.453072,-11103.089130,-1072.533697
509.738046,3034.844362,-11991.336260,-459.657299
509.738371,3923.091493,-12287.418637,-153.219100
509.738695,3034.844362,-12287.418637,-536.266849
509.739019,1184.329507,-12657.521608,-1149.143247
509.739344,888.247130,-12879.583391,-919.314598
509.739668,1924.535449,-11325.150913,-306.438199
509.739992,2442.679609,-10732.986159,-689.485948
509.740316,1110.308913,-10510.924376,-1378.971896
509.740641,222.061783,-10066.800811,-1378.971896
509.740965,148.041188,-9030.512492,-1149.143247
509.741289,0.000000,-8290.306550,-1225.752797
509.741614,-1924.535449,-9030.512492,-1455.581446
509.741938,-3701.029710,-9474.636058,-1455.581446
509.742262,-3478.967927,-9030.512492,-1378.971896
509.742587,-2072.576638,-8364.327145,-383.047749
509.742911,-1480.411884,-8586.388927,-766.095498
509.743235,-1110.308913,-9030.512492,-689.485948
509.743559,148.041188,-9104.533087,536.266849
509.743884,1036.288319,-9548.656652,1225.752797
509.744208,518.144159,-10288.862594,153.219100
509.744532,-1110.308913,-10140.821405,0.000000
509.744857,-444.123565,-10066.800811,76.609550
509.745181,1924.535449,-9474.636058,612.876398
509.745505,2738.761985,-8956.491898,766.095498
509.745829,1406.391290,-8586.388927,153.219100
509.746154,1110.308913,-8586.388927,306.438199
509.746478,814.226536,-7772.162391,-229.828649
509.746802,74.020594,-7698.141797,229.828649
509.747127,-2442.679609,-7772.162391,0.000000
509.747451,-3404.947333,-8290.306550,-689.485948
509.747775,-2738.761985,-7920.203579,-536.266849
509.748099,-2072.576638,-7772.162391,-459.657299
509.748424,-1258.350101,-8660.409521,76.609550
509.748748,-740.205942,-9918.759623,153.219100
509.749072,888.247130,-9992.780217,995.924147
509.749397,1332.370696,-9918.759623,1072.533697
509.749721,814.226536,-11103.089130,842.705048
509.750045,370.102971,-12139.377449,383.047749
509.750369,1628.453072,-11843.295072,153.219100
509.750694,2886.803174,-10955.047942,0.000000
509.751018,3256.906145,-11251.130318,153.219100
509.751342,2886.803174,-11917.315666,-153.219100
509.751667,2368.659014,-11399.171507,0.000000
509.751991,1776.494261,-10288.862594,-229.828649
509.752315,-592.164754,-10066.800811,-766.095498
