#time,accel_x,accel_y,accel_z
765.043109,-5995.668130,-11769.274478,919.314598
765.043433,-7179.997637,-7254.018232,2374.896044
765.043757,-4367.215058,-4959.379811,-383.047749
765.044082,222.061783,-7328.038826,689.485948
765.044406,4885.359217,-9992.780217,2451.505594
765.044730,10214.842000,-9030.512492,4749.792088
765.045054,10584.944971,-9918.759623,6741.640382
765.045379,5551.544565,-13175.665768,4290.134789
765.045703,-740.205942,-13027.624579,2604.724693
765.046027,-4737.318029,-10732.986159,-612.876398
765.046352,-5921.647536,-12139.377449,-2145.067394
765.046676,-7402.059420,-16580.613101,-2145.067394
765.047000,-5181.441594,-14137.933492,-3447.429741
765.047324,-3701.029710,-7994.224174,-1072.533697
765.047649,-4219.173869,-7550.100608,1302.362347
765.047973,-3627.009116,-8216.285956,-229.828649
765.048297,-3330.926739,-7698.141797,-1762.019645
765.048621,-2368.659014,-5995.668130,-1149.143247
765.048946,296.082377,-6069.688724,1532.190996
765.049270,2368.659014,-9474.636058,2451.505594
765.049594,2146.597232,-10807.006753,2987.772442
765.049919,370.102971,-8882.471304,2911.162892
765.050243,-1702.473667,-8586.388927,-766.095498
765.050567,-3182.885551,-11103.089130,-1225.752797
765.050891,-3108.864956,-14804.118840,536.266849
765.051216,-444.123565,-15544.324782,459.657299
765.051540,-814.226536,-12805.562797,1685.410096
765.051864,-3108.864956,-9992.780217,1455.581446
765.052188,-3849.070898,-8438.347739,459.657299
765.052513,-4071.132681,-9030.512492,0.000000
765.052837,-2368.659014,-8512.368333,306.438199
765.053161,-444.123565,-7624.121203,2757.943793
765.053486,518.144159,-9474.636058,2987.772442
765.053810,444.123565,-10658.965565,4290.134789
765.054134,-1258.350101,-7920.203579,2681.334243
765.054458,-4145.153275,-6217.729913,-306.438199
765.054783,-7031.956449,-9474.636058,-766.095498
765.055107,-7402.059420,-12287.418637,-995.924147
765.055431,-4515.256246,-10955.047942,-459.657299
765.055755,-2220.617826,-8734.430116,1915.238745
765.056080,-888.247130,-8142.265362,2221.676944
765.056404,666.185348,-7846.182985,1378.971896
765.056728,1776.494261,-8438.347739,2298.286494
765.057052,2886.803174,-7476.080014,3677.258390
765.057377,4145.153275,-8734.430116,5439.278036
765.057701,4515.256246,-10066.800811,5439.278036
765.058025,3256.906145,-9696.697840,6281.983084
765.058350,740.205942,-9400.615463,5132.839837
765.058674,-2220.617826,-10436.903782,3524.039291
765.058998,-4367.215058,-10881.027347,2451.505594
765.059322,-5329.482782,-9474.636058,1762.019645
765.059647,-3034.844362,-7994.224174,1072.533697
765.059971,-962.267725,-7846.182985,919.314598
765.060295,74.020594,-8142.265362,229.828649
765.060619,962.267725,-7994.224174,-229.828649
765.060944,1480.411884,-7402.059420,-1149.143247
765.061268,1258.350101,-7179.997637,-842.705048
765.061592,1332.370696,-8068.244768,153.219100
765.061917,1776.494261,-10066.800811,766.095498
765.062241,1924.535449,-11399.171507,2451.505594
765.062565,888.247130,-12583.501014,2145.067394
765.062889,-1110.308913,-13101.645173,2374.896044
765.063214,-1628.453072,-12213.398043,2528.115143
765.063538,-1702.473667,-10584.944971,2451.505594
765.063862,-1110.308913,-9326.594869,2911.162892
765.064186,-592.164754,-9770.718434,2911.162892
765.064511,1258.350101,-10288.862594,1685.410096
765.064835,2368.659014,-9252.574275,689.485948
765.065159,2664.741391,-5773.606348,-3217.601092
765.065484,1184.329507,-5181.441594,-5056.230287
765.065808,-1406.391290,-9400.615463,-4673.182538
765.066132,-1110.308913,-11991.336260,-6894.859482
765.066456,-1998.556043,-12287.418637,-5515.887586
765.066781,-4219.173869,-11843.295072,-2451.505594
765.067105,-3701.029710,-11843.295072,-3217.601092
765.067429,-3108.864956,-11399.171507,-3524.039291
765.067753,-2368.659014,-9918.759623,-1149.143247
765.068078,0.000000,-8586.388927,536.266849
765.068402,2516.700203,-12065.356855,459.657299
765.068726,2738.761985,-14804.118840,2604.724693
765.069051,6513.812290,-13545.768739,4596.572988
765.069375,9178.553681,-10214.842000,2757.943793
765.069699,7328.038826,-8808.450710,2604.724693
765.070023,4885.359217,-8808.450710,1378.971896
765.070348,4367.215058,-6809.894666,-2145.067394
765.070672,1258.350101,-222.061783,-12410.747068
765.070996,-5551.544565,-5329.482782,-9039.926876
765.071320,-7476.080014,-14359.995275,-4749.792088
765.071644,-2442.679609,-15988.448347,-9959.241474
765.071968,-5995.668130,-12065.356855,-4749.792088
765.072292,-10140.821405,-6439.791695,536.266849
765.072616,-5107.421000,-7402.059420,-3830.477490
765.072940,-3330.926739,-11769.274478,-3294.210641
765.073264,-1998.556043,-7772.162391,-1302.362347
765.073588,4515.256246,-9252.574275,4749.792088
765.073912,10362.883188,-19541.436869,9499.584175
765.074236,11547.212695,-16432.571912,6358.592633
765.074560,7698.141797,-4811.338623,4366.744339
765.074884,1776.494261,-3182.885551,4596.572988
765.075208,0.000000,-11621.233289,-1302.362347
765.075532,-2294.638420,-13545.768739,-5286.058936
765.075856,-4589.276840,888.247130,-11644.651570
765.076179,-7402.059420,-2368.659014,-2451.505594
765.076503,-7698.141797,-17320.819043,-2145.067394
765.076827,-3849.070898,-16580.613101,-9422.974625
765.077151,-8512.368333,-7624.121203,306.438199
765.077475,-7254.018232,-3034.844362,3064.381992
765.077799,-888.247130,-10066.800811,-1072.533697
765.078123,148.041188,-14359.995275,1608.800546
765.078447,5329.482782,-3997.112087,4136.915689
765.078771,11177.109724,-6217.729913,8503.660028
765.079095,10955.047942,-18283.086767,6052.154434
765.079419,5625.565159,-14063.912898,5669.106685
765.079743,2368.659014,-4071.132681,5439.278036
765.080067,-1258.350101,74.020594,-3140.991542
765.080391,-6587.832884,-9696.697840,-6511.811733
765.080715,-8438.347739,-19393.395680,-2987.772442
765.081039,148.041188,-13101.645173,-4826.401637
765.081363,888.247130,-9992.780217,-459.657299
765.081687,-4441.235652,-8586.388927,3217.601092
765.082011,-2664.741391,-6143.709319,2757.943793
765.082335,74.020594,-9252.574275,842.705048
765.082659,444.123565,-8512.368333,1149.143247
765.082983,1406.391290,-9252.574275,5822.325785
765.083307,6217.729913,-13027.624579,6281.983084
765.083631,7920.203579,-11843.295072,7354.516781
765.083955,4515.256246,-7476.080014,6741.640382
765.084278,-444.123565,-2886.803174,1378.971896
765.084602,-3997.112087,-2590.720797,-6128.763984
765.084926,-8734.430116,-13989.892304,-4673.182538
765.085250,-5033.400406,-16210.510130,-1915.238745
765.085574,3701.029710,-11029.068536,-2834.553343
765.085898,2886.803174,-9622.677246,3064.381992
765.086222,518.144159,-9474.636058,4290.134789
765.086546,1480.411884,-10066.800811,0.000000
765.086870,814.226536,-9104.533087,0.000000
765.087194,1628.453072,-8586.388927,4136.915689
765.087518,6587.832884,-11325.150913,4366.744339
765.087842,8734.430116,-11843.295072,4903.011187
765.088166,4515.256246,-8586.388927,5209.449386
765.088490,-1776.494261,-4589.276840,842.705048
765.088814,-7328.038826,-3478.967927,-5592.497135
765.089138,-12731.542202,-9326.594869,-7507.735880
765.089462,-12361.439231,-12065.356855,-6435.202183
765.089786,-5625.565159,-9622.677246,-6435.202183
765.090110,-1924.535449,-8216.285956,-1378.971896
765.090434,-222.061783,-7846.182985,1915.238745
765.090758,814.226536,-10066.800811,153.219100
765.091082,148.041188,-11251.130318,0.000000
765.091406,2146.597232,-10140.821405,1149.143247
765.091730,6365.771101,-12953.603985,3830.477490
765.092054,9474.636058,-15470.304188,5056.230287
765.092377,9178.553681,-13767.830521,4979.620737
765.092701,5551.544565,-10066.800811,4673.182538
765.093025,222.061783,-7105.977043,-229.828649
765.093349,-5995.668130,-4515.256246,-9652.803275
765.093673,-11769.274478,-6291.750507,-9346.365076
765.093997,-11029.068536,-10140.821405,-6818.249932
765.094321,-4441.235652,-12361.439231,-7507.735880
765.094645,-3478.967927,-11177.109724,-3677.258390
765.094969,-4293.194464,-8586.388927,229.828649
765.095293,-592.164754,-8734.430116,-1991.848295
765.095617,1036.288319,-10881.027347,-1532.190996
765.095941,3923.091493,-10807.006753,1991.848295
765.096265,9326.594869,-10955.047942,4903.011187
765.096589,12731.542202,-16136.489536,6052.154434
765.096913,11473.192101,-16580.613101,6511.811733
765.097237,8956.491898,-10214.842000,4519.963438
765.097561,3034.844362,-2590.720797,-2451.505594
765.097885,-4959.379811,-5033.400406,-8350.440928
765.098209,-11843.295072,-12435.459826,-6741.640382
765.098533,-8068.244768,-12953.603985,-8886.707777
765.098857,-4219.173869,-10140.821405,-6588.421283
765.099181,-4811.338623,-9104.533087,-536.266849
765.099505,-1554.432478,-7698.141797,-1149.143247
765.099829,888.247130,-8290.306550,-1149.143247
765.100152,1480.411884,-9252.574275,1455.581446
765.100476,3108.864956,-7105.977043,2987.772442
765.100800,6513.812290,-11917.315666,4903.011187
765.101124,7476.080014,-15618.345376,6358.592633
765.101448,7994.224174,-12361.439231,6818.249932
765.101772,6513.812290,-8438.347739,5286.058936
765.102096,1628.453072,-5847.626942,1915.238745
765.102420,-5181.441594,-2812.782580,-7431.126331
765.102744,-11399.171507,-4663.297435,-8273.831378
765.103068,-11769.274478,-10658.965565,-5286.058936
765.103392,-5107.421000,-13027.624579,-6205.373534
765.103716,-2812.782580,-11325.150913,-2145.067394
765.104040,-3256.906145,-8438.347739,3447.429741
765.104364,814.226536,-7550.100608,612.876398
765.104688,2220.617826,-9992.780217,536.266849
765.105012,2886.803174,-10362.883188,2987.772442
765.105336,7698.141797,-9474.636058,5056.230287
765.105660,10510.924376,-13397.727550,5669.106685
765.105984,7476.080014,-13989.892304,6358.592633
765.106308,4589.276840,-7698.141797,4903.011187
765.106632,740.205942,-3404.947333,153.219100
765.106956,-6365.771101,-5551.544565,-6052.154434
765.107280,-13027.624579,-11399.171507,-5362.668486
765.107604,-10362.883188,-11695.253884,-5822.325785
765.107928,-3108.864956,-9844.739029,-3753.867940
765.108251,-2072.576638,-9474.636058,1072.533697
765.108575,-518.144159,-8142.265362,1991.848295
765.108899,518.144159,-8956.491898,919.314598
765.109223,296.082377,-10288.862594,1532.190996
765.109547,1776.494261,-9992.780217,3524.039291
765.109871,4737.318029,-14137.933492,5056.230287
765.110195,7402.059420,-15692.365970,5975.544884
765.110519,7179.997637,-11473.192101,5286.058936
765.110843,3330.926739,-7994.224174,3677.258390
765.111167,-2442.679609,-4589.276840,-3677.258390
765.111491,-9326.594869,-8586.388927,-5669.106685
765.111815,-11251.130318,-13175.665768,-4136.915689
765.112139,-4737.318029,-11621.233289,-5209.449386
765.112463,-1480.411884,-8808.450710,-1915.238745
765.112787,-1480.411884,-6587.832884,2298.286494
765.113111,1480.411884,-7772.162391,1378.971896
765.113435,2368.659014,-9178.553681,612.876398
765.113759,2220.617826,-7772.162391,3140.991542
765.114083,4737.318029,-9474.636058,4826.401637
765.114407,7994.224174,-12435.459826,4443.353888
765.114731,8142.265362,-10584.944971,5286.058936
765.115055,4885.359217,-6069.688724,2987.772442
765.115379,-592.164754,-5329.482782,-383.047749
765.115703,-6883.915261,-9918.759623,-4136.915689
765.116027,-9548.656652,-12139.377449,-6205.373534
765.116350,-7698.141797,-8882.471304,-5822.325785
765.116674,-4737.318029,-7846.182985,-2757.943793
765.116998,-1332.370696,-8364.327145,-536.266849
765.117322,518.144159,-9104.533087,459.657299
765.117646,1480.411884,-9178.553681,1608.800546
765.117970,2516.700203,-8512.368333,2068.457845
765.118294,3552.988522,-10807.006753,3140.991542
765.118618,4589.276840,-13545.768739,4290.134789
765.118942,7105.977043,-13323.706956,4903.011187
765.119266,6735.874072,-11399.171507,3983.696590
765.119590,3108.864956,-8586.388927,612.876398
765.119914,-1332.370696,-5699.585753,-5132.839837
765.120238,-6957.935855,-8290.306550,-6358.592633
765.120562,-7920.203579,-11695.253884,-5898.935335
765.120886,-5403.503377,-11843.295072,-7277.907231
765.121210,-5033.400406,-9474.636058,-3294.210641
765.121534,-3034.844362,-8216.285956,-995.924147
765.121858,518.144159,-9104.533087,-1685.410096
765.122182,2368.659014,-9918.759623,-919.314598
765.122506,4515.256246,-9030.512492,2451.505594
765.122830,7698.141797,-10510.924376,3983.696590
765.123154,8808.450710,-14508.036463,3217.601092
765.123478,7105.977043,-13915.871710,4673.182538
765.123802,6143.709319,-10584.944971,3677.258390
765.124125,2960.823768,-7994.224174,-689.485948
765.124449,-3330.926739,-8512.368333,-5209.449386
765.124773,-9030.512492,-10807.006753,-5209.449386
765.125097,-7698.141797,-10955.047942,-6588.421283
765.125421,-6217.729913,-10955.047942,-6358.592633
765.125745,-6661.853478,-9400.615463,-2068.457845
765.126069,-3330.926739,-7698.141797,-1378.971896
765.126393,-814.226536,-8660.409521,-612.876398
765.126717,666.185348,-8808.450710,459.657299
765.127041,2664.741391,-7698.141797,1762.019645
765.127365,4589.276840,-11177.109724,3600.648841
765.127689,5773.606348,-14508.036463,4749.792088
765.128013,5329.482782,-12435.459826,4903.011187
765.128337,3997.112087,-8660.409521,3907.087040
765.128661,1110.308913,-7031.956449,1838.629195
765.128985,-2738.761985,-7328.038826,-1378.971896
765.129309,-5921.647536,-5403.503377,-6281.983084
765.129633,-7920.203579,-6661.853478,-3983.696590
765.129957,-7179.997637,-10955.047942,-1915.238745
765.130281,-3923.091493,-11547.212695,-2681.334243
765.130605,-2442.679609,-9326.594869,612.876398
765.130929,-740.205942,-7254.018232,2298.286494
765.131253,1850.514855,-8216.285956,919.314598
765.131577,2886.803174,-10436.903782,1378.971896
765.131901,4959.379811,-9696.697840,3447.429741
765.132224,7772.162391,-9474.636058,5056.230287
765.132548,7179.997637,-11103.089130,3140.991542
765.132872,3478.967927,-9252.574275,1838.629195
765.133196,-518.144159,-7920.203579,536.266849
765.133520,-3849.070898,-9548.656652,-2298.286494
765.133844,-6957.935855,-11621.233289,-4366.744339
765.134168,-7920.203579,-11473.192101,-3217.601092
765.134492,-4515.256246,-9326.594869,-1608.800546
765.134816,-814.226536,-8660.409521,-306.438199
765.135140,1110.308913,-9400.615463,1762.019645
765.135464,1924.535449,-8290.306550,2911.162892
765.135788,3182.885551,-9252.574275,2604.724693
765.136112,3404.947333,-11029.068536,3600.648841
765.136436,4145.153275,-12065.356855,4519.963438
765.136760,5477.523971,-11177.109724,4060.306139
765.137084,4663.297435,-8660.409521,1685.410096
765.137408,1036.288319,-8956.491898,-1532.190996
765.137732,-3627.009116,-11177.109724,-3064.381992
765.138056,-5403.503377,-11769.274478,-3983.696590
765.138380,-4737.318029,-11843.295072,-4749.792088
765.138704,-4737.318029,-10288.862594,-1991.848295
765.139028,-2146.597232,-8512.368333,-459.657299
765.139352,148.041188,-8068.244768,0.000000
765.139676,1184.329507,-8586.388927,1685.410096
765.140000,3552.988522,-8364.327145,3217.601092
765.140323,5625.565159,-9104.533087,3677.258390
765.140647,5699.585753,-11325.150913,3907.087040
765.140971,4441.235652,-11399.171507,4749.792088
765.141295,3997.112087,-9548.656652,3294.210641
765.141619,1480.411884,-7550.100608,-229.828649
765.141943,-4145.153275,-8660.409521,-2834.553343
765.142267,-7846.182985,-10140.821405,-4213.525239
765.142591,-6661.853478,-10288.862594,-6052.154434
765.142915,-5181.441594,-9474.636058,-4749.792088
765.143239,-4885.359217,-8660.409521,-1762.019645
765.143563,-1850.514855,-8956.491898,-1149.143247
765.143887,0.000000,-9252.574275,0.000000
765.144211,666.185348,-8216.285956,1762.019645
765.144535,2886.803174,-8586.388927,2604.724693
765.144859,5255.462188,-11029.068536,3524.039291
765.145183,5625.565159,-13101.645173,4519.963438
765.145507,5329.482782,-12139.377449,4826.401637
765.145831,4219.173869,-10658.965565,3294.210641
765.146155,1332.370696,-9474.636058,1378.971896
765.146479,-1554.432478,-7624.121203,-1838.629195
765.146803,-4589.276840,-4959.379811,-7354.516781
765.147127,-8142.265362,-7402.059420,-5745.716235
765.147451,-7994.224174,-11695.253884,-4749.792088
765.147775,-4589.276840,-11769.274478,-5515.887586
765.148098,-3552.988522,-9474.636058,-1608.800546
765.148422,-1332.370696,-7846.182985,612.876398
765.148746,2516.700203,-9178.553681,306.438199
765.149070,3923.091493,-11103.089130,1378.971896
765.149394,6069.688724,-10362.883188,3294.210641
765.149718,8586.388927,-11547.212695,4519.963438
765.150042,7402.059420,-13175.665768,3064.381992
765.150366,4219.173869,-10658.965565,2451.505594
765.150690,740.205942,-7624.121203,76.609550
765.151014,-3108.864956,-8882.471304,-2834.553343
765.151338,-7105.977043,-11695.253884,-5439.278036
765.151662,-8956.491898,-11547.212695,-6511.811733
765.151986,-6143.709319,-9326.594869,-4903.011187
765.152310,-3923.091493,-8364.327145,-2298.286494
765.152634,-1628.453072,-8956.491898,-383.047749
765.152958,888.247130,-8512.368333,766.095498
765.153282,3256.906145,-8290.306550,1762.019645
765.153606,4885.359217,-8956.491898,2604.724693
765.153930,5181.441594,-10658.965565,4060.306139
765.154254,5773.606348,-11473.192101,4826.401637
765.154578,6217.729913,-10436.903782,4136.915689
765.154902,2812.782580,-9030.512492,689.485948
765.155226,-1776.494261,-8216.285956,-2987.772442
765.155550,-5551.544565,-9992.780217,-3447.429741
765.155874,-5625.565159,-12213.398043,-4826.401637
765.156197,-4515.256246,-11399.171507,-4366.744339
765.156521,-3775.050304,-8660.409521,-1455.581446
765.156845,-1554.432478,-7846.182985,229.828649
765.157169,296.082377,-8660.409521,306.438199
765.157493,1924.535449,-9326.594869,1225.752797
765.157817,4219.173869,-8364.327145,3064.381992
765.158141,6735.874072,-10066.800811,3830.477490
765.158465,7328.038826,-11991.336260,4903.011187
765.158789,5847.626942,-10955.047942,4749.792088
765.159113,3478.967927,-8734.430116,2528.115143
765.159437,-222.061783,-8364.327145,-1072.533697
765.159761,-5773.606348,-10214.842000,-3600.648841
765.160085,-7994.224174,-10732.986159,-4443.353888
765.160409,-7031.956449,-9770.718434,-5439.278036
765.160733,-5995.668130,-9844.739029,-3447.429741
765.161057,-4441.235652,-9400.615463,-536.266849
765.161381,-1998.556043,-8586.388927,0.000000
765.161705,0.000000,-8808.450710,536.266849
765.162029,1258.350101,-8438.347739,2221.676944
765.162353,3923.091493,-9622.677246,3294.210641
765.162677,6143.709319,-12139.377449,4673.182538
765.163001,6513.812290,-13249.686362,5515.887586
765.163325,5033.400406,-12287.418637,4826.401637
765.163649,3108.864956,-9918.759623,3677.258390
765.163973,-222.061783,-8142.265362,766.095498
765.164296,-4589.276840,-4885.359217,-4903.011187
765.164620,-8142.265362,-6439.791695,-6052.154434
765.164944,-9030.512492,-11103.089130,-3753.867940
765.165268,-5107.421000,-11917.315666,-4979.620737
765.165592,-4145.153275,-9474.636058,-2298.286494
765.165916,-3478.967927,-7105.977043,1762.019645
765.166240,148.041188,-7698.141797,536.266849
765.166564,3108.864956,-9992.780217,1455.581446
765.166888,4811.338623,-9474.636058,2834.553343
765.167212,8216.285956,-9474.636058,5209.449386
765.167536,9474.636058,-12361.439231,4826.401637
765.167860,7402.059420,-11991.336260,5056.230287
765.168184,4145.153275,-7920.203579,2911.162892
765.168508,-296.082377,-5995.668130,-995.924147
765.168832,-5699.585753,-9104.533087,-4290.134789
765.169156,-8808.450710,-12287.418637,-5209.449386
765.169480,-7031.956449,-9770.718434,-5209.449386
765.169804,-4441.235652,-8438.347739,-2834.553343
765.170128,-3182.885551,-8586.388927,-536.266849
765.170452,-1258.350101,-8438.347739,306.438199
765.170776,888.247130,-8586.388927,689.485948
765.171100,2738.761985,-8290.306550,1532.190996
765.171424,3923.091493,-9844.739029,2987.772442
765.171748,5551.544565,-13027.624579,4366.744339
765.172072,6883.915261,-13101.645173,5362.668486
765.172396,6069.688724,-11103.089130,4060.306139
765.172720,2368.659014,-9252.574275,1915.238745
765.173044,-2220.617826,-6587.832884,-4213.525239
765.173368,-6291.750507,-9030.512492,-4979.620737
765.173692,-7476.080014,-12213.398043,-5056.230287
765.174016,-4293.194464,-11621.233289,-5822.325785
765.174340,-3182.885551,-9474.636058,-2911.162892
765.174665,-3108.864956,-7846.182985,0.000000
765.174989,74.020594,-8882.471304,-689.485948
765.175313,1702.473667,-9474.636058,-459.657299
765.175637,3552.988522,-9178.553681,1915.238745
765.175961,6365.771101,-10140.821405,3447.429741
765.176285,7772.162391,-12065.356855,3217.601092
765.176609,6143.709319,-11621.233289,4366.744339
765.176933,3478.967927,-9400.615463,2987.772442
765.177257,0.000000,-7624.121203,-1302.362347
765.177582,-5181.441594,-9326.594869,-4443.353888
765.177906,-8586.388927,-10955.047942,-5209.449386
765.178230,-6957.935855,-10066.800811,-5515.887586
765.178554,-4441.235652,-10214.842000,-3830.477490
765.178878,-2738.761985,-9622.677246,-1149.143247
765.179202,-1332.370696,-8734.430116,229.828649
765.179526,592.164754,-9104.533087,383.047749
765.179850,1332.370696,-9326.594869,1072.533697
765.180174,3404.947333,-9326.594869,2451.505594
765.180498,5107.421000,-11103.089130,3524.039291
765.180823,5847.626942,-12435.459826,3830.477490
765.181147,4885.359217,-11917.315666,3677.258390
765.181471,2368.659014,-8734.430116,1455.581446
765.181795,-1776.494261,-6143.709319,-3217.601092
765.182119,-6365.771101,-8734.430116,-4213.525239
765.182443,-7476.080014,-11621.233289,-4060.306139
765.182767,-4515.256246,-10955.047942,-4903.011187
765.183091,-3330.926739,-9252.574275,-1915.238745
765.183415,-1554.432478,-7698.141797,612.876398
765.183739,888.247130,-8438.347739,766.095498
765.184064,2368.659014,-8808.450710,1302.362347
765.184388,4145.153275,-8142.265362,3217.601092
765.184712,6513.812290,-9918.759623,4443.353888
765.185036,7550.100608,-11843.295072,4136.915689
765.185360,5921.647536,-10955.047942,4596.572988
765.185684,3404.947333,-8068.244768,2145.067394
765.186008,-444.123565,-7550.100608,-1378.971896
765.186332,-5107.421000,-9844.739029,-2834.553343
765.186656,-7994.224174,-11177.109724,-4136.915689
765.186980,-6809.894666,-10140.821405,-4443.353888
765.187305,-5255.462188,-9252.574275,-2528.115143
765.187629,-3997.112087,-8882.471304,-459.657299
765.187953,-1850.514855,-8808.450710,229.828649
765.188277,444.123565,-8586.388927,995.924147
765.188601,2368.659014,-8660.409521,2528.115143
765.188925,4293.194464,-10066.800811,4136.915689
765.189249,5551.544565,-12435.459826,4979.620737
765.189573,5995.668130,-12731.542202,5362.668486
765.189897,4737.318029,-11399.171507,4673.182538
765.190221,1998.556043,-9696.697840,2911.162892
765.190546,-1406.391290,-6809.894666,-1225.752797
765.190870,-4589.276840,-5329.482782,-6052.154434
765.191194,-8142.265362,-8808.450710,-4136.915689
765.191518,-6735.874072,-12065.356855,-4673.182538
765.191842,-3849.070898,-10807.006753,-5362.668486
765.192166,-3923.091493,-8586.388927,-153.219100
765.192490,-2072.576638,-7550.100608,689.485948
765.192814,1406.391290,-8882.471304,76.609550
765.193138,3775.050304,-9918.759623,2068.457845
765.193462,6143.709319,-9178.553681,4519.963438
765.193787,8956.491898,-11473.192101,4060.306139
765.194111,7772.162391,-13101.645173,3983.696590
765.194435,4959.379811,-10584.944971,3983.696590
765.194759,2146.597232,-7328.038826,919.314598
765.195083,-2516.700203,-8068.244768,-2911.162892
765.195407,-7846.182985,-11547.212695,-4673.182538
765.195731,-8734.430116,-11251.130318,-5898.935335
765.196055,-5699.585753,-8734.430116,-5515.887586
765.196379,-3627.009116,-9474.636058,-2145.067394
765.196704,-2220.617826,-9178.553681,-1072.533697
765.197028,-444.123565,-8364.327145,-383.047749
765.197352,1184.329507,-8512.368333,536.266849
765.197676,3034.844362,-8586.388927,1838.629195
765.198000,4663.297435,-10881.027347,2757.943793
765.198324,5773.606348,-12879.583391,3983.696590
765.198648,5699.585753,-11695.253884,4290.134789
765.198972,4737.318029,-10288.862594,2911.162892
765.199296,518.144159,-7476.080014,-1225.752797
765.199620,-3775.050304,-7105.977043,-4979.620737
765.199945,-7402.059420,-10658.965565,-4443.353888
765.200269,-5625.565159,-11621.233289,-5592.497135
765.200593,-3330.926739,-9474.636058,-5056.230287
765.200917,-3923.091493,-7846.182985,-1072.533697
765.201241,-1850.514855,-7402.059420,-766.095498
765.201565,740.205942,-8956.491898,-995.924147
765.201889,2368.659014,-9030.512492,1149.143247
765.202213,4737.318029,-8660.409521,2987.772442
765.202537,7328.038826,-11695.253884,3217.601092
765.202861,6957.935855,-12287.418637,3600.648841
765.203186,4145.153275,-9696.697840,3447.429741
765.203510,1184.329507,-7402.059420,76.609550
765.203834,-3034.844362,-9326.594869,-3064.381992
765.204158,-6735.874072,-12139.377449,-4443.353888
765.204482,-7105.977043,-11325.150913,-5286.058936
765.204806,-5329.482782,-9474.636058,-4136.915689
765.205130,-3849.070898,-9992.780217,-1838.629195
765.205454,-2220.617826,-9770.718434,-612.876398
765.205778,-444.123565,-8956.491898,383.047749
765.206102,1406.391290,-8216.285956,1685.410096
765.206427,3478.967927,-8956.491898,2451.505594
765.206751,5551.544565,-10732.986159,3983.696590
765.207075,6587.832884,-12139.377449,5132.839837
765.207399,6217.729913,-11843.295072,4749.792088
765.207723,3627.009116,-10362.883188,2987.772442
765.208047,-296.082377,-6809.894666,-2145.067394
765.208371,-4811.338623,-7698.141797,-3830.477490
765.208695,-7254.018232,-10955.047942,-4213.525239
765.209019,-5699.585753,-11917.315666,-5592.497135
765.209343,-4959.379811,-9918.759623,-3830.477490
765.209668,-3849.070898,-8290.306550,-153.219100
765.209992,-444.123565,-8216.285956,229.828649
765.210316,1110.308913,-8734.430116,153.219100
765.210640,3627.009116,-8438.347739,3447.429741
765.210964,6439.791695,-8364.327145,4519.963438
765.211288,7994.224174,-11991.336260,4826.401637
765.211612,7105.977043,-12953.603985,5132.839837
765.211936,5403.503377,-10584.944971,5132.839837
765.212260,2886.803174,-8216.285956,1838.629195
765.212584,-2146.597232,-7550.100608,-2834.553343
765.212909,-7994.224174,-10214.842000,-3600.648841
765.213233,-8586.388927,-10807.006753,-5209.449386
765.213557,-6143.709319,-9992.780217,-6128.763984
765.213881,-5847.626942,-8882.471304,-2068.457845
765.214205,-3849.070898,-7846.182985,-459.657299
765.214529,-814.226536,-8438.347739,-153.219100
765.214853,222.061783,-8438.347739,1225.752797
765.215177,2146.597232,-7550.100608,2528.115143
765.215501,5181.441594,-9844.739029,3907.087040
765.215826,7105.977043,-13693.809927,5209.449386
765.216150,6735.874072,-13471.748144,5286.058936
765.216474,5181.441594,-10881.027347,4136.915689
765.216798,2072.576638,-8660.409521,2987.772442
765.217122,-2368.659014,-7105.977043,-2681.334243
765.217446,-6513.812290,-7328.038826,-6052.154434
765.217770,-8660.409521,-9844.739029,-4903.011187
765.218094,-6143.709319,-11103.089130,-5056.230287
765.218418,-4219.173869,-10436.903782,-4060.306139
765.218742,-4737.318029,-8512.368333,383.047749
765.219067,-1998.556043,-7402.059420,383.047749
765.219391,814.226536,-8882.471304,-383.047749
765.219715,2960.823768,-9844.739029,1302.362347
765.220039,6513.812290,-9548.656652,3677.258390
765.220363,9548.656652,-11769.274478,4290.134789
765.220687,8290.306550,-12879.583391,4366.744339
765.221011,5033.400406,-9474.636058,3294.210641
765.221335,1776.494261,-7476.080014,-612.876398
765.221659,-3701.029710,-9992.780217,-3294.210641
765.221983,-7698.141797,-12657.521608,-5362.668486
765.222308,-7254.018232,-11177.109724,-6281.983084
765.222632,-5181.441594,-9326.594869,-4136.915689
765.222956,-2664.741391,-9474.636058,-1762.019645
765.223280,-1406.391290,-8808.450710,0.000000
765.223604,222.061783,-7920.203579,459.657299
765.223928,2294.638420,-8068.244768,2221.676944
765.224252,3701.029710,-8956.491898,2221.676944
765.224576,5181.441594,-11621.233289,3370.820191
765.224900,6217.729913,-12435.459826,4903.011187
765.225224,6365.771101,-11177.109724,4443.353888
765.225549,3997.112087,-9178.553681,1838.629195
765.225873,-1258.350101,-6735.874072,-3677.258390
765.226197,-6513.812290,-9252.574275,-4213.525239
765.226521,-7105.977043,-11769.274478,-4979.620737
765.226845,-4885.359217,-11843.295072,-6128.763984
765.227169,-4737.318029,-9252.574275,-2221.676944
765.227493,-2812.782580,-7476.080014,-306.438199
765.227817,-148.041188,-7846.182985,-229.828649
765.228141,1628.453072,-8438.347739,0.000000
765.228465,3330.926739,-7105.977043,2604.724693
765.228790,6809.894666,-9252.574275,3753.867940
765.229114,7476.080014,-12509.480420,3753.867940
765.229438,6217.729913,-11769.274478,4826.401637
765.229762,4737.318029,-8956.491898,3370.820191
765.230086,1110.308913,-7254.018232,-995.924147
765.230410,-4515.256246,-9548.656652,-4749.792088
765.230734,-8512.368333,-11177.109724,-5362.668486
765.231058,-6883.915261,-10140.821405,-6588.421283
765.231382,-5699.585753,-9844.739029,-3753.867940
765.231706,-5181.441594,-9622.677246,-842.705048
765.232031,-2146.597232,-8734.430116,-612.876398
765.232355,-296.082377,-9030.512492,229.828649
765.232679,666.185348,-8438.347739,1225.752797
765.233003,3182.885551,-8586.388927,2451.505594
765.233327,5921.647536,-12731.542202,4213.525239
765.233651,6883.915261,-14434.015869,5439.278036
765.233975,6365.771101,-12657.521608,4903.011187
765.234299,4145.153275,-9918.759623,4060.306139
765.234623,814.226536,-7624.121203,153.219100
765.234948,-4145.153275,-5995.668130,-6281.983084
765.235272,-8068.244768,-7920.203579,-5669.106685
765.235596,-7772.162391,-11399.171507,-4903.011187
765.235920,-3627.009116,-11769.274478,-6358.592633
765.236244,-3923.091493,-9474.636058,-1608.800546
765.236568,-2738.761985,-7328.038826,995.924147
765.236892,962.267725,-7846.182985,-536.266849
765.237216,2220.617826,-9326.594869,689.485948
765.237540,4515.256246,-8956.491898,3524.039291
765.237864,8956.491898,-10140.821405,4979.620737
765.238189,10214.842000,-12953.603985,4903.011187
765.238513,6439.791695,-11473.192101,5592.497135
765.238837,3256.906145,-6957.935855,1455.581446
765.239161,-1184.329507,-6883.915261,-2834.553343
765.239485,-7550.100608,-11177.109724,-4826.401637
765.239809,-8956.491898,-12583.501014,-6128.763984
765.240133,-6365.771101,-9622.677246,-5669.106685
765.240457,-4737.318029,-8142.265362,-1991.848295
765.240781,-2368.659014,-9326.594869,-919.314598
765.241105,-74.020594,-8808.450710,-612.876398
765.241430,1036.288319,-8512.368333,1149.143247
765.241754,2368.659014,-7920.203579,2298.286494
765.242078,4145.153275,-10436.903782,3524.039291
765.242402,5551.544565,-13323.706956,5132.839837
765.242726,6069.688724,-12435.459826,5745.716235
765.243050,5477.523971,-10584.944971,4213.525239
765.243374,1776.494261,-8586.388927,2221.676944
765.243698,-2812.782580,-5847.626942,-4136.915689
765.244022,-6661.853478,-6957.935855,-5592.497135
765.244346,-8068.244768,-11325.150913,-3907.087040
765.244671,-4515.256246,-11917.315666,-4903.011187
765.244995,-2368.659014,-9622.677246,-2451.505594
765.245319,-2960.823768,-8142.265362,1685.410096
765.245643,222.061783,-8438.347739,459.657299
765.245967,2368.659014,-9178.553681,306.438199
765.246291,3701.029710,-9326.594869,2987.772442
765.246615,6661.853478,-10066.800811,4673.182538
765.246939,8734.430116,-12657.521608,4366.744339
765.247263,6513.812290,-11991.336260,4519.963438
765.247587,2886.803174,-7846.182985,2911.162892
765.247912,-1184.329507,-6217.729913,-1378.971896
765.248236,-6661.853478,-10214.842000,-3983.696590
765.248560,-9474.636058,-12213.398043,-5362.668486
765.248884,-7624.121203,-10066.800811,-5745.716235
765.249208,-5033.400406,-8660.409521,-2681.334243
765.249532,-2812.782580,-8660.409521,-766.095498
765.249856,-222.061783,-8512.368333,459.657299
765.250180,740.205942,-8512.368333,1302.362347
765.250504,1776.494261,-8290.306550,1685.410096
765.250828,3404.947333,-9474.636058,3677.258390
765.251153,4885.359217,-12879.583391,4290.134789
765.251477,6735.874072,-13175.665768,4903.011187
765.251801,6143.709319,-10732.986159,4366.744339
765.252125,2738.761985,-8068.244768,1915.238745
765.252449,-1924.535449,-5551.544565,-4903.011187
765.252773,-7550.100608,-8216.285956,-5439.278036
765.253097,-7920.203579,-11991.336260,-4596.572988
765.253421,-4293.194464,-11399.171507,-6588.421283
765.253745,-3627.009116,-9030.512492,-2757.943793
765.254070,-2664.741391,-7179.997637,229.828649
765.254394,962.267725,-8734.430116,-612.876398
765.254718,2368.659014,-9622.677246,-229.828649
765.255042,4071.132681,-9252.574275,4060.306139
765.255366,6883.915261,-10584.944971,4443.353888
765.255690,7846.182985,-13397.727550,3907.087040
765.256014,6513.812290,-12509.480420,4826.401637
765.256338,4737.318029,-9474.636058,3370.820191
765.256662,592.164754,-6587.832884,-1685.410096
765.256986,-5181.441594,-7994.224174,-5669.106685
765.257311,-9474.636058,-10584.944971,-5822.325785
765.257635,-7031.956449,-9548.656652,-7124.688131
765.257959,-4367.215058,-9474.636058,-5056.230287
765.258283,-4885.359217,-8882.471304,-1455.581446
765.258607,-2368.659014,-8364.327145,-1302.362347
765.258931,0.000000,-9104.533087,-153.219100
765.259255,1480.411884,-9178.553681,1532.190996
765.259579,3997.112087,-8956.491898,2911.162892
765.259903,5773.606348,-12139.377449,4673.182538
765.260227,6809.894666,-14359.995275,4903.011187
765.260552,5847.626942,-12287.418637,4826.401637
765.260876,3849.070898,-9474.636058,3600.648841
765.261200,148.041188,-6809.894666,-459.657299
765.261524,-4515.256246,-5551.544565,-6665.030833
765.261848,-8882.471304,-8882.471304,-5592.497135
765.262172,-7105.977043,-11325.150913,-5439.278036
765.262496,-3701.029710,-10362.883188,-5669.106685
765.262820,-4071.132681,-8956.491898,-1915.238745
765.263144,-1924.535449,-7624.121203,612.876398
765.263468,1850.514855,-8512.368333,0.000000
765.263793,2442.679609,-9844.739029,1225.752797
765.264117,4071.132681,-10066.800811,3600.648841
765.264441,7105.977043,-11251.130318,4673.182538
765.264765,7772.162391,-13323.706956,4290.134789
765.265089,4885.359217,-11547.212695,5209.449386
765.265413,2516.700203,-7105.977043,1532.190996
765.265737,-1850.514855,-6365.771101,-2604.724693
765.266061,-7920.203579,-10807.006753,-4290.134789
765.266385,-9104.533087,-12361.439231,-5056.230287
765.266709,-5995.668130,-9474.636058,-5209.449386
765.267034,-3849.070898,-8512.368333,-1302.362347
765.267358,-2294.638420,-8290.306550,459.657299
765.267682,296.082377,-8142.265362,612.876398
765.268006,1406.391290,-8956.491898,1762.019645
765.268330,2590.720797,-8660.409521,2528.115143
765.268654,4367.215058,-10807.006753,4366.744339
765.268978,5551.544565,-13175.665768,4673.182538
765.269302,5551.544565,-11917.315666,4826.401637
765.269626,4219.173869,-9474.636058,3217.601092
765.269950,148.041188,-6809.894666,-1378.971896
765.270275,-4515.256246,-8660.409521,-3830.477490
765.270599,-7846.182985,-11251.130318,-3370.820191
765.270923,-5255.462188,-11029.068536,-5669.106685
765.271247,-4145.153275,-8882.471304,-2911.162892
765.271571,-2738.761985,-7772.162391,459.657299
765.271895,-148.041188,-8364.327145,459.657299
765.272219,1332.370696,-9474.636058,536.266849
765.272543,3182.885551,-8216.285956,3294.210641
765.272867,5181.441594,-8808.450710,4749.792088
765.273192,7624.121203,-12435.459826,3983.696590
765.273516,6735.874072,-12287.418637,4979.620737
765.273840,4811.338623,-9474.636058,3983.696590
765.274164,1702.473667,-6809.894666,-995.924147
765.274488,-4219.173869,-7698.141797,-3830.477490
765.274812,-8512.368333,-11251.130318,-4673.182538
765.275136,-7105.977043,-10066.800811,-6511.811733
765.275460,-5847.626942,-8808.450710,-5056.230287
765.275785,-4885.359217,-9104.533087,-1838.629195
765.276109,-1850.514855,-8660.409521,-995.924147
765.276433,0.000000,-9104.533087,-383.047749
765.276757,666.185348,-8512.368333,1685.410096
765.277081,3404.947333,-8882.471304,2987.772442
765.277405,5995.668130,-12731.542202,4060.306139
765.277729,6809.894666,-14434.015869,5822.325785
765.278053,6735.874072,-13619.789333,5209.449386
765.278378,4811.338623,-10881.027347,4060.306139
765.278702,1480.411884,-8290.306550,1225.752797
765.279026,-2960.823768,-4737.318029,-5669.106685
765.279350,-6957.935855,-5329.482782,-7584.345430
765.279674,-8956.491898,-10362.883188,-5209.449386
765.279998,-5477.523971,-12213.398043,-6741.640382
765.280322,-4515.256246,-9918.759623,-4443.353888
765.280646,-5181.441594,-7846.182985,306.438199
765.280970,-1258.350101,-7624.121203,-612.876398
765.281295,1628.453072,-9696.697840,-842.705048
765.281619,3701.029710,-9992.780217,2145.067394
765.281943,7920.203579,-9474.636058,4290.134789
765.282267,10066.800811,-13767.830521,4443.353888
765.282591,8142.265362,-14878.139434,5286.058936
765.282915,5995.668130,-9770.718434,4213.525239
765.283239,2072.576638,-5403.503377,-153.219100
765.283563,-4071.132681,-7105.977043,-5515.887586
765.283888,-9844.739029,-12065.356855,-6052.154434
765.284212,-8290.306550,-11917.315666,-6894.859482
765.284536,-4293.194464,-9104.533087,-5822.325785
765.284860,-4367.215058,-8512.368333,-995.924147
765.285184,-2220.617826,-7920.203579,-229.828649
765.285508,222.061783,-9030.512492,-536.266849
765.285832,1332.370696,-8956.491898,612.876398
765.286156,2516.700203,-7846.182985,1991.848295
765.286481,4145.153275,-11621.233289,3370.820191
765.286805,5181.441594,-14582.057057,4443.353888
765.287129,5625.565159,-12361.439231,4136.915689
765.287453,3627.009116,-8956.491898,3140.991542
765.287777,-1258.350101,-5847.626942,-2604.724693
765.288101,-5699.585753,-7105.977043,-5669.106685
765.288425,-9252.574275,-11843.295072,-4673.182538
765.288749,-4885.359217,-11991.336260,-5132.839837
765.289073,-2072.576638,-10436.903782,-3447.429741
765.289398,-2368.659014,-8734.430116,1302.362347
765.289722,666.185348,-8438.347739,1225.752797
765.290046,2738.761985,-9474.636058,383.047749
765.290370,2886.803174,-8438.347739,1991.848295
765.290694,5107.421000,-9770.718434,4213.525239
765.291018,7994.224174,-12213.398043,4366.744339
765.291342,7254.018232,-11695.253884,3830.477490
765.291666,3701.029710,-8438.347739,2528.115143
765.291991,0.000000,-7550.100608,-536.266849
765.292315,-4219.173869,-10510.924376,-3447.429741
765.292639,-7550.100608,-12435.459826,-4979.620737
765.292963,-7402.059420,-9844.739029,-4519.963438
765.293287,-4737.318029,-8438.347739,-2834.553343
765.293611,-2220.617826,-9030.512492,-612.876398
765.293935,0.000000,-8882.471304,766.095498
765.294259,1628.453072,-7994.224174,1685.410096
765.294584,2886.803174,-8364.327145,2604.724693
765.294908,3775.050304,-9992.780217,3753.867940
765.295232,4959.379811,-11991.336260,5362.668486
765.295556,6439.791695,-12805.562797,5669.106685
765.295880,5847.626942,-11399.171507,4749.792088
765.296204,2368.659014,-9104.533087,2298.286494
765.296528,-1998.556043,-5551.544565,-4213.525239
765.296852,-6365.771101,-7550.100608,-4903.011187
765.297176,-8068.244768,-11399.171507,-5132.839837
765.297501,-5773.606348,-11473.192101,-5745.716235
765.297825,-5181.441594,-8882.471304,-2604.724693
765.298149,-3552.988522,-7105.977043,229.828649
765.298473,-888.247130,-7920.203579,-383.047749
765.298797,1036.288319,-9252.574275,383.047749
765.299121,3034.844362,-7772.162391,2757.943793
765.299445,5995.668130,-9548.656652,4366.744339
765.299769,7402.059420,-14137.933492,4903.011187
765.300094,6735.874072,-13989.892304,5515.887586
765.300418,5995.668130,-11029.068536,4596.572988
765.300742,2294.638420,-8586.388927,2987.772442
765.301066,-2812.782580,-6587.832884,-3983.696590
765.301390,-7476.080014,-6883.915261,-7201.297681
765.301714,-9474.636058,-9622.677246,-5209.449386
765.302038,-5847.626942,-11917.315666,-5745.716235
765.302362,-4589.276840,-10955.047942,-4596.572988
765.302687,-5033.400406,-8882.471304,0.000000
765.303011,-1776.494261,-7994.224174,0.000000
765.303335,296.082377,-9474.636058,-1455.581446
765.303659,1406.391290,-9844.739029,1378.971896
765.303983,4441.235652,-9696.697840,3677.258390
765.304307,7550.100608,-13693.809927,4596.572988
765.304631,7179.997637,-15840.407159,5362.668486
765.304955,6069.688724,-11991.336260,4979.620737
765.305279,3478.967927,-7624.121203,2911.162892
765.305604,-1258.350101,-5699.585753,-3600.648841
765.305928,-6809.894666,-8142.265362,-6435.202183
765.306252,-9622.677246,-10881.027347,-5515.887586
765.306576,-5181.441594,-10510.924376,-5745.716235
765.306900,-2664.741391,-9844.739029,-3600.648841
765.307224,-2220.617826,-8512.368333,459.657299
765.307548,518.144159,-6883.915261,0.000000
765.307872,2368.659014,-8216.285956,-229.828649
765.308197,2812.782580,-9178.553681,1149.143247
765.308521,5181.441594,-9696.697840,4060.306139
765.308845,8290.306550,-11547.212695,4060.306139
765.309169,7179.997637,-11695.253884,3677.258390
765.309493,3478.967927,-9030.512492,2374.896044
765.309817,296.082377,-7772.162391,-612.876398
765.310141,-3923.091493,-9696.697840,-3217.601092
765.310465,-6957.935855,-12435.459826,-4596.572988
765.310790,-6883.915261,-10140.821405,-4366.744339
765.311114,-3701.029710,-7550.100608,-2911.162892
765.311438,-1332.370696,-8290.306550,-842.705048
765.311762,592.164754,-8660.409521,536.266849
765.312086,2146.597232,-7920.203579,1149.143247
765.312410,2960.823768,-8142.265362,1915.238745
765.312734,3552.988522,-9400.615463,2834.553343
765.313058,3478.967927,-11177.109724,3677.258390
765.313382,4441.235652,-11547.212695,3983.696590
765.313707,4071.132681,-10658.965565,2604.724693
765.314031,444.123565,-8586.388927,-1685.410096
765.314355,-4293.194464,-8882.471304,-3983.696590
765.314679,-6661.853478,-10436.903782,-3753.867940
765.315003,-5773.606348,-11103.089130,-4673.182538
765.315327,-4885.359217,-10436.903782,-3447.429741
765.315651,-3627.009116,-8586.388927,-1838.629195
765.315975,-1258.350101,-8068.244768,-766.095498
765.316300,74.020594,-9622.677246,76.609550
765.316624,2368.659014,-9326.594869,1991.848295
765.316948,5625.565159,-9474.636058,3907.087040
765.317272,6365.771101,-12509.480420,4213.525239
765.317596,5329.482782,-13323.706956,4290.134789
765.317920,4071.132681,-11325.150913,3600.648841
765.318244,1924.535449,-8808.450710,689.485948
765.318568,-2664.741391,-8512.368333,-3064.381992
765.318893,-7105.977043,-10362.883188,-4290.134789
765.319217,-7476.080014,-9696.697840,-5286.058936
765.319541,-5699.585753,-9474.636058,-5056.230287
765.319865,-6143.709319,-9030.512492,-2681.334243
765.320189,-3923.091493,-8364.327145,-995.924147
765.320513,-1554.432478,-8364.327145,-842.705048
765.320837,222.061783,-8142.265362,1225.752797
765.321161,2442.679609,-8364.327145,3064.381992
765.321485,5773.606348,-10658.965565,4290.134789
765.321810,6587.832884,-13397.727550,5209.449386
765.322134,6439.791695,-13619.789333,5745.716235
765.322458,5773.606348,-11547.212695,4443.353888
765.322782,3256.906145,-8586.388927,2451.505594
765.323106,-666.185348,-5033.400406,-3217.601092
765.323430,-5255.462188,-6217.729913,-5132.839837
765.323754,-7402.059420,-10288.862594,-4290.134789
765.324078,-4811.338623,-10584.944971,-5515.887586
765.324403,-4441.235652,-8734.430116,-3217.601092
765.324727,-3849.070898,-6661.853478,153.219100
765.325051,-518.144159,-6809.894666,-153.219100
765.325375,1924.535449,-8660.409521,76.609550
765.325699,3256.906145,-8808.450710,2911.162892
765.326023,6809.894666,-9030.512492,5056.230287
765.326347,9474.636058,-11991.336260,4826.401637
765.326671,7624.121203,-12287.418637,5669.106685
765.326996,5181.441594,-9104.533087,4749.792088
765.327320,2886.803174,-6661.853478,76.609550
765.327644,-2812.782580,-9030.512492,-3217.601092
765.327968,-7476.080014,-11917.315666,-4213.525239
765.328292,-6587.832884,-10658.965565,-6435.202183
765.328616,-4737.318029,-8956.491898,-4903.011187
765.328940,-3849.070898,-8956.491898,-1532.190996
765.329264,-1850.514855,-8586.388927,-995.924147
765.329588,-518.144159,-8512.368333,-536.266849
765.329913,888.247130,-8142.265362,919.314598
765.330237,2886.803174,-8660.409521,2451.505594
765.330561,4885.359217,-11695.253884,3064.381992
765.330885,5107.421000,-13619.789333,4596.572988
765.331209,4811.338623,-12953.603985,4673.182538
765.331533,3330.926739,-11177.109724,2681.334243
765.331857,-962.267725,-7846.182985,-1685.410096
765.332181,-4959.379811,-7920.203579,-4366.744339
765.332506,-7105.977043,-10807.006753,-4366.744339
765.332830,-4663.297435,-12213.398043,-5822.325785
765.333154,-3108.864956,-10510.924376,-4290.134789
765.333478,-3404.947333,-8808.450710,-459.657299
765.333802,-666.185348,-8586.388927,-612.876398
765.334126,740.205942,-9252.574275,-842.705048
765.334450,1702.473667,-8512.368333,1225.752797
765.334774,4589.276840,-9326.594869,3064.381992
765.335099,7179.997637,-11843.295072,2681.334243
765.335423,5995.668130,-12953.603985,3447.429741
765.335747,3701.029710,-10214.842000,3447.429741
765.336071,1110.308913,-7550.100608,-766.095498
765.336395,-3552.988522,-8438.347739,-3370.820191
765.336719,-7624.121203,-10881.027347,-4366.744339
765.337043,-7698.141797,-9622.677246,-5745.716235
765.337367,-5329.482782,-8956.491898,-4290.134789
765.337691,-4367.215058,-9400.615463,-1608.800546
765.338016,-1628.453072,-8808.450710,-459.657299
765.338340,444.123565,-8142.265362,306.438199
765.338664,1480.411884,-8364.327145,1532.190996
765.338988,3404.947333,-9178.553681,2757.943793
765.339312,5625.565159,-11621.233289,4060.306139
765.339636,5551.544565,-12879.583391,5056.230287
765.339960,5847.626942,-12583.501014,4903.011187
765.340284,4367.215058,-10140.821405,3370.820191
765.340609,296.082377,-6587.832884,-1915.238745
765.340933,-4663.297435,-7402.059420,-4443.353888
765.341257,-7624.121203,-10436.903782,-4596.572988
765.341581,-5699.585753,-10510.924376,-5975.544884
765.341905,-5329.482782,-8882.471304,-3753.867940
765.342229,-5107.421000,-7105.977043,-306.438199
765.342553,-1406.391290,-7254.018232,-229.828649
765.342877,814.226536,-8586.388927,0.000000
765.343202,2738.761985,-8068.244768,2451.505594
765.343526,5625.565159,-8512.368333,4519.963438
765.343850,8364.327145,-12213.398043,4826.401637
765.344174,7698.141797,-13693.809927,5515.887586
765.344498,6513.812290,-11177.109724,5745.716235
765.344822,3849.070898,-7846.182985,1915.238745
765.345146,-1110.308913,-7476.080014,-3370.820191
765.345470,-7031.956449,-11029.068536,-4136.915689
765.345794,-7105.977043,-11325.150913,-5362.668486
765.346119,-4737.318029,-9992.780217,-5362.668486
765.346443,-5033.400406,-9104.533087,-919.314598
765.346767,-3478.967927,-8142.265362,0.000000
765.347091,-1110.308913,-8734.430116,-536.266849
765.347415,-148.041188,-8512.368333,383.047749
765.347739,1628.453072,-8068.244768,2451.505594
765.348063,4737.318029,-10510.924376,3600.648841
765.348387,5921.647536,-13989.892304,5209.449386
765.348712,5403.503377,-13767.830521,5975.544884
765.349036,5255.462188,-11103.089130,4673.182538
765.349360,2886.803174,-9104.533087,3294.210641
765.349684,-1554.432478,-6957.935855,-2757.943793
765.350008,-5773.606348,-6587.832884,-6128.763984
765.350332,-8068.244768,-9770.718434,-4903.011187
765.350656,-5255.462188,-12287.418637,-5209.449386
765.350980,-3552.988522,-11547.212695,-3600.648841
765.351305,-4441.235652,-8734.430116,76.609550
765.351629,-1480.411884,-7105.977043,306.438199
765.351953,1036.288319,-8734.430116,229.828649
765.352277,2368.659014,-9696.697840,1608.800546
765.352601,5329.482782,-8882.471304,3600.648841
765.352925,8364.327145,-11917.315666,3907.087040
765.353249,6809.894666,-13841.851115,4826.401637
765.353573,4737.318029,-10658.965565,4443.353888
765.353897,2146.597232,-6809.894666,1378.971896
765.354222,-3256.906145,-5847.626942,-4366.744339
765.354546,-9030.512492,-9474.636058,-4903.011187
765.354870,-9474.636058,-10881.027347,-5592.497135
765.355194,-4959.379811,-10214.842000,-4673.182538
765.355518,-3627.009116,-9918.759623,-1149.143247
765.355842,-2368.659014,-8142.265362,919.314598
765.356166,370.102971,-7994.224174,0.000000
765.356490,888.247130,-9104.533087,229.828649
765.356815,2294.638420,-8512.368333,1225.752797
765.357139,4145.153275,-10288.862594,3064.381992
765.357463,5921.647536,-13989.892304,4366.744339
765.357787,6513.812290,-13545.768739,5056.230287
765.358111,4885.359217,-10066.800811,3907.087040
765.358435,370.102971,-5847.626942,-1608.800546
765.358759,-4885.359217,-7105.977043,-5286.058936
765.359083,-9252.574275,-11991.336260,-4903.011187
765.359408,-6513.812290,-11843.295072,-5669.106685
765.359732,-4219.173869,-9474.636058,-3677.258390
765.360056,-4071.132681,-8142.265362,1072.533697
765.360380,-592.164754,-8216.285956,459.657299
765.360704,1776.494261,-9252.574275,0.000000
765.361028,3108.864956,-7994.224174,1225.752797
765.361352,4885.359217,-8438.347739,2987.772442
765.361676,7994.224174,-11843.295072,3677.258390
765.362000,7846.182985,-12213.398043,4443.353888
765.362325,5773.606348,-8660.409521,3677.258390
765.362649,2368.659014,-7920.203579,-306.438199
765.362973,-2960.823768,-10362.883188,-3294.210641
765.363297,-6513.812290,-12583.501014,-5592.497135
765.363621,-6735.874072,-10436.903782,-5439.278036
765.363945,-4589.276840,-8290.306550,-3064.381992
765.364269,-2516.700203,-8882.471304,-995.924147
765.364593,-444.123565,-8290.306550,153.219100
765.364918,814.226536,-7772.162391,689.485948
765.365242,2146.597232,-7476.080014,1685.410096
765.365566,3404.947333,-9252.574275,2528.115143
765.365890,4293.194464,-11917.315666,3983.696590
765.366214,5699.585753,-12583.501014,4979.620737
765.366538,5921.647536,-11473.192101,4596.572988
765.366862,3478.967927,-9992.780217,2451.505594
765.367186,-444.123565,-7105.977043,-2757.943793
765.367511,-4737.318029,-7254.018232,-5515.887586
765.367835,-7254.018232,-11103.089130,-4596.572988
765.368159,-5403.503377,-12139.377449,-5439.278036
765.368483,-4441.235652,-10362.883188,-4290.134789
765.368807,-4515.256246,-8142.265362,-612.876398
765.369131,-1998.556043,-7846.182985,-842.705048
765.369455,296.082377,-8660.409521,-842.705048
765.369779,2072.576638,-8438.347739,1302.362347
765.370103,4515.256246,-9030.512492,3217.601092
765.370428,6957.935855,-13101.645173,3907.087040
765.370752,6661.853478,-13841.851115,4366.744339
765.371076,5477.523971,-11103.089130,4366.744339
765.371400,3256.906145,-9326.594869,3294.210641
765.371724,-1258.350101,-8586.388927,-689.485948
765.372048,-6143.709319,-5995.668130,-6818.249932
765.372372,-9030.512492,-7105.977043,-5898.935335
765.372696,-7698.141797,-11029.068536,-3907.087040
765.373020,-4145.153275,-12287.418637,-4596.572988
765.373345,-3552.988522,-9696.697840,-1149.143247
765.373669,-2960.823768,-6957.935855,842.705048
765.373993,-148.041188,-8068.244768,-383.047749
765.374317,1554.432478,-10288.862594,536.266849
765.374641,2368.659014,-9992.780217,2528.115143
765.374965,6143.709319,-11399.171507,4903.011187
765.375289,7698.141797,-14211.954086,4366.744339
765.375613,5773.606348,-12287.418637,4136.915689
765.375937,2960.823768,-8142.265362,3447.429741
765.376261,-592.164754,-5995.668130,-383.047749
765.376585,-5329.482782,-8068.244768,-5362.668486
765.376909,-9474.636058,-11103.089130,-4826.401637
765.377233,-6661.853478,-10584.944971,-4826.401637
765.377558,-2516.700203,-9178.553681,-3064.381992
765.377882,-1776.494261,-8956.491898,612.876398
765.378206,0.000000,-7624.121203,1149.143247
765.378530,1924.535449,-7772.162391,612.876398
765.378854,3627.009116,-8956.491898,1608.800546
765.379178,5181.441594,-8882.471304,3600.648841
765.379502,8290.306550,-10436.903782,4060.306139
765.379826,7920.203579,-10584.944971,3524.039291
765.380150,4145.153275,-9326.594869,2681.334243
765.380474,296.082377,-9400.615463,-612.876398
765.380798,-3330.926739,-9400.615463,-3294.210641
765.381122,-6735.874072,-10881.027347,-4673.182538
765.381446,-6513.812290,-10881.027347,-3983.696590
765.381770,-3034.844362,-9326.594869,-2911.162892
765.382095,-1110.308913,-8290.306550,-766.095498
765.382419,0.000000,-8216.285956,1149.143247
765.382743,1110.308913,-8512.368333,766.095498
765.383067,2590.720797,-8882.471304,1762.019645
765.383391,4071.132681,-10214.842000,2987.772442
765.383715,4663.297435,-12065.356855,4136.915689
765.384039,5477.523971,-11917.315666,4136.915689
765.384363,4589.276840,-10510.924376,3370.820191
765.384687,962.267725,-10066.800811,842.705048
765.385011,-2812.782580,-7105.977043,-4290.134789
765.385335,-6957.935855,-7772.162391,-5822.325785
765.385659,-8512.368333,-11473.192101,-4519.963438
765.385983,-5477.523971,-11695.253884,-5822.325785
765.386308,-3701.029710,-9770.718434,-3370.820191
765.386632,-2960.823768,-8068.244768,-153.219100
765.386956,-296.082377,-7994.224174,0.000000
765.387280,2294.638420,-10214.842000,306.438199
765.387604,4145.153275,-9326.594869,2604.724693
765.387928,7031.956449,-10140.821405,3983.696590
765.388252,7920.203579,-13619.789333,4060.306139
765.388576,6365.771101,-13175.665768,4136.915689
765.388900,3775.050304,-10066.800811,3294.210641
765.389224,666.185348,-8364.327145,1991.848295
765.389548,-4367.215058,-6513.812290,-5056.230287
765.389872,-9844.739029,-8438.347739,-6052.154434
765.390196,-10584.944971,-9474.636058,-5439.278036
765.390520,-6291.750507,-10436.903782,-5822.325785
765.390845,-4663.297435,-10066.800811,-2757.943793
765.391169,-3478.967927,-7994.224174,153.219100
765.391493,-666.185348,-7476.080014,383.047749
765.391817,1332.370696,-9844.739029,842.705048
765.392141,2812.782580,-9178.553681,2528.115143
765.392465,5551.544565,-10658.965565,4903.011187
765.392789,7920.203579,-14878.139434,5209.449386
765.393113,7179.997637,-14285.974681,4903.011187
765.393437,4441.235652,-10140.821405,3907.087040
765.393761,1184.329507,-7105.977043,2298.286494
765.394085,-3330.926739,-5699.585753,-4903.011187
765.394409,-8808.450710,-8438.347739,-5975.544884
765.394733,-10288.862594,-9844.739029,-4673.182538
765.395058,-4737.318029,-9844.739029,-5056.230287
765.395382,-2738.761985,-9400.615463,-2068.457845
765.395706,-2664.741391,-7920.203579,1915.238745
765.396030,1332.370696,-7402.059420,612.876398
765.396354,3256.906145,-8438.347739,842.705048
765.396678,4367.215058,-9474.636058,2451.505594
765.397002,7328.038826,-9844.739029,4903.011187
765.397326,9918.759623,-11399.171507,5056.230287
765.397650,7772.162391,-11103.089130,4519.963438
765.397974,3404.947333,-8438.347739,1991.848295
765.398298,-814.226536,-8438.347739,-1455.581446
765.398622,-5033.400406,-11325.150913,-4290.134789
765.398946,-7476.080014,-11991.336260,-5209.449386
765.399270,-6365.771101,-9548.656652,-4213.525239
765.399595,-3256.906145,-7920.203579,-1915.238745
765.399919,-1850.514855,-8290.306550,0.000000
765.400243,-296.082377,-8808.450710,842.705048
765.400567,1406.391290,-8364.327145,1072.533697
765.400891,2960.823768,-8660.409521,1991.848295
765.401215,4293.194464,-10807.006753,3830.477490
765.401539,4811.338623,-12287.418637,4749.792088
765.401863,5773.606348,-11547.212695,4596.572988
765.402187,4367.215058,-10214.842000,2911.162892
765.402511,-518.144159,-7920.203579,-1991.848295
765.402835,-4811.338623,-7994.224174,-4826.401637
765.403159,-7328.038826,-11177.109724,-4443.353888
765.403483,-5477.523971,-12287.418637,-5209.449386
765.403808,-3404.947333,-10288.862594,-3677.258390
765.404132,-3182.885551,-8142.265362,-459.657299
765.404456,-740.205942,-8068.244768,229.828649
765.404780,222.061783,-9474.636058,0.000000
765.405104,2220.617826,-9030.512492,1225.752797
765.405428,5033.400406,-8586.388927,3140.991542
765.405752,7031.956449,-12139.377449,3907.087040
765.406076,6661.853478,-13323.706956,4060.306139
765.406400,4737.318029,-10066.800811,4213.525239
765.406724,1924.535449,-7994.224174,2068.457845
765.407048,-3034.844362,-6735.874072,-3600.648841
765.407372,-8438.347739,-8956.491898,-6435.202183
765.407696,-10140.821405,-10658.965565,-5439.278036
765.408020,-5625.565159,-10510.924376,-5745.716235
765.408345,-3923.091493,-10362.883188,-2604.724693
765.408669,-3404.947333,-9030.512492,536.266849
765.408993,-888.247130,-7550.100608,-306.438199
765.409317,148.041188,-8882.471304,612.876398
765.409641,1628.453072,-9030.512492,1762.019645
765.409965,4515.256246,-10510.924376,4060.306139
765.410289,7179.997637,-14063.912898,4826.401637
765.410613,7105.977043,-13915.871710,5209.449386
765.410937,5255.462188,-10584.944971,4749.792088
765.411261,2220.617826,-7772.162391,3370.820191
765.411585,-1036.288319,-6883.915261,-1302.362347
765.411909,-5699.585753,-5181.441594,-7967.393179
765.412233,-9992.780217,-7105.977043,-5975.544884
765.412558,-8734.430116,-10807.006753,-3983.696590
765.412882,-3997.112087,-11325.150913,-5056.230287
765.413206,-3330.926739,-9326.594869,76.609550
765.413530,-1332.370696,-6439.791695,1915.238745
765.413854,2368.659014,-8216.285956,383.047749
765.414178,3552.988522,-10807.006753,1455.581446
765.414502,5773.606348,-9474.636058,3907.087040
765.414826,9770.718434,-10732.986159,5822.325785
765.415150,9844.739029,-13545.768739,4596.572988
765.415474,5773.606348,-10881.027347,3677.258390
765.415798,1702.473667,-6735.874072,153.219100
765.416122,-3404.947333,-7772.162391,-2528.115143
765.416446,-7254.018232,-12065.356855,-5286.058936
765.416771,-8586.388927,-12583.501014,-5898.935335
765.417095,-5551.544565,-8734.430116,-4213.525239
765.417419,-2812.782580,-7920.203579,-995.924147
765.417743,-740.205942,-9400.615463,-153.219100
765.418067,666.185348,-8734.430116,459.657299
765.418391,2664.741391,-7920.203579,1991.848295
765.418715,4441.235652,-8586.388927,2681.334243
765.419039,5329.482782,-11991.336260,3447.429741
765.419363,6365.771101,-12435.459826,5592.497135
765.419687,6809.894666,-10881.027347,4673.182538
765.420011,3923.091493,-9696.697840,2451.505594
765.420335,-1110.308913,-7920.203579,-3677.258390
765.420659,-6291.750507,-9326.594869,-4519.963438
765.420983,-7254.018232,-11695.253884,-4213.525239
765.421308,-3701.029710,-11399.171507,-5209.449386
765.421632,-2960.823768,-9548.656652,-1991.848295
765.421956,-2220.617826,-7698.141797,0.000000
765.422280,296.082377,-8068.244768,0.000000
765.422604,1332.370696,-9474.636058,0.000000
765.422928,2590.720797,-8364.327145,1915.238745
765.423252,5107.421000,-8808.450710,3294.210641
765.423576,6735.874072,-12731.542202,3294.210641
765.423900,5477.523971,-12213.398043,4366.744339
765.424224,4071.132681,-8956.491898,3370.820191
765.424548,-222.061783,-6957.935855,-689.485948
765.424872,-5699.585753,-8142.265362,-4903.011187
765.425196,-10066.800811,-10732.986159,-5132.839837
765.425521,-8142.265362,-10214.842000,-5439.278036
765.425845,-4959.379811,-9918.759623,-4290.134789
765.426169,-4145.153275,-9918.759623,-766.095498
765.426493,-1998.556043,-7846.182985,306.438199
765.426817,-296.082377,-8586.388927,766.095498
765.427141,370.102971,-9326.594869,1149.143247
765.427465,2516.700203,-9548.656652,2757.943793
765.427789,5181.441594,-12509.480420,4596.572988
765.428113,6957.935855,-14211.954086,4979.620737
765.428437,5847.626942,-11843.295072,4673.182538
765.428761,3182.885551,-9548.656652,3524.039291
765.429085,-148.041188,-7772.162391,995.924147
765.429409,-3997.112087,-6291.750507,-4060.306139
765.429733,-7624.121203,-4811.338623,-7660.954980
765.430058,-9918.759623,-8438.347739,-4519.963438
765.430382,-6513.812290,-11917.315666,-3753.867940
765.430706,-2812.782580,-11177.109724,-3370.820191
765.431030,-2738.761985,-8882.471304,2068.457845
765.431354,296.082377,-7105.977043,1532.190996
765.431678,3256.906145,-9400.615463,842.705048
765.432002,4737.318029,-10955.047942,3064.381992
765.432326,8512.368333,-9918.759623,4903.011187
765.432650,11029.068536,-11843.295072,5286.058936
765.432974,8734.430116,-12731.542202,3983.696590
765.433298,3627.009116,-8142.265362,1302.362347
765.433622,-814.226536,-7031.956449,-1378.971896
765.433946,-5033.400406,-9918.759623,-4290.134789
765.434271,-8068.244768,-12139.377449,-6588.421283
765.434595,-7994.224174,-10881.027347,-5056.230287
765.434919,-4441.235652,-7698.141797,-2604.724693
765.435243,-1702.473667,-8586.388927,-1532.190996
765.435567,-222.061783,-9030.512492,612.876398
765.435891,1776.494261,-8068.244768,1991.848295
765.436215,3775.050304,-8512.368333,2298.286494
765.436539,4589.276840,-10658.965565,3294.210641
765.436863,5329.482782,-12657.521608,4979.620737
765.437187,7105.977043,-11621.233289,5669.106685
765.437511,6883.915261,-10436.903782,3830.477490
765.437835,1850.514855,-7772.162391,-459.657299
765.438159,-3627.009116,-6587.832884,-5209.449386
765.438483,-8068.244768,-9918.759623,-4673.182538
765.438808,-6439.791695,-13101.645173,-5515.887586
765.439132,-3923.091493,-11547.212695,-5362.668486
765.439456,-3849.070898,-8512.368333,-306.438199
765.439780,-1702.473667,-7476.080014,76.609550
765.440104,296.082377,-9104.533087,-689.485948
765.440428,1850.514855,-9104.533087,536.266849
765.440752,4293.194464,-7920.203579,2528.115143
765.441076,6587.832884,-11251.130318,3753.867940
765.441400,6439.791695,-13915.871710,3907.087040
765.441724,5477.523971,-10881.027347,4136.915689
765.442048,2960.823768,-8142.265362,3140.991542
765.442372,-814.226536,-7105.977043,-612.876398
765.442696,-6143.709319,-7105.977043,-6741.640382
765.443021,-10510.924376,-8438.347739,-5898.935335
765.443345,-8512.368333,-10584.944971,-4213.525239
765.443669,-4589.276840,-11843.295072,-4596.572988
765.443993,-4219.173869,-9844.739029,-229.828649
765.444317,-2738.761985,-7550.100608,612.876398
765.444641,-740.205942,-8956.491898,0.000000
765.444965,518.144159,-10066.800811,153.219100
765.445289,2516.700203,-9770.718434,2221.676944
765.445613,5921.647536,-12287.418637,5056.230287
765.445937,7550.100608,-15322.262999,4213.525239
765.446261,5921.647536,-12879.583391,4213.525239
765.446585,3182.885551,-7846.182985,3907.087040
765.446909,-296.082377,-5403.503377,-842.705048
765.447233,-5255.462188,-6661.853478,-7277.907231
765.447558,-10807.006753,-10436.903782,-5286.058936
765.447882,-7846.182985,-11547.212695,-4443.353888
765.448206,-2738.761985,-10510.924376,-4060.306139
765.448530,-2442.679609,-8808.450710,1302.362347
765.448854,-740.205942,-7179.997637,1455.581446
765.449178,2368.659014,-8068.244768,1149.143247
765.449502,3182.885551,-9474.636058,1225.752797
765.449826,5107.421000,-9400.615463,4136.915689
765.450150,9178.553681,-10881.027347,5209.449386
765.450474,9770.718434,-11991.336260,4903.011187
765.450798,6291.750507,-9178.553681,2681.334243
765.451122,1406.391290,-7105.977043,-153.219100
765.451446,-3627.009116,-9252.574275,-2834.553343
765.451771,-6883.915261,-12287.418637,-5745.716235
765.452095,-7179.997637,-11473.192101,-4979.620737
765.452419,-5033.400406,-7920.203579,-2834.553343
765.452743,-1258.350101,-7772.162391,-766.095498
765.453067,-148.041188,-9104.533087,766.095498
765.453391,1332.370696,-8438.347739,1685.410096
765.453715,3256.906145,-7994.224174,2604.724693
765.454039,4885.359217,-9474.636058,3370.820191
765.454363,4219.173869,-11695.253884,4903.011187
765.454687,5699.585753,-11991.336260,5745.716235
765.455011,5847.626942,-10436.903782,3983.696590
765.455335,2368.659014,-9178.553681,2451.505594
765.455659,-2590.720797,-6513.812290,-3447.429741
765.455983,-6439.791695,-6143.709319,-6128.763984
765.456308,-7846.182985,-10955.047942,-4443.353888
765.456632,-5181.441594,-12583.501014,-5898.935335
765.456956,-2886.803174,-10510.924376,-3907.087040
765.457280,-3404.947333,-8290.306550,383.047749
765.457604,-962.267725,-8290.306550,153.219100
765.457928,1184.329507,-10362.883188,0.000000
765.458252,3108.864956,-9474.636058,2451.505594
765.458576,5995.668130,-9104.533087,3370.820191
765.458900,7994.224174,-13545.768739,3370.820191
765.459224,6735.874072,-14434.015869,4060.306139
765.459548,4737.318029,-10362.883188,3677.258390
765.459872,1110.308913,-7846.182985,1838.629195
765.460196,-3849.070898,-6661.853478,-4673.182538
765.460521,-9326.594869,-8216.285956,-7584.345430
765.460845,-10881.027347,-10066.800811,-5439.278036
765.461169,-6513.812290,-10584.944971,-6052.154434
765.461493,-3552.988522,-11473.192101,-4136.915689
765.461817,-3330.926739,-9030.512492,306.438199
765.462141,-814.226536,-8068.244768,229.828649
765.462465,740.205942,-9844.739029,-459.657299
765.462789,1998.556043,-9770.718434,995.924147
765.463113,4145.153275,-10658.965565,3217.601092
765.463437,6809.894666,-13841.851115,4136.915689
765.463761,7550.100608,-14656.077652,4366.744339
765.464085,5551.544565,-10436.903782,3753.867940
765.464409,2442.679609,-7179.997637,2221.676944
765.464734,-2368.659014,-5699.585753,-4443.353888
765.465058,-8438.347739,-9474.636058,-5745.716235
765.465382,-9844.739029,-11251.130318,-5209.449386
765.465706,-5107.421000,-9252.574275,-5822.325785
765.466030,-3034.844362,-8882.471304,-1915.238745
765.466354,-1924.535449,-7846.182985,1532.190996
765.466678,1554.432478,-7698.141797,383.047749
765.467002,2960.823768,-8512.368333,459.657299
765.467326,3627.009116,-9104.533087,2221.676944
765.467650,6069.688724,-9992.780217,4366.744339
765.467974,8364.327145,-11769.274478,4213.525239
765.468298,6661.853478,-10807.006753,4060.306139
765.468622,3256.906145,-8512.368333,1762.019645
765.468946,-740.205942,-8364.327145,-1072.533697
765.469271,-4737.318029,-10732.986159,-3600.648841
765.469595,-7179.997637,-11695.253884,-4366.744339
765.469919,-6069.688724,-9326.594869,-3447.429741
765.470243,-3108.864956,-7846.182985,-1685.410096
765.470567,-1332.370696,-8438.347739,612.876398
765.470891,370.102971,-8290.306550,1149.143247
765.471215,2220.617826,-8364.327145,2221.676944
765.471539,3775.050304,-8660.409521,3370.820191
765.471863,4071.132681,-10066.800811,4136.915689
765.472187,4441.235652,-11695.253884,4826.401637
765.472511,5181.441594,-11473.192101,4366.744339
765.472835,3256.906145,-9622.677246,2145.067394
765.473160,-666.185348,-7846.182985,-2221.676944
765.473484,-4959.379811,-9030.512492,-3140.991542
765.473808,-6217.729913,-10955.047942,-3753.867940
765.474132,-4515.256246,-11399.171507,-4903.011187
765.474456,-4293.194464,-9918.759623,-2374.896044
765.474780,-2072.576638,-8290.306550,-1072.533697
765.475104,148.041188,-8734.430116,-383.047749
765.475429,1554.432478,-9474.636058,536.266849
765.475753,3552.988522,-8808.450710,2604.724693
765.476077,6291.750507,-9770.718434,3983.696590
765.476401,6069.688724,-13027.624579,4443.353888
765.476725,5033.400406,-13175.665768,4136.915689
765.477049,3997.112087,-11103.089130,3217.601092
765.477374,1332.370696,-8660.409521,689.485948
765.477698,-3182.885551,-7698.141797,-4213.525239
765.478022,-7920.203579,-9178.553681,-4903.011187
765.478346,-8364.327145,-10362.883188,-5822.325785
765.478670,-6365.771101,-10436.903782,-6358.592633
765.478994,-6143.709319,-9622.677246,-1915.238745
765.479318,-3404.947333,-8364.327145,-1225.752797
765.479643,-814.226536,-8808.450710,-612.876398
765.479967,444.123565,-9326.594869,1072.533697
765.480291,2664.741391,-8734.430116,2221.676944
765.480615,5551.544565,-11251.130318,4366.744339
765.480939,6957.935855,-14656.077652,5362.668486
765.481263,6291.750507,-14211.954086,5209.449386
765.481588,4515.256246,-10955.047942,4136.915689
765.481912,2072.576638,-8142.265362,2757.943793
765.482236,-1406.391290,-7328.038826,-306.438199
765.482560,-4959.379811,-4589.276840,-6665.030833
765.482884,-8438.347739,-4293.194464,-7124.688131
765.483208,-9400.615463,-9770.718434,-3600.648841
765.483532,-5625.565159,-11325.150913,-5209.449386
765.483857,-3330.926739,-9252.574275,-3064.381992
765.484181,-3108.864956,-7031.956449,1685.410096
765.484505,962.267725,-7698.141797,689.485948
765.484829,4071.132681,-11103.089130,766.095498
765.485153,6291.750507,-10510.924376,3677.258390
765.485477,9622.677246,-9400.615463,5669.106685
765.485802,10658.965565,-12731.542202,5209.449386
765.486126,7031.956449,-11917.315666,3677.258390
765.486450,2664.741391,-7476.080014,1455.581446
765.486774,-1924.535449,-7846.182985,-1685.410096
765.487098,-6735.874072,-11325.150913,-4519.963438
765.487422,-8882.471304,-12583.501014,-6205.373534
765.487747,-7772.162391,-9178.553681,-4673.182538
765.488071,-3627.009116,-7994.224174,-1149.143247
765.488395,-1702.473667,-8512.368333,-766.095498
765.488719,74.020594,-8586.388927,1149.143247
765.489043,2368.659014,-8216.285956,2221.676944
765.489367,3775.050304,-8956.491898,2374.896044
765.489691,4737.318029,-10955.047942,3370.820191
765.490016,4959.379811,-12213.398043,4749.792088
765.490340,6069.688724,-11251.130318,4366.744339
765.490664,5107.421000,-10140.821405,1685.410096
765.490988,-222.061783,-8216.285956,-2451.505594
765.491312,-5551.544565,-10066.800811,-3064.381992
765.491636,-5921.647536,-12583.501014,-4596.572988
765.491961,-4071.132681,-11991.336260,-4903.011187
765.492285,-3849.070898,-9474.636058,-1455.581446
765.492609,-1480.411884,-7698.141797,-153.219100
765.492933,592.164754,-8068.244768,612.876398
765.493257,1702.473667,-9030.512492,1149.143247
765.493581,4219.173869,-8216.285956,2834.553343
765.493905,5551.544565,-9252.574275,3140.991542
765.494230,5477.523971,-12583.501014,3447.429741
765.494554,4515.256246,-11769.274478,4366.744339
765.494878,3775.050304,-8734.430116,2757.943793
765.495202,-518.144159,-6735.874072,-689.485948
765.495526,-6217.729913,-7402.059420,-4213.525239
765.495850,-9326.594869,-10362.883188,-4903.011187
765.496175,-6883.915261,-10288.862594,-5822.325785
765.496499,-4515.256246,-9548.656652,-4136.915689
765.496823,-3997.112087,-8734.430116,-306.438199
765.497147,-1258.350101,-8364.327145,0.000000
765.497471,296.082377,-9252.574275,689.485948
765.497795,666.185348,-8586.388927,1685.410096
765.498119,2442.679609,-9252.574275,2451.505594
765.498444,5699.585753,-12879.583391,4366.744339
765.498768,7105.977043,-14508.036463,4749.792088
765.499092,6069.688724,-12361.439231,4596.572988
765.499416,3182.885551,-9548.656652,3524.039291
765.499740,0.000000,-7994.224174,383.047749
765.500064,-4145.153275,-6513.812290,-3447.429741
765.500389,-7476.080014,-3849.070898,-7967.393179
765.500713,-9844.739029,-7254.018232,-5286.058936
765.501037,-6957.935855,-12065.356855,-4596.572988
765.501361,-3330.926739,-11473.192101,-4519.963438
765.501685,-3256.906145,-8216.285956,689.485948
765.502009,-666.185348,-7402.059420,1225.752797
765.502333,2368.659014,-10288.862594,536.266849
765.502658,4515.256246,-11399.171507,2757.943793
765.502982,7846.182985,-10066.800811,4673.182538
765.503306,10510.924376,-11843.295072,5056.230287
765.503630,8734.430116,-13841.851115,4136.915689
765.503954,4663.297435,-9474.636058,2451.505594
765.504278,666.185348,-5995.668130,-1378.971896
765.504603,-4737.318029,-8216.285956,-4290.134789
765.504927,-8660.409521,-12213.398043,-6358.592633
765.505251,-8216.285956,-11399.171507,-6511.811733
765.505575,-5181.441594,-7846.182985,-4060.306139
765.505899,-2664.741391,-8216.285956,-1149.143247
765.506223,-592.164754,-9104.533087,-306.438199
765.506548,1554.432478,-8586.388927,842.705048
765.506872,3330.926739,-8512.368333,2068.457845
765.507196,4737.318029,-9400.615463,2681.334243
765.507520,5921.647536,-12287.418637,4213.525239
765.507844,6291.750507,-12287.418637,5056.230287
765.508168,6883.915261,-10658.965565,4366.744339
765.508492,3256.906145,-8956.491898,766.095498
765.508817,-2220.617826,-7328.038826,-4366.744339
765.509141,-7031.956449,-9918.759623,-4673.182538
765.509465,-6291.750507,-12287.418637,-4673.182538
765.509789,-4071.132681,-11325.150913,-5745.716235
765.510113,-4071.132681,-8512.368333,-2451.505594
765.510437,-1998.556043,-7476.080014,-306.438199
765.510762,518.144159,-8882.471304,-459.657299
765.511086,1850.514855,-9474.636058,306.438199
765.511410,3923.091493,-8068.244768,2681.334243
765.511734,6365.771101,-9992.780217,3753.867940
765.512058,7031.956449,-12879.583391,3217.601092
765.512382,5625.565159,-11029.068536,4903.011187
765.512706,3330.926739,-8734.430116,2068.457845
765.513031,-1332.370696,-7105.977043,-2068.457845
765.513355,-6883.915261,-9696.697840,-4749.792088
765.513679,-9474.636058,-11399.171507,-4519.963438
765.514003,-6513.812290,-10140.821405,-5515.887586
765.514327,-4589.276840,-10066.800811,-2681.334243
765.514651,-3256.906145,-9178.553681,229.828649
765.514976,-222.061783,-8660.409521,536.266849
765.515300,0.000000,-9178.553681,612.876398
765.515624,888.247130,-8734.430116,1762.019645
765.515948,2886.803174,-9770.718434,3140.991542
765.516272,5551.544565,-13027.624579,4519.963438
765.516596,6143.709319,-13767.830521,4596.572988
765.516920,4737.318029,-11399.171507,4136.915689
765.517245,1628.453072,-8882.471304,2987.772442
765.517569,-2220.617826,-6217.729913,-2451.505594
765.517893,-6069.688724,-6587.832884,-6128.763984
765.518217,-9770.718434,-9696.697840,-4366.744339
765.518541,-6735.874072,-11695.253884,-4673.182538
765.518865,-3627.009116,-10436.903782,-4213.525239
765.519190,-3849.070898,-7994.224174,1378.971896
765.519514,-518.144159,-7105.977043,1608.800546
765.519838,2294.638420,-8956.491898,1149.143247
765.520162,3478.967927,-9400.615463,2451.505594
765.520486,6365.771101,-9030.512492,4903.011187
765.520810,9474.636058,-11547.212695,5439.278036
765.521134,8512.368333,-13397.727550,4903.011187
765.521459,5329.482782,-10436.903782,4519.963438
765.521783,1184.329507,-6809.894666,0.000000
765.522107,-3775.050304,-7698.141797,-2681.334243
765.522431,-8660.409521,-11399.171507,-4826.401637
765.522755,-8808.450710,-11399.171507,-5898.935335
765.523079,-5181.441594,-8734.430116,-4213.525239
765.523404,-3182.885551,-8216.285956,-1072.533697
765.523728,-1332.370696,-8216.285956,0.000000
765.524052,148.041188,-8142.265362,153.219100
765.524376,2072.576638,-7994.224174,1532.190996
765.524700,3997.112087,-7772.162391,2834.553343
765.525024,5625.565159,-11103.089130,4519.963438
765.525349,6957.935855,-13397.727550,5515.887586
765.525673,6957.935855,-11991.336260,5132.839837
765.525997,4737.318029,-10066.800811,3524.039291
765.526321,-592.164754,-7328.038826,-2451.505594
765.526645,-5551.544565,-8438.347739,-4903.011187
765.526969,-7846.182985,-11547.212695,-3983.696590
765.527293,-4959.379811,-11621.233289,-5822.325785
765.527618,-3478.967927,-9326.594869,-4443.353888
765.527942,-3256.906145,-7698.141797,-766.095498
765.528266,-888.247130,-8068.244768,-842.705048
765.528590,888.247130,-9696.697840,-1072.533697
765.528914,2368.659014,-9178.553681,1608.800546
765.529238,5181.441594,-9178.553681,3447.429741
765.529563,7402.059420,-12435.459826,3294.210641
765.529887,6735.874072,-12953.603985,3677.258390
765.530211,4737.318029,-10807.006753,3753.867940
765.530535,1554.432478,-8808.450710,0.000000
765.530859,-3478.967927,-9548.656652,-3447.429741
765.531183,-7994.224174,-11325.150913,-4749.792088
765.531507,-7105.977043,-10140.821405,-5362.668486
765.531832,-4737.318029,-9400.615463,-4673.182538
765.532156,-4145.153275,-9696.697840,-2298.286494
765.532480,-2294.638420,-8586.388927,-766.095498
765.532804,-370.102971,-8586.388927,-919.314598
765.533128,740.205942,-8290.306550,919.314598
765.533452,2368.659014,-8808.450710,1991.848295
765.533777,4367.215058,-10436.903782,2987.772442
765.534101,5403.503377,-12509.480420,3677.258390
765.534425,4737.318029,-12509.480420,3907.087040
765.534749,3034.844362,-10658.965565,2834.553343
765.535073,222.061783,-7624.121203,-153.219100
765.535397,-3849.070898,-6291.750507,-4903.011187
765.535721,-7994.224174,-8660.409521,-4596.572988
765.536046,-7105.977043,-11029.068536,-4903.011187
765.536370,-3923.091493,-10214.842000,-4903.011187
765.536694,-3775.050304,-8216.285956,-536.266849
765.537018,-1850.514855,-7550.100608,689.485948
765.537342,1628.453072,-8734.430116,766.095498
765.537666,2738.761985,-9252.574275,1991.848295
765.537991,4293.194464,-8808.450710,3830.477490
765.538315,7105.977043,-10510.924376,4060.306139
765.538639,7550.100608,-12139.377449,3753.867940
765.538963,5477.523971,-10510.924376,4596.572988
765.539287,2886.803174,-7772.162391,1608.800546
765.539611,-888.247130,-7179.997637,-2451.505594
765.539935,-6735.874072,-9844.739029,-4673.182538
765.540260,-8808.450710,-11251.130318,-5362.668486
765.540584,-6217.729913,-9474.636058,-5745.716235
765.540908,-4589.276840,-8734.430116,-2681.334243
765.541232,-2368.659014,-8512.368333,0.000000
765.541556,518.144159,-8586.388927,306.438199
765.541880,2590.720797,-8956.491898,1838.629195
765.542205,3997.112087,-9252.574275,2911.162892
765.542529,5033.400406,-10510.924376,3830.477490
765.542853,6291.750507,-12879.583391,4596.572988
765.543177,6291.750507,-13101.645173,5132.839837
765.543501,5329.482782,-11325.150913,4213.525239
765.543825,1702.473667,-8956.491898,1608.800546
765.544150,-2146.597232,-7105.977043,-4443.353888
765.544474,-7031.956449,-9326.594869,-4903.011187
765.544798,-7698.141797,-11843.295072,-5286.058936
765.545122,-5403.503377,-10955.047942,-6511.811733
765.545446,-4885.359217,-9104.533087,-2221.676944
765.545770,-3034.844362,-7920.203579,-229.828649
765.546094,888.247130,-8882.471304,306.438199
765.546419,3182.885551,-9474.636058,1378.971896
765.546743,5255.462188,-8586.388927,3677.258390
765.547067,7328.038826,-10066.800811,4596.572988
765.547391,8512.368333,-12731.542202,3983.696590
765.547715,6365.771101,-11843.295072,4519.963438
765.548039,3923.091493,-9622.677246,3524.039291
765.548364,222.061783,-7920.203579,-766.095498
765.548688,-5255.462188,-9252.574275,-3677.258390
765.549012,-8808.450710,-10436.903782,-4979.620737
765.549336,-7105.977043,-9548.656652,-6128.763984
765.549660,-5181.441594,-9252.574275,-4213.525239
765.549984,-3849.070898,-8734.430116,-1072.533697
765.550308,-1628.453072,-7846.182985,0.000000
765.550633,0.000000,-8290.306550,383.047749
765.550957,1258.350101,-8142.265362,1762.019645
765.551281,2886.803174,-8734.430116,2145.067394
765.551605,4737.318029,-12139.377449,2987.772442
765.551929,5995.668130,-13619.789333,4290.134789
765.552253,5329.482782,-11917.315666,4443.353888
765.552578,3108.864956,-9622.677246,3370.820191
765.552902,-296.082377,-7920.203579,383.047749
765.553226,-4885.359217,-5921.647536,-5209.449386
765.553550,-8660.409521,-7772.162391,-5515.887586
765.553874,-8216.285956,-10955.047942,-4903.011187
765.554198,-4293.194464,-11325.150913,-4826.401637
765.554522,-2960.823768,-8956.491898,-1532.190996
765.554847,-1776.494261,-7402.059420,1532.190996
765.555171,1480.411884,-8216.285956,689.485948
765.555495,3108.864956,-9400.615463,612.876398
765.555819,4737.318029,-9326.594869,2221.676944
765.556143,7105.977043,-10510.924376,4596.572988
765.556467,8142.265362,-12805.562797,3524.039291
765.556792,6069.688724,-11399.171507,3217.601092
765.557116,2220.617826,-8438.347739,1302.362347
765.557440,-2516.700203,-9252.574275,-2221.676944
765.557764,-6883.915261,-11547.212695,-5132.839837
765.558088,-8734.430116,-11695.253884,-5592.497135
765.558412,-6661.853478,-9474.636058,-4060.306139
765.558736,-2960.823768,-8438.347739,-2374.896044
765.559061,-592.164754,-9844.739029,-229.828649
765.559385,518.144159,-8142.265362,919.314598
765.559709,2664.741391,-8216.285956,1991.848295
765.560033,3552.988522,-9252.574275,2374.896044
765.560357,4515.256246,-10807.006753,2987.772442
765.560681,5033.400406,-11843.295072,3907.087040
765.561006,5847.626942,-11399.171507,3524.039291
765.561330,4145.153275,-9474.636058,995.924147
765.561654,-370.102971,-9252.574275,-2298.286494
765.561978,-4589.276840,-10436.903782,-3217.601092
765.562302,-5181.441594,-11325.150913,-4903.011187
765.562626,-4885.359217,-11029.068536,-4673.182538
765.562951,-4367.215058,-8882.471304,-2451.505594
765.563275,-1924.535449,-7698.141797,-919.314598
765.563599,148.041188,-7994.224174,0.000000
765.563923,1998.556043,-8512.368333,536.266849
765.564247,4293.194464,-7550.100608,3140.991542
765.564571,6439.791695,-9104.533087,3677.258390
765.564895,6661.853478,-11621.233289,3600.648841
765.565220,5255.462188,-11547.212695,4596.572988
765.565544,4145.153275,-9770.718434,3217.601092
765.565868,1184.329507,-8512.368333,-306.438199
765.566192,-3923.091493,-9030.512492,-3370.820191
765.566516,-7994.224174,-9992.780217,-5056.230287
765.566840,-7031.956449,-10214.842000,-5209.449386
765.567165,-5921.647536,-10140.821405,-4443.353888
765.567489,-5403.503377,-9030.512492,-1378.971896
765.567813,-3256.906145,-8142.265362,-689.485948
765.568137,-1554.432478,-8290.306550,153.219100
765.568461,148.041188,-8364.327145,995.924147
765.568785,2960.823768,-8216.285956,2528.115143
765.569109,5921.647536,-11399.171507,3907.087040
765.569434,6809.894666,-13767.830521,4826.401637
765.569758,5477.523971,-12953.603985,4749.792088
765.570082,3256.906145,-10658.965565,4060.306139
765.570406,592.164754,-9326.594869,1915.238745
765.570730,-2738.761985,-7994.224174,-1838.629195
765.571054,-5847.626942,-5329.482782,-7048.078582
765.571379,-9400.615463,-7772.162391,-4903.011187
765.571703,-8438.347739,-11917.315666,-3447.429741
765.572027,-4589.276840,-11325.150913,-4903.011187
765.572351,-4441.235652,-8364.327145,0.000000
765.572675,-1850.514855,-6883.915261,1532.190996
765.572999,1850.514855,-9030.512492,536.266849
765.573323,3923.091493,-10881.027347,1991.848295
765.573650,6587.832884,-9696.697840,4290.134789
765.573974,8808.450710,-11621.233289,4826.401637
765.574298,8438.347739,-13471.748144,3983.696590
765.574622,4737.318029,-10140.821405,3370.820191
765.574946,1110.308913,-7031.956449,153.219100
765.575270,-3404.947333,-8734.430116,-2681.334243
765.575594,-7105.977043,-12139.377449,-5286.058936
765.575919,-7550.100608,-11547.212695,-5286.058936
765.576243,-5181.441594,-8068.244768,-3830.477490
765.576567,-2442.679609,-7698.141797,-1378.971896
765.576891,-1036.288319,-8290.306550,536.266849
765.577215,518.144159,-7772.162391,1378.971896
765.577539,2368.659014,-7772.162391,1532.190996
765.577863,3997.112087,-8956.491898,2451.505594
765.578187,5033.400406,-11029.068536,3677.258390
765.578512,6365.771101,-11991.336260,4443.353888
765.578836,6513.812290,-10436.903782,4596.572988
765.579160,3552.988522,-9770.718434,2604.724693
765.579484,-1554.432478,-7846.182985,-2987.772442
765.579808,-5477.523971,-8512.368333,-4826.401637
765.580132,-7402.059420,-11695.253884,-3983.696590
765.580456,-4071.132681,-11917.315666,-4826.401637
765.580780,-2664.741391,-9252.574275,-3217.601092
765.581105,-3108.864956,-7105.977043,842.705048
765.581429,592.164754,-8216.285956,842.705048
765.581753,2294.638420,-9548.656652,153.219100
765.582077,3552.988522,-8364.327145,1838.629195
765.582401,5773.606348,-8660.409521,3370.820191
765.582725,7846.182985,-11843.295072,3217.601092
765.583049,6883.915261,-11621.233289,3294.210641
765.583373,3330.926739,-8734.430116,2681.334243
765.583698,-1110.308913,-7920.203579,-689.485948
765.584022,-6143.709319,-10288.862594,-4596.572988
765.584346,-9030.512492,-11769.274478,-5515.887586
765.584670,-7846.182985,-9696.697840,-5822.325785
765.584994,-5033.400406,-9104.533087,-3907.087040
765.585318,-3330.926739,-9474.636058,-995.924147
765.585642,-1332.370696,-8734.430116,0.000000
765.585966,74.020594,-8734.430116,306.438199
765.586291,1258.350101,-8438.347739,1072.533697
765.586615,3256.906145,-10362.883188,2681.334243
765.586939,5847.626942,-12805.562797,3600.648841
765.587263,7402.059420,-13027.624579,4366.744339
765.587587,5625.565159,-11695.253884,4443.353888
765.587911,2738.761985,-10510.924376,2298.286494
765.588235,-740.205942,-9326.594869,-459.657299
765.588560,-4737.318029,-5477.523971,-6665.030833
765.588884,-8660.409521,-6661.853478,-6894.859482
765.589208,-9622.677246,-11103.089130,-4903.011187
765.589532,-4663.297435,-11917.315666,-6358.592633
765.589856,-3182.885551,-9252.574275,-1608.800546
765.590180,-2220.617826,-7476.080014,1608.800546
765.590504,2294.638420,-7772.162391,383.047749
765.590828,3775.050304,-9474.636058,1455.581446
765.591153,5847.626942,-9178.553681,3140.991542
765.591477,9104.533087,-10510.924376,5362.668486
765.591801,9992.780217,-13767.830521,4673.182538
765.592125,6661.853478,-12287.418637,4596.572988
765.592449,2738.761985,-7846.182985,2604.724693
765.592773,-2220.617826,-5699.585753,-2757.943793
765.593097,-7550.100608,-8438.347739,-6128.763984
765.593421,-11325.150913,-11695.253884,-6128.763984
765.593746,-7328.038826,-9992.780217,-6435.202183
765.594070,-3849.070898,-8438.347739,-2757.943793
765.594394,-2664.741391,-8216.285956,0.000000
765.594718,-296.082377,-7476.080014,689.485948
765.595042,2072.576638,-8586.388927,1302.362347
765.595366,3775.050304,-8586.388927,1762.019645
765.595690,5403.503377,-10288.862594,4596.572988
765.596014,7105.977043,-13249.686362,5362.668486
765.596339,7550.100608,-12805.562797,5898.935335
765.596663,5699.585753,-10362.883188,4519.963438
765.596987,1036.288319,-8808.450710,1455.581446
765.597311,-4293.194464,-7105.977043,-4826.401637
765.597635,-8586.388927,-9622.677246,-5209.449386
765.597959,-8512.368333,-11325.150913,-4366.744339
765.598283,-4219.173869,-9770.718434,-4826.401637
765.598607,-2960.823768,-8512.368333,-919.314598
765.598932,-2442.679609,-7105.977043,1455.581446
765.599256,740.205942,-8216.285956,0.000000
765.599580,2368.659014,-9326.594869,919.314598
765.599904,4145.153275,-8882.471304,3140.991542
765.600228,6735.874072,-11103.089130,4903.011187
765.600552,8290.306550,-13101.645173,4519.963438
765.600876,6143.709319,-10955.047942,4213.525239
765.601201,2294.638420,-8734.430116,1532.190996
765.601525,-2590.720797,-8808.450710,-2221.676944
765.601849,-7105.977043,-11251.130318,-4903.011187
765.602173,-8512.368333,-11769.274478,-4903.011187
765.602497,-5995.668130,-9252.574275,-4366.744339
765.602821,-3404.947333,-8808.450710,-1225.752797
765.603145,-1924.535449,-9104.533087,0.000000
765.603469,-592.164754,-8142.265362,612.876398
765.603794,444.123565,-8290.306550,995.924147
765.604118,2442.679609,-8808.450710,1838.629195
765.604442,4367.215058,-11103.089130,3600.648841
765.604766,5847.626942,-12435.459826,4366.744339
765.605090,6291.750507,-11325.150913,4136.915689
765.605414,3627.009116,-10214.842000,3140.991542
765.605738,0.000000,-8660.409521,0.000000
765.606062,-3923.091493,-6661.853478,-5515.887586
765.606387,-7624.121203,-8660.409521,-5362.668486
765.606711,-7550.100608,-11473.192101,-4443.353888
765.607035,-4145.153275,-11029.068536,-5515.887586
765.607359,-3330.926739,-8808.450710,-1762.019645
765.607683,-1998.556043,-7624.121203,1378.971896
765.608007,814.226536,-8734.430116,0.000000
765.608331,2738.761985,-9474.636058,536.266849
765.608655,4663.297435,-8808.450710,2911.162892
765.608980,7698.141797,-10807.006753,4673.182538
765.609304,8438.347739,-13545.768739,4290.134789
765.609628,5847.626942,-11843.295072,4136.915689
765.609952,2294.638420,-8512.368333,2451.505594
765.610276,-2220.617826,-5995.668130,-3064.381992
765.610600,-6883.915261,-8216.285956,-6128.763984
765.610924,-10214.842000,-10881.027347,-5592.497135
765.611249,-7179.997637,-10436.903782,-6435.202183
765.611573,-3701.029710,-9474.636058,-4060.306139
765.611897,-3108.864956,-9104.533087,-229.828649
765.612221,-592.164754,-8068.244768,459.657299
765.612545,1480.411884,-8882.471304,459.657299
765.612869,2960.823768,-9030.512492,1991.848295
765.613193,5921.647536,-10436.903782,4136.915689
765.613517,8142.265362,-14211.954086,5056.230287
765.613842,7920.203579,-14285.974681,5362.668486
765.614166,5551.544565,-11325.150913,4290.134789
765.614490,1554.432478,-9252.574275,2451.505594
765.614814,-2960.823768,-6291.750507,-3370.820191
765.615138,-7254.018232,-7254.018232,-6894.859482
765.615462,-9622.677246,-10584.944971,-4903.011187
765.615786,-5699.585753,-10510.924376,-5515.887586
765.616110,-3256.906145,-9326.594869,-4213.525239
765.616435,-3552.988522,-7624.121203,689.485948
765.616759,-518.144159,-7476.080014,229.828649
765.617083,2516.700203,-8586.388927,229.828649
765.617407,3701.029710,-9252.574275,2221.676944
765.617731,7031.956449,-9918.759623,5132.839837
765.618055,9770.718434,-12139.377449,4519.963438
765.618379,8734.430116,-12953.603985,4366.744339
765.618703,4589.276840,-9770.718434,3064.381992
765.619028,-148.041188,-7846.182985,-536.266849
765.619352,-5107.421000,-9770.718434,-3600.648841
765.619676,-8734.430116,-11769.274478,-4979.620737
765.620000,-8438.347739,-10140.821405,-5515.887586
765.620324,-5181.441594,-8512.368333,-3140.991542
765.620648,-3404.947333,-8734.430116,-1378.971896
765.620972,-1776.494261,-8364.327145,-153.219100
765.621296,-148.041188,-7994.224174,536.266849
765.621621,1776.494261,-8216.285956,1302.362347
765.621945,3552.988522,-9622.677246,3064.381992
765.622269,4737.318029,-12583.501014,4979.620737
765.622593,6587.832884,-13027.624579,5056.230287
765.622917,5477.523971,-11103.089130,3907.087040
765.623241,2294.638420,-9770.718434,2451.505594
765.623565,-1924.535449,-7402.059420,-2451.505594
765.623890,-5033.400406,-6661.853478,-6128.763984
765.624214,-7994.224174,-10436.903782,-4060.306139
765.624538,-5477.523971,-12287.418637,-3830.477490
765.624862,-2738.761985,-10066.800811,-3753.867940
765.625186,-3182.885551,-7772.162391,536.266849
765.625510,-1258.350101,-7772.162391,766.095498
765.625834,1702.473667,-9474.636058,-76.609550
765.626158,3256.906145,-9474.636058,1991.848295
765.626483,5847.626942,-9474.636058,3677.258390
765.626807,8216.285956,-12509.480420,4749.792088
765.627131,7476.080014,-13323.706956,4060.306139
765.627455,4515.256246,-9770.718434,3907.087040
765.627779,222.061783,-7105.977043,383.047749
765.628103,-4441.235652,-7254.018232,-4903.011187
765.628427,-9400.615463,-10881.027347,-6205.373534
765.628751,-9030.512492,-11399.171507,-6128.763984
765.629076,-4811.338623,-9770.718434,-4596.572988
765.629400,-2960.823768,-9548.656652,-1225.752797
765.629724,-1554.432478,-9030.512492,0.000000
765.630048,0.000000,-8216.285956,919.314598
765.630372,1480.411884,-8142.265362,1608.800546
765.630696,3775.050304,-8808.450710,2757.943793
765.631020,5847.626942,-11991.336260,4826.401637
765.631344,7846.182985,-14211.954086,5515.887586
765.631669,7698.141797,-12065.356855,5822.325785
765.631993,5107.421000,-8956.491898,4060.306139
765.632317,444.123565,-7550.100608,1302.362347
765.632641,-4737.318029,-4737.318029,-5362.668486
765.632965,-8586.388927,-6291.750507,-7814.174080
765.633289,-10362.883188,-10214.842000,-4749.792088
765.633613,-5403.503377,-11843.295072,-6052.154434
765.633938,-2664.741391,-9770.718434,-3600.648841
765.634262,-2590.720797,-7846.182985,2068.457845
765.634586,1628.453072,-7402.059420,842.705048
765.634910,4367.215058,-9844.739029,1455.581446
765.635234,5403.503377,-10362.883188,2987.772442
765.635558,8216.285956,-10140.821405,5209.449386
765.635882,10362.883188,-12953.603985,5209.449386
765.636206,8512.368333,-12953.603985,4519.963438
765.636531,4071.132681,-9104.533087,4213.525239
765.636855,-1110.308913,-6587.832884,-842.705048
765.637179,-6513.812290,-7846.182985,-5362.668486
765.637503,-11695.253884,-11695.253884,-6435.202183
765.637827,-9844.739029,-11325.150913,-6128.763984
765.638151,-4589.276840,-9178.553681,-4136.915689
765.638475,-3034.844362,-8956.491898,-459.657299
765.638799,-1628.453072,-8142.265362,689.485948
765.639124,148.041188,-8586.388927,919.314598
765.639448,2220.617826,-9474.636058,383.047749
765.639772,3478.967927,-9770.718434,3294.210641
765.640096,5403.503377,-13471.748144,4213.525239
765.640420,7846.182985,-13545.768739,4749.792088
765.640744,6809.894666,-10955.047942,4673.182538
765.641068,2738.761985,-9474.636058,2528.115143
765.641392,-2146.597232,-7994.224174,-842.705048
765.641717,-6143.709319,-6513.812290,-7431.126331
765.642041,-9770.718434,-9326.594869,-5669.106685
765.642365,-7994.224174,-11325.150913,-3830.477490
765.642689,-2738.761985,-10881.027347,-4749.792088
765.643013,-2812.782580,-9400.615463,-766.095498
765.643337,-1554.432478,-7550.100608,1608.800546
765.643661,1776.494261,-8956.491898,0.000000
765.643985,3256.906145,-9844.739029,1149.143247
765.644310,4959.379811,-9474.636058,2451.505594
765.644634,8290.306550,-10807.006753,4519.963438
765.644958,9474.636058,-12583.501014,3907.087040
765.645282,5551.544565,-10140.821405,3294.210641
765.645606,148.041188,-6439.791695,229.828649
765.645930,-4885.359217,-7254.018232,-3830.477490
765.646254,-8734.430116,-11251.130318,-6052.154434
765.646579,-8808.450710,-11769.274478,-5822.325785
765.646903,-5181.441594,-9474.636058,-4443.353888
765.647227,-1628.453072,-8734.430116,-1149.143247
765.647551,0.000000,-8882.471304,76.609550
765.647875,962.267725,-8660.409521,1762.019645
765.648199,1850.514855,-8586.388927,1455.581446
765.648523,3478.967927,-9474.636058,2451.505594
765.648847,4589.276840,-11917.315666,3907.087040
765.649172,6217.729913,-13175.665768,4673.182538
765.649496,6661.853478,-10955.047942,4213.525239
765.649820,3997.112087,-9252.574275,2987.772442
765.650144,-740.205942,-7031.956449,-1762.019645
765.650468,-5329.482782,-5551.544565,-6818.249932
765.650792,-9326.594869,-9770.718434,-5286.058936
765.651116,-7328.038826,-12213.398043,-4749.792088
765.651440,-3256.906145,-10658.965565,-4826.401637
765.651765,-2960.823768,-8586.388927,153.219100
765.652089,0.000000,-7476.080014,1838.629195
765.652413,3034.844362,-9178.553681,536.266849
765.652737,4219.173869,-9474.636058,2145.067394
765.653061,5921.647536,-8882.471304,3983.696590
765.653385,7994.224174,-11621.233289,4979.620737
765.653709,7772.162391,-13693.809927,4673.182538
765.654033,4885.359217,-10436.903782,4060.306139
765.654358,962.267725,-7402.059420,2374.896044
765.654682,-3478.967927,-6365.771101,-3983.696590
765.655006,-9030.512492,-9474.636058,-6358.592633
765.655330,-10584.944971,-10732.986159,-4979.620737
765.655654,-5773.606348,-9696.697840,-5056.230287
765.655978,-3108.864956,-9696.697840,-1915.238745
765.656302,-2368.659014,-9030.512492,919.314598
765.656627,-296.082377,-8438.347739,995.924147
765.656951,1258.350101,-9104.533087,1608.800546
765.657275,2442.679609,-9400.615463,1838.629195
765.657599,4515.256246,-10807.006753,5056.230287
765.657923,6661.853478,-13175.665768,5056.230287
765.658247,6883.915261,-13027.624579,4596.572988
765.658571,3923.091493,-10214.842000,3677.258390
765.658895,0.000000,-7846.182985,919.314598
765.659220,-4367.215058,-6143.709319,-5745.716235
765.659544,-8734.430116,-9474.636058,-6128.763984
765.659868,-8734.430116,-11399.171507,-5056.230287
765.660192,-3256.906145,-10288.862594,-5286.058936
765.660516,-2146.597232,-9326.594869,-1378.971896
765.660840,-1776.494261,-8068.244768,1225.752797
765.661164,1036.288319,-8142.265362,76.609550
765.661488,2960.823768,-8956.491898,995.924147
765.661813,4071.132681,-8882.471304,2451.505594
765.662137,7031.956449,-10658.965565,4366.744339
765.662461,8660.409521,-12731.542202,4826.401637
765.662785,6957.935855,-11695.253884,4366.744339
765.663109,2960.823768,-8956.491898,1532.190996
765.663433,-1850.514855,-7994.224174,-2221.676944
765.663757,-6439.791695,-10288.862594,-4903.011187
765.664081,-8216.285956,-11769.274478,-5362.668486
765.664406,-6217.729913,-9770.718434,-4903.011187
765.664730,-3701.029710,-8660.409521,-2604.724693
765.665054,-1702.473667,-8734.430116,-459.657299
765.665378,-222.061783,-8512.368333,153.219100
765.665702,1332.370696,-8364.327145,766.095498
765.666026,2812.782580,-8216.285956,1838.629195
765.666350,3552.988522,-9844.739029,3600.648841
765.666674,5477.523971,-12657.521608,4366.744339
765.666999,6069.688724,-12805.562797,4826.401637
765.667323,4441.235652,-10584.944971,3524.039291
765.667647,592.164754,-9548.656652,1762.019645
765.667971,-3108.864956,-7031.956449,-3983.696590
765.668295,-6883.915261,-7698.141797,-4979.620737
765.668619,-7698.141797,-10955.047942,-3753.867940
765.668943,-4663.297435,-11769.274478,-4366.744339
765.669268,-2590.720797,-9474.636058,-2298.286494
765.669592,-1776.494261,-7550.100608,1838.629195
765.669916,814.226536,-8142.265362,1225.752797
765.670240,2664.741391,-9474.636058,842.705048
765.670564,4145.153275,-9178.553681,2451.505594
765.670888,5847.626942,-9844.739029,4443.353888
765.671212,7698.141797,-12287.418637,3677.258390
765.671536,5551.544565,-11399.171507,3830.477490
765.671861,1850.514855,-8512.368333,1838.629195
765.672185,-1998.556043,-7994.224174,-1455.581446
765.672509,-6587.832884,-9918.759623,-3907.087040
765.672833,-8512.368333,-11547.212695,-4903.011187
765.673157,-7105.977043,-9400.615463,-4826.401637
765.673481,-4515.256246,-8290.306550,-2451.505594
765.673805,-1406.391290,-9400.615463,-383.047749
765.674129,0.000000,-8438.347739,919.314598
765.674453,1702.473667,-8290.306550,1608.800546
765.674777,3330.926739,-8660.409521,2298.286494
765.675101,4367.215058,-10584.944971,3217.601092
765.675425,5403.503377,-12287.418637,4443.353888
765.675749,5773.606348,-12139.377449,4290.134789
765.676073,5033.400406,-11325.150913,3217.601092
765.676397,1036.288319,-8364.327145,0.000000
765.676721,-2812.782580,-6439.791695,-4749.792088
765.677046,-7328.038826,-8956.491898,-5132.839837
765.677370,-7772.162391,-11769.274478,-4903.011187
765.677694,-4663.297435,-10807.006753,-5669.106685
765.678018,-4219.173869,-8734.430116,-1991.848295
765.678342,-2294.638420,-7476.080014,0.000000
765.678666,962.267725,-8882.471304,536.266849
765.678990,2886.803174,-9474.636058,383.047749
765.679314,4589.276840,-8512.368333,2911.162892
765.679638,7105.977043,-11029.068536,4213.525239
765.679962,7772.162391,-13693.809927,3907.087040
765.680286,6143.709319,-11843.295072,4290.134789
765.680610,4071.132681,-9548.656652,3064.381992
765.680934,0.000000,-7179.997637,-1378.971896
765.681258,-5181.441594,-8438.347739,-5132.839837
765.681582,-8734.430116,-10362.883188,-5209.449386
765.681906,-7105.977043,-10066.800811,-6128.763984
765.682230,-4885.359217,-9770.718434,-4673.182538
765.682554,-4293.194464,-9400.615463,-1455.581446
765.682878,-1480.411884,-8216.285956,-612.876398
765.683202,222.061783,-8660.409521,-153.219100
765.683526,2368.659014,-8586.388927,1532.190996
765.683850,4219.173869,-8808.450710,3140.991542
765.684174,6735.874072,-12435.459826,4443.353888
765.684498,6735.874072,-14063.912898,4903.011187
765.684822,4959.379811,-11917.315666,4443.353888
765.685146,2516.700203,-9770.718434,2757.943793
765.685470,-1702.473667,-7105.977043,-1149.143247
765.685794,-5181.441594,-7179.997637,-6281.983084
765.686118,-8882.471304,-9400.615463,-5439.278036
765.686442,-6439.791695,-10288.862594,-5209.449386
765.686766,-2812.782580,-10214.842000,-4519.963438
765.687090,-2886.803174,-8586.388927,-229.828649
765.687414,-518.144159,-7476.080014,383.047749
765.687738,2072.576638,-8734.430116,0.000000
765.688062,3627.009116,-9622.677246,1378.971896
765.688386,5773.606348,-10214.842000,3983.696590
765.688710,8438.347739,-11621.233289,4443.353888
765.689034,8660.409521,-12509.480420,4213.525239
765.689358,4959.379811,-10436.903782,3447.429741
765.689682,1110.308913,-8586.388927,459.657299
765.690006,-3108.864956,-9400.615463,-2681.334243
765.690330,-7328.038826,-11695.253884,-4903.011187
765.690654,-8660.409521,-10362.883188,-4903.011187
765.690978,-6291.750507,-8808.450710,-3983.696590
765.691302,-2960.823768,-8882.471304,-1608.800546
765.691626,-1628.453072,-8734.430116,306.438199
765.691950,74.020594,-8068.244768,1149.143247
765.692274,1776.494261,-8068.244768,1915.238745
765.692598,3478.967927,-9326.594869,2757.943793
765.692922,4737.318029,-11621.233289,4136.915689
765.693247,5847.626942,-12657.521608,5132.839837
765.693571,5551.544565,-11621.233289,4749.792088
765.693895,2738.761985,-10140.821405,2451.505594
765.694219,-1184.329507,-7476.080014,-2298.286494
765.694543,-4885.359217,-7772.162391,-4749.792088
765.694867,-7402.059420,-11103.089130,-3677.258390
765.695191,-5551.544565,-12583.501014,-4443.353888
765.695515,-3923.091493,-10066.800811,-3370.820191
765.695839,-3997.112087,-8142.265362,383.047749
765.696163,-1628.453072,-7994.224174,612.876398
765.696487,592.164754,-9252.574275,1225.752797
765.696811,3256.906145,-8660.409521,2451.505594
765.697135,5773.606348,-8956.491898,4213.525239
765.697459,7254.018232,-12213.398043,4749.792088
765.697783,6883.915261,-12953.603985,5439.278036
765.698107,4959.379811,-9622.677246,4443.353888
765.698431,1776.494261,-7920.203579,2911.162892
765.698755,-3330.926739,-6069.688724,-3983.696590
765.699079,-8290.306550,-7105.977043,-6971.469032
765.699403,-10807.006753,-9696.697840,-5439.278036
765.699727,-6291.750507,-11325.150913,-4979.620737
765.700051,-2960.823768,-11177.109724,-3753.867940
765.700375,-3256.906145,-8586.388927,612.876398
765.700699,-518.144159,-7624.121203,1149.143247
765.701023,1628.453072,-9400.615463,919.314598
765.701347,3108.864956,-9622.677246,2528.115143
765.701671,5699.585753,-9844.739029,4749.792088
765.701995,8882.471304,-13545.768739,5822.325785
765.702319,8882.471304,-14508.036463,5362.668486
765.702643,6143.709319,-11029.068536,4443.353888
765.702967,1406.391290,-7698.141797,3217.601092
765.703291,-3404.947333,-6365.771101,-2374.896044
765.703615,-7994.224174,-6809.894666,-8656.879127
765.703939,-11695.253884,-9030.512492,-6435.202183
765.704263,-7772.162391,-10436.903782,-5056.230287
765.704587,-2294.638420,-11029.068536,-5056.230287
765.704911,-2220.617826,-9104.533087,0.000000
765.705235,296.082377,-6883.915261,1455.581446
765.705559,3108.864956,-8956.491898,-383.047749
765.705883,4663.297435,-11103.089130,1149.143247
765.706207,6365.771101,-10140.821405,4060.306139
765.706531,10066.800811,-11843.295072,5132.839837
765.706855,10140.821405,-13619.789333,4290.134789
765.707179,5033.400406,-10881.027347,2911.162892
765.707503,-296.082377,-7624.121203,0.000000
765.707827,-4515.256246,-8882.471304,-3907.087040
765.708151,-9400.615463,-11547.212695,-6894.859482
765.708475,-9696.697840,-11029.068536,-5898.935335
765.708799,-6513.812290,-7846.182985,-4903.011187
765.709124,-3108.864956,-7772.162391,-2068.457845
765.709448,-1332.370696,-8586.388927,0.000000
765.709772,444.123565,-8068.244768,306.438199
765.710096,2072.576638,-7698.141797,1072.533697
765.710420,3627.009116,-9622.677246,1991.848295
765.710744,4663.297435,-11991.336260,3217.601092
765.711068,6069.688724,-12657.521608,4290.134789
765.711392,5995.668130,-11621.233289,3600.648841
765.711716,2664.741391,-10214.842000,2145.067394
765.712040,-1998.556043,-7328.038826,-3677.258390
765.712364,-5847.626942,-7550.100608,-5745.716235
765.712688,-7920.203579,-11251.130318,-4443.353888
765.713012,-4737.318029,-11991.336260,-4903.011187
765.713336,-2738.761985,-9918.759623,-2834.553343
765.713660,-2664.741391,-7698.141797,612.876398
765.713984,-666.185348,-8364.327145,689.485948
765.714308,1258.350101,-9770.718434,459.657299
765.714632,3552.988522,-8956.491898,2298.286494
765.714956,5995.668130,-9178.553681,3830.477490
765.715280,8068.244768,-11695.253884,4136.915689
765.715604,6883.915261,-11991.336260,4213.525239
765.715928,4367.215058,-8956.491898,2834.553343
765.716252,-148.041188,-6439.791695,-1225.752797
765.716576,-5551.544565,-7846.182985,-5056.230287
765.716900,-9696.697840,-11325.150913,-5975.544884
765.717224,-7254.018232,-11177.109724,-6435.202183
765.717548,-3701.029710,-9548.656652,-3370.820191
765.717872,-1702.473667,-9548.656652,306.438199
765.718196,148.041188,-8808.450710,1455.581446
765.718520,1406.391290,-9030.512492,1685.410096
765.718844,2368.659014,-8660.409521,2451.505594
765.719168,4293.194464,-9400.615463,3447.429741
765.719492,5847.626942,-12287.418637,4903.011187
765.719816,7105.977043,-13767.830521,5898.935335
765.720140,6143.709319,-11621.233289,5362.668486
765.720464,2812.782580,-9474.636058,2987.772442
765.720788,-1332.370696,-7105.977043,0.000000
765.721112,-5995.668130,-4737.318029,-7277.907231
765.721436,-10214.842000,-7179.997637,-6511.811733
765.721760,-9474.636058,-11399.171507,-4290.134789
765.722084,-4145.153275,-11547.212695,-5056.230287
765.722408,-2738.761985,-9104.533087,-383.047749
765.722732,-1036.288319,-7476.080014,2681.334243
765.723056,2516.700203,-8364.327145,1608.800546
765.723380,3923.091493,-10066.800811,2528.115143
765.723704,5551.544565,-9326.594869,3600.648841
765.724028,8142.265362,-10658.965565,5898.935335
765.724352,9178.553681,-13915.871710,5132.839837
765.724676,5921.647536,-11917.315666,4673.182538
765.725000,1702.473667,-8364.327145,3677.258390
765.725325,-2516.700203,-6513.812290,-536.266849
765.725649,-7105.977043,-7105.977043,-6818.249932
765.725973,-11917.315666,-9400.615463,-6281.983084
765.726297,-10436.903782,-9696.697840,-4596.572988
765.726621,-4589.276840,-9992.780217,-4060.306139
765.726945,-3034.844362,-9696.697840,-153.219100
765.727269,-1554.432478,-7772.162391,1991.848295
765.727593,1480.411884,-8808.450710,1685.410096
765.727917,3108.864956,-9696.697840,1532.190996
765.728241,4737.318029,-9918.759623,2987.772442
765.728565,6587.832884,-11843.295072,5286.058936
765.728889,8586.388927,-13175.665768,4749.792088
765.729213,6513.812290,-11843.295072,3830.477490
765.729537,1776.494261,-8586.388927,1762.019645
765.729861,-3034.844362,-5921.647536,-4060.306139
765.730185,-8216.285956,-9474.636058,-6205.373534
765.730509,-9622.677246,-12583.501014,-5286.058936
765.730833,-5847.626942,-9918.759623,-6281.983084
765.731157,-2442.679609,-8364.327145,-2298.286494
765.731481,-1406.391290,-7994.224174,536.266849
765.731805,1036.288319,-8586.388927,153.219100
765.732129,3034.844362,-9030.512492,1072.533697
765.732453,4663.297435,-8808.450710,1762.019645
765.732777,6143.709319,-10955.047942,2834.553343
765.733101,7698.141797,-12657.521608,3064.381992
765.733425,7254.018232,-11029.068536,3677.258390
765.733749,4441.235652,-8882.471304,1225.752797
765.734073,-962.267725,-8290.306550,-2451.505594
765.734397,-5995.668130,-10288.862594,-5209.449386
765.734721,-7624.121203,-11621.233289,-6435.202183
765.735045,-6291.750507,-10140.821405,-5362.668486
765.735369,-3256.906145,-9326.594869,-2834.553343
765.735693,-1480.411884,-8364.327145,-1149.143247
765.736017,148.041188,-8586.388927,459.657299
765.736341,1406.391290,-8438.347739,766.095498
765.736665,3108.864956,-8660.409521,1532.190996
765.736989,4589.276840,-10362.883188,2911.162892
765.737313,5403.503377,-12509.480420,4060.306139
765.737637,5477.523971,-12287.418637,3907.087040
765.737961,3997.112087,-10214.842000,3064.381992
765.738285,814.226536,-9400.615463,1762.019645
765.738609,-3478.967927,-6661.853478,-2911.162892
765.738933,-6439.791695,-5699.585753,-7584.345430
765.739257,-9474.636058,-9252.574275,-5515.887586
765.739581,-7328.038826,-12139.377449,-4673.182538
765.739905,-3330.926739,-11547.212695,-4749.792088
765.740229,-2812.782580,-8808.450710,76.609550
765.740553,-296.082377,-8142.265362,1378.971896
765.740877,2738.761985,-9992.780217,1225.752797
765.741201,4367.215058,-10658.965565,2145.067394
765.741526,6587.832884,-9992.780217,3830.477490
765.741850,8364.327145,-11843.295072,4903.011187
765.742174,7402.059420,-13471.748144,3830.477490
765.742498,3775.050304,-10436.903782,3600.648841
765.742822,0.000000,-7550.100608,1991.848295
765.743146,-4737.318029,-6217.729913,-3830.477490
765.743470,-9548.656652,-8586.388927,-6665.030833
765.743794,-12065.356855,-10584.944971,-5439.278036
765.744118,-7105.977043,-9918.759623,-4979.620737
765.744442,-3034.844362,-9844.739029,-1991.848295
765.744766,-1850.514855,-8956.491898,1838.629195
765.745090,888.247130,-8438.347739,2451.505594
765.745414,3182.885551,-9326.594869,2298.286494
765.745738,4367.215058,-9622.677246,2374.896044
765.746062,5625.565159,-11103.089130,4979.620737
765.746386,7624.121203,-13101.645173,5515.887586
765.746710,7550.100608,-12435.459826,4903.011187
765.747034,4367.215058,-9844.739029,3753.867940
765.747358,-222.061783,-6587.832884,-689.485948
765.747682,-4663.297435,-6439.791695,-4519.963438
765.748006,-9178.553681,-11251.130318,-4596.572988
765.748330,-7994.224174,-11399.171507,-4519.963438
765.748654,-4293.194464,-8882.471304,-3753.867940
765.748978,-2812.782580,-7772.162391,383.047749
765.749302,0.000000,-7772.162391,1762.019645
765.749626,2516.700203,-8438.347739,2145.067394
765.749950,5033.400406,-8068.244768,2298.286494
765.750274,5847.626942,-8586.388927,4979.620737
765.750598,7254.018232,-11177.109724,4903.011187
765.750922,7698.141797,-11843.295072,4366.744339
765.751246,5699.585753,-9844.739029,3753.867940
765.751570,962.267725,-8364.327145,459.657299
765.751894,-3997.112087,-9474.636058,-2987.772442
765.752218,-7179.997637,-11621.233289,-4749.792088
765.752542,-7179.997637,-10955.047942,-6435.202183
765.752866,-5033.400406,-9400.615463,-4060.306139
765.753190,-3256.906145,-8808.450710,-1762.019645
765.753514,-1332.370696,-8882.471304,0.000000
765.753838,0.000000,-8882.471304,842.705048
765.754162,1628.453072,-8512.368333,1378.971896
765.754486,3256.906145,-9474.636058,2451.505594
765.754810,4515.256246,-11843.295072,3600.648841
765.755134,5551.544565,-12583.501014,4443.353888
765.755458,5995.668130,-11473.192101,3907.087040
765.755782,2738.761985,-10362.883188,2604.724693
765.756106,-962.267725,-8808.450710,0.000000
765.756430,-4663.297435,-5403.503377,-6665.030833
765.756754,-7846.182985,-7476.080014,-6281.983084
765.757078,-8290.306550,-11769.274478,-4366.744339
765.757402,-4145.153275,-11843.295072,-6281.983084
765.757727,-2516.700203,-9030.512492,-1838.629195
765.758051,-2072.576638,-7920.203579,1225.752797
765.758375,1850.514855,-8660.409521,229.828649
765.758699,3627.009116,-10288.862594,689.485948
765.759023,4885.359217,-9326.594869,2298.286494
765.759347,7328.038826,-10362.883188,4749.792088
765.759671,8438.347739,-13619.789333,3524.039291
765.759995,5625.565159,-12953.603985,3524.039291
765.760319,1850.514855,-8734.430116,2374.896044
765.760643,-2368.659014,-6291.750507,-3140.991542
765.760967,-8216.285956,-9474.636058,-6205.373534
765.761291,-11103.089130,-11917.315666,-6281.983084
765.761615,-7402.059420,-10140.821405,-6281.983084
765.761939,-3775.050304,-8956.491898,-3140.991542
765.762263,-1776.494261,-8290.306550,459.657299
765.762587,296.082377,-7328.038826,1149.143247
765.762911,2294.638420,-7772.162391,1455.581446
765.763235,3552.988522,-8216.285956,1608.800546
765.763559,4737.318029,-10807.006753,3753.867940
765.763883,6365.771101,-13693.809927,4443.353888
765.764207,6735.874072,-12583.501014,4596.572988
765.764531,4811.338623,-9844.739029,4060.306139
765.764855,888.247130,-7846.182985,1838.629195
765.765179,-4071.132681,-5033.400406,-5669.106685
765.765503,-8808.450710,-8068.244768,-6435.202183
765.765827,-9474.636058,-11399.171507,-4366.744339
765.766151,-4515.256246,-10732.986159,-6205.373534
765.766475,-2812.782580,-8660.409521,-1762.019645
765.766799,-1924.535449,-6957.935855,2374.896044
765.767123,2220.617826,-8290.306550,612.876398
765.767447,3108.864956,-9474.636058,76.609550
765.767771,4811.338623,-8882.471304,2068.457845
765.768095,7624.121203,-10436.903782,4826.401637
765.768419,9918.759623,-13249.686362,4519.963438
765.768743,7624.121203,-12213.398043,4290.134789
765.769067,3256.906145,-8512.368333,2145.067394
765.769391,-2146.597232,-6883.915261,-3064.381992
765.769715,-7254.018232,-10658.965565,-6205.373534
765.770039,-10066.800811,-11917.315666,-6665.030833
765.770363,-6661.853478,-9622.677246,-6128.763984
765.770687,-3330.926739,-8438.347739,-2604.724693
765.771011,-1110.308913,-9252.574275,-153.219100
765.771335,370.102971,-8956.491898,0.000000
765.771659,1850.514855,-8660.409521,766.095498
765.771983,3330.926739,-8438.347739,1762.019645
765.772307,4959.379811,-11029.068536,3600.648841
765.772631,6291.750507,-13471.748144,4290.134789
765.772955,6957.935855,-12657.521608,5132.839837
765.773279,5699.585753,-11325.150913,3753.867940
765.773604,1184.329507,-9770.718434,1455.581446
765.773928,-3478.967927,-6735.874072,-5132.839837
765.774252,-7920.203579,-7550.100608,-6358.592633
765.774576,-9326.594869,-10436.903782,-4290.134789
765.774900,-5255.462188,-11103.089130,-5822.325785
765.775224,-3701.029710,-9252.574275,-2604.724693
765.775548,-3182.885551,-7105.977043,766.095498
765.775872,0.000000,-8216.285956,383.047749
765.776196,2146.597232,-9474.636058,689.485948
765.776520,3701.029710,-8512.368333,2604.724693
765.776844,6513.812290,-9622.677246,5132.839837
765.777168,8586.388927,-13249.686362,4596.572988
765.777492,7031.956449,-13027.624579,5132.839837
765.777816,3627.009116,-9770.718434,4290.134789
765.778140,-814.226536,-7476.080014,1838.629195
765.778464,-4959.379811,-6365.771101,-5439.278036
765.778788,-10362.883188,-8660.409521,-6281.983084
765.779112,-10214.842000,-9474.636058,-4826.401637
765.779436,-5033.400406,-9474.636058,-4519.963438
765.779760,-3404.947333,-9252.574275,-459.657299
765.780084,-2368.659014,-7031.956449,1838.629195
765.780408,0.000000,-6957.935855,1838.629195
765.780732,1776.494261,-8364.327145,1532.190996
765.781056,3108.864956,-8956.491898,2604.724693
765.781380,6143.709319,-11769.274478,6052.154434
765.781704,8586.388927,-14582.057057,5515.887586
765.782028,6883.915261,-12509.480420,4903.011187
765.782352,3182.885551,-8956.491898,3830.477490
765.782676,-1406.391290,-4811.338623,-1455.581446
765.783000,-6143.709319,-6217.729913,-7431.126331
765.783324,-11103.089130,-11769.274478,-5362.668486
765.783648,-7846.182985,-12065.356855,-5362.668486
765.783972,-2664.741391,-9474.636058,-4903.011187
765.784296,-3034.844362,-8438.347739,842.705048
765.784620,-518.144159,-7994.224174,1302.362347
765.784943,2442.679609,-9400.615463,306.438199
765.785267,4145.153275,-10362.883188,1685.410096
765.785591,6143.709319,-10066.800811,3907.087040
765.785915,9252.574275,-12879.583391,5822.325785
765.786239,10140.821405,-14211.954086,5132.839837
765.786563,6957.935855,-10807.006753,4213.525239
765.786887,1258.350101,-7105.977043,-383.047749
765.787211,-4589.276840,-7476.080014,-5209.449386
765.787535,-9622.677246,-12065.356855,-6818.249932
765.787859,-8512.368333,-12287.418637,-7277.907231
765.788183,-4071.132681,-9252.574275,-5056.230287
765.788507,-2146.597232,-8734.430116,-1532.190996
765.788831,-740.205942,-7994.224174,0.000000
765.789155,518.144159,-8586.388927,229.828649
765.789479,2072.576638,-8290.306550,1302.362347
765.789803,4071.132681,-8734.430116,2757.943793
765.790127,5699.585753,-12583.501014,4749.792088
765.790451,7402.059420,-14508.036463,5822.325785
765.790775,7254.018232,-11843.295072,5515.887586
765.791099,4219.173869,-9548.656652,4136.915689
765.791423,-1036.288319,-8290.306550,1225.752797
765.791747,-4737.318029,-5773.606348,-3830.477490
765.792071,-7402.059420,-2960.823768,-9346.365076
765.792395,-10584.944971,-7772.162391,-4903.011187
765.792719,-8142.265362,-12583.501014,-4136.915689
765.793043,-3256.906145,-11029.068536,-5056.230287
765.793367,-4367.215058,-7624.121203,1762.019645
765.793691,-1628.453072,-6587.832884,2145.067394
765.794015,2664.741391,-9474.636058,689.485948
765.794339,4737.318029,-11029.068536,2298.286494
765.794663,7920.203579,-9474.636058,4136.915689
765.794987,10732.986159,-12657.521608,5822.325785
765.795311,8882.471304,-15470.304188,3983.696590
765.795635,4219.173869,-10140.821405,3907.087040
765.795959,-888.247130,-4959.379811,1532.190996
765.796283,-6439.791695,-4367.215058,-6435.202183
765.796607,-12731.542202,-9696.697840,-7890.783629
765.796931,-13323.706956,-13101.645173,-5745.716235
765.797255,-5773.606348,-10658.965565,-5515.887586
765.797579,-1776.494261,-9474.636058,-1225.752797
765.797903,-1924.535449,-7920.203579,2068.457845
765.798227,-296.082377,-7772.162391,1532.190996
765.798551,1628.453072,-10140.821405,153.219100
765.798875,3478.967927,-10584.944971,1762.019645
765.799199,5403.503377,-13027.624579,4673.182538
765.799523,8512.368333,-15322.262999,4826.401637
765.799847,8882.471304,-12139.377449,5132.839837
765.800171,5551.544565,-7994.224174,3677.258390
765.800495,-592.164754,-4219.173869,-4060.306139
765.800819,-8216.285956,-8660.409521,-6894.859482
765.801143,-11325.150913,-14878.139434,-5439.278036
765.801467,-5847.626942,-12583.501014,-6511.811733
765.801791,-2368.659014,-8808.450710,-2374.896044
765.802115,-1850.514855,-7254.018232,2451.505594
765.802439,1258.350101,-8068.244768,1532.190996
765.802763,3034.844362,-9474.636058,689.485948
765.803087,4293.194464,-7698.141797,2528.115143
765.803411,6883.915261,-9474.636058,4749.792088
765.803735,9030.512492,-13175.665768,4903.011187
765.804059,9474.636058,-11399.171507,5439.278036
765.804383,6587.832884,-7179.997637,3217.601092
765.804707,148.041188,-4737.318029,-2528.115143
765.805031,-7846.182985,-9030.512492,-5822.325785
765.805355,-10584.944971,-13323.706956,-6128.763984
765.805679,-6587.832884,-10584.944971,-6741.640382
765.806003,-3923.091493,-8216.285956,-2451.505594
765.806327,-1406.391290,-8438.347739,459.657299
765.806651,370.102971,-7994.224174,0.000000
765.806975,888.247130,-8808.450710,1149.143247
765.807299,1850.514855,-7328.038826,1302.362347
765.807623,3923.091493,-10288.862594,4136.915689
765.807947,5995.668130,-14730.098246,5669.106685
765.808271,8216.285956,-13397.727550,5669.106685
765.808595,6735.874072,-9622.677246,5362.668486
765.808919,1554.432478,-8068.244768,2604.724693
765.809243,-2738.761985,-8068.244768,-1072.533697
765.809567,-6883.915261,-3997.112087,-8350.440928
765.809891,-9844.739029,-3997.112087,-8273.831378
765.810215,-10584.944971,-11473.192101,-3907.087040
765.810539,-4663.297435,-14285.974681,-5822.325785
765.810863,-2442.679609,-10807.006753,-2528.115143
765.811187,-3256.906145,-7328.038826,1838.629195
765.811511,888.247130,-7772.162391,306.438199
765.811835,3034.844362,-12065.356855,689.485948
765.812159,5847.626942,-11029.068536,2987.772442
765.812483,10066.800811,-10584.944971,5515.887586
765.812807,10955.047942,-15322.262999,5515.887586
765.813131,7254.018232,-14730.098246,4596.572988
765.813455,2590.720797,-9104.533087,3677.258390
765.813779,-2516.700203,-4515.256246,-1378.971896
765.814103,-8142.265362,-6217.729913,-8044.002729
765.814427,-13915.871710,-12065.356855,-7354.516781
765.814751,-10066.800811,-11917.315666,-6358.592633
765.815075,-2886.803174,-9622.677246,-4366.744339
765.815399,-1998.556043,-8956.491898,0.000000
765.815723,-814.226536,-7550.100608,1838.629195
765.816047,962.267725,-9252.574275,1685.410096
765.816371,2220.617826,-9770.718434,306.438199
765.816695,3256.906145,-9622.677246,2604.724693
765.817019,5329.482782,-13397.727550,4903.011187
765.817343,8142.265362,-14804.118840,5132.839837
765.817667,7994.224174,-11621.233289,4903.011187
765.817991,3627.009116,-7328.038826,2911.162892
765.818315,-2368.659014,-3923.091493,-4826.401637
765.818639,-8808.450710,-9030.512492,-6358.592633
765.818963,-10510.924376,-12879.583391,-4979.620737
765.819287,-4663.297435,-10658.965565,-5132.839837
765.819611,-2220.617826,-8216.285956,-1149.143247
765.819935,-1554.432478,-7105.977043,2145.067394
765.820259,1628.453072,-8660.409521,1149.143247
765.820583,3182.885551,-9178.553681,766.095498
765.820907,3923.091493,-7254.018232,2298.286494
765.821231,5921.647536,-9548.656652,4290.134789
765.821555,8068.244768,-12657.521608,4596.572988
765.821879,7994.224174,-10510.924376,4596.572988
765.822203,3997.112087,-6957.935855,1838.629195
765.822527,-1628.453072,-6217.729913,-2145.067394
765.822851,-7179.997637,-10288.862594,-5515.887586
765.823175,-9104.533087,-12361.439231,-6358.592633
765.823499,-6143.709319,-9918.759623,-4596.572988
765.823823,-2886.803174,-8882.471304,-1455.581446
765.824147,-148.041188,-9178.553681,306.438199
765.824471,1332.370696,-9400.615463,1225.752797
765.824795,1776.494261,-9474.636058,1302.362347
765.825119,2590.720797,-8882.471304,1225.752797
765.825443,3627.009116,-11621.233289,3983.696590
765.825767,5107.421000,-14211.954086,4366.744339
765.826091,6291.750507,-12361.439231,4596.572988
765.826415,4737.318029,-9844.739029,3600.648841
765.826739,888.247130,-8808.450710,1455.581446
765.827063,-3478.967927,-6735.874072,-3983.696590
765.827387,-6735.874072,-4663.297435,-8886.707777
765.827711,-9918.759623,-8956.491898,-4596.572988
765.828035,-7031.956449,-13619.789333,-4366.744339
765.828359,-2442.679609,-11843.295072,-5132.839837
765.828683,-2664.741391,-9622.677246,1072.533697
765.829007,-296.082377,-8364.327145,1378.971896
765.829331,3108.864956,-11029.068536,766.095498
765.829655,4589.276840,-11621.233289,2374.896044
765.829979,6809.894666,-9474.636058,4290.134789
765.830303,8734.430116,-12583.501014,5669.106685
765.830627,7994.224174,-14211.954086,4136.915689
765.830951,4515.256246,-10140.821405,3447.429741
765.831275,0.000000,-5995.668130,1838.629195
765.831599,-5403.503377,-4145.153275,-5209.449386
765.831923,-11473.192101,-7624.121203,-8273.831378
765.832247,-13841.851115,-10658.965565,-5975.544884
765.832571,-8142.265362,-9548.656652,-5439.278036
765.832895,-3404.947333,-9844.739029,-2451.505594
765.833219,-2368.659014,-8438.347739,536.266849
765.833543,222.061783,-7179.997637,2068.457845
765.833867,2738.761985,-9474.636058,919.314598
765.834191,3552.988522,-10288.862594,1762.019645
765.834515,4885.359217,-11991.336260,4979.620737
765.834839,7772.162391,-13841.851115,5669.106685
765.835163,8438.347739,-12065.356855,5132.839837
765.835487,5033.400406,-9030.512492,3677.258390
765.835811,222.061783,-6809.894666,1685.410096
765.836135,-4293.194464,-5551.544565,-4519.963438
765.836459,-8438.347739,-7624.121203,-7967.393179
765.836783,-11621.233289,-10214.842000,-4290.134789
765.837107,-6217.729913,-10658.965565,-3983.696590
