#time,accel_x,accel_y,accel_z
905.174573,-296.082377,-9474.636058,0.000000
905.174897,-222.061783,-9696.697840,-383.047749
905.175221,0.000000,-9474.636058,-306.438199
905.175546,0.000000,-9622.677246,0.000000
905.175870,148.041188,-9918.759623,0.000000
905.176194,0.000000,-9844.739029,0.000000
905.176518,0.000000,-9696.697840,0.000000
905.176842,0.000000,-9474.636058,-153.219100
905.177166,-148.041188,-9696.697840,0.000000
905.177491,-148.041188,-9844.739029,0.000000
905.177815,0.000000,-9918.759623,229.828649
905.178139,0.000000,-9622.677246,153.219100
905.178463,-222.061783,-9548.656652,-306.438199
905.178787,0.000000,-9770.718434,-306.438199
905.179111,-74.020594,-9696.697840,76.609550
905.179436,-370.102971,-9400.615463,306.438199
905.179760,148.041188,-9548.656652,-306.438199
905.180084,0.000000,-9400.615463,0.000000
905.180408,148.041188,-9622.677246,153.219100
905.180732,222.061783,-9844.739029,0.000000
905.181057,148.041188,-9844.739029,0.000000
905.181381,0.000000,-9474.636058,0.000000
905.181705,148.041188,-9474.636058,0.000000
905.182029,0.000000,-9918.759623,0.000000
905.182353,0.000000,-9696.697840,0.000000
905.182677,222.061783,-9474.636058,0.000000
905.183002,296.082377,-9252.574275,0.000000
905.183326,222.061783,-9696.697840,-229.828649
905.183650,0.000000,-9474.636058,0.000000
905.183974,0.000000,-9622.677246,0.000000
905.184298,0.000000,-9696.697840,-153.219100
905.184622,148.041188,-9474.636058,-153.219100
905.184947,-222.061783,-9400.615463,536.266849
905.185271,444.123565,-9696.697840,459.657299
905.185595,-222.061783,-9770.718434,0.000000
905.185919,0.000000,-9844.739029,-229.828649
905.186243,-296.082377,-9770.718434,0.000000
905.186568,0.000000,-9622.677246,0.000000
905.186892,-370.102971,-9548.656652,-306.438199
905.187216,0.000000,-9770.718434,76.609550
905.187540,0.000000,-9918.759623,0.000000
905.187864,0.000000,-10066.800811,459.657299
905.188188,-296.082377,-9548.656652,-153.219100
905.188513,-222.061783,-9474.636058,0.000000
905.188837,-370.102971,-9918.759623,383.047749
905.189161,0.000000,-10066.800811,0.000000
905.189485,0.000000,-9548.656652,-153.219100
905.189809,-518.144159,-9548.656652,76.609550
905.190133,-222.061783,-9770.718434,-459.657299
905.190458,74.020594,-10288.862594,0.000000
905.190782,0.000000,-10140.821405,536.266849
905.191106,-222.061783,-9992.780217,766.095498
905.191430,-444.123565,-9844.739029,0.000000
905.191754,-666.185348,-9770.718434,76.609550
905.192079,-1258.350101,-9918.759623,306.438199
905.192403,-1332.370696,-9622.677246,-536.266849
905.192727,-1258.350101,-9326.594869,0.000000
905.193051,-592.164754,-8882.471304,153.219100
905.193375,296.082377,-9252.574275,153.219100
905.193699,592.164754,-9770.718434,612.876398
905.194024,74.020594,-10140.821405,383.047749
905.194348,-888.247130,-9548.656652,76.609550
905.194672,-1406.391290,-9474.636058,153.219100
905.194996,-1776.494261,-10436.903782,-306.438199
905.195320,-2368.659014,-10436.903782,-153.219100
905.195644,-2368.659014,-10362.883188,995.924147
905.195969,-2146.597232,-9770.718434,536.266849
905.196293,-1406.391290,-9400.615463,383.047749
905.196617,-740.205942,-9104.533087,1072.533697
905.196941,-222.061783,-8882.471304,995.924147
905.197265,-296.082377,-9400.615463,1378.971896
905.197590,-1110.308913,-9696.697840,1608.800546
905.197914,-1776.494261,-9770.718434,1455.581446
905.198238,-2516.700203,-10214.842000,1302.362347
905.198562,-3108.864956,-10584.944971,995.924147
905.198886,-3330.926739,-10658.965565,689.485948
905.199210,-3108.864956,-11177.109724,766.095498
905.199535,-2812.782580,-10510.924376,1149.143247
905.199859,-2072.576638,-9918.759623,1225.752797
905.200183,-1628.453072,-8660.409521,1762.019645
905.200507,-814.226536,-9030.512492,1455.581446
905.200831,-592.164754,-9474.636058,1991.848295
905.201155,-444.123565,-9918.759623,2221.676944
905.201480,-1110.308913,-10288.862594,1915.238745
905.201804,-2220.617826,-10066.800811,2145.067394
905.202128,-3034.844362,-10214.842000,2451.505594
905.202452,-3849.070898,-10955.047942,2834.553343
905.202776,-4515.256246,-11103.089130,3064.381992
905.203101,-4885.359217,-10658.965565,3140.991542
905.203425,-5033.400406,-10510.924376,3294.210641
905.203749,-4737.318029,-9770.718434,3370.820191
905.204073,-4589.276840,-9252.574275,3524.039291
905.204397,-4515.256246,-9400.615463,3600.648841
905.204721,-2886.803174,-9622.677246,4136.915689
905.205046,-1184.329507,-9104.533087,4826.401637
905.205370,296.082377,-8068.244768,5515.887586
905.205694,1480.411884,-7846.182985,4903.011187
905.206018,1184.329507,-7920.203579,4596.572988
905.206342,296.082377,-8068.244768,4213.525239
905.206666,-888.247130,-8142.265362,4366.744339
905.206991,-2368.659014,-7624.121203,3140.991542
905.207315,-4293.194464,-6809.894666,2068.457845
905.207639,-6217.729913,-8142.265362,1685.410096
905.207963,-7476.080014,-9918.759623,2068.457845
905.208287,-6439.791695,-11251.130318,2221.676944
905.208612,-4885.359217,-10214.842000,3064.381992
905.208936,-3108.864956,-9030.512492,4979.620737
905.209260,0.000000,-7920.203579,5286.058936
905.209584,2220.617826,-8660.409521,5439.278036
905.209908,3701.029710,-9326.594869,5439.278036
905.210232,4441.235652,-9770.718434,5515.887586
905.210557,3182.885551,-10436.903782,4826.401637
905.210881,962.267725,-9474.636058,3907.087040
905.211205,-1702.473667,-8068.244768,2604.724693
905.211529,-4663.297435,-6883.915261,-766.095498
905.211853,-7624.121203,-8068.244768,-2374.896044
905.212177,-8734.430116,-11473.192101,-1991.848295
905.212502,-5477.523971,-11695.253884,-2374.896044
905.212826,-3330.926739,-10436.903782,-689.485948
905.213150,-2812.782580,-8956.491898,1149.143247
905.213474,-2368.659014,-9178.553681,1072.533697
905.213798,-2664.741391,-10955.047942,995.924147
905.214123,-2368.659014,-11177.109724,995.924147
905.214447,-370.102971,-10584.944971,2451.505594
905.214771,3997.112087,-12139.377449,3753.867940
905.215095,7254.018232,-12509.480420,4060.306139
905.215419,7179.997637,-11547.212695,3830.477490
905.215743,4293.194464,-10362.883188,2681.334243
905.216068,-666.185348,-9696.697840,-842.705048
905.216392,-5551.544565,-9326.594869,-3907.087040
905.216716,-7476.080014,-9474.636058,-4213.525239
905.217040,-5995.668130,-10732.986159,-2451.505594
905.217364,-3256.906145,-11399.171507,-2987.772442
905.217689,-3404.947333,-10658.965565,-2145.067394
905.218013,-4959.379811,-9474.636058,-1072.533697
905.218337,-5329.482782,-9474.636058,-1991.848295
905.218661,-5699.585753,-8882.471304,-1838.629195
905.218985,-4663.297435,-8438.347739,-306.438199
905.219309,-1036.288319,-10510.924376,2681.334243
905.219634,2442.679609,-13545.768739,2987.772442
905.219958,2664.741391,-13767.830521,3830.477490
905.220282,814.226536,-11103.089130,3907.087040
905.220606,-222.061783,-9696.697840,2374.896044
905.220930,-962.267725,-9474.636058,919.314598
905.221254,-1258.350101,-9178.553681,1149.143247
905.221579,-518.144159,-8216.285956,1225.752797
905.221903,-1850.514855,-8068.244768,1762.019645
905.222227,-3775.050304,-8660.409521,306.438199
905.222551,-5403.503377,-7476.080014,383.047749
905.222875,-5181.441594,-7031.956449,383.047749
905.223200,-4293.194464,-6735.874072,536.266849
905.223524,-4811.338623,-7402.059420,919.314598
905.223848,-6513.812290,-8364.327145,995.924147
905.224172,-6809.894666,-9474.636058,1685.410096
905.224496,-5477.523971,-10214.842000,2221.676944
905.224820,-3330.926739,-9178.553681,2221.676944
905.225145,-2072.576638,-8216.285956,2757.943793
905.225469,-2368.659014,-9030.512492,2987.772442
905.225793,-2368.659014,-10955.047942,3217.601092
905.226117,-666.185348,-11547.212695,3907.087040
905.226441,1702.473667,-11177.109724,4826.401637
905.226765,2072.576638,-9770.718434,4366.744339
905.227090,-1036.288319,-9178.553681,3907.087040
905.227414,-2960.823768,-9844.739029,3294.210641
905.227738,-3404.947333,-10288.862594,3294.210641
905.228062,-2664.741391,-10362.883188,2374.896044
905.228386,-3627.009116,-8290.306550,1991.848295
905.228711,-4737.318029,-7105.977043,2528.115143
905.229035,-3775.050304,-8512.368333,2987.772442
905.229359,-2220.617826,-10140.821405,2221.676944
905.229683,-2146.597232,-9474.636058,1608.800546
905.230007,-3034.844362,-9030.512492,995.924147
905.230331,-2220.617826,-9622.677246,2451.505594
905.230656,592.164754,-11547.212695,2834.553343
905.230980,2294.638420,-11843.295072,3600.648841
905.231304,1332.370696,-11843.295072,3983.696590
905.231628,222.061783,-12139.377449,3753.867940
905.231952,888.247130,-11843.295072,3677.258390
905.232276,2294.638420,-11251.130318,3753.867940
905.232601,1110.308913,-10140.821405,3447.429741
905.232925,-1702.473667,-11251.130318,2834.553343
905.233249,-2738.761985,-10584.944971,2145.067394
905.233573,-1628.453072,-9030.512492,2145.067394
905.233897,-1480.411884,-8364.327145,2604.724693
905.234222,-3108.864956,-8438.347739,2451.505594
905.234546,-4589.276840,-7994.224174,689.485948
905.234870,-3182.885551,-6883.915261,-536.266849
905.235194,-1554.432478,-7031.956449,-306.438199
905.235518,-296.082377,-8808.450710,0.000000
905.235842,740.205942,-8512.368333,76.609550
905.236167,1850.514855,-6809.894666,766.095498
905.236491,2664.741391,-6587.832884,1991.848295
905.236815,2516.700203,-9252.574275,2145.067394
905.237139,2294.638420,-10955.047942,1532.190996
905.237463,2812.782580,-9548.656652,2145.067394
905.237787,2442.679609,-9104.533087,2528.115143
905.238112,222.061783,-9770.718434,1991.848295
905.238436,-2294.638420,-10288.862594,1149.143247
905.238760,-3701.029710,-9104.533087,153.219100
905.239084,-3849.070898,-8290.306550,-612.876398
905.239408,-3404.947333,-9400.615463,-1838.629195
905.239733,-2294.638420,-8956.491898,-2374.896044
905.240057,-1036.288319,-7328.038826,-2145.067394
905.240381,-888.247130,-7624.121203,-2451.505594
905.240705,-962.267725,-10288.862594,-3447.429741
905.241029,-1480.411884,-11103.089130,-3830.477490
905.241354,-1702.473667,-10881.027347,-2528.115143
905.241678,-740.205942,-12213.398043,-1378.971896
905.242002,518.144159,-13545.768739,-2681.334243
905.242326,740.205942,-13323.706956,-2374.896044
905.242651,370.102971,-11695.253884,-842.705048
905.242975,666.185348,-12065.356855,-842.705048
905.243299,1406.391290,-11917.315666,-1915.238745
905.243624,1554.432478,-10436.903782,-1608.800546
905.243948,1850.514855,-9918.759623,-612.876398
905.244272,2072.576638,-10288.862594,-2068.457845
905.244597,3034.844362,-10214.842000,-2374.896044
905.244921,2072.576638,-9252.574275,-2374.896044
905.245245,370.102971,-9918.759623,-3064.381992
905.245570,-1036.288319,-11029.068536,-3677.258390
905.245894,-1628.453072,-10288.862594,-3140.991542
905.246218,-1036.288319,-9844.739029,-1991.848295
905.246543,0.000000,-11251.130318,-2757.943793
905.246867,0.000000,-11177.109724,-1991.848295
905.247191,-222.061783,-9622.677246,-1149.143247
905.247516,0.000000,-9252.574275,-306.438199
905.247840,-518.144159,-10288.862594,-766.095498
905.248164,-296.082377,-9770.718434,-306.438199
905.248489,444.123565,-8142.265362,1302.362347
905.248813,1406.391290,-9400.615463,1225.752797
905.249137,666.185348,-10436.903782,153.219100
905.249461,-148.041188,-9622.677246,0.000000
905.249786,-444.123565,-8438.347739,1455.581446
905.250110,-814.226536,-10436.903782,459.657299
905.250434,-1480.411884,-10214.842000,-153.219100
905.250759,-1554.432478,-8364.327145,919.314598
905.251083,0.000000,-8364.327145,1685.410096
905.251407,1258.350101,-9474.636058,459.657299
905.251732,148.041188,-7920.203579,383.047749
905.252056,-740.205942,-5551.544565,1378.971896
905.252380,-1036.288319,-7105.977043,1455.581446
905.252705,-962.267725,-8438.347739,383.047749
905.253029,-888.247130,-7105.977043,1378.971896
905.253353,-444.123565,-6809.894666,2298.286494
905.253678,0.000000,-9252.574275,1225.752797
905.254002,0.000000,-9622.677246,1225.752797
905.254326,222.061783,-8364.327145,2145.067394
905.254651,222.061783,-8956.491898,2221.676944
905.254975,-814.226536,-10732.986159,919.314598
905.255299,-888.247130,-10362.883188,1225.752797
905.255623,0.000000,-9918.759623,2528.115143
905.255948,1702.473667,-11473.192101,1762.019645
905.256272,1924.535449,-12065.356855,919.314598
905.256596,1406.391290,-10140.821405,766.095498
905.256921,444.123565,-9548.656652,536.266849
905.257245,-296.082377,-11325.150913,-536.266849
905.257569,-1480.411884,-11843.295072,-919.314598
905.257894,-2220.617826,-10140.821405,-229.828649
905.258218,-2072.576638,-10140.821405,0.000000
905.258542,-1332.370696,-11325.150913,-306.438199
905.258867,-222.061783,-10955.047942,0.000000
905.259191,148.041188,-9030.512492,1302.362347
905.259515,0.000000,-10362.883188,1838.629195
905.259840,0.000000,-11177.109724,1072.533697
905.260164,518.144159,-9474.636058,2298.286494
905.260488,1406.391290,-8734.430116,2987.772442
905.260813,2812.782580,-10066.800811,2068.457845
905.261137,3552.988522,-9770.718434,1072.533697
905.261461,2738.761985,-7920.203579,1915.238745
905.261785,1258.350101,-7772.162391,612.876398
905.262110,-740.205942,-9326.594869,-1225.752797
905.262434,-1776.494261,-8438.347739,-1149.143247
905.262758,-1924.535449,-7031.956449,-153.219100
905.263083,-2220.617826,-8216.285956,-995.924147
905.263407,-2516.700203,-8956.491898,-1455.581446
905.263731,-1924.535449,-8142.265362,-689.485948
905.264056,-1406.391290,-8364.327145,0.000000
905.264380,-740.205942,-9844.739029,229.828649
905.264704,-518.144159,-9770.718434,995.924147
905.265029,148.041188,-8660.409521,2221.676944
905.265353,888.247130,-10362.883188,2451.505594
905.265677,1258.350101,-11029.068536,1072.533697
905.266002,1258.350101,-9326.594869,919.314598
905.266326,1184.329507,-8364.327145,689.485948
905.266650,1036.288319,-10288.862594,-1149.143247
905.266975,0.000000,-10214.842000,-2681.334243
905.267299,-888.247130,-8364.327145,-2681.334243
905.267623,-1480.411884,-9178.553681,-2681.334243
905.267947,-2516.700203,-10955.047942,-4366.744339
905.268272,-2738.761985,-10140.821405,-4290.134789
905.268596,-2516.700203,-8660.409521,-3064.381992
905.268920,-1924.535449,-10140.821405,-2451.505594
905.269245,-666.185348,-11695.253884,-2528.115143
905.269569,444.123565,-9918.759623,-919.314598
905.269893,1702.473667,-9844.739029,842.705048
905.270218,3256.906145,-10955.047942,766.095498
905.270542,3923.091493,-10881.027347,612.876398
905.270866,3849.070898,-9992.780217,1149.143247
905.271191,3330.926739,-11029.068536,153.219100
905.271515,3627.009116,-11621.233289,-1915.238745
905.271839,2516.700203,-10362.883188,-2451.505594
905.272164,1036.288319,-9770.718434,-1378.971896
905.272488,-222.061783,-10955.047942,-3370.820191
905.272812,-1406.391290,-11843.295072,-4979.620737
905.273137,-2368.659014,-10140.821405,-3830.477490
905.273461,-2368.659014,-10584.944971,-3064.381992
905.273785,-1702.473667,-11399.171507,-3447.429741
905.274109,-1850.514855,-11029.068536,-1072.533697
905.274434,-962.267725,-8882.471304,919.314598
905.274758,1332.370696,-9178.553681,1455.581446
905.275082,1776.494261,-10066.800811,1532.190996
905.275407,1998.556043,-8364.327145,1455.581446
905.275731,1850.514855,-8438.347739,2681.334243
905.276055,1924.535449,-11621.233289,2834.553343
905.276380,2146.597232,-11177.109724,2145.067394
905.276704,1332.370696,-7179.997637,2451.505594
905.277028,-74.020594,-4737.318029,-766.095498
905.277353,-3034.844362,-6587.832884,-4060.306139
905.277677,-6069.688724,-10807.006753,-3370.820191
905.278001,-4367.215058,-10584.944971,-2451.505594
905.278326,-2664.741391,-9844.739029,-1762.019645
905.278650,-3404.947333,-9918.759623,612.876398
905.278974,-2368.659014,-8438.347739,1225.752797
905.279299,-1480.411884,-8734.430116,1072.533697
905.279623,-888.247130,-10214.842000,2681.334243
905.279947,814.226536,-10881.027347,2757.943793
905.280271,3182.885551,-9992.780217,3830.477490
905.280596,3627.009116,-9548.656652,4826.401637
905.280920,2590.720797,-10066.800811,5286.058936
905.281244,2368.659014,-8956.491898,3370.820191
905.281569,-148.041188,-6291.750507,919.314598
905.281893,-3256.906145,-7994.224174,-1149.143247
905.282217,-3330.926739,-9474.636058,-1455.581446
905.282542,-296.082377,-8882.471304,-2068.457845
905.282866,-444.123565,-8438.347739,-229.828649
905.283190,-2294.638420,-9252.574275,919.314598
905.283515,-2294.638420,-9252.574275,0.000000
905.283839,-1554.432478,-8290.306550,536.266849
905.284163,-888.247130,-7624.121203,1532.190996
905.284488,1554.432478,-9474.636058,3140.991542
905.284812,4589.276840,-10140.821405,4136.915689
905.285136,5625.565159,-9770.718434,4366.744339
905.285461,4219.173869,-9844.739029,4136.915689
905.285785,3256.906145,-8956.491898,2298.286494
905.286109,2220.617826,-8734.430116,536.266849
905.286433,592.164754,-10214.842000,459.657299
905.286758,-444.123565,-10732.986159,-1302.362347
905.287082,-518.144159,-10658.965565,-2068.457845
905.287406,-1184.329507,-9844.739029,-1762.019645
905.287731,-1628.453072,-10436.903782,-1532.190996
905.288055,-1924.535449,-11621.233289,-2528.115143
905.288379,-2516.700203,-10881.027347,-1838.629195
905.288704,-2072.576638,-10066.800811,536.266849
905.289028,-1184.329507,-10732.986159,1225.752797
905.289352,1332.370696,-10955.047942,1455.581446
905.289677,1332.370696,-10140.821405,1762.019645
905.290001,1036.288319,-10658.965565,1762.019645
905.290325,1258.350101,-11325.150913,612.876398
905.290650,1036.288319,-9992.780217,0.000000
905.290974,0.000000,-8734.430116,0.000000
905.291298,-666.185348,-10066.800811,-1762.019645
905.291623,-962.267725,-10881.027347,-4596.572988
905.291947,-740.205942,-10436.903782,-3753.867940
905.292271,-296.082377,-9696.697840,-2374.896044
905.292595,0.000000,-10658.965565,-2451.505594
905.292920,-296.082377,-9918.759623,-2068.457845
905.293244,-1110.308913,-8068.244768,-536.266849
905.293568,-592.164754,-8734.430116,-306.438199
905.293893,444.123565,-9844.739029,-1455.581446
905.294217,1480.411884,-9474.636058,536.266849
905.294541,2368.659014,-7772.162391,1302.362347
905.294866,2072.576638,-9474.636058,995.924147
905.295190,1258.350101,-9844.739029,-612.876398
905.295514,-148.041188,-7772.162391,-2068.457845
905.295839,-1998.556043,-8142.265362,-2911.162892
905.296163,-3256.906145,-10436.903782,-4366.744339
905.296487,-2146.597232,-11103.089130,-4443.353888
905.296812,-2294.638420,-9548.656652,-3370.820191
905.297136,-1554.432478,-10066.800811,-2068.457845
905.297460,-666.185348,-11769.274478,-2298.286494
905.297785,-444.123565,-10436.903782,-1685.410096
905.298109,74.020594,-9030.512492,383.047749
905.298433,1850.514855,-10288.862594,1302.362347
905.298758,2812.782580,-10807.006753,689.485948
905.299082,2590.720797,-9474.636058,2221.676944
905.299406,2146.597232,-9548.656652,3064.381992
905.299730,2072.576638,-11399.171507,2221.676944
905.300055,1554.432478,-9770.718434,612.876398
905.300379,-814.226536,-5403.503377,-1532.190996
905.300703,-3034.844362,-6217.729913,-2451.505594
905.301028,-2812.782580,-10510.924376,-3753.867940
905.301352,-444.123565,-10732.986159,-4290.134789
905.301676,-888.247130,-8660.409521,-1225.752797
905.302001,-1702.473667,-9030.512492,-153.219100
905.302325,-1628.453072,-10066.800811,-1991.848295
905.302649,-2294.638420,-9770.718434,-536.266849
905.302974,-1258.350101,-10362.883188,919.314598
905.303298,814.226536,-12139.377449,2374.896044
905.303622,2442.679609,-12657.521608,3064.381992
905.303947,2294.638420,-10881.027347,5286.058936
905.304271,2220.617826,-10288.862594,4903.011187
905.304595,740.205942,-11029.068536,3370.820191
905.304920,-1184.329507,-9548.656652,1455.581446
905.305244,-2368.659014,-8734.430116,76.609550
905.305568,-1554.432478,-9696.697840,-612.876398
905.305892,-296.082377,-9252.574275,-1455.581446
905.306217,-592.164754,-8364.327145,-1378.971896
905.306541,-1184.329507,-8290.306550,-766.095498
905.306865,-1702.473667,-9844.739029,-1378.971896
905.307190,-1850.514855,-9548.656652,-1378.971896
905.307514,-1776.494261,-8290.306550,919.314598
905.307838,296.082377,-9178.553681,1991.848295
905.308163,3404.947333,-9844.739029,3447.429741
905.308487,4663.297435,-9622.677246,5439.278036
905.308811,3997.112087,-9252.574275,5362.668486
905.309136,3034.844362,-9622.677246,4596.572988
905.309460,2368.659014,-9474.636058,3907.087040
905.309784,2294.638420,-7920.203579,4213.525239
905.310109,1776.494261,-7476.080014,2374.896044
905.310433,888.247130,-7846.182985,-1378.971896
905.310757,-2146.597232,-7920.203579,-2374.896044
905.311082,-3552.988522,-8734.430116,-1915.238745
905.311406,-2368.659014,-10066.800811,-3140.991542
905.311730,-2812.782580,-10955.047942,-2145.067394
905.312054,-3627.009116,-8882.471304,-536.266849
905.312379,-3404.947333,-8660.409521,0.000000
905.312703,-2072.576638,-11177.109724,-306.438199
905.313027,-518.144159,-11029.068536,689.485948
905.313352,1258.350101,-9474.636058,2681.334243
905.313676,2664.741391,-10288.862594,3294.210641
905.314000,2812.782580,-11177.109724,3064.381992
905.314325,2516.700203,-9252.574275,3294.210641
905.314649,2072.576638,-8512.368333,3600.648841
905.314973,592.164754,-10288.862594,383.047749
905.315298,-666.185348,-8290.306550,-4826.401637
905.315622,-2516.700203,-6439.791695,-3753.867940
905.315946,-2294.638420,-9400.615463,-2834.553343
905.316271,-888.247130,-11769.274478,-5592.497135
905.316595,-2516.700203,-10066.800811,-3294.210641
905.316919,-3775.050304,-7179.997637,-1991.848295
905.317244,-2294.638420,-9178.553681,-2834.553343
905.317568,-1258.350101,-11917.315666,-2911.162892
905.317892,-592.164754,-10436.903782,-229.828649
905.318216,962.267725,-9918.759623,2221.676944
905.318541,1480.411884,-11695.253884,919.314598
905.318865,1184.329507,-10658.965565,1149.143247
905.319189,1184.329507,-9030.512492,2528.115143
905.319514,2368.659014,-10436.903782,2221.676944
905.319838,2664.741391,-12361.439231,-383.047749
905.320162,1258.350101,-8734.430116,-3447.429741
905.320487,-444.123565,-6217.729913,-3524.039291
905.320811,-1628.453072,-11177.109724,-3753.867940
905.321135,-1110.308913,-14063.912898,-5362.668486
905.321460,-1924.535449,-11103.089130,-3983.696590
905.321784,-2368.659014,-9104.533087,-1149.143247
905.322108,-222.061783,-10288.862594,-2145.067394
905.322433,-296.082377,-11177.109724,-2145.067394
905.322757,-592.164754,-8734.430116,0.000000
905.323081,666.185348,-8364.327145,1225.752797
905.323406,1924.535449,-10807.006753,229.828649
905.323730,1554.432478,-10584.944971,1838.629195
905.324054,2368.659014,-7994.224174,3983.696590
905.324378,3330.926739,-8956.491898,2604.724693
905.324703,2516.700203,-9252.574275,-1608.800546
905.325027,-444.123565,-9030.512492,-2221.676944
905.325351,-1998.556043,-11103.089130,-612.876398
905.325676,814.226536,-12583.501014,-3064.381992
905.326000,592.164754,-10955.047942,-2834.553343
905.326324,-1850.514855,-7846.182985,1302.362347
905.326649,0.000000,-10288.862594,-229.828649
905.326973,0.000000,-12435.459826,-2221.676944
905.327297,-1850.514855,-9548.656652,-306.438199
905.327622,-1110.308913,-6069.688724,1455.581446
905.327946,962.267725,-8586.388927,1608.800546
905.328270,666.185348,-10807.006753,1532.190996
905.328595,-370.102971,-7698.141797,2911.162892
905.328919,592.164754,-6217.729913,2681.334243
905.329243,222.061783,-8586.388927,459.657299
905.329568,-592.164754,-9770.718434,536.266849
905.329892,370.102971,-7994.224174,689.485948
905.330216,1924.535449,-8142.265362,-306.438199
905.330540,1258.350101,-9844.739029,-153.219100
905.330865,592.164754,-8660.409521,229.828649
905.331189,444.123565,-7772.162391,842.705048
905.331513,-296.082377,-9548.656652,-306.438199
905.331838,-518.144159,-9844.739029,383.047749
905.332162,370.102971,-8808.450710,1455.581446
905.332486,1628.453072,-9326.594869,1838.629195
905.332811,888.247130,-10881.027347,2068.457845
905.333135,74.020594,-9770.718434,3370.820191
905.333459,296.082377,-8438.347739,3140.991542
905.333784,-592.164754,-8808.450710,1915.238745
905.334108,-1036.288319,-10140.821405,1378.971896
905.334432,-1036.288319,-9326.594869,536.266849
905.334757,-222.061783,-9326.594869,76.609550
905.335081,-1258.350101,-10584.944971,-689.485948
905.335405,-2294.638420,-10214.842000,-459.657299
905.335730,-1998.556043,-9178.553681,-689.485948
905.336054,-1776.494261,-10066.800811,0.000000
905.336378,-1110.308913,-11473.192101,76.609550
905.336702,-370.102971,-10362.883188,306.438199
905.337027,518.144159,-9252.574275,1302.362347
905.337351,814.226536,-10362.883188,1072.533697
905.337675,666.185348,-10510.924376,919.314598
905.338000,592.164754,-8956.491898,1685.410096
905.338324,444.123565,-8808.450710,1225.752797
905.338648,-370.102971,-9770.718434,-306.438199
905.338973,-592.164754,-9474.636058,-1225.752797
905.339297,-296.082377,-8734.430116,-1149.143247
905.339621,-592.164754,-9918.759623,-1838.629195
905.339946,-1776.494261,-11103.089130,-2604.724693
905.340270,-2072.576638,-9770.718434,-2221.676944
905.340594,-1332.370696,-9770.718434,-1838.629195
905.340919,-962.267725,-11325.150913,-1762.019645
905.341243,-444.123565,-11843.295072,-1378.971896
905.341567,296.082377,-10510.924376,0.000000
905.341892,592.164754,-10732.986159,0.000000
905.342216,222.061783,-11695.253884,0.000000
905.342540,592.164754,-9992.780217,459.657299
905.342864,1406.391290,-8364.327145,995.924147
905.343189,1258.350101,-9104.533087,919.314598
905.343513,740.205942,-9844.739029,-536.266849
905.343837,814.226536,-8734.430116,-689.485948
905.344162,148.041188,-8734.430116,-1072.533697
905.344486,-296.082377,-9696.697840,-2604.724693
905.344810,-962.267725,-9030.512492,-2681.334243
905.345135,-888.247130,-7179.997637,-1838.629195
905.345459,-148.041188,-8290.306550,-2145.067394
905.345783,666.185348,-9696.697840,-1455.581446
905.346107,1110.308913,-9178.553681,-766.095498
905.346432,1850.514855,-8586.388927,-153.219100
905.346756,888.247130,-9770.718434,153.219100
905.347080,666.185348,-10066.800811,536.266849
905.347405,1110.308913,-9326.594869,1762.019645
905.347729,444.123565,-9992.780217,1991.848295
905.348053,-592.164754,-10732.986159,1225.752797
905.348378,-814.226536,-10658.965565,0.000000
905.348702,-740.205942,-9474.636058,76.609550
905.349026,-962.267725,-10732.986159,-1072.533697
905.349350,-1776.494261,-11399.171507,-2451.505594
905.349675,-2294.638420,-9770.718434,-1685.410096
905.349999,-2072.576638,-9252.574275,-766.095498
905.350323,-1258.350101,-11251.130318,-995.924147
905.350648,-444.123565,-11029.068536,-1532.190996
905.350972,444.123565,-9770.718434,229.828649
905.351296,1036.288319,-9326.594869,842.705048
905.351621,962.267725,-10362.883188,689.485948
905.351945,888.247130,-9696.697840,2145.067394
905.352269,592.164754,-8364.327145,2911.162892
905.352593,592.164754,-9030.512492,1762.019645
905.352918,148.041188,-9474.636058,229.828649
905.353242,444.123565,-7846.182985,76.609550
905.353566,888.247130,-8290.306550,1072.533697
905.353891,444.123565,-9844.739029,-459.657299
905.354215,-518.144159,-8216.285956,-1302.362347
905.354539,-518.144159,-7179.997637,-612.876398
905.354864,-666.185348,-8808.450710,-383.047749
905.355188,222.061783,-11695.253884,-919.314598
905.355512,1332.370696,-10732.986159,-229.828649
905.355836,1924.535449,-9326.594869,766.095498
905.356161,1480.411884,-10881.027347,689.485948
905.356485,74.020594,-11177.109724,153.219100
905.356809,0.000000,-9770.718434,1608.800546
905.357134,-518.144159,-9992.780217,1915.238745
905.357458,-1036.288319,-11547.212695,612.876398
905.357782,-1184.329507,-10362.883188,229.828649
905.358107,-666.185348,-8660.409521,1149.143247
905.358431,-370.102971,-9474.636058,995.924147
905.358755,-1184.329507,-10584.944971,-153.219100
905.359079,-962.267725,-8734.430116,-76.609550
905.359404,-222.061783,-7846.182985,919.314598
905.359728,592.164754,-9770.718434,536.266849
905.360052,1480.411884,-9992.780217,0.000000
905.360377,2072.576638,-8438.347739,842.705048
905.360701,1776.494261,-8438.347739,1302.362347
905.361025,666.185348,-9992.780217,0.000000
905.361350,-518.144159,-9252.574275,0.000000
905.361674,0.000000,-7994.224174,1302.362347
905.361998,-370.102971,-8882.471304,383.047749
905.362322,-814.226536,-9844.739029,-536.266849
905.362647,-1184.329507,-8808.450710,229.828649
905.362971,-1036.288319,-8734.430116,842.705048
905.363295,-1776.494261,-9992.780217,-153.219100
905.363620,-2442.679609,-9844.739029,-536.266849
905.363944,-1776.494261,-8660.409521,689.485948
905.364268,-1332.370696,-9696.697840,76.609550
905.364593,-518.144159,-11029.068536,-766.095498
905.364917,74.020594,-9770.718434,-459.657299
905.365241,296.082377,-9178.553681,-612.876398
905.365565,0.000000,-11473.192101,-1378.971896
905.365890,-962.267725,-10807.006753,-919.314598
905.366214,444.123565,-9252.574275,-153.219100
905.366538,814.226536,-9178.553681,-459.657299
905.366863,444.123565,-10732.986159,-1225.752797
905.367187,296.082377,-10140.821405,-1072.533697
905.367511,888.247130,-9474.636058,0.000000
905.367836,814.226536,-10584.944971,-229.828649
905.368160,0.000000,-10510.924376,-1302.362347
905.368484,-296.082377,-8364.327145,-459.657299
905.368808,0.000000,-8956.491898,459.657299
905.369133,518.144159,-11029.068536,229.828649
905.369457,814.226536,-11251.130318,-153.219100
905.369781,1258.350101,-9696.697840,76.609550
905.370106,1258.350101,-9918.759623,0.000000
905.370430,740.205942,-11251.130318,-383.047749
905.370754,-222.061783,-10362.883188,-842.705048
905.371079,-592.164754,-9252.574275,153.219100
905.371403,-666.185348,-10584.944971,-612.876398
905.371727,-1184.329507,-11843.295072,-1225.752797
905.372051,-888.247130,-10214.842000,-459.657299
905.372376,-592.164754,-9400.615463,0.000000
905.372700,-888.247130,-10658.965565,-766.095498
905.373024,-740.205942,-10807.006753,76.609550
905.373349,-740.205942,-8734.430116,1072.533697
905.373673,-888.247130,-8808.450710,1991.848295
905.373997,-888.247130,-10214.842000,536.266849
905.374322,0.000000,-9326.594869,0.000000
905.374646,296.082377,-7772.162391,766.095498
905.374970,518.144159,-8808.450710,229.828649
905.375294,888.247130,-9178.553681,0.000000
905.375619,888.247130,-6957.935855,153.219100
905.375943,-222.061783,-6809.894666,229.828649
905.376267,74.020594,-8882.471304,-306.438199
905.376592,962.267725,-9992.780217,-995.924147
905.376916,1480.411884,-8438.347739,306.438199
905.377240,1110.308913,-8142.265362,1072.533697
905.377565,370.102971,-9622.677246,76.609550
905.377889,-148.041188,-9178.553681,459.657299
905.378213,-592.164754,-8068.244768,1225.752797
905.378537,-148.041188,-9770.718434,1608.800546
905.378862,962.267725,-11695.253884,842.705048
905.379186,1332.370696,-9474.636058,459.657299
905.379510,592.164754,-8290.306550,1072.533697
905.379835,-740.205942,-10066.800811,-306.438199
905.380159,-1628.453072,-10584.944971,-1608.800546
905.380483,-1480.411884,-9252.574275,-842.705048
905.380808,-592.164754,-9178.553681,-689.485948
905.381132,-148.041188,-10732.986159,-1225.752797
905.381456,148.041188,-10732.986159,-995.924147
905.381780,370.102971,-10140.821405,383.047749
905.382105,296.082377,-11325.150913,76.609550
905.382429,-148.041188,-11251.130318,-459.657299
905.382753,0.000000,-9178.553681,842.705048
905.383078,1110.308913,-9474.636058,1378.971896
905.383402,2590.720797,-11325.150913,1072.533697
905.383726,2812.782580,-10732.986159,1225.752797
905.384051,2220.617826,-8808.450710,1225.752797
905.384375,888.247130,-9918.759623,306.438199
905.384699,-518.144159,-11177.109724,-995.924147
905.385023,-962.267725,-8808.450710,-995.924147
905.385348,-1110.308913,-8734.430116,-383.047749
905.385672,-1702.473667,-10140.821405,-2145.067394
905.385996,-2146.597232,-10436.903782,-2451.505594
905.386321,-1554.432478,-9252.574275,-1378.971896
905.386645,-1776.494261,-8956.491898,-1072.533697
905.386969,-2146.597232,-11029.068536,-1072.533697
905.387294,-1332.370696,-11177.109724,-306.438199
905.387618,-296.082377,-9178.553681,995.924147
905.387942,444.123565,-9992.780217,1532.190996
905.388266,962.267725,-10584.944971,766.095498
905.388591,1628.453072,-9326.594869,1532.190996
905.388915,1406.391290,-9104.533087,1532.190996
905.389239,740.205942,-9992.780217,153.219100
905.389564,370.102971,-9178.553681,-842.705048
905.389888,148.041188,-7179.997637,-229.828649
905.390212,-592.164754,-7846.182985,-1225.752797
905.390537,-1702.473667,-9400.615463,-2911.162892
905.390861,-2516.700203,-8364.327145,-2451.505594
905.391185,-1702.473667,-7179.997637,-1302.362347
905.391510,-1110.308913,-9178.553681,-1149.143247
905.391834,-1110.308913,-9992.780217,-842.705048
905.392158,-740.205942,-8734.430116,612.876398
905.392482,518.144159,-9252.574275,1455.581446
905.392807,1628.453072,-10584.944971,1149.143247
905.393131,2516.700203,-10658.965565,1225.752797
905.393455,2368.659014,-9252.574275,1915.238745
905.393780,1036.288319,-10658.965565,1225.752797
905.394104,74.020594,-11177.109724,-995.924147
905.394428,-666.185348,-9844.739029,-1608.800546
905.394753,-1554.432478,-9548.656652,-1838.629195
905.395077,-1184.329507,-11325.150913,-2374.896044
905.395401,-1184.329507,-12583.501014,-2451.505594
905.395725,-962.267725,-10288.862594,-1455.581446
905.396050,-1258.350101,-9770.718434,-1225.752797
905.396374,-1406.391290,-11843.295072,-1378.971896
905.396698,-222.061783,-11695.253884,-995.924147
905.397023,1036.288319,-9992.780217,1915.238745
905.397347,1850.514855,-10658.965565,2451.505594
905.397671,2664.741391,-11843.295072,1838.629195
905.397996,2368.659014,-9918.759623,1762.019645
905.398320,2738.761985,-8956.491898,2451.505594
905.398644,1554.432478,-9622.677246,766.095498
905.398968,296.082377,-9548.656652,-689.485948
905.399293,0.000000,-7772.162391,-229.828649
905.399617,-370.102971,-8216.285956,-1072.533697
905.399941,-296.082377,-8956.491898,-2145.067394
905.400266,-148.041188,-8512.368333,-1378.971896
905.400590,-444.123565,-8290.306550,-919.314598
905.400914,0.000000,-9844.739029,0.000000
905.401239,-1110.308913,-10288.862594,76.609550
905.401563,-592.164754,-8660.409521,1532.190996
905.401887,444.123565,-8734.430116,2911.162892
905.402211,1554.432478,-11029.068536,3370.820191
905.402536,2146.597232,-10140.821405,2681.334243
905.402860,1702.473667,-8142.265362,3217.601092
905.403184,148.041188,-7920.203579,2834.553343
905.403509,-1110.308913,-9474.636058,383.047749
905.403833,-1702.473667,-8290.306550,-536.266849
905.404157,-2516.700203,-6735.874072,-459.657299
905.404482,-2812.782580,-8734.430116,-1915.238745
905.404806,-2960.823768,-9474.636058,-2987.772442
905.405130,-2146.597232,-7994.224174,-1225.752797
905.405454,-1110.308913,-8660.409521,-383.047749
905.405779,-814.226536,-10288.862594,-842.705048
905.406103,-1110.308913,-10288.862594,0.000000
905.406427,-148.041188,-9030.512492,2145.067394
905.406752,962.267725,-10510.924376,2987.772442
905.407076,2072.576638,-11843.295072,2451.505594
905.407400,2812.782580,-9696.697840,2145.067394
905.407725,2812.782580,-8142.265362,2911.162892
905.408049,1850.514855,-10214.842000,612.876398
905.408373,814.226536,-9918.759623,-1072.533697
905.408697,-444.123565,-8290.306550,-1225.752797
905.409022,-1110.308913,-9178.553681,-2221.676944
905.409346,-1258.350101,-11547.212695,-4290.134789
905.409670,-1332.370696,-10807.006753,-3983.696590
905.409995,-1110.308913,-9326.594869,-2145.067394
905.410319,-592.164754,-10658.965565,-2757.943793
905.410643,-1480.411884,-12361.439231,-3064.381992
905.410968,-1110.308913,-10658.965565,-536.266849
905.411292,444.123565,-10066.800811,1532.190996
905.411616,1332.370696,-12213.398043,1762.019645
905.411940,1776.494261,-11991.336260,1072.533697
905.412265,2368.659014,-9474.636058,2298.286494
905.412589,2146.597232,-9178.553681,1532.190996
905.412913,1258.350101,-10584.944971,-459.657299
905.413238,444.123565,-9178.553681,-1378.971896
905.413562,-222.061783,-7698.141797,-1149.143247
905.413886,-1036.288319,-9252.574275,-3217.601092
905.414211,-1850.514855,-10140.821405,-5132.839837
905.414535,-2072.576638,-8290.306550,-4290.134789
905.414859,-740.205942,-8438.347739,-2834.553343
905.415183,-740.205942,-10881.027347,-2374.896044
905.415508,-1702.473667,-10584.944971,-1762.019645
905.415832,-1258.350101,-8586.388927,-229.828649
905.416156,0.000000,-9992.780217,1378.971896
905.416481,370.102971,-11917.315666,1225.752797
905.416805,1258.350101,-10288.862594,2298.286494
905.417129,2368.659014,-8956.491898,3294.210641
905.417454,2146.597232,-11103.089130,3524.039291
905.417778,1184.329507,-11473.192101,1225.752797
905.418102,888.247130,-7698.141797,1072.533697
905.418426,0.000000,-6513.812290,0.000000
905.418751,-1480.411884,-9030.512492,-2757.943793
905.419075,-2516.700203,-9770.718434,-3217.601092
905.419399,-1850.514855,-8808.450710,-2145.067394
905.419724,-1924.535449,-9548.656652,-1608.800546
905.420048,-2442.679609,-10214.842000,-2068.457845
905.420372,-2368.659014,-8586.388927,-1225.752797
905.420697,-962.267725,-8068.244768,383.047749
905.421021,370.102971,-10436.903782,766.095498
905.421345,1480.411884,-11029.068536,1915.238745
905.421669,2368.659014,-9474.636058,3677.258390
905.421994,2368.659014,-9104.533087,4060.306139
905.422318,1850.514855,-9918.759623,3140.991542
905.422642,1332.370696,-8586.388927,1532.190996
905.422967,962.267725,-8142.265362,1302.362347
905.423291,296.082377,-9844.739029,919.314598
905.423615,592.164754,-11103.089130,-1685.410096
905.423940,222.061783,-8956.491898,-1838.629195
905.424264,-222.061783,-8438.347739,-1072.533697
905.424588,-1850.514855,-11325.150913,-1838.629195
905.424912,-2220.617826,-11843.295072,-2298.286494
905.425237,-2516.700203,-9178.553681,-919.314598
905.425561,-1332.370696,-8882.471304,919.314598
905.425885,444.123565,-10881.027347,1149.143247
905.426210,2294.638420,-10807.006753,2374.896044
905.426534,2516.700203,-9104.533087,3370.820191
905.426858,1628.453072,-9474.636058,2604.724693
905.427183,0.000000,-9474.636058,1378.971896
905.427507,-222.061783,-7920.203579,1149.143247
905.427831,-370.102971,-7772.162391,689.485948
905.428155,-518.144159,-9844.739029,-1072.533697
905.428480,-222.061783,-10362.883188,-2221.676944
905.428804,-148.041188,-8956.491898,-1608.800546
905.429128,-74.020594,-9104.533087,-1302.362347
905.429453,-592.164754,-10066.800811,-2068.457845
905.429777,-666.185348,-9474.636058,-1838.629195
905.430101,-592.164754,-8364.327145,536.266849
905.430426,0.000000,-10436.903782,1608.800546
905.430750,1110.308913,-11621.233289,1608.800546
905.431074,1924.535449,-9474.636058,2068.457845
905.431398,1110.308913,-8734.430116,2604.724693
905.431723,148.041188,-10584.944971,1455.581446
905.432047,666.185348,-9622.677246,459.657299
905.432371,148.041188,-7772.162391,1302.362347
905.432696,-1258.350101,-7772.162391,-1149.143247
905.433020,-1924.535449,-9252.574275,-3447.429741
905.433344,-2072.576638,-9474.636058,-3447.429741
905.433669,-888.247130,-9326.594869,-2757.943793
905.433993,-740.205942,-10288.862594,-2911.162892
905.434317,-1554.432478,-10214.842000,-2298.286494
905.434641,-1406.391290,-9252.574275,-1302.362347
905.434966,-148.041188,-9992.780217,-612.876398
905.435290,1480.411884,-11843.295072,459.657299
905.435614,2738.761985,-11251.130318,919.314598
905.435939,3108.864956,-9992.780217,2221.676944
905.436263,2072.576638,-10436.903782,2451.505594
905.436587,814.226536,-10807.006753,1149.143247
905.436912,-296.082377,-9178.553681,919.314598
905.437236,-1406.391290,-8512.368333,-229.828649
905.437560,-2516.700203,-8734.430116,-2681.334243
905.437884,-2664.741391,-9622.677246,-3907.087040
905.438209,-2220.617826,-8882.471304,-3600.648841
905.438533,-1776.494261,-9696.697840,-3830.477490
905.438857,-2220.617826,-11251.130318,-3294.210641
905.439182,-2072.576638,-10510.924376,-2451.505594
905.439506,-888.247130,-9622.677246,-1149.143247
905.439830,-222.061783,-10732.986159,229.828649
905.440155,1850.514855,-11695.253884,689.485948
905.440479,3923.091493,-10658.965565,1991.848295
905.440803,3627.009116,-11399.171507,3830.477490
905.441127,2812.782580,-12065.356855,3140.991542
905.441452,1702.473667,-10955.047942,2528.115143
905.441776,740.205942,-8956.491898,2834.553343
905.442100,-444.123565,-8808.450710,919.314598
905.442424,-1480.411884,-8956.491898,-2834.553343
905.442748,-2368.659014,-7772.162391,-2987.772442
905.443073,-2368.659014,-8142.265362,-1838.629195
905.443397,-1702.473667,-10510.924376,-3217.601092
905.443721,-1628.453072,-10362.883188,-2681.334243
905.444045,-1184.329507,-8290.306550,-766.095498
905.444369,592.164754,-9178.553681,76.609550
905.444693,1406.391290,-11621.233289,919.314598
905.445017,1776.494261,-10955.047942,1838.629195
905.445341,2812.782580,-9104.533087,3524.039291
905.445665,3182.885551,-9992.780217,3294.210641
905.445989,2072.576638,-10881.027347,3064.381992
905.446313,1332.370696,-9252.574275,3217.601092
905.446637,444.123565,-7698.141797,2757.943793
905.446961,-592.164754,-9474.636058,842.705048
905.447285,-1924.535449,-9178.553681,-1149.143247
905.447609,-1480.411884,-7550.100608,-306.438199
905.447933,-888.247130,-8142.265362,-1378.971896
905.448257,-1258.350101,-9548.656652,-2374.896044
905.448581,-1406.391290,-8290.306550,-1991.848295
905.448906,-888.247130,-7105.977043,-842.705048
905.449230,0.000000,-8734.430116,-229.828649
905.449554,1110.308913,-10066.800811,-153.219100
905.449878,2368.659014,-8438.347739,1685.410096
905.450202,2812.782580,-8660.409521,2757.943793
905.450526,1628.453072,-10214.842000,2451.505594
905.450850,814.226536,-9622.677246,1762.019645
905.451174,444.123565,-7402.059420,2681.334243
905.451498,592.164754,-8734.430116,2068.457845
905.451822,-518.144159,-10436.903782,76.609550
905.452146,-962.267725,-9474.636058,-995.924147
905.452470,-962.267725,-8142.265362,-1149.143247
905.452794,-1702.473667,-10288.862594,-2604.724693
905.453118,-2072.576638,-11621.233289,-3524.039291
905.453442,-1998.556043,-9696.697840,-2068.457845
905.453766,-1184.329507,-10140.821405,-536.266849
905.454090,148.041188,-12731.542202,-995.924147
905.454414,592.164754,-11621.233289,-995.924147
905.454738,2072.576638,-9622.677246,1072.533697
905.455063,1480.411884,-11325.150913,1225.752797
905.455387,888.247130,-12953.603985,383.047749
905.455711,814.226536,-10807.006753,766.095498
905.456035,518.144159,-9104.533087,1378.971896
905.456359,0.000000,-10584.944971,-229.828649
905.456683,-888.247130,-10436.903782,-2298.286494
905.457007,-1554.432478,-8438.347739,-1532.190996
905.457331,-1332.370696,-9474.636058,-1302.362347
905.457655,-1628.453072,-10955.047942,-3140.991542
905.457979,-1702.473667,-9770.718434,-2757.943793
905.458303,-888.247130,-8438.347739,-995.924147
905.458627,0.000000,-10066.800811,-1225.752797
905.458951,370.102971,-11695.253884,-1915.238745
905.459275,1554.432478,-9770.718434,153.219100
905.459599,2294.638420,-9326.594869,1225.752797
905.459923,1628.453072,-11251.130318,842.705048
905.460247,-148.041188,-9844.739029,76.609550
905.460571,-888.247130,-7476.080014,229.828649
905.460896,-1332.370696,-8586.388927,-229.828649
905.461220,-1850.514855,-10436.903782,-1225.752797
905.461544,-1258.350101,-9030.512492,-612.876398
905.461868,-370.102971,-7476.080014,229.828649
905.462192,-1258.350101,-8734.430116,-995.924147
905.462516,-2664.741391,-10066.800811,-2068.457845
905.462840,-2812.782580,-8808.450710,-1149.143247
905.463164,-1628.453072,-8586.388927,0.000000
905.463488,-370.102971,-10288.862594,76.609550
905.463812,1776.494261,-10140.821405,842.705048
905.464136,2812.782580,-8882.471304,1762.019645
905.464460,2812.782580,-9622.677246,1838.629195
905.464784,1332.370696,-10140.821405,919.314598
905.465108,222.061783,-8364.327145,229.828649
905.465432,-148.041188,-7920.203579,995.924147
905.465756,-814.226536,-9474.636058,383.047749
905.466080,-740.205942,-9770.718434,-459.657299
905.466404,0.000000,-8290.306550,-383.047749
905.466728,-518.144159,-8586.388927,-536.266849
905.467053,-1554.432478,-10362.883188,-1149.143247
905.467377,-1998.556043,-10288.862594,-1225.752797
905.467701,-962.267725,-9474.636058,0.000000
905.468025,0.000000,-10584.944971,689.485948
905.468349,1110.308913,-11843.295072,229.828649
905.468673,2442.679609,-11325.150913,1225.752797
905.468997,2812.782580,-10362.883188,2298.286494
905.469321,2738.761985,-11843.295072,2068.457845
905.469645,1850.514855,-11695.253884,1302.362347
905.469969,666.185348,-10140.821405,1302.362347
905.470293,0.000000,-9474.636058,459.657299
905.470617,-370.102971,-10658.965565,0.000000
905.470941,0.000000,-10066.800811,-536.266849
905.471265,444.123565,-9474.636058,0.000000
905.471589,-148.041188,-9844.739029,0.000000
905.471913,-1258.350101,-9696.697840,-919.314598
905.472237,-1554.432478,-8068.244768,-919.314598
905.472561,-1184.329507,-7402.059420,-459.657299
905.472886,-518.144159,-9474.636058,229.828649
905.473210,666.185348,-10658.965565,612.876398
905.473534,2368.659014,-8216.285956,1302.362347
905.473858,2664.741391,-7994.224174,2145.067394
905.474182,1406.391290,-9030.512492,1302.362347
905.474506,0.000000,-9400.615463,766.095498
905.474830,-962.267725,-7698.141797,1302.362347
905.475154,-1850.514855,-8586.388927,995.924147
905.475478,-1554.432478,-9918.759623,-306.438199
905.475802,-1406.391290,-8660.409521,-995.924147
905.476126,-1332.370696,-7550.100608,-536.266849
905.476450,-1554.432478,-9252.574275,-995.924147
905.476774,-1480.411884,-9918.759623,-1532.190996
905.477098,-1258.350101,-8216.285956,-459.657299
905.477422,-1628.453072,-8438.347739,612.876398
905.477746,-1036.288319,-10066.800811,-459.657299
905.478070,-296.082377,-10214.842000,-536.266849
905.478394,592.164754,-8956.491898,153.219100
905.478719,592.164754,-10510.924376,0.000000
905.479043,0.000000,-10955.047942,-229.828649
905.479367,0.000000,-9326.594869,306.438199
905.479691,-222.061783,-8438.347739,383.047749
905.480015,-888.247130,-9696.697840,-1149.143247
905.480339,-592.164754,-10584.944971,-2221.676944
905.480663,0.000000,-9770.718434,-1532.190996
905.480987,0.000000,-9770.718434,-1762.019645
905.481311,-148.041188,-10510.924376,-2451.505594
905.481635,0.000000,-9326.594869,-1838.629195
905.481959,0.000000,-9474.636058,-153.219100
905.482283,666.185348,-11621.233289,-842.705048
905.482607,1258.350101,-11695.253884,-995.924147
905.482931,1110.308913,-10288.862594,-689.485948
905.483255,592.164754,-10436.903782,-689.485948
905.483579,0.000000,-11621.233289,-689.485948
905.483903,0.000000,-11251.130318,-536.266849
905.484227,148.041188,-9474.636058,-383.047749
905.484551,-296.082377,-9400.615463,-689.485948
905.484876,-740.205942,-10436.903782,-995.924147
905.485200,-74.020594,-10510.924376,-306.438199
905.485524,0.000000,-9696.697840,-383.047749
905.485848,-370.102971,-10140.821405,-766.095498
905.486172,-666.185348,-10510.924376,-689.485948
905.486496,-296.082377,-9918.759623,0.000000
905.486820,962.267725,-10140.821405,536.266849
905.487144,1184.329507,-10584.944971,612.876398
905.487468,1110.308913,-8956.491898,383.047749
905.487792,518.144159,-8956.491898,1149.143247
905.488116,-740.205942,-9622.677246,229.828649
905.488440,-1036.288319,-9918.759623,0.000000
905.488764,-1036.288319,-8216.285956,383.047749
905.489088,-962.267725,-7994.224174,1072.533697
905.489412,-1036.288319,-9178.553681,459.657299
905.489736,-296.082377,-10362.883188,0.000000
905.490060,592.164754,-9030.512492,1378.971896
905.490384,-370.102971,-8808.450710,459.657299
905.490709,-592.164754,-9992.780217,306.438199
905.491033,-962.267725,-9474.636058,306.438199
905.491357,0.000000,-9252.574275,1302.362347
905.491681,962.267725,-9918.759623,1608.800546
905.492005,1924.535449,-11103.089130,919.314598
905.492329,1776.494261,-9326.594869,1149.143247
905.492653,1406.391290,-8956.491898,995.924147
905.492977,148.041188,-10066.800811,76.609550
905.493301,-1036.288319,-9400.615463,0.000000
905.493625,-1702.473667,-7846.182985,-383.047749
905.493949,-1480.411884,-8512.368333,-229.828649
905.494273,-592.164754,-10140.821405,-919.314598
905.494597,888.247130,-9474.636058,-306.438199
905.494921,1332.370696,-8216.285956,1149.143247
905.495245,962.267725,-9474.636058,766.095498
905.495569,518.144159,-10881.027347,0.000000
905.495893,666.185348,-9030.512492,153.219100
905.496217,592.164754,-8660.409521,1378.971896
905.496541,1184.329507,-10584.944971,689.485948
905.496866,2072.576638,-11103.089130,0.000000
905.497190,1702.473667,-9030.512492,689.485948
905.497514,1110.308913,-9622.677246,76.609550
905.497838,0.000000,-10066.800811,-1225.752797
905.498162,-592.164754,-9548.656652,-995.924147
905.498486,-1258.350101,-8660.409521,-153.219100
905.498810,-1480.411884,-10140.821405,-766.095498
905.499134,-1332.370696,-10214.842000,-1991.848295
905.499458,-518.144159,-9104.533087,-766.095498
905.499782,-740.205942,-9474.636058,-153.219100
905.500106,-1110.308913,-11177.109724,-689.485948
905.500430,-888.247130,-10362.883188,-153.219100
905.500754,0.000000,-9178.553681,1302.362347
905.501078,518.144159,-10288.862594,1762.019645
905.501402,1406.391290,-11473.192101,919.314598
905.501726,1628.453072,-10066.800811,1302.362347
905.502050,1998.556043,-9326.594869,1455.581446
905.502374,1184.329507,-10066.800811,0.000000
905.502699,296.082377,-9548.656652,-1225.752797
905.503023,-222.061783,-8068.244768,-995.924147
905.503347,-1036.288319,-8808.450710,-1455.581446
905.503671,-1480.411884,-10584.944971,-2374.896044
905.503995,-1480.411884,-9992.780217,-2298.286494
905.504319,-666.185348,-9104.533087,-1149.143247
905.504643,-1036.288319,-10066.800811,-919.314598
905.504967,-1554.432478,-10807.006753,-1225.752797
905.505291,-888.247130,-10288.862594,-306.438199
905.505615,0.000000,-9770.718434,995.924147
905.505939,962.267725,-10881.027347,919.314598
905.506263,1850.514855,-10732.986159,842.705048
905.506587,1776.494261,-8808.450710,0.000000
905.506911,1258.350101,-9178.553681,229.828649
905.507235,370.102971,-10214.842000,-1608.800546
905.507559,-518.144159,-9622.677246,-1685.410096
905.507883,-962.267725,-8660.409521,-2068.457845
905.508207,-1702.473667,-9400.615463,-2681.334243
905.508531,-1702.473667,-10066.800811,-3294.210641
905.508856,-1184.329507,-9400.615463,-2221.676944
905.509180,-592.164754,-9400.615463,-1532.190996
905.509504,-1554.432478,-10436.903782,-1762.019645
905.509828,-1480.411884,-10140.821405,-842.705048
905.510152,0.000000,-9696.697840,919.314598
905.510476,1258.350101,-10658.965565,2145.067394
905.510800,2072.576638,-11251.130318,1225.752797
905.511124,2516.700203,-9474.636058,2068.457845
905.511448,1998.556043,-8660.409521,1532.190996
905.511772,1036.288319,-9770.718434,76.609550
905.512096,-296.082377,-9326.594869,-459.657299
905.512420,-962.267725,-8660.409521,-306.438199
905.512744,-1554.432478,-8808.450710,-1072.533697
905.513068,-1850.514855,-10140.821405,-2298.286494
905.513392,-1924.535449,-9252.574275,-2221.676944
905.513716,-1628.453072,-8660.409521,-1455.581446
905.514040,-1628.453072,-10214.842000,-1072.533697
905.514364,-1554.432478,-11103.089130,-766.095498
905.514689,-518.144159,-9400.615463,1072.533697
905.515013,1184.329507,-9030.512492,2451.505594
905.515337,1924.535449,-10955.047942,2528.115143
905.515661,2368.659014,-11473.192101,2911.162892
905.515985,3182.885551,-9770.718434,3753.867940
905.516309,2664.741391,-9844.739029,3294.210641
905.516633,1628.453072,-10140.821405,1685.410096
905.516957,296.082377,-8956.491898,766.095498
905.517281,-518.144159,-8290.306550,153.219100
905.517605,-1924.535449,-9696.697840,-995.924147
905.517929,-2516.700203,-9844.739029,-1378.971896
905.518253,-2146.597232,-8216.285956,-1302.362347
905.518577,-1998.556043,-8512.368333,-459.657299
905.518901,-1924.535449,-8882.471304,-766.095498
905.519225,-1110.308913,-8438.347739,459.657299
905.519549,444.123565,-7698.141797,1762.019645
905.519873,1258.350101,-8586.388927,2298.286494
905.520197,1924.535449,-9770.718434,2451.505594
905.520521,2516.700203,-8956.491898,2681.334243
905.520846,2590.720797,-8660.409521,3140.991542
905.521170,1480.411884,-9770.718434,2145.067394
905.521494,370.102971,-9622.677246,1072.533697
905.521818,-592.164754,-8586.388927,306.438199
905.522142,-888.247130,-8956.491898,229.828649
905.522466,-888.247130,-10584.944971,-1455.581446
905.522790,-1184.329507,-10658.965565,-2145.067394
905.523114,-1850.514855,-9326.594869,-2221.676944
905.523438,-2812.782580,-9770.718434,-1915.238745
905.523762,-2368.659014,-11251.130318,-1455.581446
905.524086,-962.267725,-9844.739029,-536.266849
905.524410,0.000000,-9474.636058,1149.143247
905.524734,296.082377,-10658.965565,1685.410096
905.525058,1776.494261,-11547.212695,919.314598
905.525382,3034.844362,-10436.903782,1608.800546
905.525706,2294.638420,-10066.800811,1838.629195
905.526030,666.185348,-10732.986159,229.828649
905.526354,0.000000,-8586.388927,-1685.410096
905.526679,-518.144159,-7772.162391,-689.485948
905.527003,-518.144159,-9474.636058,-2145.067394
905.527327,-592.164754,-10510.924376,-3830.477490
905.527651,0.000000,-9326.594869,-3294.210641
905.527975,0.000000,-9030.512492,-2834.553343
905.528299,74.020594,-10955.047942,-2911.162892
905.528623,444.123565,-11695.253884,-2374.896044
905.528947,1258.350101,-9844.739029,-766.095498
905.529271,2368.659014,-9696.697840,689.485948
905.529595,2294.638420,-11029.068536,459.657299
905.529919,2590.720797,-10807.006753,1455.581446
905.530243,2368.659014,-9548.656652,1608.800546
905.530567,666.185348,-9770.718434,1072.533697
905.530891,-1258.350101,-9992.780217,-842.705048
905.531215,-2220.617826,-7550.100608,-1149.143247
905.531539,-3330.926739,-7402.059420,-2068.457845
905.531863,-3404.947333,-9474.636058,-3830.477490
905.532187,-3256.906145,-9326.594869,-3830.477490
905.532511,-2516.700203,-9252.574275,-2528.115143
905.532836,-2220.617826,-9844.739029,-2451.505594
905.533160,-1628.453072,-10436.903782,-2145.067394
905.533484,-296.082377,-9696.697840,0.000000
905.533808,1776.494261,-9474.636058,1762.019645
905.534132,3256.906145,-10955.047942,3064.381992
905.534456,3627.009116,-10658.965565,2681.334243
905.534780,3775.050304,-9178.553681,2911.162892
905.535104,2294.638420,-9474.636058,3524.039291
905.535428,444.123565,-10584.944971,2451.505594
905.535752,-370.102971,-9474.636058,1455.581446
905.536076,-1036.288319,-7179.997637,2298.286494
905.536400,-2738.761985,-6217.729913,-536.266849
905.536724,-3701.029710,-7624.121203,-3140.991542
905.537048,-4071.132681,-8660.409521,-2604.724693
905.537372,-3404.947333,-9474.636058,-2451.505594
905.537696,-3478.967927,-10807.006753,-2757.943793
905.538020,-3478.967927,-9992.780217,-1455.581446
905.538344,-1628.453072,-9400.615463,229.828649
905.538669,666.185348,-10658.965565,1302.362347
905.538993,1776.494261,-11991.336260,1685.410096
905.539317,3627.009116,-11917.315666,3677.258390
905.539641,5329.482782,-11695.253884,4596.572988
905.539965,5255.462188,-12287.418637,4213.525239
905.540289,3404.947333,-11769.274478,3140.991542
905.540613,1406.391290,-9104.533087,1378.971896
905.540937,-740.205942,-8438.347739,0.000000
905.541261,-2220.617826,-10584.944971,-2145.067394
905.541585,-2072.576638,-10436.903782,-3140.991542
905.541909,-1480.411884,-8216.285956,-2451.505594
905.542233,-2072.576638,-8808.450710,-2374.896044
905.542557,-3034.844362,-9548.656652,-2451.505594
905.542881,-2368.659014,-8660.409521,-2451.505594
905.543205,-1258.350101,-7846.182985,-919.314598
905.543529,-444.123565,-9474.636058,1225.752797
905.543853,2664.741391,-11251.130318,2451.505594
905.544177,4885.359217,-9548.656652,3064.381992
905.544502,5551.544565,-9030.512492,4213.525239
905.544826,3627.009116,-10066.800811,3370.820191
905.545150,2294.638420,-10881.027347,2757.943793
905.545474,1480.411884,-9104.533087,2528.115143
905.545798,0.000000,-7772.162391,842.705048
905.546122,-1628.453072,-8586.388927,-1762.019645
905.546446,-2664.741391,-8660.409521,-2528.115143
905.546770,-2664.741391,-8364.327145,-3753.867940
905.547094,-3330.926739,-9178.553681,-3217.601092
905.547418,-3627.009116,-9104.533087,-2834.553343
905.547743,-2442.679609,-7550.100608,-1838.629195
905.548067,-888.247130,-7624.121203,-459.657299
905.548391,592.164754,-9548.656652,306.438199
905.548715,1850.514855,-9622.677246,1225.752797
905.549039,3478.967927,-9474.636058,2068.457845
905.549363,2220.617826,-10436.903782,2451.505594
905.549687,1554.432478,-10881.027347,2298.286494
905.550012,1702.473667,-9252.574275,2298.286494
905.550336,962.267725,-9030.512492,1762.019645
905.550660,-518.144159,-9696.697840,-1072.533697
905.550984,-2146.597232,-10140.821405,-3370.820191
905.551308,-2146.597232,-9622.677246,-2451.505594
905.551632,-1480.411884,-9696.697840,-3140.991542
905.551956,-2072.576638,-10807.006753,-3294.210641
905.552281,-2294.638420,-9844.739029,-2834.553343
905.552605,-1406.391290,-9474.636058,-2068.457845
905.552929,-444.123565,-11399.171507,-1378.971896
905.553253,1110.308913,-12361.439231,0.000000
905.553577,2886.803174,-11251.130318,1762.019645
905.553901,2664.741391,-11251.130318,2451.505594
905.554225,1110.308913,-11917.315666,1685.410096
905.554550,518.144159,-10732.986159,842.705048
905.554874,0.000000,-9252.574275,766.095498
905.555198,-962.267725,-9918.759623,0.000000
905.555522,-1480.411884,-11399.171507,-1608.800546
905.555846,-1998.556043,-9400.615463,-2528.115143
905.556170,-1184.329507,-7994.224174,-2528.115143
905.556494,-1776.494261,-9474.636058,-3064.381992
905.556819,-2220.617826,-10584.944971,-2834.553343
905.557143,-1406.391290,-9474.636058,-1608.800546
905.557467,-370.102971,-9326.594869,-383.047749
905.557791,518.144159,-10510.924376,229.828649
905.558115,2146.597232,-11103.089130,1072.533697
905.558439,3182.885551,-10066.800811,2374.896044
905.558763,1850.514855,-10362.883188,2298.286494
905.559088,592.164754,-10510.924376,1762.019645
905.559412,0.000000,-8734.430116,2068.457845
905.559736,-222.061783,-8364.327145,1762.019645
905.560060,-1258.350101,-9252.574275,459.657299
905.560384,-2146.597232,-9252.574275,-612.876398
905.560708,-1554.432478,-8586.388927,-536.266849
905.561032,-1184.329507,-8512.368333,-919.314598
905.561357,-1184.329507,-9252.574275,-1532.190996
905.561681,-1628.453072,-8512.368333,-1225.752797
905.562005,74.020594,-7772.162391,153.219100
905.562329,1110.308913,-9474.636058,995.924147
905.562653,1850.514855,-10807.006753,995.924147
905.562977,2664.741391,-9696.697840,2221.676944
905.563301,3182.885551,-8216.285956,2528.115143
905.563626,2368.659014,-9326.594869,2451.505594
905.563950,1406.391290,-9770.718434,1302.362347
905.564274,740.205942,-8512.368333,1685.410096
905.564598,-666.185348,-8660.409521,1532.190996
905.564922,-1628.453072,-9918.759623,-229.828649
905.565246,-1480.411884,-9326.594869,-842.705048
905.565570,-962.267725,-8660.409521,-612.876398
905.565895,-1184.329507,-9918.759623,-995.924147
905.566219,-1850.514855,-10881.027347,-1608.800546
905.566543,-1480.411884,-9400.615463,-612.876398
905.566867,-370.102971,-9104.533087,229.828649
905.567191,518.144159,-11177.109724,766.095498
905.567515,1850.514855,-11621.233289,1225.752797
905.567839,3182.885551,-10066.800811,1685.410096
905.568164,2516.700203,-9770.718434,2451.505594
905.568488,1110.308913,-10436.903782,1838.629195
905.568812,222.061783,-10362.883188,1072.533697
905.569136,-370.102971,-8808.450710,1072.533697
905.569460,-1184.329507,-9326.594869,0.000000
905.569784,-1628.453072,-10140.821405,-1072.533697
905.570108,-1480.411884,-9030.512492,-1149.143247
905.570433,-1332.370696,-9030.512492,-1685.410096
905.570757,-1332.370696,-10288.862594,-1762.019645
905.571081,-1554.432478,-10140.821405,-1378.971896
905.571405,-1406.391290,-8290.306550,-306.438199
905.571729,-666.185348,-9474.636058,459.657299
905.572053,222.061783,-10881.027347,306.438199
905.572377,1628.453072,-10066.800811,689.485948
905.572702,2442.679609,-9474.636058,1532.190996
905.573026,1406.391290,-10288.862594,1838.629195
905.573350,444.123565,-10214.842000,919.314598
905.573674,-222.061783,-8438.347739,766.095498
905.573998,-592.164754,-8290.306550,76.609550
905.574322,-888.247130,-9992.780217,-1685.410096
905.574646,-1258.350101,-9696.697840,-2374.896044
905.574971,-1332.370696,-8586.388927,-1378.971896
905.575295,-1776.494261,-8956.491898,-1991.848295
905.575619,-1702.473667,-10140.821405,-1762.019645
905.575943,-2146.597232,-9474.636058,-1762.019645
905.576267,-1184.329507,-8734.430116,-689.485948
905.576591,0.000000,-10066.800811,-153.219100
905.576915,1924.535449,-11325.150913,229.828649
905.577240,3256.906145,-9548.656652,1378.971896
905.577564,3701.029710,-9178.553681,1685.410096
905.577888,2886.803174,-10436.903782,76.609550
905.578212,2072.576638,-9696.697840,0.000000
905.578536,1036.288319,-8734.430116,0.000000
905.578860,518.144159,-9918.759623,-612.876398
905.579184,0.000000,-11325.150913,-1838.629195
905.579509,888.247130,-10584.944971,-1915.238745
905.579833,222.061783,-9178.553681,-1302.362347
905.580157,-1332.370696,-10658.965565,-2374.896044
905.580481,-2516.700203,-10362.883188,-2681.334243
905.580805,-2812.782580,-8512.368333,-1685.410096
905.581129,-2442.679609,-8882.471304,-383.047749
905.581453,-1406.391290,-10955.047942,0.000000
905.581778,740.205942,-10807.006753,383.047749
905.582102,1998.556043,-9474.636058,1915.238745
905.582426,1850.514855,-9696.697840,2451.505594
905.582750,1110.308913,-10436.903782,1302.362347
905.583074,-666.185348,-9178.553681,1225.752797
905.583398,-1332.370696,-8808.450710,766.095498
905.583722,-1702.473667,-9918.759623,0.000000
905.584047,-1184.329507,-10066.800811,-842.705048
905.584371,-148.041188,-8882.471304,-766.095498
905.584695,148.041188,-8882.471304,-689.485948
905.585019,-592.164754,-9696.697840,-842.705048
905.585343,-814.226536,-9474.636058,-536.266849
905.585667,-592.164754,-8142.265362,76.609550
905.585991,-370.102971,-9252.574275,689.485948
905.586316,666.185348,-10584.944971,689.485948
905.586640,1998.556043,-9548.656652,1685.410096
905.586964,2442.679609,-8956.491898,2681.334243
905.587288,1702.473667,-10214.842000,1838.629195
905.587612,1036.288319,-10214.842000,1455.581446
905.587936,0.000000,-8512.368333,1762.019645
905.588260,-1258.350101,-8882.471304,919.314598
905.588584,-1776.494261,-9770.718434,-459.657299
905.588909,-2072.576638,-9400.615463,-612.876398
905.589233,-2072.576638,-8068.244768,-612.876398
905.589557,-2146.597232,-9252.574275,-919.314598
905.589881,-1924.535449,-9770.718434,-612.876398
905.590205,-1184.329507,-9104.533087,0.000000
905.590529,-370.102971,-9474.636058,1149.143247
905.590853,370.102971,-10732.986159,842.705048
905.591178,1480.411884,-10658.965565,766.095498
905.591502,2146.597232,-9770.718434,1378.971896
905.591826,2220.617826,-10066.800811,1915.238745
905.592150,1554.432478,-11473.192101,1149.143247
905.592474,1628.453072,-10140.821405,1225.752797
905.592798,962.267725,-8734.430116,842.705048
905.593122,0.000000,-9622.677246,306.438199
905.593447,-1110.308913,-10510.924376,-612.876398
905.593771,-1998.556043,-9104.533087,-1149.143247
905.594095,-2442.679609,-8364.327145,-306.438199
905.594419,-2146.597232,-9104.533087,-1149.143247
905.594743,-1110.308913,-9474.636058,-995.924147
905.595067,-148.041188,-8142.265362,-383.047749
905.595391,148.041188,-9548.656652,306.438199
905.595716,1184.329507,-11103.089130,153.219100
905.596040,1924.535449,-10288.862594,306.438199
905.596364,1776.494261,-9104.533087,1302.362347
905.596688,1036.288319,-10214.842000,229.828649
905.597012,1036.288319,-10658.965565,0.000000
905.597336,1110.308913,-9474.636058,306.438199
905.597660,962.267725,-9622.677246,76.609550
905.597985,370.102971,-11103.089130,-536.266849
905.598309,296.082377,-10066.800811,-1378.971896
905.598633,0.000000,-8216.285956,-1149.143247
905.598957,-148.041188,-9918.759623,-1225.752797
905.599281,-962.267725,-10510.924376,-1608.800546
905.599605,-592.164754,-9474.636058,-1302.362347
905.599929,296.082377,-8068.244768,459.657299
905.600254,888.247130,-9918.759623,-153.219100
905.600578,1776.494261,-10066.800811,-229.828649
905.600902,1554.432478,-8882.471304,0.000000
905.601226,518.144159,-9104.533087,-536.266849
905.601550,-444.123565,-10066.800811,-1149.143247
905.601874,-962.267725,-9696.697840,-766.095498
905.602198,-740.205942,-8364.327145,-536.266849
905.602523,74.020594,-9326.594869,-842.705048
905.602847,148.041188,-9918.759623,-1608.800546
905.603171,74.020594,-9696.697840,-842.705048
905.603495,0.000000,-9992.780217,0.000000
905.603819,-444.123565,-11177.109724,-306.438199
905.604143,-1110.308913,-9992.780217,-919.314598
905.604467,-888.247130,-8808.450710,459.657299
905.604792,-740.205942,-9992.780217,76.609550
905.605116,222.061783,-11917.315666,153.219100
905.605440,222.061783,-10436.903782,76.609550
905.605764,-370.102971,-8808.450710,229.828649
905.606088,-1628.453072,-9252.574275,-612.876398
905.606412,-2368.659014,-10362.883188,-1072.533697
905.606736,-1628.453072,-9326.594869,-536.266849
905.607061,-2146.597232,-9622.677246,-689.485948
905.607385,-1110.308913,-11103.089130,0.000000
905.607709,-370.102971,-10362.883188,-536.266849
905.608033,222.061783,-8734.430116,383.047749
905.608357,370.102971,-9844.739029,689.485948
905.608681,-370.102971,-11103.089130,536.266849
905.609005,-592.164754,-9992.780217,919.314598
905.609330,222.061783,-9030.512492,2068.457845
905.609654,888.247130,-10362.883188,1532.190996
905.609978,1036.288319,-10807.006753,842.705048
905.610302,888.247130,-8956.491898,383.047749
905.610626,518.144159,-8956.491898,612.876398
905.610950,-592.164754,-10288.862594,-383.047749
905.611274,-1480.411884,-8734.430116,-766.095498
905.611599,-1184.329507,-7328.038826,-383.047749
905.611923,-666.185348,-9030.512492,-306.438199
905.612247,0.000000,-10510.924376,-612.876398
905.612571,518.144159,-9326.594869,-306.438199
905.612895,444.123565,-8808.450710,1072.533697
905.613219,296.082377,-10436.903782,995.924147
905.613543,1036.288319,-10436.903782,1072.533697
905.613868,2294.638420,-9252.574275,2681.334243
905.614192,2368.659014,-8882.471304,3217.601092
905.614516,2960.823768,-11251.130318,2145.067394
905.614840,2368.659014,-9918.759623,1302.362347
905.615164,1924.535449,-8586.388927,1838.629195
905.615488,666.185348,-9474.636058,536.266849
905.615812,-592.164754,-9918.759623,-1302.362347
905.616137,-1110.308913,-7698.141797,-1225.752797
905.616461,-1332.370696,-7846.182985,-1072.533697
905.616785,-888.247130,-9992.780217,-842.705048
905.617109,-888.247130,-10436.903782,-1302.362347
905.617433,-444.123565,-8734.430116,-306.438199
905.617757,-148.041188,-9326.594869,459.657299
905.618081,148.041188,-10807.006753,229.828649
905.618406,814.226536,-9844.739029,1455.581446
905.618730,814.226536,-9474.636058,2528.115143
905.619054,1332.370696,-10881.027347,2221.676944
905.619378,1480.411884,-11251.130318,766.095498
905.619702,1480.411884,-8882.471304,842.705048
905.620026,-148.041188,-7328.038826,612.876398
905.620350,-1702.473667,-9918.759623,-919.314598
905.620675,-1702.473667,-10140.821405,-2374.896044
905.620999,-1924.535449,-8290.306550,-2221.676944
905.621323,-1998.556043,-9326.594869,-2068.457845
905.621647,-2072.576638,-10807.006753,-2604.724693
905.621971,-1702.473667,-10140.821405,-2298.286494
905.622295,-1480.411884,-8882.471304,-1378.971896
905.622619,-666.185348,-10066.800811,-766.095498
905.622944,-296.082377,-10955.047942,-842.705048
905.623268,518.144159,-9696.697840,536.266849
905.623592,1258.350101,-9400.615463,1685.410096
905.623916,2220.617826,-10807.006753,1302.362347
905.624240,2812.782580,-10658.965565,766.095498
905.624564,2442.679609,-9030.512492,1532.190996
905.624888,740.205942,-9030.512492,0.000000
905.625213,-1628.453072,-9104.533087,-2298.286494
905.625537,-2294.638420,-8734.430116,-2604.724693
905.625861,-2146.597232,-9252.574275,-2374.896044
905.626185,-2220.617826,-10214.842000,-2911.162892
905.626509,-1332.370696,-10066.800811,-3140.991542
905.626833,-962.267725,-8586.388927,-2145.067394
905.627157,-592.164754,-9252.574275,-919.314598
905.627482,0.000000,-11251.130318,-1072.533697
905.627806,592.164754,-10510.924376,536.266849
905.628130,1406.391290,-9844.739029,2145.067394
905.628454,2368.659014,-10732.986159,2604.724693
905.628778,3108.864956,-11843.295072,2145.067394
905.629102,2442.679609,-10066.800811,1915.238745
905.629426,962.267725,-9252.574275,919.314598
905.629751,-1258.350101,-10510.924376,-459.657299
905.630075,-2146.597232,-10658.965565,-1378.971896
905.630399,-1776.494261,-9030.512492,-1225.752797
905.630723,-1702.473667,-8882.471304,-1225.752797
905.631047,-2220.617826,-10658.965565,-1915.238745
905.631371,-1924.535449,-10066.800811,-1762.019645
905.631695,-1850.514855,-8956.491898,-842.705048
905.632020,-1850.514855,-9696.697840,229.828649
905.632344,-740.205942,-10362.883188,842.705048
905.632668,1776.494261,-9400.615463,1838.629195
905.632992,1924.535449,-8586.388927,3370.820191
905.633316,1628.453072,-10510.924376,3140.991542
905.633640,1850.514855,-10140.821405,2145.067394
905.633964,1406.391290,-9030.512492,1991.848295
905.634289,-370.102971,-9104.533087,1302.362347
905.634613,-1628.453072,-9622.677246,-306.438199
905.634937,-1850.514855,-8290.306550,-919.314598
905.635261,-1628.453072,-7698.141797,-766.095498
905.635585,-1850.514855,-8734.430116,-1149.143247
905.635909,-962.267725,-9326.594869,-2145.067394
905.636233,0.000000,-8216.285956,-306.438199
905.636558,888.247130,-8512.368333,919.314598
905.636882,1554.432478,-9622.677246,1378.971896
905.637206,1998.556043,-9474.636058,1685.410096
905.637530,2590.720797,-8142.265362,3907.087040
905.637854,2368.659014,-9326.594869,3830.477490
905.638178,2664.741391,-11251.130318,3217.601092
905.638502,2590.720797,-9918.759623,2528.115143
905.638827,1406.391290,-8068.244768,2451.505594
905.639151,-444.123565,-9178.553681,306.438199
905.639475,-2294.638420,-9696.697840,-1378.971896
905.639799,-3108.864956,-8364.327145,-1838.629195
905.640123,-3478.967927,-8438.347739,-1762.019645
905.640447,-2368.659014,-10955.047942,-2374.896044
905.640771,-1480.411884,-10732.986159,-2145.067394
905.641096,-444.123565,-9252.574275,-1225.752797
905.641420,148.041188,-10436.903782,-153.219100
905.641744,148.041188,-11547.212695,-306.438199
905.642068,1110.308913,-10510.924376,919.314598
905.642392,1628.453072,-9400.615463,2298.286494
905.642716,2146.597232,-11103.089130,2604.724693
905.643040,2294.638420,-12065.356855,1762.019645
905.643364,1924.535449,-10510.924376,2298.286494
905.643689,518.144159,-9918.759623,1455.581446
905.644013,-1036.288319,-9622.677246,-1532.190996
905.644337,-2368.659014,-7994.224174,-2757.943793
905.644661,-3182.885551,-7179.997637,-2451.505594
905.644985,-2886.803174,-9030.512492,-3830.477490
905.645309,-2442.679609,-10362.883188,-4443.353888
905.645633,-1924.535449,-9178.553681,-2911.162892
905.645957,-1406.391290,-8882.471304,-2298.286494
905.646281,-1554.432478,-10584.944971,-1991.848295
905.646605,-518.144159,-10510.924376,-1532.190996
905.646930,1110.308913,-8956.491898,306.438199
905.647254,2072.576638,-10436.903782,1915.238745
905.647578,3108.864956,-11695.253884,1838.629195
905.647902,3701.029710,-10066.800811,1378.971896
905.648226,2886.803174,-8956.491898,2451.505594
905.648550,1258.350101,-10288.862594,0.000000
905.648874,-666.185348,-10140.821405,-1532.190996
905.649198,-2146.597232,-7772.162391,-2528.115143
905.649522,-2886.803174,-7402.059420,-3140.991542
905.649846,-2738.761985,-9474.636058,-4519.963438
905.650171,-2146.597232,-9622.677246,-4060.306139
905.650495,-1184.329507,-8216.285956,-2681.334243
905.650819,-814.226536,-9326.594869,-2451.505594
905.651143,-962.267725,-10288.862594,-2451.505594
905.651467,-444.123565,-9474.636058,-1225.752797
905.651791,1110.308913,-9474.636058,1302.362347
905.652115,2886.803174,-11843.295072,2221.676944
905.652439,3552.988522,-12435.459826,2528.115143
905.652763,3256.906145,-9548.656652,3907.087040
905.653087,2590.720797,-10881.027347,3907.087040
905.653412,1776.494261,-12139.377449,2451.505594
905.653736,666.185348,-9844.739029,612.876398
905.654060,-1406.391290,-5921.647536,-1072.533697
905.654384,-3330.926739,-7476.080014,-2221.676944
905.654708,-3478.967927,-11177.109724,-3217.601092
905.655032,-1628.453072,-10214.842000,-3907.087040
905.655356,-1924.535449,-8216.285956,-3140.991542
905.655680,-3404.947333,-8586.388927,-1762.019645
905.656004,-2294.638420,-10288.862594,-2374.896044
905.656328,0.000000,-9696.697840,-459.657299
905.656653,1850.514855,-9622.677246,1915.238745
905.656977,3404.947333,-11399.171507,3294.210641
905.657301,4515.256246,-11547.212695,3447.429741
905.657625,4441.235652,-9844.739029,4136.915689
905.657949,3034.844362,-9400.615463,5362.668486
905.658273,1406.391290,-10658.965565,3294.210641
905.658597,-1036.288319,-9178.553681,995.924147
905.658921,-3404.947333,-7550.100608,-306.438199
905.659245,-4515.256246,-8956.491898,-1838.629195
905.659569,-3108.864956,-9918.759623,-2528.115143
905.659894,-2516.700203,-8956.491898,-2451.505594
905.660218,-3849.070898,-8586.388927,-1225.752797
905.660542,-3775.050304,-8882.471304,-1991.848295
905.660866,-2220.617826,-9104.533087,-1378.971896
905.661190,-592.164754,-8660.409521,459.657299
905.661514,1998.556043,-9844.739029,2451.505594
905.661838,4515.256246,-11473.192101,2987.772442
905.662162,5033.400406,-11029.068536,4213.525239
905.662486,4441.235652,-9400.615463,4903.011187
905.662811,2812.782580,-10288.862594,4443.353888
905.663135,1998.556043,-10732.986159,2757.943793
905.663459,666.185348,-8512.368333,1915.238745
905.663783,-1184.329507,-7402.059420,306.438199
905.664107,-2442.679609,-9104.533087,-1072.533697
905.664431,-2886.803174,-9178.553681,-2221.676944
905.664755,-2960.823768,-7476.080014,-2374.896044
905.665079,-3701.029710,-7846.182985,-2681.334243
905.665403,-4145.153275,-8586.388927,-2681.334243
905.665727,-2664.741391,-8142.265362,-2374.896044
905.666052,-592.164754,-9104.533087,153.219100
905.666376,2294.638420,-10584.944971,766.095498
905.666700,4367.215058,-10955.047942,1532.190996
905.667024,4071.132681,-10436.903782,2911.162892
905.667348,3034.844362,-11103.089130,3064.381992
905.667672,2886.803174,-10955.047942,2528.115143
905.667996,2072.576638,-10510.924376,1608.800546
905.668320,-222.061783,-9844.739029,766.095498
905.668644,-2368.659014,-10510.924376,-1991.848295
905.668968,-3108.864956,-10436.903782,-2911.162892
905.669293,-3034.844362,-9548.656652,-3447.429741
905.669617,-3404.947333,-9252.574275,-4213.525239
905.669941,-3775.050304,-9622.677246,-3140.991542
905.670265,-2812.782580,-9696.697840,-3447.429741
905.670589,-1184.329507,-8512.368333,-1685.410096
905.670913,1332.370696,-9474.636058,-383.047749
905.671237,3034.844362,-11177.109724,383.047749
905.671561,4219.173869,-11029.068536,1455.581446
905.671885,4145.153275,-10510.924376,2451.505594
905.672209,3182.885551,-10584.944971,2757.943793
905.672534,2294.638420,-10066.800811,1762.019645
905.672858,1628.453072,-8956.491898,919.314598
905.673182,-370.102971,-9178.553681,-383.047749
905.673506,-2072.576638,-9474.636058,-2604.724693
905.673830,-2516.700203,-8808.450710,-3447.429741
905.674154,-2738.761985,-8290.306550,-3370.820191
905.674478,-2886.803174,-9992.780217,-3753.867940
905.674802,-2960.823768,-9696.697840,-3064.381992
905.675126,-2220.617826,-8586.388927,-1915.238745
905.675450,-1184.329507,-9178.553681,-1915.238745
905.675775,740.205942,-10955.047942,0.000000
905.676099,3034.844362,-11399.171507,689.485948
905.676423,3552.988522,-10362.883188,1762.019645
905.676747,2812.782580,-10288.862594,2451.505594
905.677071,1924.535449,-11029.068536,2298.286494
905.677395,1406.391290,-10658.965565,1532.190996
905.677719,888.247130,-9474.636058,1149.143247
905.678043,-370.102971,-9474.636058,-536.266849
905.678367,-1702.473667,-9252.574275,-2374.896044
905.678691,-2516.700203,-8808.450710,-2451.505594
905.679016,-2886.803174,-9474.636058,-2528.115143
905.679340,-4145.153275,-10362.883188,-2987.772442
905.679664,-4219.173869,-9326.594869,-2451.505594
905.679988,-2368.659014,-8512.368333,-1072.533697
905.680312,-444.123565,-9770.718434,-919.314598
905.680636,1258.350101,-10955.047942,0.000000
905.680960,2294.638420,-10436.903782,1225.752797
905.681284,2516.700203,-9844.739029,2298.286494
905.681608,2664.741391,-10955.047942,2757.943793
905.681932,2368.659014,-10807.006753,2528.115143
905.682257,1924.535449,-8808.450710,2221.676944
905.682581,444.123565,-8142.265362,766.095498
905.682905,-666.185348,-10140.821405,0.000000
905.683229,-518.144159,-10066.800811,-612.876398
905.683553,-592.164754,-8586.388927,-383.047749
905.683877,-1332.370696,-8512.368333,-919.314598
905.684201,-2590.720797,-8660.409521,-1455.581446
905.684525,-2146.597232,-8956.491898,-1149.143247
905.684849,-1258.350101,-8956.491898,-383.047749
905.685173,0.000000,-10140.821405,919.314598
905.685498,2590.720797,-10288.862594,1532.190996
905.685822,4145.153275,-9104.533087,2528.115143
905.686146,3849.070898,-9104.533087,2681.334243
905.686470,2812.782580,-10288.862594,2911.162892
905.686794,2146.597232,-10140.821405,2757.943793
905.687118,1554.432478,-9548.656652,2604.724693
905.687442,222.061783,-9400.615463,1991.848295
905.687766,-1110.308913,-9474.636058,153.219100
905.688090,-1702.473667,-8956.491898,-536.266849
905.688415,-2294.638420,-8586.388927,-1225.752797
905.688739,-3182.885551,-9622.677246,-1915.238745
905.689063,-2516.700203,-10140.821405,-1149.143247
905.689387,-1850.514855,-8142.265362,-612.876398
905.689711,-222.061783,-9104.533087,612.876398
905.690035,666.185348,-10732.986159,919.314598
905.690359,2368.659014,-10584.944971,1072.533697
905.690683,2590.720797,-9770.718434,1685.410096
905.691007,1036.288319,-10362.883188,2068.457845
905.691331,666.185348,-10732.986159,1685.410096
905.691656,888.247130,-9548.656652,2145.067394
905.691980,-518.144159,-8882.471304,919.314598
905.692304,-1554.432478,-9326.594869,-612.876398
905.692628,-1776.494261,-9622.677246,-1991.848295
905.692952,-1554.432478,-8734.430116,-2221.676944
905.693276,-1924.535449,-9400.615463,-2298.286494
905.693600,-1998.556043,-9622.677246,-2681.334243
905.693924,-1480.411884,-9030.512492,-1915.238745
905.694248,-1332.370696,-9178.553681,-2068.457845
905.694572,-592.164754,-10510.924376,-919.314598
905.694897,962.267725,-11177.109724,-612.876398
905.695221,1850.514855,-10436.903782,0.000000
905.695545,1924.535449,-10510.924376,842.705048
905.695869,1480.411884,-11473.192101,1072.533697
905.696193,1702.473667,-11103.089130,383.047749
905.696517,1332.370696,-9918.759623,842.705048
905.696841,296.082377,-10066.800811,-842.705048
905.697165,-1332.370696,-9844.739029,-1225.752797
905.697489,-2368.659014,-9104.533087,-2221.676944
905.697813,-2368.659014,-9474.636058,-2451.505594
905.698138,-2590.720797,-10066.800811,-2834.553343
905.698462,-2664.741391,-9696.697840,-3064.381992
905.698786,-2146.597232,-8586.388927,-1838.629195
905.699110,-1110.308913,-9252.574275,-1378.971896
905.699434,592.164754,-10658.965565,-689.485948
905.699758,1850.514855,-10510.924376,153.219100
905.700082,1998.556043,-9770.718434,919.314598
905.700406,1406.391290,-10288.862594,1225.752797
905.700730,1702.473667,-10732.986159,1378.971896
905.701054,2442.679609,-9474.636058,1838.629195
905.701379,2516.700203,-9104.533087,2451.505594
905.701703,1924.535449,-9622.677246,1685.410096
905.702027,592.164754,-8882.471304,0.000000
905.702351,-814.226536,-7772.162391,-383.047749
905.702675,-2738.761985,-8586.388927,-1149.143247
905.702999,-4071.132681,-9770.718434,-1991.848295
905.703323,-4071.132681,-8660.409521,-2221.676944
905.703647,-2664.741391,-6809.894666,-1685.410096
905.703971,-1628.453072,-8808.450710,-766.095498
905.704295,296.082377,-10510.924376,-842.705048
905.704620,2812.782580,-9696.697840,995.924147
905.704944,3034.844362,-9326.594869,1685.410096
905.705268,2812.782580,-9696.697840,1915.238745
905.705592,2738.761985,-10362.883188,1762.019645
905.705916,2960.823768,-9400.615463,2604.724693
905.706240,2368.659014,-9474.636058,2374.896044
905.706564,1480.411884,-11177.109724,1302.362347
905.706888,1406.391290,-10658.965565,383.047749
905.707212,444.123565,-9474.636058,0.000000
905.707536,-1554.432478,-9326.594869,-1302.362347
905.707861,-2590.720797,-9548.656652,-1991.848295
905.708185,-2738.761985,-8956.491898,-2221.676944
905.708509,-2368.659014,-9474.636058,-2145.067394
905.708833,-1554.432478,-9992.780217,-1302.362347
905.709157,444.123565,-9326.594869,-1072.533697
905.709481,1702.473667,-9252.574275,-383.047749
905.709805,1850.514855,-9770.718434,76.609550
905.710129,1850.514855,-11399.171507,383.047749
905.710453,1998.556043,-10807.006753,306.438199
905.710777,1110.308913,-10066.800811,1149.143247
905.711102,592.164754,-10955.047942,2068.457845
905.711426,888.247130,-11843.295072,76.609550
905.711750,740.205942,-10732.986159,76.609550
905.712074,-1332.370696,-10658.965565,-229.828649
905.712398,-2368.659014,-10584.944971,-1072.533697
905.712722,-2220.617826,-9622.677246,-1532.190996
905.713046,-1702.473667,-8734.430116,-919.314598
905.713370,-1332.370696,-9474.636058,-689.485948
905.713694,-148.041188,-9844.739029,-1455.581446
905.714019,592.164754,-8660.409521,-1455.581446
905.714343,0.000000,-8586.388927,-536.266849
905.714667,-666.185348,-9696.697840,-306.438199
905.714991,-296.082377,-9770.718434,-306.438199
905.715315,296.082377,-9030.512492,842.705048
905.715639,444.123565,-9030.512492,536.266849
905.715963,-444.123565,-9770.718434,-229.828649
905.716287,-814.226536,-9474.636058,76.609550
905.716611,-518.144159,-9696.697840,1455.581446
905.716935,-444.123565,-10288.862594,766.095498
905.717260,-370.102971,-9474.636058,459.657299
905.717584,-814.226536,-7698.141797,536.266849
905.717908,-962.267725,-7846.182985,153.219100
905.718232,-370.102971,-9696.697840,0.000000
905.718556,-444.123565,-9474.636058,0.000000
905.718880,-814.226536,-8660.409521,76.609550
905.719204,-1406.391290,-8586.388927,-459.657299
905.719528,-1184.329507,-9326.594869,-383.047749
905.719852,0.000000,-8734.430116,76.609550
905.720176,74.020594,-8512.368333,0.000000
905.720501,0.000000,-9770.718434,0.000000
905.720825,518.144159,-10510.924376,76.609550
905.721149,518.144159,-9326.594869,995.924147
905.721473,0.000000,-9178.553681,842.705048
905.721797,-888.247130,-10288.862594,153.219100
905.722121,-962.267725,-10510.924376,76.609550
905.722445,-518.144159,-9992.780217,459.657299
905.722769,0.000000,-10436.903782,383.047749
905.723093,888.247130,-10214.842000,0.000000
905.723417,1406.391290,-10362.883188,0.000000
905.723742,740.205942,-10066.800811,-766.095498
905.724066,-148.041188,-10955.047942,-612.876398
905.724390,-1406.391290,-10807.006753,-1608.800546
905.724714,-1850.514855,-9696.697840,-1225.752797
905.725038,-1258.350101,-9844.739029,-766.095498
905.725362,-518.144159,-11325.150913,-459.657299
905.725686,518.144159,-11029.068536,-919.314598
905.726010,1406.391290,-9918.759623,76.609550
905.726334,740.205942,-9622.677246,459.657299
905.726658,0.000000,-10732.986159,0.000000
905.726983,370.102971,-9770.718434,306.438199
905.727307,592.164754,-9622.677246,1378.971896
905.727631,1110.308913,-10955.047942,995.924147
905.727955,2368.659014,-10510.924376,306.438199
905.728279,1924.535449,-8956.491898,153.219100
905.728603,1184.329507,-9178.553681,229.828649
905.728927,888.247130,-9992.780217,-306.438199
905.729251,592.164754,-9104.533087,-306.438199
905.729575,148.041188,-7920.203579,-306.438199
905.729899,-222.061783,-8660.409521,-842.705048
905.730224,74.020594,-9178.553681,-1685.410096
905.730548,148.041188,-8364.327145,-153.219100
905.730872,-370.102971,-8438.347739,76.609550
905.731196,-888.247130,-9104.533087,306.438199
905.731520,-740.205942,-8882.471304,612.876398
905.731844,-666.185348,-8068.244768,842.705048
905.732168,-592.164754,-8660.409521,459.657299
905.732492,-370.102971,-9400.615463,842.705048
905.732816,296.082377,-9474.636058,536.266849
905.733140,296.082377,-9252.574275,153.219100
905.733465,-592.164754,-9104.533087,-459.657299
905.733789,-1406.391290,-8808.450710,-1378.971896
905.734113,-814.226536,-8290.306550,-1378.971896
905.734437,-740.205942,-8808.450710,-1455.581446
905.734761,-962.267725,-10362.883188,-612.876398
905.735085,-518.144159,-10140.821405,-383.047749
905.735409,-222.061783,-9474.636058,-153.219100
905.735733,74.020594,-10140.821405,536.266849
905.736057,518.144159,-10807.006753,459.657299
905.736381,888.247130,-10807.006753,383.047749
905.736706,666.185348,-9844.739029,919.314598
905.737030,1184.329507,-11251.130318,1072.533697
905.737354,1924.535449,-12287.418637,842.705048
905.737678,1628.453072,-11399.171507,459.657299
905.738002,-296.082377,-10288.862594,-766.095498
905.738326,-1480.411884,-10362.883188,-1685.410096
905.738650,-1850.514855,-9696.697840,-2298.286494
905.738974,-1850.514855,-9548.656652,-2528.115143
905.739298,-1776.494261,-10288.862594,-2145.067394
905.739623,-888.247130,-11325.150913,-1378.971896
905.739947,1258.350101,-10955.047942,-229.828649
905.740271,1036.288319,-10214.842000,0.000000
905.740595,370.102971,-10436.903782,842.705048
905.740919,296.082377,-10436.903782,153.219100
905.741243,1110.308913,-10214.842000,995.924147
905.741567,1554.432478,-10510.924376,1685.410096
905.741891,2368.659014,-10881.027347,1838.629195
905.742215,2516.700203,-9992.780217,1072.533697
905.742539,1554.432478,-8364.327145,229.828649
905.742864,0.000000,-9104.533087,0.000000
905.743188,-1480.411884,-8512.368333,-2145.067394
905.743512,-2368.659014,-7846.182985,-1915.238745
905.743836,-2664.741391,-7550.100608,-2145.067394
905.744160,-1850.514855,-8512.368333,-2068.457845
905.744484,-1258.350101,-9030.512492,-1378.971896
905.744808,-740.205942,-8438.347739,-995.924147
905.745132,-962.267725,-8512.368333,-153.219100
905.745456,-444.123565,-10140.821405,689.485948
905.745780,1036.288319,-9622.677246,1455.581446
905.746105,2072.576638,-9326.594869,2757.943793
905.746429,2220.617826,-10436.903782,3217.601092
905.746753,2590.720797,-11399.171507,3447.429741
905.747077,2516.700203,-9696.697840,2221.676944
905.747401,666.185348,-7698.141797,1149.143247
905.747725,-2072.576638,-6735.874072,-995.924147
905.748049,-3627.009116,-7031.956449,-2451.505594
905.748373,-3701.029710,-7994.224174,-1455.581446
905.748697,-2812.782580,-9474.636058,-2221.676944
905.749021,-2664.741391,-9622.677246,-1685.410096
905.749345,-2294.638420,-8290.306550,-1455.581446
905.749669,-1702.473667,-8216.285956,-1225.752797
905.749993,-1036.288319,-10288.862594,0.000000
905.750317,1184.329507,-11473.192101,766.095498
905.750641,2590.720797,-10881.027347,2221.676944
905.750965,3108.864956,-10584.944971,2068.457845
905.751289,3330.926739,-11177.109724,1915.238745
905.751613,3552.988522,-11399.171507,1838.629195
905.751937,2516.700203,-11473.192101,1302.362347
905.752261,0.000000,-11547.212695,76.609550
905.752585,-2812.782580,-11251.130318,-1302.362347
905.752909,-2812.782580,-9770.718434,-2298.286494
905.753233,-2294.638420,-10066.800811,-2298.286494
905.753557,-1924.535449,-11547.212695,-1838.629195
905.753881,-814.226536,-11399.171507,-1762.019645
905.754205,-518.144159,-10140.821405,-1378.971896
905.754529,-1110.308913,-9770.718434,-383.047749
905.754853,-1480.411884,-10362.883188,459.657299
905.755177,740.205942,-10362.883188,1455.581446
905.755501,2886.803174,-9474.636058,2604.724693
905.755825,3330.926739,-9992.780217,3524.039291
905.756149,3923.091493,-10214.842000,3217.601092
905.756473,4515.256246,-9104.533087,2911.162892
905.756797,3108.864956,-7772.162391,1685.410096
905.757121,222.061783,-8216.285956,0.000000
905.757445,-1110.308913,-8808.450710,-995.924147
905.757769,-1628.453072,-7920.203579,-1991.848295
905.758093,-2072.576638,-8216.285956,-1225.752797
905.758417,-1998.556043,-8364.327145,-1532.190996
905.758741,-1554.432478,-8586.388927,-2068.457845
905.759065,-1998.556043,-8290.306550,-1302.362347
905.759389,-1702.473667,-9178.553681,-689.485948
905.759713,0.000000,-9474.636058,0.000000
905.760037,1036.288319,-8882.471304,1149.143247
905.760361,1628.453072,-9178.553681,2298.286494
905.760685,1036.288319,-10288.862594,2451.505594
905.761009,1924.535449,-10510.924376,1915.238745
905.761333,1628.453072,-9548.656652,1915.238745
905.761657,0.000000,-9548.656652,689.485948
905.761981,-1258.350101,-9104.533087,-1072.533697
905.762305,-1924.535449,-8586.388927,-1991.848295
905.762629,-2368.659014,-8956.491898,-2911.162892
905.762953,-3108.864956,-9696.697840,-3907.087040
905.763277,-3256.906145,-9992.780217,-3600.648841
905.763601,-2368.659014,-9770.718434,-2911.162892
905.763925,-1332.370696,-10140.821405,-2221.676944
905.764249,-666.185348,-10436.903782,-1762.019645
905.764573,1184.329507,-10214.842000,-766.095498
905.764897,3182.885551,-10288.862594,1149.143247
905.765221,4071.132681,-11473.192101,1991.848295
905.765545,3997.112087,-11843.295072,2068.457845
905.765869,3330.926739,-11177.109724,2068.457845
905.766193,2072.576638,-10732.986159,612.876398
905.766517,-370.102971,-10807.006753,-1378.971896
905.766841,-2072.576638,-9696.697840,-2298.286494
905.767165,-2220.617826,-9030.512492,-2451.505594
905.767489,-1628.453072,-9844.739029,-2911.162892
905.767813,-2072.576638,-10807.006753,-3064.381992
905.768137,-2072.576638,-9918.759623,-2757.943793
905.768461,-1850.514855,-9400.615463,-2757.943793
905.768785,-2368.659014,-10436.903782,-2145.067394
905.769109,-1480.411884,-10807.006753,-612.876398
905.769433,740.205942,-9992.780217,383.047749
905.769757,2368.659014,-9918.759623,1838.629195
905.770081,3108.864956,-11103.089130,2681.334243
905.770405,3478.967927,-10807.006753,2987.772442
905.770729,3256.906145,-9252.574275,2604.724693
905.771053,962.267725,-9252.574275,2145.067394
905.771377,-740.205942,-9474.636058,1225.752797
905.771701,-666.185348,-7846.182985,-229.828649
905.772025,-1702.473667,-7031.956449,-612.876398
905.772349,-2886.803174,-7476.080014,-1532.190996
905.772673,-2294.638420,-8364.327145,-1762.019645
905.772997,-1850.514855,-7402.059420,-1532.190996
905.773321,-1554.432478,-8142.265362,-536.266849
905.773645,-1998.556043,-8956.491898,-306.438199
905.773969,-370.102971,-8586.388927,459.657299
905.774293,1110.308913,-7920.203579,2451.505594
905.774617,1998.556043,-9992.780217,3294.210641
905.774941,3404.947333,-11843.295072,3600.648841
905.775265,4071.132681,-10584.944971,4060.306139
905.775589,3552.988522,-9622.677246,4290.134789
905.775913,2368.659014,-10436.903782,3524.039291
905.776237,740.205942,-10066.800811,1378.971896
905.776561,-740.205942,-8438.347739,-153.219100
905.776885,-2664.741391,-9104.533087,-995.924147
905.777209,-3108.864956,-10658.965565,-2221.676944
905.777533,-2368.659014,-10362.883188,-2451.505594
905.777857,-2368.659014,-8808.450710,-1762.019645
905.778181,-3182.885551,-9252.574275,-1838.629195
905.778505,-2590.720797,-10362.883188,-1532.190996
905.778829,-962.267725,-9992.780217,-459.657299
905.779153,666.185348,-9474.636058,1072.533697
905.779477,2294.638420,-11177.109724,2298.286494
905.779801,4145.153275,-11251.130318,2911.162892
905.780125,4663.297435,-10658.965565,3600.648841
905.780449,4145.153275,-10288.862594,3907.087040
905.780773,2590.720797,-11177.109724,2757.943793
905.781097,1480.411884,-10214.842000,536.266849
905.781421,592.164754,-7846.182985,-383.047749
905.781745,-888.247130,-7476.080014,-919.314598
905.782069,-2072.576638,-9474.636058,-2374.896044
905.782393,-3404.947333,-10066.800811,-2911.162892
905.782717,-3775.050304,-9770.718434,-2987.772442
905.783041,-4219.173869,-9252.574275,-2451.505594
905.783365,-3478.967927,-8808.450710,-2451.505594
905.783689,-1702.473667,-8512.368333,-1072.533697
905.784013,222.061783,-9326.594869,612.876398
905.784337,1776.494261,-10955.047942,1455.581446
905.784661,2294.638420,-10066.800811,2451.505594
905.784985,2442.679609,-9918.759623,2374.896044
905.785310,1924.535449,-10881.027347,2681.334243
905.785634,2072.576638,-10881.027347,1991.848295
905.785958,1850.514855,-9326.594869,1149.143247
905.786282,592.164754,-7550.100608,-766.095498
905.786606,-1480.411884,-7550.100608,-3524.039291
905.786930,-2220.617826,-9326.594869,-3217.601092
905.787254,-1924.535449,-9548.656652,-3217.601092
905.787578,-2368.659014,-9770.718434,-3753.867940
905.787902,-3775.050304,-9252.574275,-2604.724693
905.788226,-3108.864956,-8216.285956,-2604.724693
905.788550,-1480.411884,-8438.347739,-1378.971896
905.788874,592.164754,-10436.903782,-689.485948
905.789198,2664.741391,-11177.109724,1072.533697
905.789522,4589.276840,-10436.903782,1838.629195
905.789846,4293.194464,-11029.068536,1991.848295
905.790170,3108.864956,-11177.109724,2451.505594
905.790494,2590.720797,-10214.842000,1991.848295
905.790818,666.185348,-9474.636058,842.705048
905.791142,-1406.391290,-9770.718434,-2298.286494
905.791466,-2368.659014,-10288.862594,-3370.820191
905.791790,-1184.329507,-9696.697840,-3217.601092
905.792114,-1184.329507,-9696.697840,-2757.943793
905.792438,-2516.700203,-10066.800811,-2451.505594
905.792762,-3256.906145,-9104.533087,-2528.115143
905.793086,-2960.823768,-8364.327145,-2451.505594
905.793410,-1702.473667,-9030.512492,-995.924147
905.793734,296.082377,-10140.821405,-153.219100
905.794058,2886.803174,-10732.986159,1378.971896
905.794382,4219.173869,-10436.903782,2757.943793
905.794706,2516.700203,-11177.109724,2987.772442
905.795030,1036.288319,-11325.150913,3140.991542
905.795354,1110.308913,-10288.862594,2528.115143
905.795678,1036.288319,-9474.636058,1302.362347
905.796002,-370.102971,-8438.347739,-1072.533697
905.796326,-1776.494261,-7920.203579,-1838.629195
905.796650,-1628.453072,-8808.450710,-1991.848295
905.796974,-1554.432478,-10510.924376,-1838.629195
905.797298,-1554.432478,-10658.965565,-1685.410096
905.797622,-1628.453072,-8290.306550,-842.705048
905.797946,-1184.329507,-7772.162391,-536.266849
905.798270,-148.041188,-10288.862594,0.000000
905.798594,2294.638420,-10807.006753,1072.533697
905.798918,4071.132681,-9844.739029,3217.601092
905.799242,3997.112087,-9696.697840,3064.381992
905.799566,2146.597232,-10362.883188,2911.162892
905.799890,1776.494261,-9326.594869,2681.334243
905.800214,1184.329507,-8216.285956,2221.676944
905.800538,-444.123565,-8734.430116,459.657299
905.800862,-2072.576638,-9844.739029,-612.876398
905.801186,-1702.473667,-8660.409521,-1608.800546
905.801510,-1258.350101,-8068.244768,-1455.581446
905.801834,-1924.535449,-9252.574275,-1225.752797
905.802158,-2590.720797,-9474.636058,-1149.143247
905.802482,-2146.597232,-8660.409521,-842.705048
905.802806,-1332.370696,-8586.388927,-153.219100
905.803130,74.020594,-10288.862594,919.314598
905.803454,2442.679609,-9918.759623,1608.800546
905.803778,3997.112087,-9178.553681,2757.943793
905.804102,3997.112087,-9918.759623,3064.381992
905.804426,2368.659014,-9992.780217,2451.505594
905.804750,1258.350101,-9400.615463,2145.067394
905.805074,74.020594,-9030.512492,1455.581446
905.805398,-962.267725,-9252.574275,306.438199
905.805722,-962.267725,-9622.677246,-1225.752797
905.806046,-1702.473667,-8734.430116,-1302.362347
905.806370,-3182.885551,-8882.471304,-1762.019645
905.806694,-3404.947333,-10214.842000,-1225.752797
905.807018,-3256.906145,-9474.636058,-1455.581446
905.807342,-2812.782580,-8660.409521,-1225.752797
905.807666,-2072.576638,-9770.718434,0.000000
905.807990,0.000000,-10955.047942,153.219100
905.808314,1554.432478,-10881.027347,842.705048
905.808638,1702.473667,-10362.883188,766.095498
905.808962,740.205942,-10807.006753,1378.971896
905.809286,1406.391290,-10955.047942,995.924147
905.809610,1258.350101,-9548.656652,995.924147
905.809934,370.102971,-9474.636058,536.266849
905.810258,-148.041188,-11103.089130,-536.266849
905.810582,-296.082377,-10807.006753,-1072.533697
905.810906,-1110.308913,-9548.656652,-1608.800546
905.811230,-2368.659014,-10066.800811,-1608.800546
905.811554,-2886.803174,-10510.924376,-2681.334243
905.811878,-2368.659014,-9548.656652,-2451.505594
905.812202,-1850.514855,-9104.533087,-1378.971896
905.812526,148.041188,-10066.800811,-995.924147
905.812850,1924.535449,-10732.986159,-383.047749
905.813174,3182.885551,-9770.718434,842.705048
905.813498,2368.659014,-9918.759623,842.705048
905.813822,1924.535449,-10658.965565,766.095498
905.814146,1036.288319,-9622.677246,459.657299
905.814470,888.247130,-9104.533087,459.657299
905.814794,666.185348,-9770.718434,-306.438199
905.815118,296.082377,-10066.800811,-1225.752797
905.815442,0.000000,-8882.471304,-1532.190996
905.815766,-888.247130,-8882.471304,-2298.286494
905.816090,-2442.679609,-9104.533087,-2681.334243
905.816414,-2442.679609,-8808.450710,-2451.505594
905.816738,-2368.659014,-7994.224174,-2145.067394
905.817062,-1258.350101,-9474.636058,-1532.190996
905.817386,296.082377,-10066.800811,-919.314598
905.817710,1924.535449,-9474.636058,153.219100
905.818034,2368.659014,-9474.636058,842.705048
905.818358,2442.679609,-10807.006753,1225.752797
905.818682,1702.473667,-9918.759623,1532.190996
905.819006,1406.391290,-9178.553681,1608.800546
905.819330,888.247130,-9548.656652,1532.190996
905.819654,296.082377,-10584.944971,459.657299
905.819978,0.000000,-9844.739029,0.000000
905.820302,-740.205942,-8734.430116,0.000000
905.820626,-2220.617826,-9400.615463,-689.485948
905.820950,-2960.823768,-9992.780217,-1378.971896
905.821274,-2886.803174,-8734.430116,-1455.581446
905.821598,-2146.597232,-8438.347739,-229.828649
905.821922,-666.185348,-9770.718434,-153.219100
905.822246,814.226536,-10436.903782,153.219100
905.822570,2220.617826,-9326.594869,766.095498
905.822894,1998.556043,-8438.347739,995.924147
905.823218,1628.453072,-9696.697840,1762.019645
905.823542,1406.391290,-9474.636058,1532.190996
905.823866,1480.411884,-9104.533087,2221.676944
905.824190,1036.288319,-10288.862594,1991.848295
905.824514,518.144159,-10140.821405,1149.143247
905.824838,-148.041188,-9178.553681,766.095498
905.825162,-1258.350101,-9474.636058,383.047749
905.825486,-2072.576638,-9696.697840,-229.828649
905.825810,-2220.617826,-9918.759623,-459.657299
905.826134,-1554.432478,-8586.388927,229.828649
905.826458,-1036.288319,-9104.533087,919.314598
905.826782,-148.041188,-9770.718434,995.924147
905.827106,1036.288319,-9548.656652,1302.362347
905.827430,1332.370696,-9252.574275,1532.190996
905.827754,1110.308913,-9696.697840,1838.629195
905.828078,592.164754,-9844.739029,1455.581446
905.828402,1184.329507,-9474.636058,1991.848295
905.828726,0.000000,-9474.636058,1302.362347
905.829050,-1184.329507,-10066.800811,842.705048
905.829374,-1110.308913,-9844.739029,0.000000
905.829698,-370.102971,-8808.450710,-536.266849
905.830022,-666.185348,-9030.512492,-153.219100
905.830346,-592.164754,-9622.677246,153.219100
905.830670,-296.082377,-9178.553681,306.438199
905.830994,0.000000,-8586.388927,306.438199
905.831318,-666.185348,-9918.759623,0.000000
905.831642,0.000000,-10066.800811,-306.438199
905.831966,1258.350101,-9770.718434,0.000000
905.832290,1036.288319,-10584.944971,612.876398
905.832614,0.000000,-11177.109724,0.000000
905.832938,-888.247130,-10288.862594,0.000000
905.833262,-1110.308913,-9622.677246,-229.828649
905.833586,-444.123565,-10066.800811,-1685.410096
905.833910,0.000000,-10658.965565,-1838.629195
905.834234,-518.144159,-10436.903782,-1915.238745
905.834558,-1184.329507,-10658.965565,-1225.752797
905.834882,-962.267725,-11251.130318,-1685.410096
905.835206,-370.102971,-10510.924376,-1455.581446
905.835530,0.000000,-9548.656652,-612.876398
905.835855,962.267725,-9918.759623,0.000000
905.836179,2146.597232,-10658.965565,0.000000
905.836503,3182.885551,-10066.800811,-153.219100
905.836827,2294.638420,-9030.512492,76.609550
905.837151,666.185348,-9474.636058,-229.828649
905.837475,-222.061783,-9400.615463,-1149.143247
905.837799,-148.041188,-7624.121203,-995.924147
905.838123,-1036.288319,-7328.038826,-1302.362347
905.838447,-1332.370696,-9400.615463,-1915.238745
905.838771,-1110.308913,-9474.636058,-2298.286494
905.839095,-592.164754,-8142.265362,-1532.190996
905.839419,-370.102971,-8290.306550,-1225.752797
905.839743,-370.102971,-10288.862594,-536.266849
905.840067,-444.123565,-9844.739029,0.000000
905.840391,222.061783,-8882.471304,536.266849
905.840715,888.247130,-9844.739029,919.314598
905.841039,888.247130,-10510.924376,459.657299
905.841363,814.226536,-9844.739029,383.047749
905.841687,370.102971,-9474.636058,153.219100
905.842011,0.000000,-9696.697840,0.000000
905.842335,-222.061783,-10140.821405,0.000000
905.842659,-814.226536,-8808.450710,-383.047749
905.842983,-518.144159,-9696.697840,-306.438199
905.843307,-1184.329507,-10140.821405,-536.266849
905.843631,0.000000,-9474.636058,-766.095498
905.843955,0.000000,-8734.430116,0.000000
905.844279,0.000000,-9992.780217,459.657299
905.844603,518.144159,-10140.821405,766.095498
905.844927,1036.288319,-9622.677246,459.657299
905.845251,444.123565,-9474.636058,1838.629195
905.845575,296.082377,-10658.965565,842.705048
905.845899,518.144159,-10510.924376,-153.219100
905.846223,222.061783,-9474.636058,0.000000
905.846547,-148.041188,-10066.800811,0.000000
905.846871,-740.205942,-10510.924376,0.000000
905.847195,-518.144159,-9696.697840,-842.705048
905.847519,-1554.432478,-9178.553681,0.000000
905.847843,-740.205942,-10510.924376,0.000000
905.848167,-444.123565,-11103.089130,-229.828649
905.848491,-296.082377,-10510.924376,229.828649
905.848815,-666.185348,-10214.842000,995.924147
905.849139,-148.041188,-10140.821405,689.485948
905.849463,1110.308913,-9696.697840,1225.752797
905.849787,1628.453072,-9252.574275,1378.971896
905.850111,2072.576638,-10436.903782,1915.238745
905.850435,1554.432478,-10436.903782,1149.143247
905.850759,1332.370696,-8290.306550,612.876398
905.851083,-444.123565,-7550.100608,76.609550
905.851407,-1850.514855,-8882.471304,-459.657299
905.851731,-1702.473667,-8956.491898,-1532.190996
905.852055,-1406.391290,-7328.038826,-1072.533697
905.852379,-1036.288319,-7846.182985,-153.219100
905.852703,0.000000,-9844.739029,-459.657299
905.853026,148.041188,-9252.574275,-536.266849
905.853350,-296.082377,-8438.347739,1149.143247
905.853674,-740.205942,-9548.656652,1378.971896
905.853998,0.000000,-10510.924376,689.485948
905.854322,740.205942,-9178.553681,689.485948
905.854646,1036.288319,-8512.368333,1378.971896
905.854970,1850.514855,-10584.944971,1455.581446
905.855294,2294.638420,-10362.883188,383.047749
905.855618,814.226536,-8882.471304,76.609550
905.855942,-962.267725,-8808.450710,-689.485948
905.856266,-2072.576638,-9844.739029,-2145.067394
905.856590,-2072.576638,-9474.636058,-1991.848295
905.856914,-1924.535449,-8660.409521,-1685.410096
905.857238,-1036.288319,-9252.574275,-1685.410096
905.857562,296.082377,-10066.800811,-1762.019645
905.857886,740.205942,-9474.636058,-842.705048
905.858210,518.144159,-9696.697840,306.438199
905.858534,518.144159,-10881.027347,383.047749
905.858858,1184.329507,-10881.027347,766.095498
905.859182,1776.494261,-9548.656652,1532.190996
905.859506,2368.659014,-10436.903782,1225.752797
905.859830,2220.617826,-11843.295072,612.876398
905.860154,1924.535449,-10881.027347,76.609550
905.860478,666.185348,-10140.821405,-383.047749
905.860802,-888.247130,-10362.883188,-1225.752797
905.861126,-1776.494261,-9844.739029,-2451.505594
905.861450,-1628.453072,-8734.430116,-2757.943793
905.861774,-1776.494261,-9104.533087,-2757.943793
905.862098,-1480.411884,-10288.862594,-1991.848295
905.862422,-1184.329507,-9770.718434,-1455.581446
905.862746,-444.123565,-9252.574275,-842.705048
905.863070,-296.082377,-9622.677246,76.609550
905.863394,0.000000,-10436.903782,536.266849
905.863718,444.123565,-10510.924376,1455.581446
905.864042,592.164754,-10436.903782,2757.943793
905.864366,666.185348,-11251.130318,2757.943793
905.864690,1702.473667,-10955.047942,1838.629195
905.865014,1628.453072,-8512.368333,459.657299
905.865338,-592.164754,-7994.224174,-689.485948
905.865662,-2294.638420,-9326.594869,-1608.800546
905.865986,-2146.597232,-9326.594869,-2681.334243
905.866310,-1998.556043,-8364.327145,-2374.896044
905.866634,-2590.720797,-8364.327145,-1532.190996
905.866958,-2220.617826,-9474.636058,-2298.286494
905.867282,-666.185348,-9918.759623,-1378.971896
905.867606,0.000000,-9844.739029,0.000000
905.867930,222.061783,-10807.006753,766.095498
905.868254,1554.432478,-10807.006753,1838.629195
905.868578,2294.638420,-9992.780217,2528.115143
905.868902,2590.720797,-10584.944971,3294.210641
905.869226,2442.679609,-10955.047942,2068.457845
905.869550,1702.473667,-9918.759623,1225.752797
905.869874,-296.082377,-8364.327145,612.876398
905.870198,-2368.659014,-8586.388927,-919.314598
905.870522,-2220.617826,-8586.388927,-2221.676944
905.870846,-2072.576638,-8216.285956,-2604.724693
905.871170,-2590.720797,-8068.244768,-2298.286494
905.871494,-2220.617826,-9400.615463,-1991.848295
905.871818,-370.102971,-9474.636058,-1072.533697
905.872142,666.185348,-9400.615463,-153.219100
905.872466,888.247130,-9696.697840,612.876398
905.872790,1776.494261,-10214.842000,1072.533697
905.873114,2886.803174,-10288.862594,2221.676944
905.873438,3627.009116,-11029.068536,3600.648841
905.873762,4293.194464,-11547.212695,3983.696590
905.874086,4589.276840,-11029.068536,3524.039291
905.874410,3256.906145,-9548.656652,2451.505594
905.874734,370.102971,-9326.594869,995.924147
905.875058,-2368.659014,-9474.636058,-995.924147
905.875382,-3330.926739,-9030.512492,-1838.629195
905.875706,-3330.926739,-7846.182985,-2145.067394
905.876030,-3701.029710,-7994.224174,-1608.800546
905.876354,-2442.679609,-7920.203579,-1608.800546
905.876678,-1776.494261,-7772.162391,-612.876398
905.877002,-962.267725,-9104.533087,306.438199
905.877326,518.144159,-10066.800811,1455.581446
905.877650,2368.659014,-9622.677246,1915.238745
905.877974,2886.803174,-9030.512492,3064.381992
905.878298,2590.720797,-10214.842000,3753.867940
905.878621,2738.761985,-11695.253884,3677.258390
905.878945,2220.617826,-10510.924376,2068.457845
905.879269,814.226536,-9178.553681,2298.286494
905.879593,-1480.411884,-8586.388927,0.000000
905.879917,-3034.844362,-8068.244768,-2374.896044
905.880241,-3849.070898,-7994.224174,-2757.943793
905.880565,-3923.091493,-9104.533087,-2757.943793
905.880889,-3330.926739,-10881.027347,-3370.820191
905.881213,-2886.803174,-10288.862594,-2834.553343
905.881537,-1702.473667,-8956.491898,-1685.410096
905.881861,0.000000,-9918.759623,-1608.800546
905.882185,740.205942,-11325.150913,0.000000
905.882509,2368.659014,-11843.295072,919.314598
905.882833,3182.885551,-12287.418637,1915.238745
905.883157,3849.070898,-12657.521608,2528.115143
905.883481,4367.215058,-11843.295072,2681.334243
905.883805,3404.947333,-10214.842000,1455.581446
905.884129,518.144159,-9474.636058,-459.657299
905.884453,-2368.659014,-9918.759623,-1838.629195
905.884777,-3034.844362,-9548.656652,-3140.991542
905.885101,-2812.782580,-8882.471304,-3064.381992
905.885425,-2516.700203,-9548.656652,-2757.943793
905.885749,-1702.473667,-9992.780217,-2451.505594
905.886073,-296.082377,-8586.388927,-2528.115143
905.886397,-296.082377,-8364.327145,-1915.238745
905.886721,-962.267725,-10214.842000,-689.485948
905.887045,0.000000,-10955.047942,-153.219100
905.887369,2442.679609,-9400.615463,1225.752797
905.887693,3849.070898,-9030.512492,2451.505594
905.888017,4145.153275,-10288.862594,2374.896044
905.888341,4071.132681,-10584.944971,2374.896044
905.888665,2146.597232,-10732.986159,2374.896044
905.888989,-148.041188,-9474.636058,1455.581446
905.889313,-2072.576638,-8068.244768,-1455.581446
905.889637,-3404.947333,-6883.915261,-2298.286494
905.889961,-4145.153275,-8586.388927,-1991.848295
905.890285,-3478.967927,-10658.965565,-2374.896044
905.890609,-2590.720797,-10510.924376,-2451.505594
905.890933,-3034.844362,-7846.182985,-1225.752797
905.891257,-2368.659014,-8364.327145,-689.485948
905.891581,-814.226536,-9770.718434,0.000000
905.891905,1258.350101,-9770.718434,919.314598
905.892229,2812.782580,-9104.533087,2681.334243
905.892553,3552.988522,-10362.883188,3294.210641
905.892877,4515.256246,-11029.068536,2528.115143
905.893201,4367.215058,-8956.491898,2374.896044
905.893525,1924.535449,-8438.347739,2451.505594
905.893849,-888.247130,-9770.718434,536.266849
905.894173,-2812.782580,-9918.759623,-1762.019645
905.894497,-3775.050304,-8142.265362,-2068.457845
905.894821,-3256.906145,-7994.224174,-2145.067394
905.895145,-2368.659014,-9474.636058,-2451.505594
905.895469,-2294.638420,-9474.636058,-1762.019645
905.895793,-1406.391290,-8956.491898,-1225.752797
905.896117,-1036.288319,-9622.677246,-383.047749
905.896441,444.123565,-10066.800811,459.657299
905.896765,1998.556043,-9844.739029,1915.238745
905.897089,3627.009116,-10510.924376,3294.210641
905.897413,4737.318029,-11843.295072,3370.820191
905.897737,4811.338623,-11843.295072,3370.820191
905.898061,2886.803174,-9622.677246,2221.676944
905.898385,1036.288319,-9992.780217,0.000000
905.898709,-1184.329507,-10362.883188,-536.266849
905.899033,-2072.576638,-9622.677246,-2145.067394
905.899357,-3478.967927,-9400.615463,-2298.286494
905.899681,-3404.947333,-9400.615463,-2221.676944
905.900005,-2294.638420,-9030.512492,-2298.286494
905.900329,-1554.432478,-9252.574275,-2221.676944
905.900653,-1702.473667,-8882.471304,-1302.362347
905.900977,-518.144159,-9474.636058,229.828649
905.901301,1258.350101,-9844.739029,766.095498
905.901625,2590.720797,-9548.656652,2145.067394
905.901949,3256.906145,-10732.986159,3140.991542
905.902273,3256.906145,-11843.295072,2604.724693
905.902597,2960.823768,-10955.047942,2298.286494
905.902921,1036.288319,-10362.883188,2221.676944
905.903245,-962.267725,-10066.800811,153.219100
905.903569,-2368.659014,-9844.739029,-1685.410096
905.903893,-3552.988522,-9178.553681,-2298.286494
905.904216,-3923.091493,-9622.677246,-2298.286494
905.904540,-3701.029710,-9918.759623,-3217.601092
905.904864,-3182.885551,-9030.512492,-2757.943793
905.905188,-2442.679609,-8290.306550,-2374.896044
905.905512,-888.247130,-9326.594869,-1532.190996
905.905836,592.164754,-9400.615463,-842.705048
905.906160,2368.659014,-9474.636058,1532.190996
905.906484,3627.009116,-10066.800811,2604.724693
905.906808,4515.256246,-10658.965565,2987.772442
905.907132,3627.009116,-10140.821405,2604.724693
905.907456,2072.576638,-9030.512492,2145.067394
905.907780,444.123565,-9474.636058,995.924147
905.908104,-592.164754,-9844.739029,-153.219100
905.908428,-1332.370696,-8216.285956,-1072.533697
905.908752,-2368.659014,-7031.956449,-1455.581446
905.909076,-3108.864956,-7920.203579,-2451.505594
905.909400,-2812.782580,-8660.409521,-2911.162892
905.909724,-2146.597232,-8438.347739,-3064.381992
905.910048,-2220.617826,-8734.430116,-2987.772442
905.910372,-2368.659014,-9622.677246,-1455.581446
905.910696,-444.123565,-10066.800811,-536.266849
905.911020,2072.576638,-10214.842000,1225.752797
905.911344,4145.153275,-11991.336260,2834.553343
905.911668,4589.276840,-12805.562797,2374.896044
905.911992,3775.050304,-12139.377449,2604.724693
905.912316,2590.720797,-11251.130318,2221.676944
905.912640,1110.308913,-11251.130318,1532.190996
905.912964,0.000000,-10807.006753,153.219100
905.913288,-1110.308913,-9548.656652,-766.095498
905.913612,-2368.659014,-9178.553681,-1685.410096
905.913936,-3330.926739,-9696.697840,-2681.334243
905.914260,-3182.885551,-9252.574275,-3370.820191
905.914584,-3404.947333,-8216.285956,-2681.334243
905.914908,-3330.926739,-8882.471304,-1685.410096
905.915232,-2072.576638,-9104.533087,-1838.629195
905.915556,222.061783,-8586.388927,-383.047749
905.915880,1924.535449,-8882.471304,536.266849
905.916204,3627.009116,-10510.924376,1915.238745
905.916528,4663.297435,-10955.047942,1302.362347
905.916852,4441.235652,-9696.697840,2681.334243
905.917176,3108.864956,-9696.697840,2528.115143
905.917500,1702.473667,-10807.006753,1532.190996
905.917824,740.205942,-9770.718434,383.047749
905.918148,-888.247130,-8660.409521,0.000000
905.918472,-2072.576638,-9474.636058,-995.924147
905.918796,-2516.700203,-9548.656652,-1685.410096
905.919120,-2590.720797,-8512.368333,-1991.848295
905.919444,-2812.782580,-7846.182985,-1915.238745
905.919768,-2738.761985,-8734.430116,-2221.676944
905.920092,-2664.741391,-8956.491898,-1915.238745
905.920416,-1332.370696,-8216.285956,-995.924147
905.920740,1036.288319,-9918.759623,1072.533697
905.921064,3478.967927,-10881.027347,919.314598
905.921388,4589.276840,-10510.924376,2374.896044
905.921712,3849.070898,-9548.656652,3064.381992
905.922036,2442.679609,-10658.965565,2298.286494
905.922360,1406.391290,-10955.047942,1608.800546
905.922684,296.082377,-9844.739029,1072.533697
905.923008,-518.144159,-8586.388927,766.095498
905.923332,-1776.494261,-9252.574275,-612.876398
905.923656,-1480.411884,-8660.409521,-919.314598
905.923980,-1776.494261,-7846.182985,-1532.190996
905.924304,-2368.659014,-8438.347739,-995.924147
905.924628,-2368.659014,-8956.491898,-995.924147
905.924952,-1480.411884,-8364.327145,-612.876398
905.925276,-740.205942,-8438.347739,459.657299
905.925600,888.247130,-10140.821405,1302.362347
905.925924,1184.329507,-10732.986159,1225.752797
905.926248,1998.556043,-10807.006753,1378.971896
905.926572,1332.370696,-10436.903782,1915.238745
905.926896,666.185348,-11103.089130,1838.629195
905.927220,1184.329507,-10807.006753,919.314598
905.927544,888.247130,-10510.924376,306.438199
905.927868,-296.082377,-10584.944971,-612.876398
905.928192,-1702.473667,-10288.862594,-1685.410096
905.928516,-2146.597232,-10140.821405,-2451.505594
905.928840,-2516.700203,-9178.553681,-1991.848295
905.929164,-2590.720797,-10140.821405,-1915.238745
905.929488,-2294.638420,-10288.862594,-2298.286494
905.929811,-1332.370696,-9326.594869,-1608.800546
905.930135,0.000000,-9400.615463,-306.438199
905.930459,1850.514855,-10807.006753,919.314598
905.930783,3108.864956,-11251.130318,1072.533697
905.931107,2886.803174,-9918.759623,1762.019645
905.931431,1184.329507,-9104.533087,1608.800546
905.931755,518.144159,-9992.780217,1149.143247
905.932079,370.102971,-9844.739029,919.314598
905.932403,-296.082377,-9326.594869,536.266849
905.932727,-962.267725,-9252.574275,-383.047749
905.933051,-962.267725,-8586.388927,-1225.752797
905.933375,-1258.350101,-8882.471304,-1838.629195
905.933699,-1628.453072,-8956.491898,-1149.143247
905.934023,-2442.679609,-9400.615463,-1685.410096
905.934347,-2368.659014,-8438.347739,-1608.800546
905.934671,-1628.453072,-7846.182985,-612.876398
905.934995,-666.185348,-9326.594869,0.000000
905.935319,814.226536,-10436.903782,0.000000
905.935643,1776.494261,-9622.677246,612.876398
905.935967,1628.453072,-9844.739029,1608.800546
905.936291,740.205942,-9622.677246,2068.457845
905.936615,444.123565,-9548.656652,1225.752797
905.936939,-74.020594,-9474.636058,1302.362347
905.937263,-962.267725,-10362.883188,689.485948
905.937587,-1258.350101,-10658.965565,-383.047749
905.937911,-814.226536,-9252.574275,-689.485948
905.938235,-370.102971,-8068.244768,0.000000
905.938559,-296.082377,-8956.491898,-459.657299
905.938883,-814.226536,-9474.636058,-995.924147
905.939207,-888.247130,-8216.285956,-1072.533697
905.939531,0.000000,-8438.347739,-383.047749
905.939855,1258.350101,-9844.739029,306.438199
905.940179,2442.679609,-10658.965565,306.438199
905.940503,1702.473667,-8808.450710,0.000000
905.940827,296.082377,-8808.450710,1302.362347
905.941151,592.164754,-10955.047942,383.047749
905.941475,518.144159,-10658.965565,76.609550
905.941799,74.020594,-9844.739029,536.266849
905.942123,-296.082377,-9622.677246,306.438199
905.942447,74.020594,-10362.883188,-612.876398
905.942771,0.000000,-9696.697840,-842.705048
905.943095,-1036.288319,-9252.574275,-842.705048
905.943419,-1258.350101,-10066.800811,-842.705048
905.943743,-1258.350101,-9474.636058,-1685.410096
905.944067,-592.164754,-9030.512492,-689.485948
905.944391,444.123565,-9844.739029,-306.438199
905.944715,1554.432478,-10658.965565,-306.438199
905.945039,1998.556043,-10140.821405,-995.924147
905.945363,1850.514855,-10214.842000,-612.876398
905.945687,1184.329507,-10881.027347,306.438199
905.946011,1628.453072,-10436.903782,0.000000
905.946335,1480.411884,-9696.697840,229.828649
905.946659,666.185348,-9918.759623,0.000000
905.946983,0.000000,-10732.986159,-689.485948
905.947307,-444.123565,-9992.780217,-766.095498
905.947631,-1332.370696,-9844.739029,153.219100
905.947955,-1554.432478,-9844.739029,0.000000
905.948279,-1702.473667,-10140.821405,-459.657299
905.948603,-1258.350101,-9474.636058,0.000000
905.948927,-1332.370696,-9474.636058,153.219100
905.949251,-592.164754,-9844.739029,0.000000
905.949576,0.000000,-9548.656652,-766.095498
905.949900,-148.041188,-8586.388927,-1149.143247
905.950224,-592.164754,-9178.553681,-229.828649
905.950548,-666.185348,-9400.615463,-689.485948
905.950872,-444.123565,-8734.430116,-536.266849
905.951196,-666.185348,-8512.368333,-612.876398
905.951520,-370.102971,-9844.739029,383.047749
905.951845,592.164754,-10584.944971,-306.438199
905.952169,1184.329507,-9474.636058,-536.266849
905.952493,518.144159,-9030.512492,229.828649
905.952817,74.020594,-9918.759623,153.219100
905.953141,148.041188,-10140.821405,536.266849
905.953465,0.000000,-9474.636058,612.876398
905.953789,-444.123565,-8586.388927,0.000000
905.954114,0.000000,-9844.739029,-229.828649
905.954438,222.061783,-9696.697840,0.000000
905.954762,-444.123565,-9548.656652,-153.219100
905.955086,-1924.535449,-9770.718434,-306.438199
905.955410,-1998.556043,-9178.553681,-612.876398
905.955734,-1480.411884,-8882.471304,-383.047749
905.956058,-1702.473667,-9474.636058,306.438199
905.956382,222.061783,-10807.006753,153.219100
905.956707,888.247130,-10140.821405,383.047749
905.957031,962.267725,-9770.718434,766.095498
905.957355,148.041188,-10066.800811,689.485948
905.957679,-592.164754,-10140.821405,536.266849
905.958003,-148.041188,-9104.533087,995.924147
905.958327,518.144159,-9474.636058,1149.143247
905.958651,1776.494261,-10584.944971,1225.752797
905.958976,2146.597232,-10140.821405,383.047749
905.959300,1184.329507,-9104.533087,306.438199
905.959624,0.000000,-9326.594869,-153.219100
905.959948,-740.205942,-9770.718434,-383.047749
905.960272,-814.226536,-9770.718434,-306.438199
905.960596,-444.123565,-9400.615463,-229.828649
905.960920,-518.144159,-9030.512492,76.609550
905.961245,0.000000,-9474.636058,306.438199
905.961569,148.041188,-9696.697840,306.438199
905.961893,0.000000,-10288.862594,383.047749
905.962217,-444.123565,-10288.862594,919.314598
905.962541,0.000000,-9844.739029,766.095498
905.962865,444.123565,-9326.594869,536.266849
905.963189,0.000000,-9474.636058,229.828649
905.963513,-518.144159,-10436.903782,-229.828649
905.963838,0.000000,-10288.862594,-919.314598
905.964162,-296.082377,-9474.636058,-919.314598
905.964486,-888.247130,-9474.636058,-919.314598
905.964810,-592.164754,-9326.594869,-1072.533697
905.965134,0.000000,-8438.347739,-919.314598
905.965458,148.041188,-9252.574275,-766.095498
905.965782,814.226536,-10362.883188,-842.705048
905.966107,1628.453072,-9770.718434,-229.828649
905.966431,1110.308913,-9474.636058,229.828649
905.966755,518.144159,-9104.533087,0.000000
905.967079,296.082377,-9548.656652,0.000000
905.967403,222.061783,-9770.718434,383.047749
905.967727,0.000000,-9326.594869,229.828649
905.968051,-740.205942,-9474.636058,0.000000
905.968376,0.000000,-9770.718434,0.000000
905.968700,444.123565,-9622.677246,-1149.143247
905.969024,-296.082377,-9696.697840,-995.924147
905.969348,-740.205942,-9474.636058,-842.705048
905.969672,-592.164754,-9326.594869,-1149.143247
905.969996,-814.226536,-9400.615463,-842.705048
905.970320,-518.144159,-10140.821405,-689.485948
905.970644,518.144159,-10510.924376,-383.047749
905.970969,1776.494261,-9992.780217,-612.876398
905.971293,370.102971,-9992.780217,612.876398
905.971617,-148.041188,-10584.944971,689.485948
905.971941,0.000000,-10066.800811,459.657299
905.972265,592.164754,-9770.718434,1378.971896
905.972589,666.185348,-9770.718434,1455.581446
905.972913,592.164754,-10066.800811,0.000000
905.973238,370.102971,-9030.512492,0.000000
905.973562,0.000000,-7772.162391,-766.095498
905.973886,-1554.432478,-8660.409521,-1225.752797
905.974210,-2220.617826,-9326.594869,-2068.457845
905.974534,-1850.514855,-9104.533087,-2145.067394
905.974858,-1406.391290,-8956.491898,-1532.190996
905.975182,-370.102971,-9474.636058,-1072.533697
905.975507,666.185348,-9696.697840,-306.438199
905.975831,1036.288319,-9992.780217,153.219100
905.976155,444.123565,-10584.944971,383.047749
905.976479,518.144159,-11769.274478,766.095498
905.976803,1406.391290,-11029.068536,1302.362347
905.977127,1628.453072,-9992.780217,1532.190996
905.977451,1406.391290,-10140.821405,1838.629195
905.977775,1702.473667,-10881.027347,766.095498
905.978100,888.247130,-9622.677246,-536.266849
905.978424,-1184.329507,-8734.430116,-1608.800546
905.978748,-2664.741391,-9326.594869,-1608.800546
905.979072,-2368.659014,-9400.615463,-2068.457845
905.979396,-2368.659014,-9030.512492,-2221.676944
905.979720,-2442.679609,-9178.553681,-2145.067394
905.980044,-2072.576638,-9474.636058,-1915.238745
