#time,accel_x,accel_y,accel_z
623.444288,-148.041188,-9696.697840,0.000000
623.444612,74.020594,-9770.718434,0.000000
623.444936,0.000000,-9622.677246,0.000000
623.445260,-370.102971,-9548.656652,229.828649
623.445585,-740.205942,-9548.656652,229.828649
623.445909,-666.185348,-9474.636058,-306.438199
623.446233,-74.020594,-9770.718434,-536.266849
623.446557,-592.164754,-9696.697840,-229.828649
623.446881,-444.123565,-9770.718434,0.000000
623.447206,-296.082377,-9844.739029,0.000000
623.447530,74.020594,-9696.697840,-229.828649
623.447854,148.041188,-9844.739029,-153.219100
623.448178,370.102971,-9844.739029,-383.047749
623.448502,0.000000,-9474.636058,-536.266849
623.448827,74.020594,-9622.677246,0.000000
623.449151,0.000000,-9696.697840,76.609550
623.449475,0.000000,-9622.677246,-153.219100
623.449799,0.000000,-9770.718434,229.828649
623.450123,0.000000,-9992.780217,-229.828649
623.450448,0.000000,-9696.697840,0.000000
623.450772,-444.123565,-9474.636058,0.000000
623.451096,0.000000,-9548.656652,-306.438199
623.451420,0.000000,-9474.636058,0.000000
623.451745,222.061783,-9548.656652,-153.219100
623.452069,148.041188,-9474.636058,-153.219100
623.452393,518.144159,-9474.636058,-153.219100
623.452717,296.082377,-9252.574275,0.000000
623.453041,444.123565,-9622.677246,0.000000
623.453366,74.020594,-9400.615463,229.828649
623.453690,222.061783,-9548.656652,0.000000
623.454014,0.000000,-9622.677246,-153.219100
623.454338,-148.041188,-9400.615463,-153.219100
623.454662,222.061783,-9474.636058,0.000000
623.454987,518.144159,-9696.697840,306.438199
623.455311,1036.288319,-10214.842000,459.657299
623.455635,222.061783,-10066.800811,306.438199
623.455959,-592.164754,-10140.821405,0.000000
623.456283,-1184.329507,-9770.718434,0.000000
623.456608,-1480.411884,-9252.574275,306.438199
623.456932,-592.164754,-9844.739029,459.657299
623.457256,592.164754,-9844.739029,459.657299
623.457580,962.267725,-9474.636058,459.657299
623.457904,1406.391290,-9252.574275,536.266849
623.458229,1258.350101,-9696.697840,383.047749
623.458553,962.267725,-9474.636058,153.219100
623.458877,-222.061783,-9474.636058,-229.828649
623.459201,-296.082377,-9992.780217,0.000000
623.459526,-1036.288319,-10288.862594,-459.657299
623.459850,-1036.288319,-10658.965565,76.609550
623.460174,-592.164754,-10214.842000,536.266849
623.460498,296.082377,-9770.718434,919.314598
623.460822,1480.411884,-9474.636058,1838.629195
623.461147,2886.803174,-9548.656652,1762.019645
623.461471,2960.823768,-9622.677246,1685.410096
623.461795,2516.700203,-9622.677246,1608.800546
623.462119,2294.638420,-9252.574275,612.876398
623.462443,1332.370696,-9474.636058,383.047749
623.462768,296.082377,-9696.697840,-153.219100
623.463092,-666.185348,-9770.718434,-229.828649
623.463416,-962.267725,-9474.636058,-153.219100
623.463740,-370.102971,-9400.615463,229.828649
623.464064,962.267725,-9622.677246,842.705048
623.464389,2590.720797,-9770.718434,1685.410096
623.464713,4367.215058,-9548.656652,2451.505594
623.465037,4811.338623,-9622.677246,2757.943793
623.465361,4959.379811,-10066.800811,2987.772442
623.465686,4811.338623,-10066.800811,2604.724693
623.466010,4367.215058,-10807.006753,2221.676944
623.466334,2960.823768,-9622.677246,1762.019645
623.466658,1776.494261,-10584.944971,1225.752797
623.466982,1036.288319,-10658.965565,612.876398
623.467307,740.205942,-10288.862594,842.705048
623.467631,1702.473667,-9918.759623,1838.629195
623.467955,3330.926739,-9178.553681,2451.505594
623.468279,4811.338623,-9400.615463,3524.039291
623.468603,4737.318029,-9252.574275,4060.306139
623.468928,5107.421000,-9992.780217,4519.963438
623.469252,4367.215058,-9992.780217,4673.182538
623.469576,2886.803174,-9696.697840,4443.353888
623.469900,1184.329507,-9326.594869,3677.258390
623.470224,-518.144159,-8734.430116,2528.115143
623.470549,-1554.432478,-8438.347739,2374.896044
623.470873,-1480.411884,-8364.327145,2221.676944
623.471197,-666.185348,-7550.100608,1685.410096
623.471521,-222.061783,-6957.935855,1838.629195
623.471846,888.247130,-6661.853478,2451.505594
623.472170,2146.597232,-6883.915261,2757.943793
623.472494,3775.050304,-7328.038826,3064.381992
623.472818,4219.173869,-8586.388927,4290.134789
623.473142,4663.297435,-9770.718434,4366.744339
623.473467,4367.215058,-10066.800811,4213.525239
623.473791,3775.050304,-11917.315666,4519.963438
623.474115,1702.473667,-12435.459826,3600.648841
623.474439,-814.226536,-12287.418637,2068.457845
623.474763,-2368.659014,-11621.233289,1149.143247
623.475088,-2590.720797,-10362.883188,1225.752797
623.475412,-1406.391290,-9178.553681,842.705048
623.475736,0.000000,-7698.141797,1302.362347
623.476060,1998.556043,-7550.100608,766.095498
623.476384,3775.050304,-7402.059420,1378.971896
623.476709,4737.318029,-7476.080014,1455.581446
623.477033,4737.318029,-8956.491898,1685.410096
623.477357,3775.050304,-10881.027347,2528.115143
623.477681,2368.659014,-12287.418637,3140.991542
623.478006,666.185348,-12065.356855,2451.505594
623.478330,-592.164754,-11843.295072,1838.629195
623.478654,-814.226536,-11177.109724,1455.581446
623.478978,296.082377,-11103.089130,995.924147
623.479302,1554.432478,-10658.965565,612.876398
623.479627,2442.679609,-9474.636058,459.657299
623.479951,2960.823768,-8586.388927,536.266849
623.480275,2812.782580,-8290.306550,459.657299
623.480599,1924.535449,-8364.327145,0.000000
623.480923,1850.514855,-7772.162391,0.000000
623.481248,2516.700203,-8660.409521,0.000000
623.481572,4219.173869,-10214.842000,995.924147
623.481896,5995.668130,-11621.233289,2221.676944
623.482220,7105.977043,-12657.521608,2834.553343
623.482544,5551.544565,-12731.542202,2987.772442
623.482869,2368.659014,-11917.315666,1838.629195
623.483193,-592.164754,-11029.068536,459.657299
623.483517,-2146.597232,-10288.862594,229.828649
623.483841,-1776.494261,-8882.471304,153.219100
623.484166,518.144159,-7698.141797,842.705048
623.484490,2368.659014,-7772.162391,1455.581446
623.484814,2516.700203,-7105.977043,1532.190996
623.485138,1776.494261,-5773.606348,536.266849
623.485462,1554.432478,-5181.441594,383.047749
623.485787,2072.576638,-6291.750507,383.047749
623.486111,3478.967927,-8290.306550,842.705048
623.486435,4219.173869,-10362.883188,2374.896044
623.486759,3997.112087,-11103.089130,2451.505594
623.487083,2664.741391,-10881.027347,2068.457845
623.487408,1480.411884,-10510.924376,1915.238745
623.487732,814.226536,-9844.739029,2681.334243
623.488056,1480.411884,-11103.089130,2068.457845
623.488380,1480.411884,-11473.192101,1915.238745
623.488704,222.061783,-10732.986159,1838.629195
623.489029,0.000000,-9400.615463,1532.190996
623.489353,1184.329507,-8290.306550,1072.533697
623.489677,2368.659014,-7920.203579,1685.410096
623.490001,3478.967927,-9030.512492,1378.971896
623.490326,3108.864956,-9696.697840,1378.971896
623.490650,370.102971,-9326.594869,306.438199
623.490974,-1480.411884,-9474.636058,306.438199
623.491298,-444.123565,-10288.862594,1378.971896
623.491622,1998.556043,-11695.253884,2374.896044
623.491947,3849.070898,-12139.377449,3830.477490
623.492271,4219.173869,-10732.986159,4060.306139
623.492595,3997.112087,-9918.759623,4519.963438
623.492919,4145.153275,-11029.068536,4290.134789
623.493243,2738.761985,-11843.295072,3677.258390
623.493568,1924.535449,-10881.027347,2987.772442
623.493892,0.000000,-9104.533087,2298.286494
623.494216,0.000000,-8438.347739,1685.410096
623.494540,1776.494261,-9474.636058,1915.238745
623.494864,2812.782580,-9474.636058,1608.800546
623.495189,2664.741391,-8512.368333,1532.190996
623.495513,2220.617826,-7772.162391,2145.067394
623.495837,2812.782580,-8660.409521,2451.505594
623.496161,3627.009116,-9992.780217,3447.429741
623.496486,3256.906145,-10140.821405,3600.648841
623.496810,2664.741391,-9252.574275,3600.648841
623.497134,2368.659014,-8882.471304,4213.525239
623.497458,2738.761985,-10066.800811,3907.087040
623.497782,3627.009116,-10658.965565,4673.182538
623.498107,4219.173869,-9992.780217,4596.572988
623.498431,4293.194464,-9252.574275,3753.867940
623.498755,3108.864956,-8438.347739,2451.505594
623.499079,740.205942,-8586.388927,1608.800546
623.499403,-962.267725,-8660.409521,1455.581446
623.499728,0.000000,-8068.244768,689.485948
623.500052,1406.391290,-7105.977043,1991.848295
623.500376,3034.844362,-7698.141797,2451.505594
623.500700,4293.194464,-8660.409521,2911.162892
623.501024,4737.318029,-8512.368333,3370.820191
623.501349,4293.194464,-7994.224174,3524.039291
623.501673,2886.803174,-8882.471304,4213.525239
623.501997,1776.494261,-10658.965565,3830.477490
623.502321,1554.432478,-11621.233289,4366.744339
623.502645,2442.679609,-9622.677246,3907.087040
623.502970,2664.741391,-8882.471304,3064.381992
623.503294,666.185348,-11029.068536,2145.067394
623.503618,-518.144159,-11769.274478,1149.143247
623.503942,-444.123565,-9400.615463,-153.219100
623.504267,-666.185348,-7994.224174,-842.705048
623.504591,-888.247130,-8364.327145,-689.485948
623.504915,222.061783,-9030.512492,-383.047749
623.505239,2960.823768,-9030.512492,459.657299
623.505563,4885.359217,-9030.512492,1532.190996
623.505888,5995.668130,-10658.965565,1762.019645
623.506212,5625.565159,-11917.315666,2221.676944
623.506536,4071.132681,-12065.356855,2604.724693
623.506860,2886.803174,-10362.883188,3140.991542
623.507184,1776.494261,-11177.109724,2451.505594
623.507509,-444.123565,-14434.015869,1378.971896
623.507833,-1776.494261,-14211.954086,1838.629195
623.508157,-666.185348,-10658.965565,1455.581446
623.508481,-518.144159,-9400.615463,-383.047749
623.508805,-1332.370696,-10214.842000,-1225.752797
623.509130,-148.041188,-9030.512492,-1532.190996
623.509454,1332.370696,-7105.977043,-1378.971896
623.509778,2220.617826,-8142.265362,-383.047749
623.510102,2146.597232,-8512.368333,-229.828649
623.510426,3256.906145,-8956.491898,919.314598
623.510751,4589.276840,-8956.491898,2145.067394
623.511075,6143.709319,-9400.615463,2757.943793
623.511399,5773.606348,-8882.471304,3064.381992
623.511723,3552.988522,-9844.739029,3140.991542
623.512047,1036.288319,-10584.944971,2681.334243
623.512372,148.041188,-10214.842000,2451.505594
623.512696,0.000000,-9474.636058,1991.848295
623.513020,-814.226536,-9622.677246,995.924147
623.513344,-1036.288319,-10807.006753,306.438199
623.513668,888.247130,-8956.491898,-153.219100
623.513993,2368.659014,-7402.059420,153.219100
623.514317,1702.473667,-7698.141797,-383.047749
623.514641,1258.350101,-7994.224174,-536.266849
623.514965,3404.947333,-8586.388927,766.095498
623.515289,5329.482782,-9696.697840,2298.286494
623.515614,5847.626942,-9844.739029,2911.162892
623.515938,4293.194464,-10436.903782,2987.772442
623.516262,2368.659014,-9474.636058,3217.601092
623.516586,2442.679609,-9030.512492,2681.334243
623.516910,1998.556043,-10214.842000,2374.896044
623.517235,1110.308913,-9992.780217,2145.067394
623.517559,518.144159,-9992.780217,1532.190996
623.517883,444.123565,-9992.780217,1608.800546
623.518207,1554.432478,-9252.574275,1915.238745
623.518531,1628.453072,-9844.739029,1838.629195
623.518855,370.102971,-10436.903782,0.000000
623.519180,-1258.350101,-8142.265362,-1762.019645
623.519504,-1702.473667,-7772.162391,-1685.410096
623.519828,-296.082377,-8956.491898,-689.485948
623.520152,1998.556043,-10807.006753,1302.362347
623.520476,3849.070898,-11177.109724,3064.381992
623.520801,4663.297435,-9400.615463,3830.477490
623.521125,4071.132681,-10436.903782,2757.943793
623.521449,1776.494261,-11473.192101,2528.115143
623.521773,888.247130,-10584.944971,2604.724693
623.522097,666.185348,-10436.903782,2681.334243
623.522422,-1110.308913,-10140.821405,2681.334243
623.522746,-3330.926739,-9474.636058,1762.019645
623.523070,-3849.070898,-9104.533087,1072.533697
623.523394,-2368.659014,-8068.244768,-536.266849
623.523718,-370.102971,-8586.388927,0.000000
623.524043,518.144159,-9030.512492,-306.438199
623.524367,740.205942,-7920.203579,-536.266849
623.524691,444.123565,-7920.203579,612.876398
623.525015,1776.494261,-9252.574275,1072.533697
623.525339,2368.659014,-10955.047942,306.438199
623.525664,962.267725,-11547.212695,153.219100
623.525988,-148.041188,-10732.986159,1149.143247
623.526312,0.000000,-11325.150913,1608.800546
623.526636,1036.288319,-11177.109724,1302.362347
623.526960,814.226536,-10881.027347,2374.896044
623.527285,-370.102971,-10881.027347,1762.019645
623.527609,-518.144159,-10807.006753,689.485948
623.527933,666.185348,-7920.203579,-383.047749
623.528257,1554.432478,-7550.100608,536.266849
623.528581,2146.597232,-9252.574275,1072.533697
623.528906,1850.514855,-10288.862594,-306.438199
623.529230,222.061783,-9400.615463,-1072.533697
623.529554,-2072.576638,-7402.059420,-1149.143247
623.529878,-2590.720797,-8364.327145,-2834.553343
623.530202,-2368.659014,-8956.491898,-2145.067394
623.530527,-1924.535449,-9178.553681,-1149.143247
623.530851,-148.041188,-9474.636058,-612.876398
623.531175,1184.329507,-10288.862594,383.047749
623.531499,2146.597232,-9992.780217,459.657299
623.531823,1924.535449,-9844.739029,536.266849
623.532148,1110.308913,-9548.656652,153.219100
623.532472,592.164754,-9400.615463,0.000000
623.532796,444.123565,-10362.883188,306.438199
623.533120,592.164754,-10584.944971,383.047749
623.533444,740.205942,-10658.965565,0.000000
623.533769,-148.041188,-10584.944971,-1225.752797
623.534093,-666.185348,-9696.697840,-2528.115143
623.534417,-1480.411884,-8216.285956,-2987.772442
623.534741,-1554.432478,-8808.450710,-3140.991542
623.535065,-1850.514855,-9030.512492,-2451.505594
623.535390,-1998.556043,-9770.718434,-1915.238745
623.535714,-2220.617826,-10436.903782,-766.095498
623.536038,-1110.308913,-10881.027347,306.438199
623.536362,592.164754,-11103.089130,383.047749
623.536686,1628.453072,-10214.842000,-229.828649
623.537011,1184.329507,-9178.553681,229.828649
623.537335,1258.350101,-10288.862594,689.485948
623.537659,666.185348,-11325.150913,383.047749
623.537983,0.000000,-11843.295072,459.657299
623.538307,-518.144159,-10584.944971,-383.047749
623.538632,-740.205942,-9474.636058,-1762.019645
623.538956,-2146.597232,-9474.636058,-2834.553343
623.539280,-1998.556043,-9178.553681,-2298.286494
623.539604,-1332.370696,-10066.800811,-1378.971896
623.539928,-222.061783,-11251.130318,-766.095498
623.540253,0.000000,-9104.533087,536.266849
623.540577,814.226536,-8882.471304,1378.971896
623.540901,1850.514855,-10214.842000,1532.190996
623.541225,2516.700203,-11103.089130,1455.581446
623.541549,1998.556043,-11029.068536,1838.629195
623.541873,-222.061783,-9474.636058,1378.971896
623.542198,-962.267725,-9400.615463,459.657299
623.542522,-888.247130,-9400.615463,1072.533697
623.542846,-518.144159,-9844.739029,76.609550
623.543170,-740.205942,-9474.636058,-766.095498
623.543494,-1332.370696,-8068.244768,-995.924147
623.543819,-888.247130,-7846.182985,-919.314598
623.544143,74.020594,-8882.471304,0.000000
623.544467,592.164754,-8364.327145,842.705048
623.544791,148.041188,-7698.141797,689.485948
623.545115,444.123565,-7846.182985,229.828649
623.545440,222.061783,-8142.265362,1225.752797
623.545764,0.000000,-8734.430116,1685.410096
623.546088,-518.144159,-9326.594869,1762.019645
623.546412,-1036.288319,-8660.409521,1685.410096
623.546736,-222.061783,-8142.265362,1378.971896
623.547061,1184.329507,-8512.368333,1149.143247
623.547385,1184.329507,-8660.409521,612.876398
623.547709,740.205942,-9178.553681,-306.438199
623.548033,-444.123565,-9622.677246,306.438199
623.548357,-444.123565,-10436.903782,0.000000
623.548682,444.123565,-10436.903782,0.000000
623.549006,814.226536,-10362.883188,-459.657299
623.549330,1036.288319,-10510.924376,-536.266849
623.549654,1036.288319,-10288.862594,-459.657299
623.549978,1554.432478,-10584.944971,0.000000
623.550303,1332.370696,-11399.171507,689.485948
623.550627,666.185348,-10955.047942,612.876398
623.550951,0.000000,-10140.821405,306.438199
623.551275,-1184.329507,-10955.047942,1685.410096
623.551599,-592.164754,-11621.233289,1072.533697
623.551924,444.123565,-9696.697840,-766.095498
623.552248,222.061783,-7994.224174,-919.314598
623.552572,-814.226536,-8364.327145,-1225.752797
623.552896,-444.123565,-9770.718434,-612.876398
623.553220,666.185348,-11251.130318,766.095498
623.553545,740.205942,-10658.965565,1149.143247
623.553869,962.267725,-9030.512492,689.485948
623.554193,222.061783,-8142.265362,-306.438199
623.554517,370.102971,-9252.574275,-459.657299
623.554841,444.123565,-10584.944971,0.000000
623.555166,-592.164754,-10658.965565,306.438199
623.555490,-1332.370696,-10658.965565,459.657299
623.555814,-1776.494261,-10066.800811,842.705048
623.556138,-1184.329507,-9178.553681,536.266849
623.556462,-296.082377,-9178.553681,612.876398
623.556787,1258.350101,-9992.780217,766.095498
623.557111,1406.391290,-10584.944971,383.047749
623.557435,296.082377,-10362.883188,306.438199
623.557759,-666.185348,-9104.533087,153.219100
623.558083,-592.164754,-8734.430116,612.876398
623.558408,0.000000,-10362.883188,-306.438199
623.558732,0.000000,-10288.862594,-1685.410096
623.559056,-1480.411884,-9548.656652,-383.047749
623.559380,-1406.391290,-9474.636058,-689.485948
623.559704,-370.102971,-9992.780217,-383.047749
623.560029,74.020594,-9770.718434,0.000000
623.560353,222.061783,-8808.450710,0.000000
623.560677,222.061783,-8882.471304,-1302.362347
623.561001,-370.102971,-8808.450710,-842.705048
623.561325,0.000000,-8364.327145,383.047749
623.561650,1184.329507,-8586.388927,383.047749
623.561974,1110.308913,-8142.265362,-383.047749
623.562298,0.000000,-6883.915261,-612.876398
623.562622,-370.102971,-8216.285956,-1225.752797
623.562946,-222.061783,-9326.594869,-1302.362347
623.563270,-296.082377,-10066.800811,-842.705048
623.563595,-1406.391290,-8956.491898,-766.095498
623.563919,-1480.411884,-8142.265362,-2987.772442
623.564243,-1628.453072,-9474.636058,-2451.505594
623.564567,-888.247130,-10584.944971,-1762.019645
623.564891,1036.288319,-11621.233289,-1378.971896
623.565216,1036.288319,-10807.006753,-1455.581446
623.565540,518.144159,-10436.903782,-612.876398
623.565864,888.247130,-11251.130318,383.047749
623.566188,1998.556043,-12435.459826,-229.828649
623.566512,1776.494261,-12879.583391,229.828649
623.566837,666.185348,-11473.192101,-766.095498
623.567161,148.041188,-10584.944971,-1302.362347
623.567485,740.205942,-10732.986159,-612.876398
623.567809,1406.391290,-11325.150913,-229.828649
623.568133,1036.288319,-11399.171507,-383.047749
623.568458,0.000000,-9918.759623,-383.047749
623.568782,-1332.370696,-9030.512492,-153.219100
623.569106,-1776.494261,-9400.615463,-383.047749
623.569430,-1480.411884,-9030.512492,842.705048
623.569754,-222.061783,-8216.285956,995.924147
623.570079,-148.041188,-7846.182985,766.095498
623.570403,-444.123565,-8512.368333,536.266849
623.570727,-370.102971,-9178.553681,1455.581446
623.571051,148.041188,-9474.636058,995.924147
623.571375,-148.041188,-8808.450710,1378.971896
623.571700,-888.247130,-8216.285956,153.219100
623.572024,-1258.350101,-8364.327145,536.266849
623.572348,-666.185348,-10066.800811,919.314598
623.572672,296.082377,-11029.068536,1225.752797
623.572996,666.185348,-10140.821405,1685.410096
623.573321,0.000000,-9400.615463,2145.067394
623.573645,-814.226536,-9252.574275,1455.581446
623.573969,222.061783,-8586.388927,1915.238745
623.574293,740.205942,-9104.533087,2068.457845
623.574617,-370.102971,-9770.718434,1072.533697
623.574942,-1924.535449,-9178.553681,1302.362347
623.575266,-1406.391290,-8068.244768,1072.533697
623.575590,-888.247130,-8290.306550,1302.362347
623.575914,-1258.350101,-8142.265362,842.705048
623.576238,-1776.494261,-7476.080014,612.876398
623.576563,-1628.453072,-7179.997637,-306.438199
623.576887,-962.267725,-7772.162391,-306.438199
623.577211,296.082377,-8438.347739,919.314598
623.577535,2220.617826,-9252.574275,1072.533697
623.577859,2590.720797,-9030.512492,612.876398
623.578184,2886.803174,-9474.636058,0.000000
623.578508,2146.597232,-10584.944971,-383.047749
623.578832,1480.411884,-11621.233289,0.000000
623.579156,1480.411884,-11917.315666,612.876398
623.579480,222.061783,-11695.253884,306.438199
623.579805,-740.205942,-10584.944971,-919.314598
623.580129,-222.061783,-10362.883188,-1532.190996
623.580453,666.185348,-11843.295072,-1149.143247
623.580777,1628.453072,-12879.583391,-842.705048
623.581101,1554.432478,-11473.192101,-459.657299
623.581426,0.000000,-10140.821405,-612.876398
623.581750,-592.164754,-10436.903782,-1532.190996
623.582074,-666.185348,-10732.986159,-1532.190996
623.582398,-444.123565,-10732.986159,-1838.629195
623.582722,-1110.308913,-11103.089130,-1302.362347
623.583047,-518.144159,-10584.944971,-306.438199
623.583371,888.247130,-9400.615463,-153.219100
623.583695,2516.700203,-10807.006753,1532.190996
623.584019,2368.659014,-10214.842000,689.485948
623.584343,814.226536,-8808.450710,-536.266849
623.584668,-1332.370696,-7476.080014,-1685.410096
623.584992,-2738.761985,-7328.038826,-2221.676944
623.585316,-2442.679609,-7550.100608,-766.095498
623.585640,-814.226536,-8586.388927,76.609550
623.585964,-222.061783,-7772.162391,153.219100
623.586288,0.000000,-6291.750507,-153.219100
623.586613,740.205942,-6735.874072,-229.828649
623.586937,518.144159,-8586.388927,-612.876398
623.587261,-296.082377,-8512.368333,0.000000
623.587585,-1480.411884,-8364.327145,0.000000
623.587909,-2146.597232,-9918.759623,153.219100
623.588234,-2368.659014,-11621.233289,459.657299
623.588558,-1258.350101,-11621.233289,76.609550
623.588882,-1850.514855,-9474.636058,-1149.143247
623.589206,-2738.761985,-10214.842000,-1378.971896
623.589530,-2146.597232,-11991.336260,-459.657299
623.589855,148.041188,-12953.603985,0.000000
623.590179,1554.432478,-11621.233289,459.657299
623.590503,1036.288319,-9178.553681,-459.657299
623.590827,740.205942,-9548.656652,-1072.533697
623.591151,592.164754,-11103.089130,-383.047749
623.591476,1850.514855,-11547.212695,383.047749
623.591800,1480.411884,-9622.677246,536.266849
623.592124,-740.205942,-8290.306550,-612.876398
623.592448,-2590.720797,-8586.388927,-459.657299
623.592772,-2146.597232,-9992.780217,-229.828649
623.593097,-148.041188,-10732.986159,-153.219100
623.593421,962.267725,-8660.409521,153.219100
623.593745,518.144159,-7031.956449,-459.657299
623.594069,888.247130,-7846.182985,-612.876398
623.594393,1776.494261,-9622.677246,-306.438199
623.594718,1480.411884,-10436.903782,-689.485948
623.595042,222.061783,-10658.965565,-919.314598
623.595366,-1110.308913,-10510.924376,-536.266849
623.595690,-222.061783,-10436.903782,-459.657299
623.596014,1998.556043,-10732.986159,306.438199
623.596339,2590.720797,-11473.192101,0.000000
623.596663,1850.514855,-11843.295072,612.876398
623.596987,1628.453072,-11473.192101,76.609550
623.597311,1776.494261,-11399.171507,689.485948
623.597635,1850.514855,-10955.047942,1685.410096
623.597960,296.082377,-9474.636058,383.047749
623.598284,-1924.535449,-9104.533087,-459.657299
623.598608,-3330.926739,-9252.574275,-153.219100
623.598932,-3478.967927,-9252.574275,459.657299
623.599256,-1998.556043,-8956.491898,689.485948
623.599581,-222.061783,-7105.977043,689.485948
623.599905,518.144159,-5773.606348,766.095498
623.600229,296.082377,-6365.771101,0.000000
623.600553,0.000000,-7920.203579,-229.828649
623.600877,148.041188,-8808.450710,1225.752797
623.601202,518.144159,-8068.244768,1072.533697
623.601526,1332.370696,-7402.059420,842.705048
623.601850,1628.453072,-8660.409521,1608.800546
623.602174,1924.535449,-9844.739029,1915.238745
623.602498,1776.494261,-10732.986159,1455.581446
623.602823,222.061783,-10510.924376,1685.410096
623.603147,-592.164754,-9622.677246,1225.752797
623.603471,-518.144159,-9844.739029,842.705048
623.603795,-1184.329507,-10658.965565,1149.143247
623.604119,-1480.411884,-10732.986159,459.657299
623.604444,-1702.473667,-10732.986159,76.609550
623.604768,-2960.823768,-10732.986159,153.219100
623.605092,-2368.659014,-10214.842000,-383.047749
623.605416,-2072.576638,-9252.574275,-612.876398
623.605740,-962.267725,-9030.512492,0.000000
623.606065,-296.082377,-10288.862594,-229.828649
623.606389,222.061783,-10362.883188,-459.657299
623.606713,1110.308913,-9844.739029,0.000000
623.607037,1480.411884,-10140.821405,919.314598
623.607361,2664.741391,-10214.842000,229.828649
623.607685,1998.556043,-8882.471304,153.219100
623.608009,296.082377,-8808.450710,842.705048
623.608333,-518.144159,-9918.759623,766.095498
623.608657,148.041188,-9770.718434,153.219100
623.608981,814.226536,-9104.533087,1072.533697
623.609305,1998.556043,-7772.162391,383.047749
623.609629,2146.597232,-8216.285956,-842.705048
623.609953,1110.308913,-9326.594869,-766.095498
623.610277,0.000000,-10510.924376,-689.485948
623.610601,-1184.329507,-10955.047942,-1225.752797
623.610925,-2812.782580,-10140.821405,-1915.238745
623.611250,-3256.906145,-10214.842000,-1072.533697
623.611574,-2146.597232,-11399.171507,-1915.238745
623.611898,-592.164754,-11769.274478,-2221.676944
623.612222,148.041188,-11695.253884,-1072.533697
623.612546,1332.370696,-11029.068536,-919.314598
623.612870,1850.514855,-10807.006753,-766.095498
623.613194,2072.576638,-10732.986159,76.609550
623.613518,1924.535449,-10140.821405,0.000000
623.613842,1332.370696,-9844.739029,-536.266849
623.614166,-222.061783,-9918.759623,-842.705048
623.614490,-962.267725,-9030.512492,-1685.410096
623.614814,-740.205942,-8290.306550,-1378.971896
623.615138,-370.102971,-7920.203579,-995.924147
623.615462,370.102971,-8216.285956,-459.657299
623.615786,-370.102971,-8586.388927,-612.876398
623.616110,-1184.329507,-7624.121203,-1378.971896
623.616434,-1110.308913,-7698.141797,-1072.533697
623.616758,-1036.288319,-8734.430116,-536.266849
623.617082,-592.164754,-9474.636058,-229.828649
623.617406,-1332.370696,-8734.430116,-919.314598
623.617730,-1554.432478,-8290.306550,-612.876398
623.618054,-296.082377,-8956.491898,-383.047749
623.618378,666.185348,-10658.965565,0.000000
623.618702,296.082377,-10362.883188,-229.828649
623.619027,-962.267725,-9696.697840,-766.095498
623.619351,-592.164754,-9918.759623,-842.705048
623.619675,222.061783,-11769.274478,-459.657299
623.619999,222.061783,-11769.274478,-306.438199
623.620323,-666.185348,-10584.944971,-842.705048
623.620647,-2146.597232,-9770.718434,-536.266849
623.620971,-1776.494261,-10584.944971,153.219100
623.621295,-518.144159,-11769.274478,306.438199
623.621619,666.185348,-11325.150913,0.000000
623.621943,814.226536,-9548.656652,612.876398
623.622267,740.205942,-8512.368333,76.609550
623.622591,1036.288319,-10362.883188,1302.362347
623.622915,0.000000,-10436.903782,1302.362347
623.623239,-444.123565,-9622.677246,1149.143247
623.623563,-962.267725,-9104.533087,459.657299
623.623887,-740.205942,-9474.636058,-612.876398
623.624211,-444.123565,-9178.553681,-459.657299
623.624535,-1332.370696,-9400.615463,76.609550
623.624859,-962.267725,-8734.430116,-612.876398
623.625183,-370.102971,-7476.080014,0.000000
623.625507,74.020594,-7550.100608,536.266849
623.625831,-222.061783,-8216.285956,0.000000
623.626155,-518.144159,-8882.471304,-306.438199
623.626480,-296.082377,-8586.388927,-153.219100
623.626804,592.164754,-8586.388927,459.657299
623.627128,2220.617826,-9844.739029,689.485948
623.627452,3034.844362,-11103.089130,2298.286494
623.627776,3182.885551,-11399.171507,1915.238745
623.628100,2886.803174,-10955.047942,766.095498
623.628424,2442.679609,-9992.780217,0.000000
623.628748,1776.494261,-10214.842000,-842.705048
623.629072,740.205942,-10658.965565,-536.266849
623.629396,296.082377,-11177.109724,-612.876398
623.629720,-370.102971,-11325.150913,0.000000
623.630044,-592.164754,-10510.924376,0.000000
623.630368,-666.185348,-10214.842000,76.609550
623.630692,-1110.308913,-9474.636058,-153.219100
623.631016,-666.185348,-8808.450710,0.000000
623.631340,-222.061783,-9030.512492,306.438199
623.631664,0.000000,-9252.574275,0.000000
623.631988,-1036.288319,-8882.471304,0.000000
623.632312,-1036.288319,-8882.471304,1455.581446
623.632636,666.185348,-8734.430116,766.095498
623.632960,1110.308913,-8142.265362,459.657299
623.633284,1110.308913,-8216.285956,536.266849
623.633608,1332.370696,-9992.780217,76.609550
623.633932,1924.535449,-10807.006753,-229.828649
623.634257,1332.370696,-8734.430116,-459.657299
623.634581,222.061783,-7994.224174,689.485948
623.634905,0.000000,-8808.450710,153.219100
623.635229,-296.082377,-10362.883188,0.000000
623.635553,0.000000,-11251.130318,229.828649
623.635877,-518.144159,-9696.697840,383.047749
623.636201,-370.102971,-9178.553681,-459.657299
623.636525,-1332.370696,-8956.491898,0.000000
623.636849,-2294.638420,-9474.636058,0.000000
623.637173,-2072.576638,-9918.759623,-306.438199
623.637497,-2590.720797,-9622.677246,-306.438199
623.637821,-3478.967927,-9770.718434,-306.438199
623.638145,-2812.782580,-9844.739029,-689.485948
623.638469,-444.123565,-9918.759623,-459.657299
623.638793,444.123565,-9844.739029,153.219100
623.639117,1036.288319,-9918.759623,0.000000
623.639441,666.185348,-10658.965565,229.828649
623.639765,296.082377,-11103.089130,383.047749
623.640089,740.205942,-11473.192101,1532.190996
623.640413,1554.432478,-11325.150913,1915.238745
623.640737,1258.350101,-10288.862594,306.438199
623.641061,444.123565,-8734.430116,-536.266849
623.641385,222.061783,-7772.162391,-612.876398
623.641710,518.144159,-9548.656652,-842.705048
623.642034,814.226536,-9770.718434,-612.876398
623.642358,296.082377,-9104.533087,383.047749
623.642682,370.102971,-8512.368333,-76.609550
623.643006,0.000000,-8956.491898,-1149.143247
623.643330,-518.144159,-10362.883188,-1225.752797
623.643654,-1702.473667,-9252.574275,-1225.752797
623.643978,-1702.473667,-9548.656652,-1149.143247
623.644302,-1924.535449,-9844.739029,-1225.752797
623.644626,-1184.329507,-10288.862594,0.000000
623.644950,0.000000,-11029.068536,0.000000
623.645274,370.102971,-10807.006753,-1149.143247
623.645598,-518.144159,-10066.800811,-1532.190996
623.645922,-740.205942,-9400.615463,-2068.457845
623.646246,-148.041188,-9178.553681,-2145.067394
623.646570,888.247130,-10732.986159,-459.657299
623.646894,1480.411884,-10881.027347,306.438199
623.647218,1258.350101,-9844.739029,-536.266849
623.647542,148.041188,-9030.512492,-1149.143247
623.647866,-148.041188,-9252.574275,-1302.362347
623.648190,74.020594,-9548.656652,-2068.457845
623.648514,666.185348,-9326.594869,-1149.143247
623.648838,148.041188,-8734.430116,-842.705048
623.649163,-444.123565,-8734.430116,-689.485948
623.649487,-518.144159,-8882.471304,-1532.190996
623.649811,-222.061783,-8808.450710,-1762.019645
623.650135,0.000000,-8734.430116,-1225.752797
623.650459,296.082377,-9326.594869,-1608.800546
623.650783,518.144159,-10066.800811,-919.314598
623.651107,444.123565,-10510.924376,-383.047749
623.651431,222.061783,-10807.006753,-612.876398
623.651755,814.226536,-10881.027347,-229.828649
623.652079,814.226536,-11621.233289,0.000000
623.652403,1406.391290,-11621.233289,612.876398
623.652727,2368.659014,-11769.274478,612.876398
623.653051,2294.638420,-11251.130318,842.705048
623.653375,814.226536,-11177.109724,766.095498
623.653699,148.041188,-10807.006753,919.314598
623.654023,-444.123565,-10807.006753,383.047749
623.654347,-1406.391290,-10584.944971,536.266849
623.654671,-1998.556043,-9178.553681,153.219100
623.654995,-2664.741391,-7994.224174,842.705048
623.655319,-2886.803174,-7994.224174,383.047749
623.655643,-2072.576638,-7402.059420,0.000000
623.655967,-1850.514855,-6587.832884,153.219100
623.656291,-1776.494261,-6291.750507,76.609550
623.656615,-740.205942,-7105.977043,1225.752797
623.656940,1258.350101,-8142.265362,1378.971896
623.657264,1628.453072,-8216.285956,1685.410096
623.657588,518.144159,-7994.224174,1991.848295
623.657912,296.082377,-9030.512492,1225.752797
623.658236,740.205942,-9622.677246,1532.190996
623.658560,1850.514855,-9474.636058,2451.505594
623.658884,2516.700203,-10066.800811,2451.505594
623.659208,1850.514855,-10214.842000,1838.629195
623.659532,888.247130,-9400.615463,689.485948
623.659856,-370.102971,-8660.409521,0.000000
623.660180,-1554.432478,-10140.821405,-842.705048
623.660504,-2960.823768,-10510.924376,-995.924147
623.660828,-3775.050304,-10362.883188,-919.314598
623.661152,-2960.823768,-10140.821405,-995.924147
623.661476,-2220.617826,-9918.759623,-766.095498
623.661800,-1110.308913,-10066.800811,-842.705048
623.662124,-148.041188,-10807.006753,-536.266849
623.662448,444.123565,-10066.800811,-919.314598
623.662772,518.144159,-9474.636058,-766.095498
623.663096,592.164754,-9252.574275,-306.438199
623.663420,148.041188,-10658.965565,-383.047749
623.663744,444.123565,-10658.965565,-612.876398
623.664068,222.061783,-9178.553681,-1302.362347
623.664393,74.020594,-8364.327145,-1072.533697
623.664717,666.185348,-9326.594869,-919.314598
623.665041,2146.597232,-10362.883188,-1149.143247
623.665365,3330.926739,-10436.903782,306.438199
623.665689,2442.679609,-9548.656652,-459.657299
623.666013,962.267725,-9474.636058,-766.095498
623.666337,0.000000,-9770.718434,-919.314598
623.666661,740.205942,-11029.068536,-766.095498
623.666985,2146.597232,-11177.109724,-1149.143247
623.667309,1184.329507,-10807.006753,-1608.800546
623.667633,-1184.329507,-10584.944971,-1991.848295
623.667957,-1776.494261,-10584.944971,-919.314598
623.668281,-444.123565,-11251.130318,-766.095498
623.668605,-222.061783,-11325.150913,-766.095498
623.668929,0.000000,-10510.924376,-383.047749
623.669253,962.267725,-10510.924376,0.000000
623.669577,1702.473667,-10436.903782,689.485948
623.669901,2516.700203,-10288.862594,1149.143247
623.670225,1628.453072,-9474.636058,536.266849
623.670549,74.020594,-8956.491898,1149.143247
623.670873,-1480.411884,-8734.430116,842.705048
623.671197,-2072.576638,-8660.409521,612.876398
623.671521,-1924.535449,-8216.285956,1302.362347
623.671845,-1036.288319,-7994.224174,919.314598
623.672170,-814.226536,-7254.018232,306.438199
623.672494,-1036.288319,-5995.668130,306.438199
623.672818,-740.205942,-6587.832884,995.924147
623.673142,-814.226536,-8364.327145,1685.410096
623.673466,-1480.411884,-8882.471304,1225.752797
623.673790,-2442.679609,-7476.080014,995.924147
623.674114,-2960.823768,-6661.853478,-306.438199
623.674438,-1702.473667,-7254.018232,-153.219100
623.674762,518.144159,-9400.615463,612.876398
623.675086,1850.514855,-10658.965565,2145.067394
623.675410,2072.576638,-10807.006753,2681.334243
623.675734,1332.370696,-9178.553681,1838.629195
623.676058,-444.123565,-8956.491898,1532.190996
623.676382,-1184.329507,-9770.718434,-306.438199
623.676706,-2220.617826,-11177.109724,-995.924147
623.677030,-3404.947333,-11399.171507,-1072.533697
623.677354,-2516.700203,-10214.842000,-995.924147
623.677678,-888.247130,-9844.739029,0.000000
623.678002,666.185348,-10436.903782,-536.266849
623.678326,1332.370696,-10066.800811,-1378.971896
623.678650,148.041188,-9474.636058,-2221.676944
623.678974,-592.164754,-9474.636058,-2911.162892
623.679298,-1036.288319,-11399.171507,-2451.505594
623.679623,-296.082377,-12287.418637,-842.705048
623.679947,1036.288319,-12065.356855,0.000000
623.680271,1628.453072,-11769.274478,-229.828649
623.680595,1924.535449,-11547.212695,-1072.533697
623.680919,2368.659014,-11843.295072,-1225.752797
623.681243,2072.576638,-12583.501014,-1149.143247
623.681567,1628.453072,-12361.439231,-1378.971896
623.681891,1110.308913,-11695.253884,-1225.752797
623.682215,740.205942,-11103.089130,-1838.629195
623.682539,1184.329507,-10807.006753,-2298.286494
623.682863,1628.453072,-10658.965565,-1991.848295
623.683187,1258.350101,-11399.171507,-1608.800546
623.683511,592.164754,-10881.027347,-1072.533697
623.683835,0.000000,-9696.697840,-1149.143247
623.684159,-222.061783,-9252.574275,-689.485948
623.684483,-888.247130,-9178.553681,-612.876398
623.684807,-1480.411884,-8586.388927,-689.485948
623.685131,-1702.473667,-8808.450710,536.266849
623.685455,-592.164754,-8438.347739,689.485948
623.685779,148.041188,-7179.997637,612.876398
623.686103,-222.061783,-6513.812290,1608.800546
623.686427,-1480.411884,-6513.812290,459.657299
623.686751,-2294.638420,-7476.080014,612.876398
623.687076,-2664.741391,-7179.997637,0.000000
623.687400,-2368.659014,-6439.791695,842.705048
623.687724,-222.061783,-6365.771101,842.705048
623.688048,1628.453072,-6883.915261,1378.971896
623.688372,3034.844362,-7476.080014,2145.067394
623.688696,2812.782580,-8216.285956,1915.238745
623.689020,1184.329507,-8586.388927,612.876398
623.689344,-1554.432478,-8216.285956,689.485948
623.689668,-1702.473667,-7846.182985,689.485948
623.689992,-888.247130,-9548.656652,842.705048
623.690316,-370.102971,-10807.006753,1532.190996
623.690640,370.102971,-10807.006753,1225.752797
623.690964,666.185348,-9918.759623,229.828649
623.691288,592.164754,-9696.697840,76.609550
623.691612,222.061783,-9400.615463,0.000000
623.691936,444.123565,-10214.842000,306.438199
623.692260,74.020594,-12139.377449,0.000000
623.692584,-1184.329507,-12509.480420,-766.095498
623.692908,-1480.411884,-11547.212695,-1378.971896
623.693232,-1406.391290,-11547.212695,-459.657299
623.693556,0.000000,-12509.480420,-229.828649
623.693880,962.267725,-12731.542202,-1072.533697
623.694204,1110.308913,-11251.130318,-689.485948
623.694528,814.226536,-10807.006753,-1149.143247
623.694853,148.041188,-11325.150913,-919.314598
623.695177,-444.123565,-11843.295072,-1532.190996
623.695501,-296.082377,-11177.109724,-1302.362347
623.695825,0.000000,-9844.739029,-766.095498
623.696149,666.185348,-9178.553681,-1225.752797
623.696473,296.082377,-9844.739029,-1225.752797
623.696797,-592.164754,-10436.903782,-689.485948
623.697121,-888.247130,-10140.821405,-1378.971896
623.697445,-1110.308913,-8660.409521,-2145.067394
623.697769,-740.205942,-8142.265362,-1685.410096
623.698093,222.061783,-10066.800811,-689.485948
623.698417,1628.453072,-11251.130318,0.000000
623.698741,888.247130,-9104.533087,-689.485948
623.699065,-962.267725,-8290.306550,153.219100
623.699389,-1850.514855,-9178.553681,-383.047749
623.699713,0.000000,-10658.965565,229.828649
623.700037,1406.391290,-10881.027347,1378.971896
623.700361,1702.473667,-9696.697840,1838.629195
623.700685,1480.411884,-8882.471304,2145.067394
623.701009,666.185348,-9252.574275,1532.190996
623.701333,370.102971,-9400.615463,766.095498
623.701657,740.205942,-8660.409521,1149.143247
623.701981,0.000000,-7254.018232,842.705048
623.702306,-1110.308913,-7772.162391,842.705048
623.702630,-1480.411884,-8142.265362,383.047749
623.702954,-888.247130,-7476.080014,1455.581446
623.703278,-370.102971,-7476.080014,1225.752797
623.703602,-740.205942,-7402.059420,842.705048
623.703926,-296.082377,-7254.018232,1072.533697
623.704250,444.123565,-7550.100608,689.485948
623.704574,740.205942,-8586.388927,842.705048
623.704898,1036.288319,-9178.553681,919.314598
623.705222,888.247130,-9474.636058,1608.800546
623.705546,444.123565,-10955.047942,2451.505594
623.705870,1036.288319,-11029.068536,2604.724693
623.706194,2294.638420,-9918.759623,1685.410096
623.706518,2294.638420,-9252.574275,919.314598
623.706842,666.185348,-9178.553681,-536.266849
623.707166,-592.164754,-9252.574275,-1225.752797
623.707490,-888.247130,-10362.883188,229.828649
623.707814,-296.082377,-11843.295072,1532.190996
623.708138,296.082377,-11251.130318,919.314598
623.708462,-1036.288319,-9918.759623,689.485948
623.708786,-2146.597232,-9474.636058,-995.924147
623.709110,-2220.617826,-10362.883188,-1991.848295
623.709434,-1924.535449,-11029.068536,-1685.410096
623.709758,-1036.288319,-11103.089130,-306.438199
623.710082,222.061783,-11251.130318,1072.533697
623.710406,1406.391290,-11325.150913,1455.581446
623.710730,1850.514855,-10807.006753,153.219100
623.711055,962.267725,-9622.677246,-1455.581446
623.711379,0.000000,-10140.821405,-2451.505594
623.711703,-666.185348,-10658.965565,-1685.410096
623.712027,1110.308913,-10436.903782,-1532.190996
623.712351,2516.700203,-11029.068536,383.047749
623.712675,2590.720797,-10955.047942,-383.047749
623.712999,1110.308913,-10140.821405,-1608.800546
623.713323,-1480.411884,-10066.800811,-1838.629195
623.713647,-2146.597232,-9548.656652,-2451.505594
623.713971,-2072.576638,-9474.636058,-2145.067394
623.714295,-1850.514855,-9326.594869,-1762.019645
623.714619,-1924.535449,-8882.471304,-1532.190996
623.714943,-1406.391290,-9104.533087,-1378.971896
623.715267,-444.123565,-9474.636058,-995.924147
623.715591,-444.123565,-9474.636058,-919.314598
623.715915,-1554.432478,-9474.636058,-1532.190996
623.716239,-2146.597232,-8734.430116,-1915.238745
623.716563,-1850.514855,-9178.553681,-1991.848295
623.716887,-592.164754,-10362.883188,-995.924147
623.717211,962.267725,-11029.068536,-459.657299
623.717535,1924.535449,-9918.759623,-842.705048
623.717859,592.164754,-9104.533087,-1838.629195
623.718183,-962.267725,-8290.306550,-1838.629195
623.718507,-1110.308913,-9844.739029,-1532.190996
623.718831,-518.144159,-10584.944971,-1149.143247
623.719155,-592.164754,-9104.533087,-459.657299
623.719479,-222.061783,-7476.080014,0.000000
623.719803,370.102971,-8068.244768,0.000000
623.720127,370.102971,-8660.409521,-229.828649
623.720451,222.061783,-8882.471304,-383.047749
623.720775,-888.247130,-8068.244768,-536.266849
623.721099,-1110.308913,-8068.244768,-612.876398
623.721423,-370.102971,-7920.203579,-1072.533697
623.721748,740.205942,-8734.430116,0.000000
623.722072,2146.597232,-9474.636058,153.219100
623.722396,1998.556043,-9622.677246,0.000000
623.722720,1258.350101,-10140.821405,-536.266849
623.723044,444.123565,-10658.965565,0.000000
623.723368,740.205942,-11399.171507,0.000000
623.723692,814.226536,-10658.965565,459.657299
623.724016,444.123565,-9474.636058,383.047749
623.724340,-518.144159,-9622.677246,-153.219100
623.724664,-962.267725,-10288.862594,459.657299
623.724988,296.082377,-11103.089130,689.485948
623.725312,1036.288319,-11177.109724,383.047749
623.725636,0.000000,-9844.739029,0.000000
623.725960,-1850.514855,-9474.636058,-306.438199
623.726284,-2294.638420,-9918.759623,-842.705048
623.726608,-1480.411884,-11325.150913,-383.047749
623.726932,-296.082377,-10955.047942,-229.828649
623.727256,518.144159,-9770.718434,306.438199
623.727580,962.267725,-9844.739029,-229.828649
623.727904,1036.288319,-9770.718434,-612.876398
623.728228,740.205942,-10066.800811,76.609550
623.728552,666.185348,-10955.047942,536.266849
623.728876,666.185348,-10362.883188,459.657299
623.729200,444.123565,-9474.636058,689.485948
623.729524,222.061783,-9548.656652,1072.533697
623.729848,1406.391290,-11547.212695,1915.238745
623.730172,1554.432478,-12065.356855,2451.505594
623.730496,1110.308913,-11103.089130,2451.505594
623.730820,740.205942,-9696.697840,2068.457845
623.731144,0.000000,-8734.430116,1149.143247
623.731468,0.000000,-8882.471304,306.438199
623.731792,-962.267725,-9622.677246,919.314598
623.732116,-1554.432478,-10436.903782,1225.752797
623.732441,-1480.411884,-10140.821405,842.705048
623.732765,-1998.556043,-8956.491898,1838.629195
623.733089,-1406.391290,-7920.203579,919.314598
623.733413,-1332.370696,-7772.162391,459.657299
623.733737,-1924.535449,-8142.265362,766.095498
623.734061,-1998.556043,-8956.491898,919.314598
623.734385,-1850.514855,-8512.368333,1378.971896
623.734709,-370.102971,-7550.100608,1455.581446
623.735033,962.267725,-6365.771101,3294.210641
623.735357,1850.514855,-6661.853478,2604.724693
623.735681,2294.638420,-7698.141797,1838.629195
623.736005,518.144159,-7994.224174,2451.505594
623.736329,-222.061783,-8216.285956,1532.190996
623.736653,-296.082377,-8586.388927,1915.238745
623.736977,888.247130,-8660.409521,1455.581446
623.737301,592.164754,-7402.059420,229.828649
623.737625,444.123565,-8586.388927,153.219100
623.737949,740.205942,-9474.636058,76.609550
623.738273,1036.288319,-9548.656652,459.657299
623.738597,1110.308913,-10288.862594,842.705048
623.738921,222.061783,-9770.718434,0.000000
623.739245,-666.185348,-8882.471304,-1532.190996
623.739569,-666.185348,-7772.162391,-2145.067394
623.739893,0.000000,-8956.491898,-1838.629195
623.740217,1924.535449,-11177.109724,-689.485948
623.740541,3256.906145,-11029.068536,-153.219100
623.740865,3108.864956,-10436.903782,0.000000
623.741189,2294.638420,-9844.739029,-689.485948
623.741513,1258.350101,-10066.800811,-1762.019645
623.741837,-444.123565,-11399.171507,-2528.115143
623.742161,-1184.329507,-12287.418637,-1762.019645
623.742485,-592.164754,-12879.583391,-919.314598
623.742809,0.000000,-12805.562797,-1225.752797
623.743134,-1184.329507,-11695.253884,-1685.410096
623.743458,-1184.329507,-10658.965565,-2834.553343
623.743782,-444.123565,-11399.171507,-3447.429741
623.744106,592.164754,-11769.274478,-3753.867940
623.744430,444.123565,-10584.944971,-1991.848295
623.744754,0.000000,-9770.718434,-1378.971896
623.745078,-370.102971,-10584.944971,-2451.505594
623.745402,-1554.432478,-11103.089130,-3064.381992
623.745726,-2220.617826,-10732.986159,-2757.943793
623.746050,-2146.597232,-10658.965565,-2374.896044
623.746374,-2146.597232,-10436.903782,-1762.019645
623.746698,-1480.411884,-9770.718434,-1072.533697
623.747022,-1480.411884,-8808.450710,-1302.362347
623.747346,-1184.329507,-9030.512492,-1608.800546
623.747670,-1480.411884,-9622.677246,-1762.019645
623.747994,-1406.391290,-8660.409521,-2145.067394
623.748318,-1184.329507,-7550.100608,-1225.752797
623.748642,-1480.411884,-8438.347739,-536.266849
623.748966,-740.205942,-9104.533087,0.000000
623.749290,-1036.288319,-9178.553681,-229.828649
623.749614,-592.164754,-8808.450710,-459.657299
623.749938,-222.061783,-8882.471304,-383.047749
623.750262,-222.061783,-8586.388927,-612.876398
623.750586,-222.061783,-7624.121203,-459.657299
623.750910,-222.061783,-7624.121203,-383.047749
623.751234,0.000000,-8882.471304,0.000000
623.751558,888.247130,-8882.471304,229.828649
623.751882,1406.391290,-9400.615463,536.266849
623.752206,0.000000,-9178.553681,153.219100
623.752530,-888.247130,-8808.450710,383.047749
623.752854,-518.144159,-9474.636058,229.828649
623.753178,-222.061783,-10658.965565,689.485948
623.753502,1258.350101,-11177.109724,1225.752797
623.753827,2442.679609,-9770.718434,383.047749
623.754151,2294.638420,-9474.636058,76.609550
623.754475,1850.514855,-10362.883188,76.609550
623.754799,2146.597232,-10807.006753,536.266849
623.755123,1184.329507,-11473.192101,842.705048
623.755447,0.000000,-10510.924376,459.657299
623.755771,-1776.494261,-9030.512492,-306.438199
623.756095,-1110.308913,-9474.636058,76.609550
623.756419,148.041188,-10584.944971,536.266849
623.756743,740.205942,-10510.924376,1149.143247
623.757067,1110.308913,-9622.677246,1455.581446
623.757391,444.123565,-8438.347739,1302.362347
623.757715,0.000000,-8660.409521,536.266849
623.758039,0.000000,-9474.636058,1608.800546
623.758363,148.041188,-10584.944971,1149.143247
623.758687,222.061783,-10288.862594,1225.752797
623.759011,592.164754,-9770.718434,1762.019645
623.759335,1184.329507,-9622.677246,1302.362347
623.759659,1850.514855,-10732.986159,1378.971896
623.759983,1480.411884,-10881.027347,1302.362347
623.760307,1554.432478,-10807.006753,1149.143247
623.760631,1628.453072,-9696.697840,842.705048
623.760955,888.247130,-9696.697840,1532.190996
623.761279,0.000000,-10732.986159,1838.629195
623.761603,-592.164754,-10955.047942,1072.533697
623.761927,-740.205942,-10881.027347,1149.143247
623.762251,-2146.597232,-9474.636058,1225.752797
623.762575,-2146.597232,-9252.574275,1149.143247
623.762899,-1702.473667,-9252.574275,1225.752797
623.763223,-1554.432478,-8660.409521,1302.362347
623.763547,-1036.288319,-8364.327145,1225.752797
623.763871,-1184.329507,-7698.141797,536.266849
623.764195,-1554.432478,-6957.935855,842.705048
623.764520,-1702.473667,-7994.224174,459.657299
623.764844,-1406.391290,-8586.388927,-229.828649
623.765168,-666.185348,-8068.244768,1225.752797
623.765492,74.020594,-8364.327145,459.657299
623.765816,0.000000,-9474.636058,689.485948
623.766140,1110.308913,-9178.553681,459.657299
623.766464,2146.597232,-8142.265362,612.876398
623.766788,2664.741391,-8068.244768,229.828649
623.767112,2590.720797,-8660.409521,536.266849
623.767436,2072.576638,-9326.594869,612.876398
623.767760,740.205942,-9696.697840,689.485948
623.768084,-148.041188,-9474.636058,0.000000
623.768408,-518.144159,-9252.574275,-919.314598
623.768732,-814.226536,-10288.862594,-689.485948
623.769056,-518.144159,-11029.068536,-995.924147
623.769380,296.082377,-10288.862594,-995.924147
623.769704,888.247130,-9844.739029,-689.485948
623.770028,1332.370696,-10807.006753,-536.266849
623.770352,888.247130,-11621.233289,-459.657299
623.770676,666.185348,-11843.295072,0.000000
623.771000,814.226536,-9844.739029,-1532.190996
623.771324,-148.041188,-8734.430116,-2298.286494
623.771648,-518.144159,-9104.533087,-2604.724693
623.771972,-222.061783,-9844.739029,-2374.896044
623.772296,148.041188,-10436.903782,-1302.362347
623.772620,1258.350101,-10362.883188,-306.438199
623.772944,1258.350101,-9474.636058,-153.219100
623.773268,888.247130,-9474.636058,-919.314598
623.773592,-148.041188,-9474.636058,-1762.019645
623.773916,-1406.391290,-9844.739029,-2221.676944
623.774240,-2368.659014,-9844.739029,-1991.848295
623.774564,-2220.617826,-10140.821405,-842.705048
623.774888,-1332.370696,-9918.759623,-689.485948
623.775213,-888.247130,-9918.759623,-459.657299
623.775537,-1184.329507,-9252.574275,-2068.457845
623.775861,-2960.823768,-9548.656652,-2604.724693
623.776185,-3108.864956,-10362.883188,-2834.553343
623.776509,-2220.617826,-10881.027347,-1991.848295
623.776833,-592.164754,-11103.089130,-1608.800546
623.777157,518.144159,-10436.903782,-842.705048
623.777481,814.226536,-10732.986159,0.000000
623.777805,666.185348,-11621.233289,-1225.752797
623.778129,-296.082377,-11103.089130,-1532.190996
623.778453,-1110.308913,-10658.965565,-919.314598
623.778777,-1184.329507,-10140.821405,-1302.362347
623.779101,-666.185348,-9030.512492,-459.657299
623.779425,666.185348,-8734.430116,612.876398
623.779749,1110.308913,-8808.450710,153.219100
623.780073,888.247130,-9104.533087,229.828649
623.780397,296.082377,-7920.203579,-306.438199
623.780721,-814.226536,-7846.182985,0.000000
623.781045,-2220.617826,-7846.182985,-995.924147
623.781369,-2368.659014,-7550.100608,-1302.362347
623.781693,-1258.350101,-8290.306550,-383.047749
623.782017,-518.144159,-8586.388927,-1072.533697
623.782341,296.082377,-8512.368333,-383.047749
623.782665,1110.308913,-8512.368333,0.000000
623.782989,1776.494261,-9844.739029,689.485948
623.783313,3108.864956,-11029.068536,766.095498
623.783637,2738.761985,-10658.965565,689.485948
623.783961,1406.391290,-10214.842000,842.705048
623.784285,666.185348,-11103.089130,1302.362347
623.784609,962.267725,-11991.336260,1455.581446
623.784933,1332.370696,-12435.459826,2451.505594
623.785257,666.185348,-11473.192101,2145.067394
623.785581,-370.102971,-10658.965565,1455.581446
623.785906,-1184.329507,-10214.842000,383.047749
623.786230,-1850.514855,-9474.636058,306.438199
623.786554,-2146.597232,-9474.636058,766.095498
623.786878,-2072.576638,-8586.388927,612.876398
623.787202,-1184.329507,-7550.100608,76.609550
623.787526,-444.123565,-7105.977043,689.485948
623.787850,740.205942,-7846.182985,459.657299
623.788174,1184.329507,-8586.388927,919.314598
623.788498,1184.329507,-8216.285956,1608.800546
623.788822,1332.370696,-7994.224174,1838.629195
623.789146,1258.350101,-7920.203579,2145.067394
623.789470,1850.514855,-9252.574275,2221.676944
623.789794,1850.514855,-9548.656652,2528.115143
623.790118,1850.514855,-9622.677246,2451.505594
623.790442,1554.432478,-9548.656652,2604.724693
623.790766,74.020594,-9918.759623,1838.629195
623.791090,-814.226536,-9918.759623,1149.143247
623.791414,-1924.535449,-9178.553681,1302.362347
623.791738,-2738.761985,-9844.739029,306.438199
623.792062,-2368.659014,-10955.047942,-153.219100
623.792386,-1554.432478,-10510.924376,0.000000
623.792710,-444.123565,-10362.883188,76.609550
623.793034,518.144159,-10584.944971,0.000000
623.793358,888.247130,-10881.027347,0.000000
623.793682,1406.391290,-10658.965565,-229.828649
623.794006,1258.350101,-11177.109724,842.705048
623.794330,1332.370696,-10881.027347,842.705048
623.794654,1258.350101,-9622.677246,383.047749
623.794978,592.164754,-8808.450710,0.000000
623.795302,0.000000,-9326.594869,383.047749
623.795626,296.082377,-9844.739029,-153.219100
623.795950,148.041188,-9252.574275,-306.438199
623.796274,-222.061783,-7476.080014,76.609550
623.796599,-148.041188,-7328.038826,-536.266849
623.796923,-444.123565,-8882.471304,0.000000
623.797247,-1110.308913,-9548.656652,-612.876398
623.797571,-1258.350101,-9030.512492,-842.705048
623.797895,-888.247130,-8660.409521,-612.876398
623.798219,-296.082377,-9104.533087,-1072.533697
623.798543,222.061783,-8660.409521,-1378.971896
623.798867,148.041188,-8882.471304,-1225.752797
623.799191,148.041188,-9178.553681,-689.485948
623.799515,0.000000,-9770.718434,-1072.533697
623.799839,-592.164754,-10214.842000,-995.924147
623.800163,-1184.329507,-10362.883188,-1149.143247
623.800487,-370.102971,-11843.295072,-1072.533697
623.800811,1258.350101,-11843.295072,-689.485948
623.801135,1776.494261,-9918.759623,-1762.019645
623.801459,148.041188,-10214.842000,-1072.533697
623.801783,-666.185348,-10955.047942,-1762.019645
623.802107,222.061783,-10955.047942,-1685.410096
623.802431,296.082377,-9992.780217,-1838.629195
623.802755,-296.082377,-9548.656652,-1532.190996
623.803079,-740.205942,-9178.553681,-2068.457845
623.803403,-888.247130,-9992.780217,-1838.629195
623.803727,-962.267725,-10362.883188,-1378.971896
623.804051,-1184.329507,-9474.636058,-1762.019645
623.804375,-888.247130,-8364.327145,-1915.238745
623.804699,-1998.556043,-9030.512492,-2298.286494
623.805023,-1924.535449,-10140.821405,-1455.581446
623.805347,-1184.329507,-10732.986159,-919.314598
623.805671,-814.226536,-10436.903782,-1072.533697
623.805995,-1036.288319,-9548.656652,153.219100
623.806319,666.185348,-9548.656652,-919.314598
623.806643,1406.391290,-10288.862594,-612.876398
623.806967,1406.391290,-10955.047942,-459.657299
623.807291,888.247130,-10362.883188,0.000000
623.807616,444.123565,-10658.965565,153.219100
623.807940,74.020594,-11473.192101,-153.219100
623.808264,370.102971,-10955.047942,-153.219100
623.808588,222.061783,-9696.697840,612.876398
623.808912,370.102971,-10288.862594,-612.876398
623.809236,222.061783,-9844.739029,-459.657299
623.809560,0.000000,-9400.615463,-306.438199
623.809884,0.000000,-9178.553681,459.657299
623.810208,0.000000,-9030.512492,842.705048
623.810532,-518.144159,-8882.471304,612.876398
623.810856,-1184.329507,-8808.450710,1455.581446
623.811180,-1110.308913,-7624.121203,842.705048
623.811504,-592.164754,-7476.080014,766.095498
623.811828,-962.267725,-7550.100608,995.924147
623.812152,-1406.391290,-7254.018232,689.485948
623.812476,-1258.350101,-7402.059420,459.657299
623.812800,74.020594,-7624.121203,1072.533697
623.813124,2072.576638,-8364.327145,2604.724693
623.813448,2886.803174,-8734.430116,1838.629195
623.813772,1332.370696,-8438.347739,1225.752797
623.814096,888.247130,-8438.347739,1072.533697
623.814420,444.123565,-10362.883188,919.314598
623.814745,666.185348,-11621.233289,1072.533697
623.815069,148.041188,-10807.006753,919.314598
623.815393,-444.123565,-9548.656652,1455.581446
623.815717,592.164754,-9844.739029,1149.143247
623.816041,814.226536,-11325.150913,306.438199
623.816365,814.226536,-11843.295072,1302.362347
623.816689,222.061783,-11473.192101,842.705048
623.817013,-222.061783,-9844.739029,0.000000
623.817337,-148.041188,-10066.800811,76.609550
623.817661,-296.082377,-10807.006753,766.095498
623.817985,0.000000,-10584.944971,842.705048
623.818309,-888.247130,-10658.965565,1072.533697
623.818633,-1110.308913,-9770.718434,459.657299
623.818957,740.205942,-9548.656652,-459.657299
623.819281,1850.514855,-9252.574275,612.876398
623.819605,2294.638420,-9252.574275,612.876398
623.819929,814.226536,-8586.388927,229.828649
623.820253,-370.102971,-9104.533087,229.828649
623.820577,-1036.288319,-9400.615463,76.609550
623.820901,-962.267725,-9696.697840,536.266849
623.821225,-1628.453072,-8734.430116,689.485948
623.821549,-1776.494261,-7328.038826,-536.266849
623.821874,-1554.432478,-7846.182985,-612.876398
623.822198,0.000000,-9252.574275,0.000000
623.822522,1628.453072,-10436.903782,995.924147
623.822846,1998.556043,-9622.677246,842.705048
623.823170,814.226536,-9030.512492,383.047749
623.823494,-148.041188,-9326.594869,-383.047749
623.823818,-444.123565,-9770.718434,-459.657299
623.824142,-740.205942,-10955.047942,-536.266849
623.824466,-740.205942,-10732.986159,-459.657299
623.824790,-666.185348,-10140.821405,-383.047749
623.825114,-888.247130,-9548.656652,-536.266849
623.825438,222.061783,-9770.718434,-459.657299
623.825762,1036.288319,-9548.656652,-842.705048
623.826086,1036.288319,-9252.574275,-1991.848295
623.826410,-518.144159,-9030.512492,-1838.629195
623.826734,-1406.391290,-9400.615463,-1455.581446
623.827058,-444.123565,-9622.677246,-689.485948
623.827382,296.082377,-9918.759623,-383.047749
623.827706,0.000000,-9548.656652,-229.828649
623.828030,-370.102971,-9400.615463,-1225.752797
623.828354,-962.267725,-9178.553681,-1378.971896
623.828678,222.061783,-9844.739029,-536.266849
623.829003,1554.432478,-9844.739029,-995.924147
623.829327,1850.514855,-9326.594869,-1149.143247
623.829651,814.226536,-9474.636058,-1072.533697
623.829975,592.164754,-10362.883188,-1378.971896
623.830299,814.226536,-10732.986159,-1149.143247
623.830623,370.102971,-10584.944971,-919.314598
623.830947,-740.205942,-10658.965565,-1915.238745
623.831271,-1702.473667,-11177.109724,-2221.676944
623.831595,-1406.391290,-11843.295072,-1302.362347
623.831919,0.000000,-12213.398043,-1149.143247
623.832243,814.226536,-12287.418637,-1302.362347
623.832567,222.061783,-10658.965565,-2298.286494
623.832891,370.102971,-9844.739029,0.000000
623.833215,0.000000,-10584.944971,-842.705048
623.833539,-1258.350101,-10732.986159,-1762.019645
623.833863,-2590.720797,-10362.883188,-766.095498
623.834187,-2590.720797,-11029.068536,-689.485948
623.834511,-1110.308913,-10807.006753,-766.095498
623.834835,222.061783,-9400.615463,-536.266849
623.835159,1110.308913,-9622.677246,383.047749
623.835483,1924.535449,-9474.636058,306.438199
623.835807,2220.617826,-9474.636058,-612.876398
623.836132,962.267725,-8734.430116,459.657299
623.836456,-370.102971,-8882.471304,383.047749
623.836780,-888.247130,-8956.491898,-76.609550
623.837104,-1924.535449,-8438.347739,76.609550
623.837428,-2294.638420,-8216.285956,536.266849
623.837752,-1036.288319,-8216.285956,1149.143247
623.838076,0.000000,-8512.368333,229.828649
623.838400,148.041188,-8586.388927,1455.581446
623.838724,-296.082377,-7846.182985,1378.971896
623.839048,-222.061783,-7254.018232,919.314598
623.839372,-1258.350101,-7772.162391,1225.752797
623.839696,-1184.329507,-9178.553681,1991.848295
623.840020,-666.185348,-9918.759623,2145.067394
623.840344,-296.082377,-9400.615463,1838.629195
623.840668,0.000000,-8808.450710,1685.410096
623.840992,74.020594,-9178.553681,1838.629195
623.841316,666.185348,-9548.656652,1685.410096
623.841640,74.020594,-10066.800811,1225.752797
623.841964,-296.082377,-9326.594869,1455.581446
623.842288,370.102971,-8438.347739,1685.410096
623.842612,1258.350101,-8660.409521,766.095498
623.842936,592.164754,-9104.533087,383.047749
623.843261,-296.082377,-7920.203579,229.828649
623.843585,-592.164754,-8290.306550,0.000000
623.843909,-888.247130,-9252.574275,0.000000
623.844233,-1036.288319,-9622.677246,536.266849
623.844557,148.041188,-9400.615463,766.095498
623.844881,1628.453072,-8142.265362,1072.533697
623.845205,1184.329507,-9030.512492,689.485948
623.845529,2220.617826,-10066.800811,76.609550
623.845853,2664.741391,-11621.233289,383.047749
623.846177,2738.761985,-12361.439231,459.657299
623.846501,2664.741391,-11325.150913,459.657299
623.846825,1406.391290,-11325.150913,995.924147
623.847149,74.020594,-11917.315666,153.219100
623.847473,-296.082377,-13101.645173,-689.485948
623.847797,-592.164754,-12731.542202,-536.266849
623.848121,518.144159,-12287.418637,-1225.752797
623.848445,1184.329507,-12287.418637,-766.095498
623.848769,2294.638420,-11399.171507,-306.438199
623.849093,1924.535449,-10732.986159,0.000000
623.849417,0.000000,-10436.903782,-995.924147
623.849741,-1776.494261,-9844.739029,-1225.752797
623.850065,-1628.453072,-10881.027347,-612.876398
623.850390,-444.123565,-11029.068536,0.000000
623.850714,1184.329507,-9548.656652,306.438199
623.851038,1406.391290,-7550.100608,536.266849
623.851362,740.205942,-6883.915261,0.000000
623.851686,-370.102971,-7920.203579,-306.438199
623.852010,-370.102971,-9030.512492,459.657299
623.852334,0.000000,-8364.327145,842.705048
623.852658,222.061783,-6735.874072,229.828649
623.852982,-1406.391290,-5847.626942,-1225.752797
623.853306,-1998.556043,-6735.874072,-842.705048
623.853630,-2220.617826,-9030.512492,-1072.533697
623.853954,-2368.659014,-9104.533087,-919.314598
623.854278,-2516.700203,-8142.265362,-612.876398
623.854602,-2146.597232,-7550.100608,0.000000
623.854926,-1110.308913,-9104.533087,-153.219100
623.855250,-592.164754,-10362.883188,0.000000
623.855574,-592.164754,-11177.109724,0.000000
623.855898,-888.247130,-11769.274478,459.657299
623.856222,-888.247130,-11251.130318,0.000000
623.856546,-814.226536,-10807.006753,459.657299
623.856870,-962.267725,-10881.027347,-153.219100
623.857194,-1258.350101,-10584.944971,76.609550
623.857519,-1258.350101,-10955.047942,-383.047749
623.857843,-1184.329507,-10807.006753,229.828649
623.858167,-296.082377,-9474.636058,76.609550
623.858491,666.185348,-9030.512492,76.609550
623.858815,148.041188,-8216.285956,-1225.752797
623.859139,-1998.556043,-7550.100608,-1915.238745
623.859463,-3701.029710,-7624.121203,-2911.162892
623.859787,-3182.885551,-7846.182985,-1991.848295
623.860111,-666.185348,-8734.430116,-612.876398
623.860435,2072.576638,-9104.533087,689.485948
623.860759,3256.906145,-8660.409521,995.924147
623.861083,4145.153275,-9252.574275,76.609550
623.861407,3182.885551,-9770.718434,-229.828649
623.861731,2368.659014,-11177.109724,153.219100
623.862055,1332.370696,-11251.130318,536.266849
623.862379,1258.350101,-11473.192101,766.095498
623.862703,740.205942,-12139.377449,459.657299
623.863027,814.226536,-11695.253884,-995.924147
623.863351,444.123565,-11695.253884,-1608.800546
623.863675,-740.205942,-11991.336260,-2298.286494
623.863999,-1184.329507,-12065.356855,-2528.115143
623.864323,-666.185348,-11621.233289,-919.314598
623.864648,-222.061783,-11177.109724,-1149.143247
623.864972,-518.144159,-11547.212695,-459.657299
623.865296,-962.267725,-10807.006753,-1378.971896
623.865620,-962.267725,-10436.903782,-766.095498
623.865944,0.000000,-10362.883188,76.609550
623.866268,1480.411884,-10214.842000,689.485948
623.866592,1554.432478,-8882.471304,995.924147
623.866916,74.020594,-7772.162391,1225.752797
623.867240,-1110.308913,-8142.265362,229.828649
623.867564,-592.164754,-8734.430116,0.000000
623.867888,592.164754,-8512.368333,1225.752797
623.868212,2146.597232,-8142.265362,1302.362347
623.868536,3108.864956,-6809.894666,1378.971896
623.868860,2590.720797,-6883.915261,1149.143247
623.869184,1332.370696,-8142.265362,459.657299
623.869508,-296.082377,-8808.450710,-536.266849
623.869832,-1480.411884,-8586.388927,306.438199
623.870156,-1406.391290,-9474.636058,1378.971896
623.870480,-222.061783,-10510.924376,1225.752797
623.870804,814.226536,-9992.780217,842.705048
623.871128,296.082377,-9252.574275,995.924147
623.871452,-814.226536,-9548.656652,1072.533697
623.871777,-740.205942,-9992.780217,1455.581446
623.872101,-592.164754,-9474.636058,1532.190996
623.872425,-888.247130,-7920.203579,2451.505594
623.872749,-1702.473667,-7772.162391,1455.581446
623.873073,-2368.659014,-8216.285956,536.266849
623.873397,-3034.844362,-8586.388927,689.485948
623.873721,-2516.700203,-8956.491898,842.705048
623.874045,-592.164754,-9474.636058,1378.971896
623.874369,0.000000,-8068.244768,1149.143247
623.874693,0.000000,-7846.182985,1072.533697
623.875017,-740.205942,-8290.306550,459.657299
623.875341,-222.061783,-9104.533087,-995.924147
623.875665,-1036.288319,-9326.594869,0.000000
623.875989,0.000000,-9252.574275,0.000000
623.876313,1258.350101,-9178.553681,459.657299
623.876637,2516.700203,-9326.594869,995.924147
623.876961,3330.926739,-9770.718434,689.485948
623.877285,1924.535449,-10732.986159,0.000000
623.877609,-222.061783,-11399.171507,-536.266849
623.877933,-888.247130,-11399.171507,0.000000
623.878257,0.000000,-11547.212695,0.000000
623.878581,296.082377,-11399.171507,0.000000
623.878906,-296.082377,-11547.212695,-919.314598
623.879230,-888.247130,-12583.501014,-995.924147
623.879554,-1110.308913,-12509.480420,-459.657299
623.879878,0.000000,-12139.377449,-1455.581446
623.880202,-592.164754,-11251.130318,-766.095498
623.880526,-1036.288319,-10807.006753,-1072.533697
623.880850,-1332.370696,-10658.965565,-2298.286494
623.881174,-666.185348,-9696.697840,-1991.848295
623.881498,888.247130,-9770.718434,-1378.971896
623.881822,1924.535449,-9844.739029,-306.438199
623.882146,2664.741391,-9770.718434,-383.047749
623.882470,2590.720797,-8660.409521,0.000000
623.882794,2072.576638,-8364.327145,306.438199
623.883118,888.247130,-9326.594869,-689.485948
623.883442,-666.185348,-9992.780217,-612.876398
623.883766,-814.226536,-8882.471304,0.000000
623.884090,1332.370696,-8438.347739,383.047749
623.884414,2146.597232,-8290.306550,383.047749
623.884738,1850.514855,-7772.162391,-842.705048
623.885062,148.041188,-8364.327145,-842.705048
623.885386,-1184.329507,-9622.677246,-1072.533697
623.885710,-1480.411884,-9326.594869,-1915.238745
623.886034,-2146.597232,-8216.285956,-1378.971896
623.886359,-1776.494261,-8882.471304,-766.095498
623.886683,-1258.350101,-10140.821405,-1838.629195
623.887007,-962.267725,-11547.212695,-766.095498
623.887331,-1036.288319,-10732.986159,0.000000
623.887655,-814.226536,-10658.965565,229.828649
623.887979,-370.102971,-10436.903782,0.000000
623.888303,148.041188,-10288.862594,689.485948
623.888627,740.205942,-10584.944971,1915.238745
623.888951,740.205942,-10510.924376,1149.143247
623.889275,148.041188,-9030.512492,383.047749
623.889599,-666.185348,-8216.285956,383.047749
623.889923,-148.041188,-8216.285956,0.000000
623.890247,-148.041188,-8734.430116,0.000000
623.890571,-1480.411884,-9326.594869,383.047749
623.890895,-2146.597232,-8290.306550,-689.485948
623.891219,-1702.473667,-7402.059420,-995.924147
623.891543,-1036.288319,-8512.368333,-383.047749
623.891867,-296.082377,-8438.347739,-689.485948
623.892191,518.144159,-7105.977043,-689.485948
623.892515,444.123565,-7698.141797,306.438199
623.892839,148.041188,-9918.759623,842.705048
623.893163,666.185348,-11251.130318,842.705048
623.893488,370.102971,-10288.862594,919.314598
623.893812,-518.144159,-10066.800811,459.657299
623.894136,296.082377,-10807.006753,-76.609550
623.894460,1036.288319,-11399.171507,153.219100
623.894784,1776.494261,-12361.439231,1455.581446
623.895108,2368.659014,-12065.356855,1225.752797
623.895432,1776.494261,-11325.150913,689.485948
623.895756,-222.061783,-11029.068536,-383.047749
623.896080,-2072.576638,-11177.109724,-1225.752797
623.896404,-2072.576638,-12361.439231,-689.485948
623.896728,-888.247130,-11695.253884,-536.266849
623.897052,-296.082377,-10658.965565,153.219100
623.897376,148.041188,-9918.759623,229.828649
623.897700,296.082377,-9104.533087,383.047749
623.898024,1258.350101,-9252.574275,383.047749
623.898348,1110.308913,-9400.615463,536.266849
623.898672,296.082377,-9030.512492,1225.752797
623.898996,370.102971,-8438.347739,919.314598
623.899320,592.164754,-7994.224174,612.876398
623.899644,518.144159,-7698.141797,1149.143247
623.899968,222.061783,-6883.915261,995.924147
623.900292,0.000000,-7254.018232,383.047749
623.900617,-296.082377,-7698.141797,76.609550
623.900941,74.020594,-7402.059420,612.876398
623.901265,444.123565,-7920.203579,306.438199
623.901589,74.020594,-8808.450710,0.000000
623.901913,-222.061783,-8438.347739,-689.485948
623.902237,-148.041188,-9252.574275,76.609550
623.902561,0.000000,-11251.130318,536.266849
623.902885,0.000000,-11695.253884,689.485948
623.903209,370.102971,-10510.924376,766.095498
623.903533,370.102971,-9992.780217,383.047749
623.903857,0.000000,-10362.883188,-689.485948
623.904181,-444.123565,-10584.944971,-306.438199
623.904505,-592.164754,-10066.800811,0.000000
623.904829,-370.102971,-9474.636058,-229.828649
623.905153,-888.247130,-9474.636058,0.000000
623.905477,-1258.350101,-9696.697840,-459.657299
623.905801,-962.267725,-9992.780217,-1072.533697
623.906125,-1480.411884,-9548.656652,-1149.143247
623.906449,-1850.514855,-8882.471304,-1838.629195
623.906773,-1406.391290,-9474.636058,-1378.971896
623.907097,222.061783,-9474.636058,-229.828649
623.907421,962.267725,-8956.491898,689.485948
623.907746,1628.453072,-9030.512492,612.876398
623.908070,2294.638420,-9178.553681,0.000000
623.908394,1776.494261,-9104.533087,76.609550
623.908718,1924.535449,-9474.636058,-536.266849
623.909042,1036.288319,-9622.677246,-459.657299
623.909366,0.000000,-9696.697840,-612.876398
623.909690,-1406.391290,-9622.677246,-1149.143247
623.910014,-1776.494261,-10140.821405,-1532.190996
623.910338,-1702.473667,-11399.171507,-1225.752797
623.910662,-444.123565,-11473.192101,-536.266849
623.910986,1036.288319,-11251.130318,0.000000
623.911310,1110.308913,-11177.109724,0.000000
623.911634,1110.308913,-10658.965565,-306.438199
623.911958,592.164754,-11547.212695,0.000000
623.912282,592.164754,-11473.192101,0.000000
623.912606,296.082377,-11029.068536,153.219100
623.912930,-148.041188,-10288.862594,-76.609550
623.913255,-296.082377,-10066.800811,-689.485948
623.913579,0.000000,-9104.533087,-1455.581446
623.913903,296.082377,-8808.450710,-766.095498
623.914227,444.123565,-8364.327145,0.000000
623.914551,296.082377,-8216.285956,-536.266849
623.914875,-888.247130,-7846.182985,-459.657299
623.915199,-1480.411884,-7846.182985,0.000000
623.915523,-1332.370696,-8216.285956,-306.438199
623.915847,-1924.535449,-8364.327145,-229.828649
623.916171,-1924.535449,-7994.224174,-153.219100
623.916495,-962.267725,-7624.121203,-306.438199
623.916819,0.000000,-8660.409521,153.219100
623.917143,518.144159,-9770.718434,459.657299
623.917467,740.205942,-10066.800811,1072.533697
623.917791,1184.329507,-10510.924376,766.095498
623.918115,888.247130,-11325.150913,0.000000
623.918439,0.000000,-11251.130318,459.657299
623.918764,-1406.391290,-10658.965565,0.000000
623.919088,-1406.391290,-11547.212695,-306.438199
623.919412,-1998.556043,-11251.130318,-536.266849
623.919736,-2368.659014,-11695.253884,76.609550
623.920060,-666.185348,-11251.130318,153.219100
623.920384,74.020594,-10066.800811,0.000000
623.920708,592.164754,-9400.615463,0.000000
623.921032,222.061783,-9030.512492,-306.438199
623.921356,592.164754,-9770.718434,-1072.533697
623.921680,666.185348,-9252.574275,459.657299
623.922004,814.226536,-8586.388927,766.095498
623.922328,814.226536,-8142.265362,229.828649
623.922652,74.020594,-8364.327145,-229.828649
623.922976,222.061783,-8882.471304,459.657299
623.923300,2294.638420,-9548.656652,1072.533697
623.923624,4885.359217,-9918.759623,1991.848295
623.923948,4367.215058,-8216.285956,1685.410096
623.924273,1850.514855,-7328.038826,1072.533697
623.924597,222.061783,-8438.347739,-1762.019645
623.924921,-814.226536,-8956.491898,-995.924147
623.925245,-1406.391290,-9326.594869,-229.828649
623.925569,-1036.288319,-9548.656652,-612.876398
623.925893,-962.267725,-9474.636058,-229.828649
623.926217,0.000000,-8882.471304,-229.828649
623.926541,740.205942,-10140.821405,229.828649
623.926865,148.041188,-10807.006753,-459.657299
623.927189,222.061783,-10807.006753,0.000000
623.927513,296.082377,-11177.109724,1072.533697
623.927837,518.144159,-11103.089130,689.485948
623.928161,1258.350101,-10362.883188,1455.581446
623.928485,1332.370696,-10807.006753,1838.629195
623.928809,0.000000,-11177.109724,459.657299
623.929133,-1850.514855,-11251.130318,-153.219100
623.929457,-2220.617826,-9474.636058,0.000000
623.929782,-1628.453072,-7994.224174,-383.047749
623.930106,-962.267725,-8364.327145,-229.828649
623.930430,-1406.391290,-8216.285956,-1072.533697
623.930754,-1184.329507,-8068.244768,-1072.533697
623.931078,-1184.329507,-9326.594869,0.000000
623.931402,-962.267725,-8660.409521,-153.219100
623.931726,-1258.350101,-7328.038826,76.609550
623.932050,-1480.411884,-7402.059420,0.000000
623.932374,-1628.453072,-9400.615463,-306.438199
623.932698,-888.247130,-11177.109724,306.438199
623.933022,-444.123565,-10436.903782,612.876398
623.933346,0.000000,-9252.574275,1072.533697
623.933670,888.247130,-8882.471304,306.438199
623.933994,1184.329507,-9474.636058,0.000000
623.934318,444.123565,-10510.924376,-383.047749
623.934642,-740.205942,-10584.944971,-306.438199
623.934966,-592.164754,-10510.924376,-689.485948
623.935291,-148.041188,-10214.842000,-1685.410096
623.935615,-1036.288319,-9770.718434,-1378.971896
623.935939,-1258.350101,-9844.739029,-1149.143247
623.936263,-814.226536,-10288.862594,-1608.800546
623.936587,-518.144159,-10436.903782,-1685.410096
623.936911,-518.144159,-10288.862594,-1532.190996
623.937235,74.020594,-8734.430116,-766.095498
623.937559,740.205942,-8216.285956,-459.657299
623.937883,444.123565,-9030.512492,-919.314598
623.938207,-592.164754,-9030.512492,-459.657299
623.938531,-518.144159,-9844.739029,-536.266849
623.938855,-148.041188,-9992.780217,0.000000
623.939179,1850.514855,-9326.594869,0.000000
623.939503,3330.926739,-8364.327145,0.000000
623.939827,3256.906145,-8808.450710,-383.047749
623.940151,2738.761985,-10658.965565,-1072.533697
623.940475,592.164754,-10881.027347,-1685.410096
623.940800,0.000000,-10732.986159,-1072.533697
623.941124,0.000000,-11029.068536,-306.438199
623.941448,444.123565,-11621.233289,-1149.143247
623.941772,0.000000,-11177.109724,-1378.971896
623.942096,-444.123565,-10584.944971,-689.485948
623.942420,296.082377,-10732.986159,-919.314598
623.942744,814.226536,-11473.192101,0.000000
623.943068,888.247130,-11473.192101,459.657299
623.943392,888.247130,-9400.615463,0.000000
623.943716,592.164754,-8734.430116,612.876398
623.944040,518.144159,-9696.697840,689.485948
623.944364,444.123565,-10066.800811,1149.143247
623.944688,814.226536,-9474.636058,919.314598
623.945012,370.102971,-7994.224174,766.095498
623.945336,-444.123565,-7846.182985,1149.143247
623.945660,-1480.411884,-7402.059420,0.000000
623.945984,-2738.761985,-7550.100608,-536.266849
623.946309,-3478.967927,-8586.388927,306.438199
623.946633,-2294.638420,-9104.533087,536.266849
623.946957,-592.164754,-8290.306550,612.876398
623.947281,-370.102971,-7179.997637,842.705048
623.947605,0.000000,-7328.038826,1072.533697
623.947929,-444.123565,-9474.636058,-229.828649
623.948253,-1332.370696,-10362.883188,76.609550
623.948577,-1480.411884,-10140.821405,1225.752797
623.948901,-148.041188,-10362.883188,1762.019645
623.949225,0.000000,-10807.006753,1455.581446
623.949549,-222.061783,-11177.109724,1378.971896
623.949873,-666.185348,-11103.089130,153.219100
623.950197,296.082377,-11029.068536,229.828649
623.950521,222.061783,-11769.274478,689.485948
623.950845,444.123565,-10955.047942,766.095498
623.951169,296.082377,-9844.739029,536.266849
623.951493,-148.041188,-9844.739029,612.876398
623.951818,-1480.411884,-9770.718434,-306.438199
623.952142,-1184.329507,-9474.636058,-1149.143247
623.952466,-814.226536,-9474.636058,-1378.971896
623.952790,0.000000,-8734.430116,153.219100
623.953114,888.247130,-8068.244768,0.000000
623.953438,740.205942,-7846.182985,153.219100
623.953762,444.123565,-8438.347739,0.000000
623.954086,296.082377,-8882.471304,-229.828649
623.954410,666.185348,-8956.491898,-229.828649
623.954734,814.226536,-8882.471304,612.876398
623.955058,1554.432478,-9030.512492,766.095498
623.955382,1406.391290,-8438.347739,-383.047749
623.955706,1258.350101,-9400.615463,-76.609550
623.956030,1702.473667,-10807.006753,0.000000
623.956354,1924.535449,-11325.150913,76.609550
623.956678,1110.308913,-10955.047942,76.609550
623.957002,-370.102971,-10436.903782,383.047749
623.957327,518.144159,-10955.047942,-536.266849
623.957651,0.000000,-11547.212695,-1225.752797
623.957975,-592.164754,-11177.109724,-919.314598
623.958299,-888.247130,-10288.862594,-842.705048
623.958623,-592.164754,-10732.986159,-766.095498
623.958947,0.000000,-11473.192101,-306.438199
623.959271,0.000000,-9992.780217,-383.047749
623.959595,-592.164754,-8734.430116,-766.095498
623.959919,-888.247130,-8808.450710,-919.314598
623.960243,296.082377,-9770.718434,306.438199
623.960567,1850.514855,-10362.883188,1149.143247
623.960891,1850.514855,-9178.553681,766.095498
623.961215,740.205942,-8364.327145,1072.533697
623.961539,444.123565,-8290.306550,-306.438199
623.961863,222.061783,-8586.388927,-766.095498
623.962187,-888.247130,-8290.306550,-919.314598
623.962512,-1702.473667,-8068.244768,-995.924147
623.962836,-1480.411884,-7994.224174,-306.438199
623.963160,-296.082377,-7994.224174,-306.438199
623.963484,666.185348,-9104.533087,0.000000
623.963808,444.123565,-9770.718434,0.000000
623.964132,148.041188,-9474.636058,-76.609550
623.964456,-592.164754,-9252.574275,-306.438199
623.964780,-1110.308913,-10288.862594,-383.047749
623.965104,-1480.411884,-10658.965565,0.000000
623.965428,-740.205942,-11621.233289,229.828649
623.965752,-296.082377,-11917.315666,689.485948
623.966076,592.164754,-11695.253884,306.438199
623.966400,962.267725,-11177.109724,229.828649
623.966724,592.164754,-10140.821405,0.000000
623.967048,-296.082377,-9918.759623,-1072.533697
623.967372,-1480.411884,-9696.697840,-1302.362347
623.967696,-1776.494261,-9844.739029,-689.485948
623.968021,-2220.617826,-9844.739029,-1225.752797
623.968345,-2146.597232,-9696.697840,-995.924147
623.968669,-2368.659014,-9622.677246,-919.314598
623.968993,-1628.453072,-9178.553681,-1302.362347
623.969317,-1110.308913,-8586.388927,-995.924147
623.969641,-666.185348,-8660.409521,-766.095498
623.969965,-148.041188,-8660.409521,-306.438199
623.970289,962.267725,-9178.553681,-383.047749
623.970613,1036.288319,-9178.553681,-153.219100
623.970937,1998.556043,-8808.450710,766.095498
623.971261,2368.659014,-8956.491898,153.219100
623.971585,1406.391290,-9992.780217,-383.047749
623.971909,148.041188,-10214.842000,-306.438199
623.972233,-592.164754,-10510.924376,76.609550
623.972557,-518.144159,-10732.986159,-229.828649
623.972881,-592.164754,-10436.903782,-1072.533697
623.973205,-740.205942,-10066.800811,-383.047749
623.973530,-148.041188,-10288.862594,-689.485948
623.973854,-370.102971,-11103.089130,-995.924147
623.974178,-1184.329507,-10510.924376,-536.266849
623.974502,-1776.494261,-10436.903782,0.000000
623.974826,-1628.453072,-10140.821405,-995.924147
623.975150,-814.226536,-9622.677246,-383.047749
623.975474,-962.267725,-9400.615463,229.828649
623.975798,1036.288319,-9548.656652,229.828649
623.976122,1998.556043,-9770.718434,0.000000
623.976446,2294.638420,-9548.656652,766.095498
623.976770,2812.782580,-8216.285956,689.485948
623.977094,2590.720797,-8290.306550,76.609550
623.977418,1110.308913,-8364.327145,0.000000
623.977742,0.000000,-9770.718434,306.438199
623.978066,-444.123565,-10658.965565,842.705048
623.978390,-814.226536,-9474.636058,0.000000
623.978714,-444.123565,-8142.265362,536.266849
623.979039,-740.205942,-8216.285956,-383.047749
623.979363,0.000000,-9104.533087,-536.266849
623.979687,888.247130,-9474.636058,306.438199
623.980011,1628.453072,-9030.512492,919.314598
623.980335,740.205942,-9696.697840,1455.581446
623.980659,0.000000,-9696.697840,76.609550
623.980983,444.123565,-9474.636058,689.485948
623.981307,814.226536,-11325.150913,1072.533697
623.981631,666.185348,-12731.542202,536.266849
623.981955,-666.185348,-11991.336260,842.705048
623.982279,-1406.391290,-10288.862594,459.657299
623.982603,-962.267725,-9622.677246,536.266849
623.982927,-518.144159,-10140.821405,919.314598
623.983251,-814.226536,-9844.739029,229.828649
623.983575,-1628.453072,-8734.430116,-459.657299
623.983899,-1480.411884,-7698.141797,-689.485948
623.984223,-1184.329507,-7846.182985,-306.438199
623.984548,-666.185348,-8660.409521,0.000000
623.984872,-296.082377,-9178.553681,459.657299
623.985196,222.061783,-8734.430116,76.609550
623.985520,74.020594,-8364.327145,-459.657299
623.985844,74.020594,-9252.574275,0.000000
623.986168,1110.308913,-9770.718434,306.438199
623.986492,2368.659014,-9400.615463,383.047749
623.986816,2072.576638,-8734.430116,459.657299
623.987140,1628.453072,-9474.636058,306.438199
623.987464,1036.288319,-10584.944971,-383.047749
623.987788,74.020594,-10584.944971,153.219100
623.988112,-1480.411884,-10214.842000,153.219100
623.988436,-2664.741391,-10066.800811,-1302.362347
623.988760,-3330.926739,-9844.739029,-1991.848295
623.989084,-2516.700203,-9696.697840,-1762.019645
623.989408,-740.205942,-10214.842000,-1225.752797
623.989732,148.041188,-10658.965565,-766.095498
623.990057,666.185348,-10362.883188,-306.438199
623.990381,74.020594,-9918.759623,0.000000
623.990705,-222.061783,-10066.800811,-1378.971896
623.991029,-444.123565,-10362.883188,-842.705048
623.991353,-592.164754,-11103.089130,0.000000
623.991677,444.123565,-11251.130318,-383.047749
623.992001,962.267725,-10140.821405,0.000000
623.992325,1036.288319,-8586.388927,-536.266849
623.992649,1480.411884,-8512.368333,0.000000
623.992973,1850.514855,-9474.636058,-383.047749
623.993297,296.082377,-9770.718434,-612.876398
623.993621,-962.267725,-9178.553681,-459.657299
623.993945,-1850.514855,-8956.491898,-612.876398
623.994269,-1850.514855,-8734.430116,-383.047749
623.994593,-888.247130,-8808.450710,-689.485948
623.994917,0.000000,-9474.636058,-689.485948
623.995241,0.000000,-9400.615463,-536.266849
623.995566,0.000000,-9474.636058,-383.047749
623.995890,1258.350101,-9400.615463,-306.438199
623.996214,1480.411884,-9696.697840,0.000000
623.996538,1258.350101,-10584.944971,-612.876398
623.996862,740.205942,-11029.068536,-229.828649
623.997186,0.000000,-11029.068536,0.000000
623.997510,296.082377,-11991.336260,383.047749
623.997834,-222.061783,-11029.068536,536.266849
623.998158,148.041188,-10362.883188,153.219100
623.998482,-148.041188,-10362.883188,153.219100
623.998806,148.041188,-10510.924376,-383.047749
623.999130,666.185348,-10214.842000,536.266849
623.999454,1036.288319,-9622.677246,919.314598
623.999778,592.164754,-8882.471304,1072.533697
624.000102,-1036.288319,-7846.182985,153.219100
624.000426,-1702.473667,-7846.182985,0.000000
624.000750,-1998.556043,-8438.347739,0.000000
624.001075,-1776.494261,-8068.244768,-459.657299
624.001399,-1554.432478,-7328.038826,0.000000
624.001723,-2072.576638,-7179.997637,0.000000
624.002047,-1110.308913,-7105.977043,-689.485948
624.002371,444.123565,-7031.956449,-612.876398
624.002695,1850.514855,-9548.656652,919.314598
624.003019,3404.947333,-10658.965565,766.095498
624.003343,3256.906145,-10510.924376,536.266849
624.003667,1406.391290,-9622.677246,1225.752797
624.003991,1110.308913,-10066.800811,612.876398
624.004315,1406.391290,-12065.356855,0.000000
624.004639,1850.514855,-13693.809927,612.876398
624.004963,1406.391290,-11991.336260,383.047749
624.005287,1480.411884,-10807.006753,229.828649
624.005611,1332.370696,-10510.924376,-153.219100
624.005935,-296.082377,-11103.089130,0.000000
624.006259,-1998.556043,-10955.047942,-689.485948
624.006584,-2812.782580,-10362.883188,-1072.533697
624.006908,-3330.926739,-10288.862594,-995.924147
624.007232,-3256.906145,-9326.594869,-1225.752797
624.007556,-2220.617826,-8660.409521,-383.047749
624.007880,-1776.494261,-9104.533087,76.609550
624.008204,-962.267725,-8882.471304,-306.438199
624.008528,-814.226536,-7994.224174,0.000000
624.008852,444.123565,-7698.141797,612.876398
624.009176,2294.638420,-8956.491898,1532.190996
624.009500,3182.885551,-9844.739029,1455.581446
624.009824,2886.803174,-8586.388927,1225.752797
624.010148,1776.494261,-8142.265362,1915.238745
624.010473,740.205942,-9474.636058,459.657299
624.010797,-148.041188,-10584.944971,459.657299
624.011121,-1924.535449,-10214.842000,306.438199
624.011445,-2368.659014,-9104.533087,-383.047749
624.011769,-1776.494261,-9104.533087,-995.924147
624.012093,-740.205942,-8808.450710,-1225.752797
624.012417,-592.164754,-8586.388927,-766.095498
624.012741,-1776.494261,-8956.491898,-1149.143247
624.013065,-2368.659014,-9400.615463,-1225.752797
624.013389,-2886.803174,-8808.450710,-1072.533697
624.013714,-2442.679609,-9178.553681,-612.876398
624.014038,-2368.659014,-9400.615463,-1149.143247
624.014362,-1776.494261,-9770.718434,-766.095498
624.014686,-888.247130,-10214.842000,0.000000
624.015010,1110.308913,-10362.883188,0.000000
624.015334,2072.576638,-9770.718434,0.000000
624.015658,1850.514855,-8956.491898,0.000000
624.015982,592.164754,-7846.182985,-1762.019645
624.016306,-814.226536,-8956.491898,-2374.896044
624.016631,-1850.514855,-10140.821405,-2528.115143
624.016955,-1850.514855,-9918.759623,-2757.943793
624.017279,-2072.576638,-9030.512492,-2911.162892
624.017603,-2072.576638,-8438.347739,-2911.162892
624.017927,-1850.514855,-8808.450710,-2834.553343
624.018251,-1924.535449,-9770.718434,-3217.601092
624.018575,-592.164754,-11103.089130,-2068.457845
624.018899,0.000000,-11695.253884,-1838.629195
624.019223,666.185348,-11473.192101,-1838.629195
624.019547,-444.123565,-11547.212695,-1149.143247
624.019872,-1998.556043,-12435.459826,-1838.629195
624.020196,-3182.885551,-12583.501014,-2145.067394
624.020520,-2442.679609,-13027.624579,-1991.848295
624.020844,-2146.597232,-11843.295072,-2987.772442
624.021168,-1554.432478,-10288.862594,-3217.601092
624.021492,-1850.514855,-9770.718434,-2681.334243
624.021816,-1110.308913,-9992.780217,-2911.162892
624.022140,0.000000,-9992.780217,-3140.991542
624.022464,-370.102971,-9918.759623,-2681.334243
624.022789,-740.205942,-8808.450710,-2145.067394
624.023113,-1480.411884,-9622.677246,-1838.629195
624.023437,-3182.885551,-9918.759623,-1838.629195
624.023761,-3108.864956,-10066.800811,-2068.457845
624.024085,-4367.215058,-9696.697840,-2681.334243
624.024409,-5181.441594,-8512.368333,-3217.601092
624.024733,-5773.606348,-7179.997637,-2834.553343
624.025057,-6291.750507,-7772.162391,-2604.724693
624.025381,-5033.400406,-7254.018232,-2451.505594
624.025706,-3182.885551,-7698.141797,-1455.581446
624.026030,-1480.411884,-8216.285956,-1532.190996
624.026354,-666.185348,-8364.327145,-1608.800546
624.026678,-1110.308913,-8734.430116,-766.095498
624.027002,-1406.391290,-8956.491898,-842.705048
624.027326,-592.164754,-9474.636058,-153.219100
624.027650,444.123565,-11621.233289,229.828649
624.027974,0.000000,-10955.047942,-306.438199
624.028298,-1998.556043,-11103.089130,0.000000
624.028622,-4145.153275,-10658.965565,-1378.971896
624.028947,-5921.647536,-9474.636058,-2528.115143
624.029271,-6809.894666,-8808.450710,-2604.724693
624.029595,-6513.812290,-9104.533087,-2604.724693
624.029919,-5255.462188,-8586.388927,-3064.381992
624.030243,-3627.009116,-8216.285956,-2451.505594
624.030567,-1924.535449,-8512.368333,-2528.115143
624.030891,0.000000,-8660.409521,-1225.752797
624.031215,1110.308913,-9104.533087,-919.314598
624.031539,1258.350101,-8660.409521,-1455.581446
624.031864,74.020594,-9622.677246,-1762.019645
624.032188,-1406.391290,-11843.295072,-2068.457845
624.032512,-1702.473667,-12953.603985,-2145.067394
624.032836,-1628.453072,-11695.253884,-2068.457845
624.033160,-2368.659014,-10362.883188,-1915.238745
624.033484,-2368.659014,-9992.780217,-2298.286494
624.033808,-2368.659014,-10436.903782,-2604.724693
624.034132,-2294.638420,-10658.965565,-2221.676944
624.034456,-2146.597232,-9696.697840,-1838.629195
624.034780,-1332.370696,-8068.244768,-1838.629195
624.035105,-592.164754,-8660.409521,-1762.019645
624.035429,-1110.308913,-8586.388927,-1225.752797
624.035753,-444.123565,-9400.615463,-1762.019645
624.036077,-592.164754,-10658.965565,-1685.410096
624.036401,-1924.535449,-11769.274478,-2757.943793
624.036725,-2960.823768,-10881.027347,-3600.648841
624.037049,-3997.112087,-10436.903782,-3830.477490
624.037373,-4589.276840,-11843.295072,-3753.867940
624.037697,-3627.009116,-11473.192101,-4290.134789
624.038022,-2590.720797,-9918.759623,-2757.943793
624.038346,-1702.473667,-9918.759623,-1838.629195
624.038670,74.020594,-9474.636058,-1838.629195
624.038994,1110.308913,-8364.327145,-1532.190996
624.039318,1332.370696,-7550.100608,-1149.143247
624.039642,740.205942,-9030.512492,-995.924147
624.039966,148.041188,-9770.718434,-919.314598
624.040290,-148.041188,-9178.553681,-919.314598
624.040614,-666.185348,-8216.285956,-766.095498
624.040938,-962.267725,-8734.430116,-1532.190996
624.041263,-1776.494261,-9104.533087,-3447.429741
624.041587,-4145.153275,-8956.491898,-3753.867940
624.041911,-5477.523971,-9770.718434,-3830.477490
624.042235,-4885.359217,-10362.883188,-3677.258390
624.042559,-3923.091493,-9474.636058,-3753.867940
624.042883,-3701.029710,-9030.512492,-2221.676944
624.043207,-3108.864956,-8956.491898,-1378.971896
624.043531,-1258.350101,-9992.780217,-1991.848295
624.043855,444.123565,-10658.965565,-1225.752797
624.044180,222.061783,-9844.739029,-689.485948
624.044504,-888.247130,-9992.780217,-689.485948
624.044828,-1998.556043,-10955.047942,-919.314598
624.045152,-2368.659014,-10510.924376,-1225.752797
624.045476,-2886.803174,-9474.636058,-1991.848295
624.045800,-4885.359217,-9474.636058,-2604.724693
624.046124,-5477.523971,-10510.924376,-3064.381992
624.046448,-3923.091493,-9844.739029,-2757.943793
624.046772,-2368.659014,-8364.327145,-1915.238745
624.047096,-3552.988522,-8438.347739,-2298.286494
624.047421,-6365.771101,-9548.656652,-2911.162892
624.047745,-6439.791695,-9992.780217,-2757.943793
624.048069,-4737.318029,-9326.594869,-2451.505594
624.048393,-3330.926739,-8808.450710,-1991.848295
624.048717,-2886.803174,-10288.862594,-1532.190996
624.049041,-1702.473667,-10955.047942,-766.095498
624.049365,148.041188,-10066.800811,-612.876398
624.049689,1184.329507,-9400.615463,-536.266849
624.050013,592.164754,-10362.883188,-995.924147
624.050338,-518.144159,-11547.212695,-919.314598
624.050662,-1702.473667,-10955.047942,-1378.971896
624.050986,-2886.803174,-9696.697840,-1838.629195
624.051310,-3627.009116,-9548.656652,-2145.067394
624.051634,-3330.926739,-9992.780217,-2145.067394
624.051958,-3256.906145,-9696.697840,-1378.971896
624.052282,-2960.823768,-8586.388927,-2068.457845
624.052606,-4145.153275,-7254.018232,-3600.648841
624.052930,-4959.379811,-7846.182985,-3983.696590
624.053255,-4811.338623,-9844.739029,-3600.648841
624.053579,-2368.659014,-9992.780217,-3064.381992
624.053903,0.000000,-9696.697840,-2298.286494
624.054227,296.082377,-10288.862594,-1532.190996
624.054551,-370.102971,-11251.130318,-1072.533697
624.054875,148.041188,-11695.253884,-1608.800546
624.055199,666.185348,-9844.739029,-1608.800546
624.055523,1258.350101,-9400.615463,-995.924147
624.055847,2368.659014,-11103.089130,-1072.533697
624.056171,1406.391290,-11325.150913,-842.705048
624.056496,-222.061783,-10881.027347,-995.924147
624.056820,-2590.720797,-9548.656652,-2681.334243
624.057144,-4071.132681,-9326.594869,-3677.258390
624.057468,-4219.173869,-9104.533087,-3064.381992
624.057792,-3552.988522,-8808.450710,-3677.258390
624.058116,-2072.576638,-8734.430116,-2911.162892
624.058440,-2590.720797,-10066.800811,-2987.772442
624.058764,-3478.967927,-10732.986159,-2604.724693
624.059088,-3627.009116,-9992.780217,-2528.115143
624.059413,-3627.009116,-8808.450710,-2298.286494
624.059737,-3404.947333,-8142.265362,-2145.067394
624.060061,-1480.411884,-8808.450710,-1685.410096
624.060385,962.267725,-9474.636058,-689.485948
624.060709,2960.823768,-9844.739029,-766.095498
624.061033,3256.906145,-9622.677246,-612.876398
624.061357,1702.473667,-8882.471304,-919.314598
624.061681,-962.267725,-9252.574275,-1225.752797
624.062005,-3552.988522,-10214.842000,-1991.848295
624.062329,-5699.585753,-10214.842000,-3140.991542
624.062654,-6143.709319,-10362.883188,-3064.381992
624.062978,-6069.688724,-10362.883188,-2604.724693
624.063302,-3701.029710,-10955.047942,-2374.896044
624.063626,-2146.597232,-9844.739029,-1915.238745
624.063950,-1850.514855,-9104.533087,-1762.019645
624.064274,-2368.659014,-9326.594869,-2068.457845
624.064598,-2590.720797,-9474.636058,-1915.238745
624.064922,-2738.761985,-9548.656652,-1455.581446
624.065246,-2368.659014,-9770.718434,-1455.581446
624.065571,-2442.679609,-9548.656652,-766.095498
624.065895,-2516.700203,-10214.842000,-1378.971896
624.066219,-2738.761985,-10288.862594,-1225.752797
624.066543,-2812.782580,-9474.636058,-1762.019645
624.066867,-2960.823768,-8734.430116,-2145.067394
624.067191,-3849.070898,-8512.368333,-2374.896044
624.067515,-3701.029710,-8808.450710,-2451.505594
624.067839,-2368.659014,-9622.677246,-1762.019645
624.068163,-2220.617826,-9474.636058,-2221.676944
624.068487,-2220.617826,-8956.491898,-1991.848295
624.068812,-2146.597232,-9178.553681,-1532.190996
624.069136,-2072.576638,-9844.739029,-1991.848295
624.069460,-2516.700203,-10214.842000,-2528.115143
624.069784,-2590.720797,-11547.212695,-2374.896044
624.070108,-2368.659014,-11843.295072,-1685.410096
624.070432,-1628.453072,-11843.295072,-2528.115143
624.070756,-1480.411884,-10362.883188,-1915.238745
624.071080,-1628.453072,-8660.409521,-1838.629195
624.071404,-1554.432478,-7920.203579,-2757.943793
624.071729,-1628.453072,-8364.327145,-2834.553343
624.072053,-1406.391290,-8512.368333,-2911.162892
624.072377,-962.267725,-8734.430116,-2374.896044
624.072701,-1480.411884,-8882.471304,-1915.238745
624.073025,-3182.885551,-8734.430116,-2221.676944
624.073349,-4071.132681,-9178.553681,-2834.553343
624.073673,-4441.235652,-9696.697840,-3830.477490
624.073997,-3627.009116,-11325.150913,-3524.039291
624.074321,-2072.576638,-11991.336260,-2374.896044
624.074645,518.144159,-12213.398043,-1991.848295
624.074970,1036.288319,-11103.089130,-1455.581446
624.075294,962.267725,-10436.903782,-1302.362347
624.075618,666.185348,-10140.821405,-2221.676944
624.075942,888.247130,-10066.800811,-2451.505594
624.076266,1258.350101,-9844.739029,-2068.457845
624.076590,1998.556043,-9918.759623,-1378.971896
624.076914,1406.391290,-9622.677246,-1302.362347
624.077238,148.041188,-9252.574275,-1149.143247
624.077562,-2738.761985,-9474.636058,-1991.848295
624.077887,-5181.441594,-10881.027347,-3217.601092
624.078211,-6809.894666,-11103.089130,-3370.820191
624.078535,-6809.894666,-10732.986159,-2987.772442
624.078859,-5107.421000,-10214.842000,-2298.286494
624.079183,-2886.803174,-9918.759623,-1532.190996
624.079507,-1480.411884,-9326.594869,-1302.362347
624.079831,-296.082377,-8882.471304,-306.438199
624.080155,-296.082377,-8512.368333,-536.266849
624.080479,296.082377,-8956.491898,-153.219100
624.080804,444.123565,-8882.471304,0.000000
624.081128,518.144159,-8808.450710,0.000000
624.081452,0.000000,-8808.450710,0.000000
624.081776,-814.226536,-9474.636058,-1685.410096
624.082100,-2516.700203,-9252.574275,-1225.752797
624.082424,-4589.276840,-9178.553681,-1378.971896
624.082748,-5995.668130,-8660.409521,-2451.505594
624.083072,-6735.874072,-8364.327145,-2451.505594
624.083396,-7031.956449,-8290.306550,-2528.115143
624.083720,-6069.688724,-8586.388927,-2068.457845
624.084045,-4219.173869,-8290.306550,-1302.362347
624.084369,-2442.679609,-8438.347739,-919.314598
624.084693,-1110.308913,-9104.533087,-766.095498
624.085017,148.041188,-9474.636058,-153.219100
624.085341,296.082377,-9844.739029,-153.219100
624.085665,370.102971,-10288.862594,-459.657299
624.085989,0.000000,-10807.006753,-995.924147
624.086313,-962.267725,-11029.068536,-1149.143247
624.086637,-1480.411884,-11029.068536,-2145.067394
624.086962,-2516.700203,-10584.944971,-2604.724693
624.087286,-4589.276840,-9992.780217,-3677.258390
624.087610,-6069.688724,-10214.842000,-4366.744339
624.087934,-7179.997637,-9548.656652,-4979.620737
624.088258,-7031.956449,-9178.553681,-5209.449386
624.088582,-5699.585753,-8586.388927,-4673.182538
624.088906,-3182.885551,-8660.409521,-3677.258390
624.089230,-962.267725,-9104.533087,-3294.210641
624.089554,814.226536,-9178.553681,-1838.629195
624.089878,1406.391290,-9918.759623,-1838.629195
624.090203,962.267725,-10955.047942,-1762.019645
624.090527,74.020594,-11843.295072,-1915.238745
624.090851,-592.164754,-12583.501014,-1762.019645
624.091175,-1110.308913,-13397.727550,-2068.457845
624.091499,-1924.535449,-13101.645173,-2681.334243
624.091823,-2368.659014,-11917.315666,-3907.087040
624.092147,-2738.761985,-10658.965565,-4826.401637
624.092471,-3182.885551,-9548.656652,-5439.278036
624.092795,-2738.761985,-8660.409521,-5056.230287
624.093120,-1776.494261,-7402.059420,-4903.011187
624.093444,-1776.494261,-6809.894666,-4213.525239
624.093768,-2960.823768,-6809.894666,-4213.525239
624.094092,-4367.215058,-8216.285956,-4136.915689
624.094416,-4885.359217,-8808.450710,-3983.696590
624.094740,-4737.318029,-8438.347739,-3294.210641
624.095064,-2886.803174,-8364.327145,-2221.676944
624.095388,-1184.329507,-9400.615463,-1608.800546
624.095712,666.185348,-10807.006753,-612.876398
624.096036,1406.391290,-11769.274478,-153.219100
624.096361,1110.308913,-12435.459826,-766.095498
624.096685,222.061783,-13101.645173,-1072.533697
624.097009,-222.061783,-11917.315666,-1685.410096
624.097333,74.020594,-10214.842000,-2374.896044
624.097657,0.000000,-8660.409521,-2145.067394
624.097981,888.247130,-8586.388927,-2604.724693
624.098305,740.205942,-8660.409521,-2298.286494
624.098629,-370.102971,-8660.409521,-2604.724693
624.098953,-2738.761985,-8142.265362,-3064.381992
624.099278,-5921.647536,-7402.059420,-3983.696590
624.099602,-7994.224174,-7624.121203,-3753.867940
624.099926,-7105.977043,-7476.080014,-2834.553343
624.100250,-5477.523971,-9400.615463,-2221.676944
624.100574,-4663.297435,-10955.047942,-995.924147
624.100898,-3552.988522,-11473.192101,0.000000
624.101222,-2442.679609,-11399.171507,229.828649
624.101546,-1776.494261,-11473.192101,0.000000
624.101870,-1406.391290,-11103.089130,229.828649
624.102194,222.061783,-10955.047942,0.000000
624.102519,2146.597232,-10436.903782,229.828649
624.102843,3034.844362,-10140.821405,-689.485948
624.103167,2146.597232,-9622.677246,-612.876398
624.103491,1110.308913,-8956.491898,-1378.971896
624.103815,-370.102971,-8438.347739,-1608.800546
624.104139,-1850.514855,-8512.368333,-1378.971896
624.104463,-5403.503377,-9622.677246,-2451.505594
624.104787,-9400.615463,-10807.006753,-3217.601092
624.105111,-11399.171507,-10214.842000,-4060.306139
624.105436,-9918.759623,-8438.347739,-3600.648841
624.105760,-7179.997637,-8586.388927,-2528.115143
624.106084,-5255.462188,-9770.718434,-1608.800546
624.106408,-3923.091493,-10732.986159,-536.266849
624.106732,-2368.659014,-10288.862594,-766.095498
624.107056,-296.082377,-8808.450710,459.657299
624.107380,2146.597232,-10436.903782,1149.143247
624.107704,4441.235652,-11621.233289,766.095498
624.108028,6661.853478,-10066.800811,536.266849
624.108353,7031.956449,-8734.430116,229.828649
624.108677,5255.462188,-9400.615463,-612.876398
624.109001,2590.720797,-10066.800811,-1302.362347
624.109325,-740.205942,-10066.800811,-2068.457845
624.109649,-4145.153275,-9252.574275,-2374.896044
624.109973,-7846.182985,-7994.224174,-3140.991542
624.110297,-9548.656652,-7846.182985,-4826.401637
624.110621,-10658.965565,-7846.182985,-5056.230287
624.110945,-10510.924376,-7846.182985,-4826.401637
624.111269,-8068.244768,-7105.977043,-4213.525239
624.111593,-4663.297435,-7994.224174,-1915.238745
624.111917,-1406.391290,-7994.224174,-766.095498
624.112241,296.082377,-8068.244768,-919.314598
624.112565,1554.432478,-9622.677246,0.000000
624.112889,3552.988522,-11769.274478,153.219100
624.113213,6069.688724,-12805.562797,306.438199
624.113537,6735.874072,-11843.295072,536.266849
624.113861,5181.441594,-11473.192101,459.657299
624.114185,2516.700203,-12731.542202,-1149.143247
624.114509,-962.267725,-13027.624579,-3064.381992
624.114833,-4811.338623,-11769.274478,-3447.429741
624.115157,-8438.347739,-11177.109724,-4366.744339
624.115481,-9770.718434,-10288.862594,-5209.449386
624.115805,-9918.759623,-8068.244768,-5286.058936
624.116129,-9030.512492,-4811.338623,-6358.592633
624.116453,-8290.306550,-5181.441594,-5592.497135
624.116777,-7105.977043,-8956.491898,-3677.258390
624.117101,-3997.112087,-9474.636058,-3907.087040
624.117425,0.000000,-7105.977043,-2145.067394
624.117749,1628.453072,-7402.059420,-766.095498
624.118073,2516.700203,-11547.212695,-153.219100
624.118397,3701.029710,-13693.809927,-689.485948
624.118721,4515.256246,-11769.274478,-536.266849
624.119045,3182.885551,-10658.965565,-306.438199
624.119369,1628.453072,-12583.501014,-1302.362347
624.119693,296.082377,-12879.583391,-1991.848295
624.120017,-1480.411884,-11843.295072,-1991.848295
624.120341,-3182.885551,-10584.944971,-3140.991542
624.120665,-4737.318029,-9696.697840,-5286.058936
624.120989,-6069.688724,-8512.368333,-4826.401637
624.121313,-7105.977043,-7105.977043,-3907.087040
624.121638,-5773.606348,-7328.038826,-4213.525239
624.121962,-4515.256246,-7624.121203,-4673.182538
624.122286,-3775.050304,-8364.327145,-3907.087040
624.122610,-2442.679609,-8956.491898,-2451.505594
624.122934,-740.205942,-9844.739029,-2221.676944
624.123258,888.247130,-10140.821405,-2145.067394
624.123582,518.144159,-10214.842000,-1608.800546
624.123906,-1110.308913,-10584.944971,-1455.581446
624.124230,-666.185348,-11843.295072,-1608.800546
624.124554,-148.041188,-11843.295072,-2757.943793
624.124878,-444.123565,-11769.274478,-1149.143247
624.125202,-740.205942,-11843.295072,-1378.971896
624.125526,-1184.329507,-10658.965565,-1762.019645
624.125850,-740.205942,-8512.368333,-1762.019645
624.126174,148.041188,-6143.709319,-2528.115143
624.126498,222.061783,-6809.894666,-2757.943793
624.126822,-1406.391290,-8290.306550,-2604.724693
624.127146,-3775.050304,-9548.656652,-2604.724693
624.127470,-5699.585753,-9252.574275,-2757.943793
624.127794,-7254.018232,-9252.574275,-2451.505594
624.128118,-8142.265362,-10066.800811,-2681.334243
624.128442,-7772.162391,-11103.089130,-2911.162892
624.128766,-7105.977043,-10140.821405,-2451.505594
624.129090,-5329.482782,-10955.047942,-2834.553343
624.129414,-4145.153275,-9548.656652,-2834.553343
624.129738,-2072.576638,-9326.594869,-1302.362347
624.130062,296.082377,-10066.800811,-153.219100
624.130386,1998.556043,-9844.739029,-612.876398
624.130710,2146.597232,-8956.491898,0.000000
624.131034,1036.288319,-9844.739029,0.000000
624.131358,1924.535449,-10214.842000,0.000000
624.131682,2368.659014,-9622.677246,0.000000
624.132006,1998.556043,-9622.677246,153.219100
624.132330,0.000000,-9992.780217,76.609550
624.132654,-2516.700203,-11843.295072,-153.219100
624.132978,-4441.235652,-11843.295072,-1149.143247
624.133302,-4959.379811,-9548.656652,-995.924147
624.133626,-4663.297435,-8512.368333,-1915.238745
624.133950,-4367.215058,-7328.038826,-3830.477490
624.134274,-4219.173869,-9918.759623,-1762.019645
624.134598,-2368.659014,-12139.377449,-153.219100
624.134922,888.247130,-10436.903782,-1532.190996
624.135246,1258.350101,-8068.244768,0.000000
624.135570,740.205942,-6661.853478,-842.705048
624.135894,0.000000,-8290.306550,-1915.238745
624.136218,-592.164754,-9918.759623,-1762.019645
624.136542,-1332.370696,-8956.491898,0.000000
624.136866,0.000000,-9400.615463,1302.362347
624.137190,0.000000,-10066.800811,-153.219100
624.137514,-1258.350101,-9252.574275,306.438199
624.137839,-2146.597232,-9326.594869,536.266849
624.138163,-1924.535449,-10732.986159,-536.266849
624.138487,-2220.617826,-10955.047942,-612.876398
624.138811,-2220.617826,-9178.553681,306.438199
624.139135,-888.247130,-7920.203579,-153.219100
624.139459,370.102971,-9474.636058,-229.828649
624.139783,370.102971,-10658.965565,-919.314598
624.140107,888.247130,-10436.903782,-1608.800546
624.140431,1554.432478,-10362.883188,-536.266849
624.140755,2812.782580,-10436.903782,-766.095498
624.141079,2812.782580,-9400.615463,-1072.533697
624.141403,2812.782580,-8586.388927,-306.438199
624.141727,2294.638420,-9474.636058,-459.657299
624.142051,1554.432478,-11399.171507,-306.438199
624.142375,148.041188,-11547.212695,153.219100
624.142699,74.020594,-9474.636058,612.876398
624.143023,518.144159,-8882.471304,1915.238745
624.143347,74.020594,-9252.574275,612.876398
624.143671,-74.020594,-9178.553681,76.609550
624.143995,-1036.288319,-8808.450710,76.609550
624.144319,-1628.453072,-9326.594869,153.219100
624.144643,-1554.432478,-9770.718434,-229.828649
624.144967,-1554.432478,-9252.574275,-689.485948
624.145291,-1258.350101,-8438.347739,-995.924147
624.145615,-592.164754,-9400.615463,-1072.533697
624.145939,0.000000,-9622.677246,-1378.971896
624.146263,-666.185348,-9844.739029,-1302.362347
624.146587,-1628.453072,-9918.759623,-995.924147
624.146911,-1332.370696,-9548.656652,-995.924147
624.147235,-296.082377,-8882.471304,-1302.362347
624.147559,-962.267725,-9030.512492,-612.876398
624.147883,-1480.411884,-9326.594869,-536.266849
624.148207,-1998.556043,-9622.677246,-842.705048
624.148531,-1628.453072,-9252.574275,-766.095498
624.148855,-1184.329507,-8290.306550,-229.828649
624.149179,518.144159,-9326.594869,919.314598
624.149503,2294.638420,-10881.027347,766.095498
624.149827,3256.906145,-11103.089130,383.047749
624.150151,3330.926739,-10214.842000,766.095498
624.150475,3552.988522,-9992.780217,0.000000
624.150799,1998.556043,-11029.068536,-842.705048
624.151123,0.000000,-10510.924376,-1225.752797
624.151447,-1554.432478,-9696.697840,-1991.848295
624.151771,-1924.535449,-9992.780217,-2681.334243
624.152095,-2220.617826,-9548.656652,-3064.381992
624.152419,-2812.782580,-8956.491898,-2298.286494
624.152743,-2960.823768,-8660.409521,-1762.019645
624.153067,-2368.659014,-11103.089130,-1762.019645
624.153391,-1110.308913,-10584.944971,0.000000
624.153715,-148.041188,-9918.759623,0.000000
624.154040,444.123565,-10362.883188,459.657299
624.154364,888.247130,-11769.274478,1225.752797
624.154688,1258.350101,-11843.295072,1378.971896
624.155012,1258.350101,-11103.089130,383.047749
624.155336,0.000000,-10288.862594,0.000000
624.155660,962.267725,-10955.047942,153.219100
624.155984,2590.720797,-12139.377449,0.000000
624.156308,2146.597232,-11695.253884,-536.266849
624.156632,518.144159,-9548.656652,-612.876398
624.156956,-518.144159,-7846.182985,-1302.362347
624.157280,-740.205942,-8142.265362,-1455.581446
624.157604,-888.247130,-7772.162391,-1225.752797
624.157928,-888.247130,-7994.224174,0.000000
624.158252,-1184.329507,-7550.100608,1225.752797
624.158576,-1554.432478,-7624.121203,995.924147
624.158900,-222.061783,-6513.812290,1915.238745
624.159224,592.164754,-7402.059420,2221.676944
624.159548,888.247130,-8808.450710,2145.067394
624.159872,0.000000,-8438.347739,1991.848295
624.160196,-296.082377,-7994.224174,919.314598
624.160520,148.041188,-7031.956449,919.314598
624.160844,962.267725,-8364.327145,919.314598
624.161168,1406.391290,-9474.636058,1149.143247
624.161492,1406.391290,-10066.800811,76.609550
624.161816,814.226536,-9918.759623,-612.876398
624.162140,-370.102971,-10066.800811,459.657299
624.162464,-370.102971,-11251.130318,536.266849
624.162788,-592.164754,-10658.965565,-459.657299
624.163112,-592.164754,-9474.636058,612.876398
624.163436,-1184.329507,-10510.924376,1072.533697
624.163760,-444.123565,-10658.965565,306.438199
624.164084,0.000000,-9622.677246,689.485948
624.164408,-222.061783,-8660.409521,612.876398
624.164732,444.123565,-8734.430116,689.485948
624.165056,740.205942,-9548.656652,306.438199
624.165380,1036.288319,-10510.924376,919.314598
624.165704,2146.597232,-10066.800811,995.924147
624.166028,2442.679609,-10584.944971,229.828649
624.166352,1628.453072,-11177.109724,383.047749
624.166676,370.102971,-11029.068536,-766.095498
624.167000,74.020594,-10436.903782,-995.924147
624.167324,1110.308913,-10362.883188,-766.095498
624.167648,740.205942,-10955.047942,-995.924147
624.167972,-518.144159,-11177.109724,-842.705048
624.168296,-1480.411884,-10510.924376,-995.924147
624.168620,-1924.535449,-9622.677246,-1072.533697
624.168944,-2368.659014,-9770.718434,-1225.752797
624.169268,-2516.700203,-9844.739029,-766.095498
624.169592,-2886.803174,-9474.636058,-612.876398
624.169917,-2368.659014,-9178.553681,-1762.019645
624.170241,-1184.329507,-9474.636058,-383.047749
624.170565,-1554.432478,-9992.780217,0.000000
624.170889,-1406.391290,-10288.862594,-536.266849
624.171213,-1332.370696,-9622.677246,-842.705048
624.171537,-1406.391290,-9104.533087,-1072.533697
624.171861,-1184.329507,-10066.800811,-842.705048
624.172185,0.000000,-10807.006753,-1302.362347
624.172509,962.267725,-9696.697840,-1455.581446
624.172833,2368.659014,-8068.244768,-459.657299
624.173157,3034.844362,-8586.388927,-153.219100
624.173481,2368.659014,-10214.842000,229.828649
624.173805,1184.329507,-10362.883188,0.000000
624.174129,222.061783,-8586.388927,-536.266849
624.174453,-148.041188,-6957.935855,-689.485948
624.174777,0.000000,-6957.935855,-689.485948
624.175101,0.000000,-8364.327145,-229.828649
624.175425,-518.144159,-8438.347739,-995.924147
624.175749,-1184.329507,-7698.141797,-383.047749
624.176073,-1850.514855,-8364.327145,-1072.533697
624.176397,-1850.514855,-9178.553681,-1149.143247
624.176721,-888.247130,-8882.471304,-1072.533697
624.177045,222.061783,-9104.533087,-919.314598
624.177369,518.144159,-9844.739029,-536.266849
624.177693,1110.308913,-10881.027347,-919.314598
624.178017,740.205942,-11843.295072,-153.219100
624.178341,1554.432478,-12139.377449,306.438199
624.178665,2368.659014,-12213.398043,153.219100
624.178989,1924.535449,-11843.295072,459.657299
624.179313,592.164754,-11325.150913,-153.219100
624.179637,222.061783,-11473.192101,0.000000
624.179961,592.164754,-11917.315666,-229.828649
624.180285,1036.288319,-11991.336260,-76.609550
624.180609,1036.288319,-10288.862594,76.609550
624.180933,592.164754,-9474.636058,-229.828649
624.181257,0.000000,-9474.636058,-995.924147
624.181581,-2146.597232,-10066.800811,-1072.533697
624.181905,-3330.926739,-10066.800811,-612.876398
624.182229,-3552.988522,-9992.780217,-306.438199
624.182553,-2590.720797,-9104.533087,-536.266849
624.182877,-592.164754,-9104.533087,-229.828649
624.183201,1332.370696,-9770.718434,842.705048
624.183525,1998.556043,-9844.739029,459.657299
624.183849,1702.473667,-9252.574275,-536.266849
624.184173,666.185348,-8808.450710,919.314598
624.184497,1036.288319,-9696.697840,1302.362347
624.184821,962.267725,-10955.047942,1608.800546
624.185145,-148.041188,-10658.965565,1532.190996
624.185469,-1554.432478,-8734.430116,766.095498
624.185793,-2368.659014,-8734.430116,76.609550
624.186118,-2442.679609,-9844.739029,0.000000
624.186442,-2146.597232,-9918.759623,766.095498
624.186766,-1110.308913,-8660.409521,1072.533697
624.187090,-1850.514855,-7994.224174,1072.533697
624.187414,-2220.617826,-8882.471304,536.266849
624.187738,-1998.556043,-9844.739029,383.047749
624.188062,-1332.370696,-9178.553681,383.047749
624.188386,-222.061783,-8068.244768,306.438199
624.188710,1110.308913,-7846.182985,229.828649
624.189034,2368.659014,-8882.471304,919.314598
624.189358,2886.803174,-9178.553681,1072.533697
624.189682,2590.720797,-8734.430116,1685.410096
624.190006,1776.494261,-7920.203579,536.266849
624.190330,1628.453072,-7179.997637,0.000000
624.190654,1406.391290,-8734.430116,229.828649
624.190978,1628.453072,-9622.677246,-612.876398
624.191302,1554.432478,-8586.388927,0.000000
624.191626,222.061783,-8438.347739,536.266849
624.191950,-1258.350101,-9252.574275,-536.266849
624.192274,-592.164754,-9548.656652,-689.485948
624.192598,-444.123565,-9770.718434,919.314598
624.192922,518.144159,-11103.089130,459.657299
624.193246,518.144159,-11991.336260,76.609550
624.193570,0.000000,-10955.047942,-229.828649
624.193894,-370.102971,-10658.965565,-919.314598
624.194218,-296.082377,-10807.006753,-1378.971896
624.194542,148.041188,-11547.212695,-919.314598
624.194866,-740.205942,-12361.439231,-536.266849
624.195190,-1332.370696,-12139.377449,-842.705048
624.195514,-814.226536,-10955.047942,-1225.752797
624.195838,-592.164754,-10214.842000,-1302.362347
624.196162,0.000000,-10732.986159,0.000000
624.196486,888.247130,-11325.150913,-689.485948
624.196810,962.267725,-10955.047942,383.047749
624.197134,666.185348,-9992.780217,76.609550
624.197458,-518.144159,-9252.574275,612.876398
624.197782,-1184.329507,-9252.574275,0.000000
624.198106,-1554.432478,-9178.553681,-459.657299
624.198430,-1184.329507,-7994.224174,-1072.533697
624.198754,-444.123565,-8142.265362,-919.314598
624.199078,-74.020594,-8438.347739,0.000000
624.199402,1332.370696,-8364.327145,-153.219100
624.199726,1110.308913,-7179.997637,0.000000
624.200050,148.041188,-8068.244768,-995.924147
624.200374,-370.102971,-9400.615463,-1302.362347
624.200698,-1258.350101,-10584.944971,-689.485948
624.201022,-1924.535449,-10807.006753,0.000000
624.201346,-1924.535449,-10214.842000,0.000000
624.201670,-2442.679609,-10288.862594,-612.876398
624.201994,-1924.535449,-10066.800811,-612.876398
624.202319,-962.267725,-10362.883188,-306.438199
624.202643,370.102971,-10362.883188,-229.828649
624.202967,814.226536,-9918.759623,76.609550
624.203291,1036.288319,-9548.656652,-1072.533697
624.203615,1406.391290,-9326.594869,-306.438199
624.203939,1554.432478,-8956.491898,-536.266849
624.204263,1628.453072,-10288.862594,-1378.971896
624.204587,1702.473667,-10288.862594,-1149.143247
624.204911,888.247130,-9474.636058,-766.095498
624.205235,1184.329507,-9548.656652,-306.438199
624.205559,1258.350101,-9622.677246,-612.876398
624.205883,1110.308913,-8586.388927,-1378.971896
624.206207,1110.308913,-7772.162391,-536.266849
624.206531,1554.432478,-8586.388927,76.609550
624.206855,2294.638420,-9992.780217,842.705048
624.207179,370.102971,-8734.430116,-306.438199
624.207503,-1036.288319,-6735.874072,-1302.362347
624.207827,-1850.514855,-7846.182985,-1302.362347
624.208151,-740.205942,-11029.068536,-612.876398
624.208475,814.226536,-11769.274478,-306.438199
624.208799,222.061783,-10214.842000,459.657299
624.209123,-444.123565,-8956.491898,612.876398
624.209447,-296.082377,-10584.944971,-1072.533697
624.209771,-1184.329507,-12435.459826,-842.705048
624.210095,-1628.453072,-12583.501014,459.657299
624.210419,-666.185348,-12065.356855,383.047749
624.210743,-222.061783,-10584.944971,0.000000
624.211067,-888.247130,-10140.821405,689.485948
624.211391,-1554.432478,-10362.883188,612.876398
624.211715,-666.185348,-10732.986159,0.000000
624.212039,222.061783,-11103.089130,1072.533697
624.212363,296.082377,-10807.006753,1532.190996
624.212687,888.247130,-9474.636058,1378.971896
624.213011,814.226536,-8216.285956,1455.581446
624.213335,0.000000,-7254.018232,689.485948
624.213659,-962.267725,-7624.121203,306.438199
624.213984,-1406.391290,-8364.327145,842.705048
624.214308,-1110.308913,-9622.677246,1149.143247
624.214632,-444.123565,-9252.574275,1762.019645
624.214956,-814.226536,-6883.915261,995.924147
624.215280,-1332.370696,-7105.977043,919.314598
624.215604,-1480.411884,-8438.347739,306.438199
624.215928,-592.164754,-10510.924376,766.095498
624.216252,444.123565,-9992.780217,1149.143247
624.216576,1258.350101,-8438.347739,1072.533697
624.216900,1184.329507,-9030.512492,919.314598
624.217225,370.102971,-10066.800811,229.828649
624.217549,-444.123565,-11769.274478,919.314598
624.217873,0.000000,-12583.501014,612.876398
624.218197,1036.288319,-11325.150913,1072.533697
624.218521,1998.556043,-10955.047942,1072.533697
624.218845,2590.720797,-10436.903782,459.657299
624.219169,3034.844362,-9918.759623,1302.362347
624.219493,2960.823768,-10214.842000,612.876398
624.219817,1998.556043,-9992.780217,-536.266849
624.220141,-148.041188,-9918.759623,-153.219100
624.220465,-296.082377,-10066.800811,383.047749
624.220790,148.041188,-10510.924376,0.000000
624.221114,-296.082377,-9548.656652,-306.438199
624.221438,-814.226536,-8068.244768,-383.047749
624.221762,-518.144159,-8808.450710,-766.095498
624.222086,1702.473667,-9474.636058,-1149.143247
624.222410,2590.720797,-8586.388927,383.047749
624.222734,2664.741391,-7994.224174,1225.752797
624.223058,2294.638420,-8068.244768,153.219100
624.223382,592.164754,-8216.285956,0.000000
624.223706,-1036.288319,-8660.409521,-306.438199
624.224031,-1332.370696,-9178.553681,-1072.533697
624.224355,-1850.514855,-9326.594869,-689.485948
624.224679,-1924.535449,-9326.594869,-766.095498
624.225003,-1554.432478,-9030.512492,-153.219100
624.225327,-814.226536,-9548.656652,-689.485948
624.225651,-1184.329507,-9770.718434,-1072.533697
624.225975,-1480.411884,-9474.636058,-842.705048
624.226299,-888.247130,-10066.800811,-536.266849
624.226623,-296.082377,-10658.965565,-306.438199
624.226947,-370.102971,-10584.944971,-536.266849
624.227271,-666.185348,-9252.574275,-459.657299
624.227596,-370.102971,-10436.903782,-459.657299
624.227920,0.000000,-11251.130318,-1532.190996
624.228244,-1332.370696,-10362.883188,-1532.190996
624.228568,-1702.473667,-9326.594869,-1072.533697
624.228892,-740.205942,-9474.636058,-1302.362347
624.229216,-370.102971,-9252.574275,-1378.971896
624.229540,0.000000,-9030.512492,-1072.533697
624.229864,-518.144159,-9770.718434,-536.266849
624.230188,-1036.288319,-10955.047942,-995.924147
624.230512,-1480.411884,-10214.842000,-1072.533697
624.230837,-2294.638420,-9548.656652,-689.485948
624.231161,-2220.617826,-9622.677246,-919.314598
624.231485,-1406.391290,-10732.986159,-1149.143247
624.231809,-518.144159,-10881.027347,-1149.143247
624.232133,-370.102971,-9474.636058,-2068.457845
624.232457,0.000000,-9474.636058,-1762.019645
624.232781,666.185348,-10584.944971,-1838.629195
624.233105,1554.432478,-11843.295072,-1225.752797
624.233429,1850.514855,-11843.295072,-153.219100
624.233753,1110.308913,-11917.315666,-689.485948
624.234077,370.102971,-11547.212695,-1532.190996
624.234402,444.123565,-10362.883188,-459.657299
624.234726,518.144159,-10436.903782,-1378.971896
624.235050,888.247130,-10732.986159,-536.266849
624.235374,1480.411884,-10140.821405,-306.438199
624.235698,1776.494261,-9104.533087,536.266849
624.236022,1850.514855,-9104.533087,766.095498
624.236346,962.267725,-8734.430116,-689.485948
624.236670,0.000000,-8290.306550,612.876398
624.236994,-518.144159,-8364.327145,-306.438199
624.237318,-222.061783,-8734.430116,-459.657299
624.237643,-222.061783,-8068.244768,0.000000
624.237967,592.164754,-7328.038826,-612.876398
624.238291,962.267725,-7476.080014,459.657299
624.238615,1850.514855,-8512.368333,995.924147
624.238939,2220.617826,-8660.409521,1302.362347
624.239263,888.247130,-7846.182985,0.000000
624.239587,518.144159,-8512.368333,-229.828649
624.239911,74.020594,-9178.553681,383.047749
624.240235,222.061783,-10362.883188,919.314598
624.240559,-148.041188,-11177.109724,2451.505594
624.240883,-148.041188,-10214.842000,1608.800546
624.241208,-1184.329507,-9104.533087,306.438199
624.241532,-2146.597232,-8142.265362,459.657299
624.241856,-1332.370696,-9844.739029,689.485948
624.242180,-444.123565,-11399.171507,1149.143247
624.242504,-518.144159,-11103.089130,919.314598
624.242828,-370.102971,-9770.718434,1532.190996
624.243152,0.000000,-9400.615463,1762.019645
624.243476,370.102971,-10584.944971,1225.752797
624.243800,-148.041188,-10362.883188,842.705048
624.244124,-1554.432478,-10140.821405,1685.410096
624.244449,-1702.473667,-10584.944971,536.266849
624.244773,-1480.411884,-9844.739029,0.000000
624.245097,-1110.308913,-8882.471304,1225.752797
624.245421,0.000000,-8068.244768,1149.143247
624.245745,888.247130,-8808.450710,612.876398
624.246069,444.123565,-9178.553681,1302.362347
624.246393,0.000000,-9104.533087,1762.019645
624.246717,370.102971,-8660.409521,1455.581446
624.247041,888.247130,-8586.388927,995.924147
624.247365,814.226536,-9474.636058,1302.362347
624.247689,1036.288319,-10066.800811,1455.581446
624.248014,1628.453072,-9992.780217,1072.533697
624.248338,962.267725,-9696.697840,1149.143247
624.248662,518.144159,-10140.821405,536.266849
624.248986,444.123565,-10362.883188,459.657299
624.249310,-296.082377,-10881.027347,612.876398
624.249634,-740.205942,-10436.903782,0.000000
624.249958,-1628.453072,-9030.512492,-995.924147
624.250282,-1480.411884,-9474.636058,-229.828649
624.250606,-1110.308913,-10658.965565,-229.828649
624.250930,0.000000,-10881.027347,612.876398
624.251255,444.123565,-8956.491898,995.924147
624.251579,1776.494261,-8660.409521,612.876398
624.251903,1628.453072,-10066.800811,0.000000
624.252227,962.267725,-9696.697840,0.000000
624.252551,74.020594,-8660.409521,536.266849
624.252875,148.041188,-8438.347739,0.000000
624.253199,296.082377,-8364.327145,-383.047749
624.253523,222.061783,-7994.224174,-306.438199
624.253847,148.041188,-7846.182985,-766.095498
624.254171,-814.226536,-8882.471304,-1149.143247
