#time,accel_x,accel_y,accel_z
800.885494,-1998.556043,-9104.533087,1685.410096
800.885819,-4145.153275,-7920.203579,153.219100
800.886143,-6439.791695,-8882.471304,-306.438199
800.886467,-7624.121203,-10214.842000,0.000000
800.886792,-7031.956449,-10288.862594,153.219100
800.887116,-6439.791695,-9030.512492,842.705048
800.887440,-5329.482782,-8068.244768,1072.533697
800.887764,-3478.967927,-6217.729913,229.828649
800.888089,-1554.432478,-5255.462188,-459.657299
800.888413,-518.144159,-4071.132681,-689.485948
800.888737,-370.102971,-6587.832884,383.047749
800.889062,370.102971,-10881.027347,842.705048
800.889386,2368.659014,-12953.603985,1225.752797
800.889710,3256.906145,-12657.521608,1608.800546
800.890034,2738.761985,-11325.150913,2068.457845
800.890359,2220.617826,-12509.480420,1532.190996
800.890683,444.123565,-14285.974681,842.705048
800.891007,-444.123565,-13175.665768,919.314598
800.891332,-666.185348,-11177.109724,1455.581446
800.891656,518.144159,-9326.594869,1532.190996
800.891980,814.226536,-9252.574275,1302.362347
800.892304,-444.123565,-8882.471304,1072.533697
800.892629,-2516.700203,-8142.265362,153.219100
800.892953,-4885.359217,-8660.409521,-995.924147
800.893277,-6957.935855,-9474.636058,-1915.238745
800.893601,-7402.059420,-9326.594869,-2451.505594
800.893926,-5773.606348,-10066.800811,-1532.190996
800.894250,-3849.070898,-11473.192101,-153.219100
800.894574,-2368.659014,-12657.521608,383.047749
800.894899,-1776.494261,-12213.398043,1532.190996
800.895223,-518.144159,-11547.212695,2604.724693
800.895547,370.102971,-11621.233289,3370.820191
800.895871,1036.288319,-11695.253884,3600.648841
800.896196,1554.432478,-11621.233289,3907.087040
800.896520,-370.102971,-12287.418637,4519.963438
800.896844,-2368.659014,-12509.480420,4673.182538
800.897169,-3627.009116,-11399.171507,3600.648841
800.897493,-5033.400406,-9178.553681,3447.429741
800.897817,-6735.874072,-8216.285956,2911.162892
800.898141,-7105.977043,-8438.347739,2681.334243
800.898466,-5921.647536,-8364.327145,2757.943793
800.898790,-3997.112087,-7254.018232,3830.477490
800.899114,-2812.782580,-6365.771101,4290.134789
800.899439,-2072.576638,-6439.791695,2834.553343
800.899763,-2368.659014,-7105.977043,3753.867940
800.900087,-2368.659014,-7476.080014,3983.696590
800.900411,-1998.556043,-8216.285956,3907.087040
800.900736,-1850.514855,-8068.244768,3983.696590
800.901060,-1702.473667,-7550.100608,4443.353888
800.901384,-1998.556043,-8216.285956,5209.449386
800.901709,-2368.659014,-8956.491898,4903.011187
800.902033,-2220.617826,-9252.574275,5132.839837
800.902357,-1184.329507,-9252.574275,5592.497135
800.902681,296.082377,-8882.471304,5669.106685
800.903006,1480.411884,-8438.347739,5669.106685
800.903330,1036.288319,-7698.141797,5745.716235
800.903654,296.082377,-7994.224174,5132.839837
800.903979,-1184.329507,-8216.285956,3753.867940
800.904303,-1702.473667,-7402.059420,2528.115143
800.904627,-1554.432478,-5625.565159,1302.362347
800.904951,-3034.844362,-2590.720797,-3294.210641
800.905276,-5551.544565,-6883.915261,-3140.991542
800.905600,-5921.647536,-13323.706956,-766.095498
800.905924,-740.205942,-13397.727550,-2987.772442
800.906249,962.267725,-11473.192101,0.000000
800.906573,0.000000,-10214.842000,3677.258390
800.906897,2590.720797,-10510.924376,1378.971896
800.907221,2442.679609,-12805.562797,1302.362347
800.907546,1480.411884,-12805.562797,2298.286494
800.907870,2516.700203,-12213.398043,2681.334243
800.908194,4071.132681,-14804.118840,2298.286494
800.908519,4219.173869,-12879.583391,2528.115143
800.908843,4441.235652,-7920.203579,229.828649
800.909167,3182.885551,-6735.874072,-4749.792088
800.909491,-1110.308913,-11029.068536,-7277.907231
800.909816,-2664.741391,-14434.015869,-9039.926876
800.910140,-1184.329507,-11177.109724,-10112.460574
800.910464,-1332.370696,-9104.533087,-5822.325785
800.910789,-2368.659014,-10807.006753,-4366.744339
800.911113,-2516.700203,-12065.356855,-4060.306139
800.911437,-2886.803174,-11621.233289,-2834.553343
800.911761,-1554.432478,-10066.800811,-1302.362347
800.912086,1480.411884,-10066.800811,-1532.190996
800.912410,2146.597232,-12953.603985,76.609550
800.912734,3775.050304,-14582.057057,5132.839837
800.913059,4515.256246,-13619.789333,4596.572988
800.913383,3552.988522,-9252.574275,383.047749
800.913707,-1036.288319,-6217.729913,-306.438199
800.914031,592.164754,-7698.141797,-536.266849
800.914355,6957.935855,-8586.388927,-2681.334243
800.914679,7105.977043,-4145.153275,-5439.278036
800.915003,1702.473667,1184.329507,-8963.317327
800.915327,-5255.462188,-9030.512492,-3140.991542
800.915651,-8068.244768,-19615.457463,-6741.640382
800.915976,-8882.471304,-14211.954086,-10418.898773
800.916300,-13101.645173,-6365.771101,-842.705048
800.916624,-8882.471304,-7031.956449,-1378.971896
800.916948,-1480.411884,-11843.295072,-2834.553343
800.917272,296.082377,-9326.594869,76.609550
800.917596,3404.947333,-2960.823768,2298.286494
800.917920,7328.038826,-8660.409521,4979.620737
800.918244,7476.080014,-17320.819043,4826.401637
800.918568,4811.338623,-11325.150913,5515.887586
800.918893,3034.844362,-3330.926739,4903.011187
800.919217,1406.391290,-4589.276840,2911.162892
800.919541,814.226536,-13249.686362,1608.800546
800.919865,2072.576638,-13101.645173,0.000000
800.920189,3849.070898,-3256.906145,-919.314598
800.920513,888.247130,-814.226536,-4673.182538
800.920837,-6439.791695,-10362.883188,-2145.067394
800.921161,-10436.903782,-16284.530724,-2604.724693
800.921485,-9622.677246,-12065.356855,-5745.716235
800.921810,-11991.336260,-7105.977043,-919.314598
800.922134,-9992.780217,-7994.224174,842.705048
800.922458,-1554.432478,-9548.656652,306.438199
800.922782,4737.318029,-9474.636058,3753.867940
800.923106,9400.615463,-8068.244768,6435.202183
800.923430,11843.295072,-10436.903782,7048.078582
800.923754,9178.553681,-14434.015869,6052.154434
800.924078,3478.967927,-12583.501014,6588.421283
800.924402,1036.288319,-9696.697840,5362.668486
800.924727,370.102971,-9844.739029,1838.629195
800.925051,-1480.411884,-13767.830521,0.000000
800.925375,-1702.473667,-15248.242405,-1225.752797
800.925699,1036.288319,-10436.903782,-3524.039291
800.926023,1036.288319,-7402.059420,-1225.752797
800.926347,-1850.514855,-7624.121203,-229.828649
800.926671,-3849.070898,-7476.080014,-1455.581446
800.926995,-5329.482782,-6513.812290,-1838.629195
800.927319,-6365.771101,-4663.297435,-995.924147
800.927644,-4737.318029,-6513.812290,1302.362347
800.927968,74.020594,-9548.656652,2298.286494
800.928292,4441.235652,-10510.924376,4596.572988
800.928616,6217.729913,-10066.800811,5669.106685
800.928940,6513.812290,-10362.883188,4366.744339
800.929264,3923.091493,-11251.130318,3677.258390
800.929588,1776.494261,-12213.398043,2528.115143
800.929912,444.123565,-11621.233289,1455.581446
800.930236,1036.288319,-10288.862594,0.000000
800.930561,2220.617826,-9474.636058,-1455.581446
800.930885,3256.906145,-8438.347739,-1225.752797
800.931209,3627.009116,-9252.574275,-2451.505594
800.931533,1628.453072,-8068.244768,-3140.991542
800.931857,-2738.761985,-7105.977043,-2604.724693
800.932181,-6365.771101,-6735.874072,-2987.772442
800.932505,-7402.059420,-7105.977043,-2528.115143
800.932829,-7179.997637,-7920.203579,-1302.362347
800.933153,-5107.421000,-9400.615463,-536.266849
800.933478,-2072.576638,-9548.656652,0.000000
800.933802,518.144159,-9474.636058,229.828649
800.934126,1332.370696,-9844.739029,1685.410096
800.934450,1332.370696,-10881.027347,1762.019645
800.934774,666.185348,-12213.398043,1915.238745
800.935098,-592.164754,-12509.480420,2145.067394
800.935422,74.020594,-11769.274478,919.314598
800.935746,2812.782580,-9474.636058,-153.219100
800.936070,5107.421000,-5477.523971,-5132.839837
800.936395,4145.153275,-8142.265362,-3217.601092
800.936719,3552.988522,-13397.727550,-1915.238745
800.937043,3775.050304,-13989.892304,-5975.544884
800.937367,-2368.659014,-11103.089130,-3830.477490
800.937691,-7402.059420,-8216.285956,-3370.820191
800.938015,-7254.018232,-9252.574275,-5515.887586
800.938339,-6883.915261,-11251.130318,-5132.839837
800.938663,-4441.235652,-9918.759623,-2145.067394
800.938987,962.267725,-8734.430116,1455.581446
800.939312,4959.379811,-9400.615463,0.000000
800.939636,3627.009116,-9474.636058,3217.601092
800.939960,2590.720797,-9622.677246,3447.429741
800.940284,1628.453072,-11251.130318,1838.629195
800.940608,-666.185348,-13471.748144,1685.410096
800.940932,-962.267725,-12731.542202,2374.896044
800.941256,3552.988522,-9400.615463,1072.533697
800.941580,6217.729913,-4737.318029,-4749.792088
800.941904,4441.235652,-6883.915261,-4826.401637
800.942229,222.061783,-13693.809927,-1991.848295
800.942553,888.247130,-15322.262999,-5132.839837
800.942877,-3701.029710,-10955.047942,-5209.449386
800.943201,-10955.047942,-8068.244768,-919.314598
800.943525,-8586.388927,-7698.141797,-3140.991542
800.943849,-4219.173869,-10436.903782,-3294.210641
800.944173,-1924.535449,-9992.780217,459.657299
800.944497,2442.679609,-7031.956449,3370.820191
800.944821,7031.956449,-7846.182985,3447.429741
800.945146,5403.503377,-10732.986159,5209.449386
800.945470,2738.761985,-9474.636058,6052.154434
800.945794,2220.617826,-9252.574275,3753.867940
800.946118,370.102971,-10362.883188,3140.991542
800.946442,0.000000,-10881.027347,2681.334243
800.946766,3256.906145,-7031.956449,1762.019645
800.947090,6217.729913,-814.226536,-4903.011187
800.947414,2368.659014,-5625.565159,-3370.820191
800.947738,-1924.535449,-13841.851115,-229.828649
800.948063,-148.041188,-14063.912898,-5975.544884
800.948387,-4959.379811,-10214.842000,-3753.867940
800.948711,-10807.006753,-7254.018232,153.219100
800.949035,-7031.956449,-8290.306550,-2451.505594
800.949359,-3552.988522,-11695.253884,-2068.457845
800.949683,0.000000,-9770.718434,1608.800546
800.950007,5181.441594,-7994.224174,5592.497135
800.950331,8512.368333,-10955.047942,4290.134789
800.950655,6217.729913,-11621.233289,6358.592633
800.950980,4219.173869,-9770.718434,6435.202183
800.951304,2294.638420,-9918.759623,4443.353888
800.951628,-518.144159,-12139.377449,2145.067394
800.951952,-1110.308913,-12139.377449,3064.381992
800.952276,2442.679609,-6439.791695,1072.533697
800.952600,5255.462188,-2146.597232,-5745.716235
800.952924,-962.267725,-7624.121203,-3140.991542
800.953248,-3849.070898,-13397.727550,-1762.019645
800.953572,-1924.535449,-12731.542202,-6894.859482
800.953897,-7476.080014,-9104.533087,-2834.553343
800.954221,-12139.377449,-6735.874072,0.000000
800.954545,-8512.368333,-8364.327145,-3217.601092
800.954869,-3849.070898,-10362.883188,-2757.943793
800.955193,0.000000,-8586.388927,1608.800546
800.955517,4515.256246,-8956.491898,3677.258390
800.955841,6735.874072,-13545.768739,4366.744339
800.956165,5255.462188,-13693.809927,6052.154434
800.956489,3849.070898,-11251.130318,5286.058936
800.956814,1702.473667,-10807.006753,3677.258390
800.957138,-962.267725,-11843.295072,689.485948
800.957462,-1184.329507,-11029.068536,2145.067394
800.957786,3256.906145,-7031.956449,612.876398
800.958110,5625.565159,-3108.864956,-2145.067394
800.958434,2294.638420,-2960.823768,-6588.421283
800.958758,-5551.544565,-10066.800811,-3294.210641
800.959082,-6217.729913,-13545.768739,-4903.011187
800.959406,-6365.771101,-9992.780217,-8580.269578
800.959731,-12361.439231,-7994.224174,-459.657299
800.960055,-8068.244768,-8290.306550,-1532.190996
800.960379,-370.102971,-10510.924376,-3983.696590
800.960703,2368.659014,-10584.944971,306.438199
800.961027,6587.832884,-8808.450710,4903.011187
800.961351,11547.212695,-10584.944971,4673.182538
800.961675,9992.780217,-13545.768739,5439.278036
800.961999,5477.523971,-11917.315666,7354.516781
800.962323,3997.112087,-10436.903782,3983.696590
800.962648,1850.514855,-11399.171507,2068.457845
800.962972,296.082377,-12287.418637,1455.581446
800.963296,444.123565,-6735.874072,-2757.943793
800.963620,2146.597232,-3256.906145,-6665.030833
800.963944,-1998.556043,-9696.697840,-3064.381992
800.964268,-3330.926739,-11843.295072,-5515.887586
800.964592,-5107.421000,-9178.553681,-7201.297681
800.964916,-11399.171507,-7402.059420,-3294.210641
800.965240,-11251.130318,-6513.812290,-4060.306139
800.965564,-7402.059420,-9474.636058,-3447.429741
800.965889,-1036.288319,-10436.903782,-383.047749
800.966213,5403.503377,-9474.636058,3677.258390
800.966537,9400.615463,-11325.150913,3830.477490
800.966861,8068.244768,-13397.727550,5286.058936
800.967185,6883.915261,-11843.295072,6894.859482
800.967509,4737.318029,-11917.315666,4749.792088
800.967833,1480.411884,-12583.501014,2911.162892
800.968157,0.000000,-12435.459826,766.095498
800.968481,1036.288319,-9474.636058,1302.362347
800.968806,3182.885551,-4293.194464,-2681.334243
800.969130,1554.432478,-3552.988522,-6665.030833
800.969454,-4663.297435,-8956.491898,-2911.162892
800.969778,-5255.462188,-12361.439231,-6358.592633
800.970102,-6365.771101,-9918.759623,-8197.221829
800.970426,-11695.253884,-7031.956449,-1838.629195
800.970750,-9918.759623,-7254.018232,-2221.676944
800.971074,-3923.091493,-11103.089130,-2681.334243
800.971398,0.000000,-11029.068536,306.438199
800.971723,4367.215058,-8512.368333,2681.334243
800.972047,8808.450710,-9918.759623,4749.792088
800.972371,9030.512492,-12879.583391,5209.449386
800.972695,6883.915261,-12731.542202,7048.078582
800.973019,5403.503377,-11103.089130,4903.011187
800.973343,2442.679609,-11547.212695,2528.115143
800.973667,0.000000,-12287.418637,1608.800546
800.973991,1258.350101,-9844.739029,1608.800546
800.974315,3478.967927,-4145.153275,-1378.971896
800.974640,1776.494261,-2368.659014,-6435.202183
800.974964,-5699.585753,-7846.182985,-3064.381992
800.975288,-7254.018232,-12213.398043,-4903.011187
800.975612,-6883.915261,-10362.883188,-8427.050478
800.975936,-11473.192101,-7254.018232,-2374.896044
800.976260,-10584.944971,-7031.956449,-459.657299
800.976584,-4293.194464,-9548.656652,-2374.896044
800.976908,444.123565,-11029.068536,153.219100
800.977232,4515.256246,-8660.409521,3907.087040
800.977557,9548.656652,-10362.883188,4979.620737
800.977881,9622.677246,-14211.954086,5822.325785
800.978205,7105.977043,-12879.583391,7431.126331
800.978529,4811.338623,-10658.965565,5898.935335
800.978853,1850.514855,-11177.109724,2681.334243
800.979177,-444.123565,-12065.356855,1072.533697
800.979501,-1036.288319,-9400.615463,1608.800546
800.979825,1850.514855,-3775.050304,-4136.915689
800.980149,148.041188,-4367.215058,-4366.744339
800.980474,-4811.338623,-9992.780217,-2451.505594
800.980798,-4589.276840,-11177.109724,-6205.373534
800.981122,-7254.018232,-8586.388927,-5898.935335
800.981446,-11325.150913,-6365.771101,-2221.676944
800.981770,-8512.368333,-7772.162391,-1915.238745
800.982094,-2738.761985,-10584.944971,-2604.724693
800.982418,2664.741391,-10214.842000,1455.581446
800.982742,7624.121203,-9474.636058,5209.449386
800.983066,10658.965565,-12213.398043,4366.744339
800.983391,8438.347739,-12953.603985,6281.983084
800.983715,5921.647536,-11843.295072,6665.030833
800.984039,3627.009116,-11843.295072,4136.915689
800.984363,148.041188,-11917.315666,1685.410096
800.984687,0.000000,-11843.295072,1225.752797
800.985011,888.247130,-6735.874072,-2451.505594
800.985335,1702.473667,-5995.668130,-4673.182538
800.985659,-1924.535449,-9326.594869,-3370.820191
800.985983,-3701.029710,-10288.862594,-5515.887586
800.986308,-5847.626942,-8956.491898,-6281.983084
800.986632,-10140.821405,-7402.059420,-4213.525239
800.986956,-9918.759623,-7328.038826,-3907.087040
800.987280,-7105.977043,-9474.636058,-3140.991542
800.987604,-2294.638420,-10288.862594,306.438199
800.987928,3701.029710,-10214.842000,2987.772442
800.988252,8364.327145,-11325.150913,3217.601092
800.988576,8734.430116,-12213.398043,5056.230287
800.988900,7550.100608,-12805.562797,6052.154434
800.989225,5107.421000,-12583.501014,4903.011187
800.989549,1332.370696,-12361.439231,3217.601092
800.989873,-1036.288319,-11621.233289,1225.752797
800.990197,148.041188,-9474.636058,1302.362347
800.990521,2590.720797,-5921.647536,-1149.143247
800.990845,2146.597232,-2590.720797,-7354.516781
800.991169,-3330.926739,-5995.668130,-4443.353888
800.991493,-5773.606348,-11843.295072,-4366.744339
800.991817,-4663.297435,-10658.965565,-8503.660028
800.992142,-9178.553681,-7698.141797,-3524.039291
800.992466,-10658.965565,-7105.977043,-1762.019645
800.992790,-5847.626942,-9326.594869,-3370.820191
800.993114,-1850.514855,-11473.192101,-1378.971896
800.993438,2368.659014,-10066.800811,3064.381992
800.993762,8512.368333,-10066.800811,4903.011187
800.994086,10584.944971,-12953.603985,5056.230287
800.994410,8068.244768,-12435.459826,6281.983084
800.994734,5847.626942,-11473.192101,6588.421283
800.995059,2220.617826,-11399.171507,3524.039291
800.995383,-666.185348,-12065.356855,1302.362347
800.995707,-296.082377,-10807.006753,1762.019645
800.996031,2590.720797,-5181.441594,-766.095498
800.996355,3034.844362,-1554.432478,-7201.297681
800.996679,-4145.153275,-6587.832884,-3830.477490
800.997003,-6217.729913,-11843.295072,-3983.696590
800.997327,-5699.585753,-11103.089130,-8733.488677
800.997651,-11103.089130,-7920.203579,-3294.210641
800.997976,-12287.418637,-6513.812290,-1072.533697
800.998300,-5773.606348,-9178.553681,-3064.381992
800.998624,-296.082377,-11547.212695,-536.266849
800.998948,3923.091493,-10362.883188,4290.134789
800.999272,9474.636058,-11251.130318,5439.278036
800.999596,10881.027347,-14211.954086,6588.421283
800.999920,7994.224174,-12657.521608,7584.345430
801.000244,5255.462188,-11029.068536,7277.907231
801.000568,2220.617826,-11769.274478,4060.306139
801.000893,296.082377,-12953.603985,1762.019645
801.001217,444.123565,-11177.109724,2451.505594
801.001541,3478.967927,-4737.318029,-2221.676944
801.001865,3256.906145,-1702.473667,-5898.935335
801.002189,-4441.235652,-7698.141797,-3140.991542
801.002513,-6661.853478,-12213.398043,-5669.106685
801.002837,-7254.018232,-10140.821405,-8886.707777
801.003161,-12213.398043,-7624.121203,-3140.991542
801.003485,-10881.027347,-6587.832884,-1762.019645
801.003810,-4071.132681,-9474.636058,-2911.162892
801.004134,1702.473667,-10214.842000,536.266849
801.004458,6513.812290,-9326.594869,5898.935335
801.004782,11177.109724,-11695.253884,5745.716235
801.005106,10214.842000,-14285.974681,6435.202183
801.005430,7031.956449,-12509.480420,7660.954980
801.005754,4811.338623,-11103.089130,5362.668486
801.006078,2664.741391,-11547.212695,2757.943793
801.006402,740.205942,-12287.418637,1302.362347
801.006727,1850.514855,-8882.471304,1302.362347
801.007051,4145.153275,-3034.844362,-6128.763984
801.007375,-148.041188,-4737.318029,-5515.887586
801.007699,-5921.647536,-10066.800811,-3677.258390
801.008023,-5181.441594,-10955.047942,-8350.440928
801.008347,-8660.409521,-8882.471304,-6281.983084
801.008671,-13175.665768,-6513.812290,-2757.943793
801.008995,-10214.842000,-7179.997637,-3370.820191
801.009319,-4737.318029,-9474.636058,-2911.162892
801.009644,0.000000,-9104.533087,536.266849
801.009968,5107.421000,-8438.347739,3294.210641
801.010292,8142.265362,-13175.665768,4060.306139
801.010616,7624.121203,-14952.160028,5975.544884
801.010940,6661.853478,-13323.706956,6741.640382
801.011264,4737.318029,-11473.192101,4749.792088
801.011588,2072.576638,-11547.212695,1685.410096
801.011912,1924.535449,-11843.295072,1608.800546
801.012236,4811.338623,-8660.409521,995.924147
801.012561,6957.935855,-4515.256246,-1532.190996
801.012885,3256.906145,-2072.576638,-7431.126331
801.013209,-5477.523971,-7920.203579,-4673.182538
801.013533,-8956.491898,-13989.892304,-5362.668486
801.013857,-8882.471304,-11177.109724,-10418.898773
801.014181,-13989.892304,-7476.080014,-2604.724693
801.014505,-12879.583391,-7624.121203,-995.924147
801.014829,-4367.215058,-10436.903782,-3907.087040
801.015153,0.000000,-10436.903782,-1608.800546
801.015476,3478.967927,-7031.956449,2834.553343
801.015800,7994.224174,-9400.615463,4673.182538
801.016124,8068.244768,-16358.551318,5362.668486
801.016448,6513.812290,-15248.242405,7354.516781
801.016772,6587.832884,-10732.986159,6128.763984
801.017096,6365.771101,-10288.862594,4366.744339
801.017420,5181.441594,-11917.315666,2221.676944
801.017744,4589.276840,-10658.965565,1685.410096
801.018068,4663.297435,-2960.823768,-5898.935335
801.018392,-666.185348,-5329.482782,-4979.620737
801.018716,-7920.203579,-13027.624579,-2911.162892
801.019040,-6143.709319,-11621.233289,-7737.564530
801.019364,-9696.697840,-8142.265362,-6052.154434
801.019688,-14952.160028,-5255.462188,-1378.971896
801.020012,-10436.903782,-6291.750507,-3064.381992
801.020336,-3997.112087,-9622.677246,-2298.286494
801.020659,1776.494261,-7254.018232,1838.629195
801.020983,6883.915261,-7031.956449,4673.182538
801.021307,8068.244768,-13397.727550,5592.497135
801.021631,7105.977043,-14730.098246,7584.345430
801.021955,5699.585753,-12583.501014,7048.078582
801.022279,3923.091493,-11251.130318,6511.811733
801.022603,2590.720797,-11325.150913,2528.115143
801.022927,3034.844362,-12139.377449,2451.505594
801.023251,5477.523971,-8216.285956,1838.629195
801.023575,5625.565159,-2886.803174,-3907.087040
801.023899,-1184.329507,-4367.215058,-5669.106685
801.024223,-9178.553681,-10807.006753,-3600.648841
801.024547,-9104.533087,-13101.645173,-6971.469032
801.024871,-10140.821405,-7772.162391,-7124.688131
801.025195,-14063.912898,-5403.503377,-306.438199
801.025519,-8956.491898,-7698.141797,-1838.629195
801.025843,-1628.453072,-10510.924376,-2451.505594
801.026166,2664.741391,-8882.471304,1532.190996
801.026490,6661.853478,-6661.853478,4290.134789
801.026814,9622.677246,-11399.171507,5669.106685
801.027138,7402.059420,-14804.118840,5898.935335
801.027462,5625.565159,-12805.562797,7048.078582
801.027786,5403.503377,-11029.068536,5362.668486
801.028110,4663.297435,-11843.295072,2757.943793
801.028434,3627.009116,-12657.521608,2068.457845
801.028758,4145.153275,-6439.791695,-2374.896044
801.029082,3108.864956,-2368.659014,-7737.564530
801.029406,-3701.029710,-10436.903782,-2911.162892
801.029730,-6439.791695,-15026.180623,-5056.230287
801.030054,-6809.894666,-11029.068536,-8350.440928
801.030378,-12583.501014,-7179.997637,-2911.162892
801.030702,-12065.356855,-5921.647536,-2757.943793
801.031026,-6661.853478,-9918.759623,-3600.648841
801.031349,-2072.576638,-10510.924376,-1608.800546
801.031673,2812.782580,-6809.894666,2145.067394
801.031997,7105.977043,-9548.656652,3753.867940
801.032321,6513.812290,-14434.015869,4826.401637
801.032645,5847.626942,-12879.583391,6588.421283
801.032969,5995.668130,-11029.068536,5592.497135
801.033293,4293.194464,-10658.965565,4136.915689
801.033617,3404.947333,-12731.542202,1378.971896
801.033941,4885.359217,-10214.842000,2604.724693
801.034265,6217.729913,-2368.659014,-4290.134789
801.034589,2294.638420,-3775.050304,-5132.839837
801.034913,-4515.256246,-11769.274478,-1991.848295
801.035237,-4145.153275,-13471.748144,-6741.640382
801.035561,-7105.977043,-9696.697840,-6665.030833
801.035885,-13101.645173,-4737.318029,-1302.362347
801.036209,-10140.821405,-6217.729913,-3600.648841
801.036532,-5107.421000,-9622.677246,-4136.915689
801.036856,-740.205942,-8512.368333,-536.266849
801.037180,3775.050304,-7105.977043,2987.772442
801.037504,7698.141797,-10436.903782,3140.991542
801.037828,5995.668130,-13027.624579,5286.058936
801.038152,4515.256246,-11991.336260,6052.154434
801.038476,4367.215058,-11177.109724,4826.401637
801.038800,2590.720797,-12287.418637,2681.334243
801.039124,2368.659014,-13323.706956,1608.800546
801.039448,4293.194464,-8364.327145,306.438199
801.039772,5477.523971,-2590.720797,-6665.030833
801.040096,-370.102971,-7698.141797,-3753.867940
801.040420,-4293.194464,-13989.892304,-2911.162892
801.040744,-3923.091493,-12953.603985,-7737.564530
801.041068,-8660.409521,-8734.430116,-4749.792088
801.041392,-11917.315666,-5477.523971,-2374.896044
801.041715,-7698.141797,-7772.162391,-3830.477490
801.042039,-3182.885551,-10881.027347,-2451.505594
801.042363,1036.288319,-8956.491898,1072.533697
801.042687,4811.338623,-8438.347739,3064.381992
801.043011,6069.688724,-12509.480420,3677.258390
801.043335,3701.029710,-13693.809927,5362.668486
801.043659,3182.885551,-11843.295072,5515.887586
801.043983,2812.782580,-11547.212695,4290.134789
801.044307,1406.391290,-12879.583391,1762.019645
801.044631,2220.617826,-12435.459826,2528.115143
801.044955,5477.523971,-7105.977043,459.657299
801.045279,5477.523971,-2960.823768,-6128.763984
801.045603,-740.205942,-8512.368333,-2298.286494
801.045927,-3923.091493,-14211.954086,-1915.238745
801.046251,-3034.844362,-13175.665768,-6511.811733
801.046575,-9178.553681,-8142.265362,-2604.724693
801.046898,-12287.418637,-6217.729913,-995.924147
801.047222,-7105.977043,-9400.615463,-3447.429741
801.047546,-2516.700203,-11177.109724,-2068.457845
801.047870,1406.391290,-8364.327145,3064.381992
801.048194,5995.668130,-7402.059420,5056.230287
801.048518,7698.141797,-11177.109724,5132.839837
801.048842,4737.318029,-11325.150913,7277.907231
801.049166,3923.091493,-9770.718434,6435.202183
801.049490,2590.720797,-10066.800811,4366.744339
801.049814,1702.473667,-11991.336260,2911.162892
801.050138,2516.700203,-9770.718434,3140.991542
801.050462,4959.379811,-3182.885551,-3524.039291
801.050786,2886.803174,-4885.359217,-3447.429741
801.051110,-2368.659014,-11843.295072,-536.266849
801.051434,-1776.494261,-13027.624579,-4826.401637
801.051758,-4811.338623,-9696.697840,-3447.429741
801.052081,-10881.027347,-5847.626942,-1072.533697
801.052405,-9844.739029,-6439.791695,-2451.505594
801.052729,-5477.523971,-9474.636058,-2834.553343
801.053053,-592.164754,-8586.388927,1072.533697
801.053377,3849.070898,-7476.080014,4366.744339
801.053701,6883.915261,-10881.027347,4136.915689
801.054025,4367.215058,-11917.315666,6205.373534
801.054349,3701.029710,-10955.047942,6435.202183
801.054673,2220.617826,-11029.068536,4136.915689
801.054997,-370.102971,-12139.377449,2451.505594
801.055321,-148.041188,-12213.398043,2451.505594
801.055645,2516.700203,-6957.935855,-383.047749
801.055969,4959.379811,-4663.297435,-4979.620737
801.056293,1184.329507,-9474.636058,-2221.676944
801.056617,74.020594,-13545.768739,-2987.772442
801.056941,-814.226536,-12287.418637,-6665.030833
801.057264,-7105.977043,-8808.450710,-3524.039291
801.057588,-9622.677246,-7105.977043,-2757.943793
801.057912,-7698.141797,-9770.718434,-4749.792088
801.058236,-3627.009116,-11177.109724,-3140.991542
801.058560,666.185348,-9030.512492,1149.143247
801.058884,4811.338623,-9696.697840,2451.505594
801.059208,5551.544565,-11399.171507,2451.505594
801.059532,3182.885551,-11251.130318,4673.182538
801.059856,2590.720797,-11103.089130,3830.477490
801.060180,1998.556043,-11399.171507,1762.019645
801.060504,888.247130,-12953.603985,612.876398
801.060828,1480.411884,-8734.430116,-995.924147
801.061152,4071.132681,-5773.606348,-4136.915689
801.061476,4145.153275,-9030.512492,-2911.162892
801.061800,3627.009116,-12657.521608,-3370.820191
801.062124,1924.535449,-12139.377449,-5822.325785
801.062448,-3552.988522,-9474.636058,-4136.915689
801.062771,-7402.059420,-7031.956449,-4519.963438
801.063095,-8216.285956,-8512.368333,-5286.058936
801.063419,-6365.771101,-9474.636058,-3983.696590
801.063743,-2664.741391,-8438.347739,-153.219100
801.064067,1776.494261,-9030.512492,1532.190996
801.064391,4293.194464,-9622.677246,2145.067394
801.064715,4441.235652,-9622.677246,4290.134789
801.065039,3552.988522,-10140.821405,4366.744339
801.065363,1776.494261,-12139.377449,4136.915689
801.065687,148.041188,-12805.562797,2374.896044
801.066011,444.123565,-11103.089130,2604.724693
801.066335,3034.844362,-7994.224174,1225.752797
801.066659,4663.297435,-4737.318029,-3447.429741
801.066983,2442.679609,-7402.059420,-2757.943793
801.067307,444.123565,-11917.315666,-1915.238745
801.067631,518.144159,-12213.398043,-5132.839837
801.067954,-4219.173869,-9400.615463,-3064.381992
801.068278,-9252.574275,-6587.832884,-919.314598
801.068602,-7772.162391,-7476.080014,-2911.162892
801.068926,-5699.585753,-10288.862594,-2987.772442
801.069250,-3108.864956,-9622.677246,766.095498
801.069574,2664.741391,-8882.471304,3600.648841
801.069898,6365.771101,-9844.739029,3830.477490
801.070222,4811.338623,-10807.006753,6205.373534
801.070546,2294.638420,-10288.862594,6435.202183
801.070870,1702.473667,-11843.295072,3983.696590
801.071194,-1184.329507,-12509.480420,3064.381992
801.071518,-962.267725,-11399.171507,2987.772442
801.071842,2368.659014,-7846.182985,2298.286494
801.072166,4515.256246,-3627.009116,-2528.115143
801.072490,2294.638420,-5995.668130,-3064.381992
801.072814,-2590.720797,-11769.274478,-1149.143247
801.073137,-2072.576638,-13397.727550,-5209.449386
801.073461,-5551.544565,-10288.862594,-4443.353888
801.073785,-11177.109724,-7920.203579,229.828649
801.074109,-7402.059420,-7920.203579,-1532.190996
801.074433,-2886.803174,-10584.944971,-1915.238745
801.074757,0.000000,-10214.842000,2528.115143
801.075081,4737.318029,-8438.347739,4596.572988
801.075405,9252.574275,-9844.739029,4749.792088
801.075729,6809.894666,-11177.109724,6435.202183
801.076053,3923.091493,-10140.821405,6818.249932
801.076377,1998.556043,-10288.862594,4060.306139
801.076701,-518.144159,-11325.150913,2451.505594
801.077025,-1184.329507,-11547.212695,2374.896044
801.077349,1850.514855,-7476.080014,383.047749
801.077673,4441.235652,-2516.700203,-4673.182538
801.077997,666.185348,-7179.997637,-2757.943793
801.078320,-2220.617826,-12213.398043,-2145.067394
801.078644,-1776.494261,-12065.356855,-6052.154434
801.078968,-6587.832884,-9474.636058,-3600.648841
801.079292,-10436.903782,-7105.977043,-1838.629195
801.079616,-7105.977043,-8364.327145,-3524.039291
801.079940,-3108.864956,-10807.006753,-1991.848295
801.080264,1036.288319,-9622.677246,1225.752797
801.080588,4737.318029,-10066.800811,4136.915689
801.080912,6439.791695,-12139.377449,3753.867940
801.081236,5255.462188,-11621.233289,4979.620737
801.081560,4219.173869,-10214.842000,4596.572988
801.081884,2072.576638,-10658.965565,2528.115143
801.082208,0.000000,-12213.398043,842.705048
801.082532,-296.082377,-9400.615463,-76.609550
801.082856,2146.597232,-4737.318029,-4290.134789
801.083180,2368.659014,-6661.853478,-3677.258390
801.083503,1258.350101,-10214.842000,-3524.039291
801.083827,740.205942,-10436.903782,-6281.983084
801.084151,-3182.885551,-9104.533087,-4903.011187
801.084475,-7402.059420,-6809.894666,-3983.696590
801.084799,-8216.285956,-7772.162391,-4826.401637
801.085123,-6513.812290,-9548.656652,-3600.648841
801.085447,-2294.638420,-9326.594869,-1072.533697
801.085771,2146.597232,-9696.697840,1838.629195
801.086095,5107.421000,-11547.212695,2374.896044
801.086419,5033.400406,-12065.356855,4060.306139
801.086743,4663.297435,-11547.212695,3983.696590
801.087067,3108.864956,-11843.295072,2987.772442
801.087391,370.102971,-13471.748144,1378.971896
801.087715,-740.205942,-11621.233289,1225.752797
801.088039,1184.329507,-8660.409521,229.828649
801.088363,3256.906145,-6513.812290,-3677.258390
801.088686,2294.638420,-7179.997637,-4060.306139
801.089010,0.000000,-10807.006753,-3140.991542
801.089334,-888.247130,-11473.192101,-5515.887586
801.089658,-3701.029710,-9622.677246,-4979.620737
801.089982,-8734.430116,-8068.244768,-2068.457845
801.090306,-7476.080014,-8956.491898,-3294.210641
801.090630,-4441.235652,-10066.800811,-3140.991542
801.090954,-1110.308913,-10140.821405,459.657299
801.091278,4071.132681,-9844.739029,3294.210641
801.091602,8290.306550,-10288.862594,3753.867940
801.091926,7105.977043,-10362.883188,5669.106685
801.092250,4589.276840,-10510.924376,5592.497135
801.092574,2442.679609,-11029.068536,3140.991542
801.092898,-1036.288319,-11843.295072,1991.848295
801.093222,-2294.638420,-11029.068536,1685.410096
801.093546,0.000000,-8364.327145,536.266849
801.093869,2368.659014,-5477.523971,-2757.943793
801.094193,370.102971,-7031.956449,-3064.381992
801.094517,-2072.576638,-10436.903782,-2374.896044
801.094841,-2368.659014,-10214.842000,-5745.716235
801.095165,-6217.729913,-8660.409521,-3217.601092
801.095489,-9252.574275,-7994.224174,-919.314598
801.095813,-6809.894666,-8512.368333,-1685.410096
801.096137,-2886.803174,-9844.739029,-459.657299
801.096461,592.164754,-9992.780217,2681.334243
801.096785,4737.318029,-9992.780217,4290.134789
801.097109,7402.059420,-11399.171507,4903.011187
801.097433,6513.812290,-10955.047942,6281.983084
801.097757,4589.276840,-10066.800811,6665.030833
801.098081,1332.370696,-10807.006753,3753.867940
801.098405,-2146.597232,-10955.047942,2068.457845
801.098729,-3034.844362,-9918.759623,1532.190996
801.099052,-148.041188,-7772.162391,536.266849
801.099376,2146.597232,-5107.421000,-1455.581446
801.099700,814.226536,-4219.173869,-3600.648841
801.100024,-3034.844362,-8438.347739,-2068.457845
801.100348,-4515.256246,-11547.212695,-4136.915689
801.100672,-6365.771101,-10510.924376,-5515.887586
801.100996,-9474.636058,-9548.656652,-689.485948
801.101320,-6883.915261,-9474.636058,-689.485948
801.101644,-1480.411884,-10955.047942,-842.705048
801.101968,1924.535449,-11103.089130,2298.286494
801.102292,5995.668130,-10510.924376,4519.963438
801.102616,9844.739029,-11251.130318,4903.011187
801.102940,8660.409521,-12213.398043,5745.716235
801.103264,5477.523971,-11177.109724,6128.763984
801.103588,2368.659014,-9992.780217,3370.820191
801.103912,-814.226536,-10881.027347,995.924147
801.104236,-2294.638420,-9474.636058,383.047749
801.104559,0.000000,-7031.956449,-3370.820191
801.104883,740.205942,-5403.503377,-4596.572988
801.105207,-1110.308913,-8364.327145,-3294.210641
801.105531,-962.267725,-10214.842000,-5132.839837
801.105855,-3034.844362,-9474.636058,-5209.449386
801.106179,-7105.977043,-8808.450710,-3524.039291
801.106503,-7772.162391,-7994.224174,-3524.039291
801.106827,-5551.544565,-9548.656652,-2528.115143
801.107151,-444.123565,-11029.068536,689.485948
801.107475,4959.379811,-11103.089130,3830.477490
801.107799,8586.388927,-12065.356855,4060.306139
801.108123,7846.182985,-12435.459826,4979.620737
801.108447,6069.688724,-11695.253884,5592.497135
801.108771,3849.070898,-11843.295072,3217.601092
801.109095,-222.061783,-11843.295072,1532.190996
801.109419,-3330.926739,-11251.130318,459.657299
801.109742,-2368.659014,-8216.285956,-995.924147
801.110066,-370.102971,-5255.462188,-4673.182538
801.110390,-962.267725,-6217.729913,-4673.182538
801.110714,-2072.576638,-8660.409521,-4443.353888
801.111038,-1628.453072,-9326.594869,-6818.249932
801.111362,-4293.194464,-8142.265362,-4979.620737
801.111686,-6661.853478,-7179.997637,-2834.553343
801.112010,-5995.668130,-8068.244768,-3294.210641
801.112334,-2516.700203,-10066.800811,-1532.190996
801.112658,888.247130,-11029.068536,1532.190996
801.112982,5329.482782,-11325.150913,3140.991542
801.113306,8290.306550,-11547.212695,3600.648841
801.113630,7254.018232,-11547.212695,5439.278036
801.113954,5329.482782,-11325.150913,4903.011187
801.114278,2812.782580,-11695.253884,2451.505594
801.114602,-1480.411884,-11621.233289,1225.752797
801.114926,-3552.988522,-10732.986159,459.657299
801.115250,-1110.308913,-7698.141797,-995.924147
801.115574,888.247130,-4959.379811,-4903.011187
801.115898,-814.226536,-6735.874072,-4290.134789
801.116222,-2368.659014,-9992.780217,-4366.744339
801.116546,-2146.597232,-10732.986159,-6665.030833
801.116870,-5255.462188,-8808.450710,-4443.353888
801.117194,-7698.141797,-8364.327145,-1762.019645
801.117518,-5921.647536,-9326.594869,-2451.505594
801.117842,-2516.700203,-10807.006753,-1685.410096
801.118166,814.226536,-10510.924376,1991.848295
801.118490,5773.606348,-10807.006753,3907.087040
801.118814,8882.471304,-11769.274478,4366.744339
801.119138,7994.224174,-10955.047942,5822.325785
801.119462,6365.771101,-10288.862594,5209.449386
801.119786,2812.782580,-10214.842000,3600.648841
801.120110,-1332.370696,-11325.150913,1532.190996
801.120434,-3108.864956,-10214.842000,1072.533697
801.120758,-962.267725,-6439.791695,-2221.676944
801.121082,518.144159,-4885.359217,-4290.134789
801.121406,-1332.370696,-7698.141797,-2451.505594
801.121730,-1184.329507,-10214.842000,-4443.353888
801.122054,-2516.700203,-9622.677246,-5822.325785
801.122378,-6883.915261,-8438.347739,-3064.381992
801.122702,-8142.265362,-8142.265362,-1991.848295
801.123026,-5995.668130,-10066.800811,-2221.676944
801.123350,-2368.659014,-10807.006753,76.609550
801.123674,2072.576638,-10436.903782,3600.648841
801.123998,6809.894666,-11843.295072,4060.306139
801.124322,8068.244768,-11991.336260,5362.668486
801.124646,6513.812290,-11843.295072,6818.249932
801.124970,4219.173869,-11251.130318,6052.154434
801.125294,888.247130,-11843.295072,3830.477490
801.125618,-2294.638420,-11399.171507,2221.676944
801.125942,-2294.638420,-9326.594869,1762.019645
801.126266,1036.288319,-7179.997637,0.000000
801.126590,1850.514855,-3404.947333,-3907.087040
801.126914,-1110.308913,-4515.256246,-3217.601092
801.127238,-4145.153275,-9474.636058,-2604.724693
801.127562,-4145.153275,-10584.944971,-5822.325785
801.127886,-6809.894666,-8734.430116,-4213.525239
801.128210,-9326.594869,-7402.059420,-842.705048
801.128534,-5477.523971,-9622.677246,-1838.629195
801.128858,-2072.576638,-11103.089130,0.000000
801.129182,1480.411884,-10362.883188,3370.820191
801.129506,6735.874072,-9696.697840,5439.278036
801.129830,9918.759623,-11843.295072,5056.230287
801.130154,7772.162391,-12213.398043,6435.202183
801.130479,4959.379811,-11325.150913,5975.544884
801.130803,2294.638420,-11177.109724,4136.915689
801.131127,-1184.329507,-11399.171507,2068.457845
801.131451,-2146.597232,-10658.965565,1608.800546
801.131775,444.123565,-5847.626942,-1225.752797
801.132099,1702.473667,-2664.741391,-6665.030833
801.132423,-2368.659014,-7254.018232,-4290.134789
801.132747,-3923.091493,-11917.315666,-4136.915689
801.133071,-2664.741391,-11325.150913,-7737.564530
801.133395,-7328.038826,-9030.512492,-3753.867940
801.133719,-9474.636058,-7105.977043,-1838.629195
801.134043,-5255.462188,-9844.739029,-3447.429741
801.134367,-1628.453072,-12213.398043,-1149.143247
801.134691,2738.761985,-10807.006753,3140.991542
801.135015,8660.409521,-10881.027347,4213.525239
801.135339,10584.944971,-12509.480420,4519.963438
801.135663,8068.244768,-11473.192101,6281.983084
801.135987,5847.626942,-11251.130318,5209.449386
801.136311,2146.597232,-11843.295072,3294.210641
801.136635,-962.267725,-11991.336260,919.314598
801.136959,-1628.453072,-10066.800811,536.266849
801.137283,592.164754,-3997.112087,-5822.325785
801.137607,518.144159,-4219.173869,-6511.811733
801.137931,-3404.947333,-9844.739029,-3217.601092
801.138255,-2368.659014,-11843.295072,-7277.907231
801.138579,-5033.400406,-9104.533087,-6971.469032
801.138903,-10436.903782,-6661.853478,-2604.724693
801.139227,-8882.471304,-7179.997637,-3294.210641
801.139551,-5107.421000,-10807.006753,-3370.820191
801.139875,-888.247130,-11251.130318,229.828649
801.140199,4441.235652,-10140.821405,3524.039291
801.140523,9178.553681,-12361.439231,3677.258390
801.140847,9400.615463,-13027.624579,5745.716235
801.141171,8142.265362,-11399.171507,6205.373534
801.141495,5329.482782,-11325.150913,4366.744339
801.141819,1184.329507,-11991.336260,2068.457845
801.142143,-1036.288319,-11769.274478,689.485948
801.142467,-296.082377,-8586.388927,536.266849
801.142791,2812.782580,-4071.132681,-1991.848295
801.143115,1406.391290,-1480.411884,-7354.516781
801.143439,-5107.421000,-7328.038826,-4366.744339
801.143763,-6365.771101,-12435.459826,-5592.497135
801.144087,-5551.544565,-10288.862594,-8733.488677
801.144411,-9992.780217,-6957.935855,-2604.724693
801.144735,-9844.739029,-7402.059420,-536.266849
801.145059,-3997.112087,-10658.965565,-2374.896044
801.145383,-444.123565,-11695.253884,0.000000
801.145707,3478.967927,-8512.368333,3600.648841
801.146031,9178.553681,-10066.800811,4903.011187
801.146355,10807.006753,-14359.995275,4903.011187
801.146679,8364.327145,-12805.562797,6741.640382
801.147003,5403.503377,-10510.924376,5975.544884
801.147327,1924.535449,-10807.006753,3524.039291
801.147651,-740.205942,-12509.480420,995.924147
801.147975,-1406.391290,-10732.986159,1072.533697
801.148299,1036.288319,-3849.070898,-3830.477490
801.148623,370.102971,-1554.432478,-6971.469032
801.148947,-5995.668130,-8438.347739,-3830.477490
801.149271,-7624.121203,-12953.603985,-4749.792088
801.149595,-7031.956449,-10510.924376,-8044.002729
801.149920,-11399.171507,-7328.038826,-2374.896044
801.150244,-10658.965565,-7179.997637,-612.876398
801.150568,-3182.885551,-11029.068536,-1762.019645
801.150892,1554.432478,-11547.212695,1378.971896
801.151216,6217.729913,-8438.347739,5056.230287
801.151540,10214.842000,-10658.965565,5745.716235
801.151864,10658.965565,-14137.933492,6205.373534
801.152188,8216.285956,-13175.665768,7354.516781
801.152512,4663.297435,-10955.047942,6358.592633
801.152836,1036.288319,-10362.883188,3064.381992
801.153160,-1998.556043,-11695.253884,1072.533697
801.153484,-1332.370696,-9178.553681,459.657299
801.153808,888.247130,-3034.844362,-5898.935335
801.154132,-1554.432478,-4145.153275,-4443.353888
801.154456,-5329.482782,-10214.842000,-2834.553343
801.154780,-4663.297435,-10881.027347,-6971.469032
801.155104,-7105.977043,-7698.141797,-5056.230287
801.155428,-10584.944971,-5921.647536,-1685.410096
801.155752,-8216.285956,-8216.285956,-2145.067394
801.156076,-3404.947333,-11991.336260,-1455.581446
801.156400,1702.473667,-11251.130318,2681.334243
801.156724,7476.080014,-9918.759623,5056.230287
801.157048,10140.821405,-12509.480420,5132.839837
801.157372,8734.430116,-12805.562797,6818.249932
801.157696,6661.853478,-12065.356855,6205.373534
801.158020,3256.906145,-11991.336260,4749.792088
801.158344,222.061783,-11991.336260,2528.115143
801.158668,-444.123565,-11399.171507,1532.190996
801.158992,1628.453072,-7031.956449,0.000000
801.159316,2368.659014,-2072.576638,-6894.859482
801.159640,-2812.782580,-5847.626942,-4060.306139
801.159964,-5699.585753,-11399.171507,-3370.820191
801.160288,-3701.029710,-10881.027347,-7354.516781
801.160612,-7698.141797,-7402.059420,-4136.915689
801.160936,-10732.986159,-5921.647536,-383.047749
801.161260,-6291.750507,-9622.677246,-2451.505594
801.161584,-2072.576638,-10955.047942,-1455.581446
801.161908,1850.514855,-9548.656652,2757.943793
801.162232,7179.997637,-9622.677246,4136.915689
801.162556,10140.821405,-12583.501014,4826.401637
801.162880,9474.636058,-12583.501014,6971.469032
801.163204,7476.080014,-11325.150913,6741.640382
801.163528,3997.112087,-11769.274478,4443.353888
801.163852,296.082377,-12139.377449,1225.752797
801.164176,-1036.288319,-11103.089130,689.485948
801.164500,740.205942,-4293.194464,-4979.620737
801.164824,1036.288319,-4219.173869,-5898.935335
801.165148,-3182.885551,-11177.109724,-2451.505594
801.165472,-2368.659014,-13101.645173,-5669.106685
801.165796,-4145.153275,-9474.636058,-7201.297681
801.166120,-10510.924376,-5699.585753,-2604.724693
801.166444,-10288.862594,-7105.977043,-3447.429741
801.166768,-6587.832884,-11399.171507,-4290.134789
801.167092,-2442.679609,-9622.677246,-766.095498
801.167416,1776.494261,-7550.100608,2374.896044
801.167740,5625.565159,-12583.501014,2604.724693
801.168064,6957.935855,-13767.830521,4596.572988
801.168388,7846.182985,-11695.253884,5898.935335
801.168712,6513.812290,-10881.027347,5669.106685
801.169037,2516.700203,-12065.356855,2145.067394
801.169361,444.123565,-13027.624579,842.705048
801.169685,2146.597232,-9844.739029,1302.362347
801.170009,5477.523971,-5921.647536,-1685.410096
801.170333,3627.009116,-3701.029710,-7124.688131
801.170657,-2516.700203,-8216.285956,-3753.867940
801.170981,-5329.482782,-12879.583391,-4673.182538
801.171305,-4293.194464,-11177.109724,-9422.974625
801.171629,-9770.718434,-6957.935855,-4213.525239
801.171953,-11547.212695,-7328.038826,-1838.629195
801.172277,-5699.585753,-10362.883188,-3983.696590
801.172601,-2220.617826,-10436.903782,-1915.238745
801.172925,1628.453072,-7476.080014,1991.848295
801.173249,6957.935855,-9252.574275,3524.039291
801.173573,9030.512492,-13989.892304,4443.353888
801.173897,7476.080014,-13545.768739,6205.373534
801.174221,6069.688724,-11177.109724,6205.373534
801.174545,3701.029710,-11695.253884,3907.087040
801.174869,1924.535449,-12805.562797,1838.629195
801.175193,1776.494261,-10732.986159,1685.410096
801.175517,4071.132681,-4441.235652,-4519.963438
801.175841,1998.556043,-2960.823768,-6205.373534
801.176165,-4589.276840,-10881.027347,-2145.067394
801.176489,-4589.276840,-13249.686362,-5515.887586
801.176813,-5847.626942,-9622.677246,-7354.516781
801.177137,-12139.377449,-6143.709319,-1685.410096
801.177461,-10362.883188,-6587.832884,-1991.848295
801.177785,-4737.318029,-10288.862594,-3294.210641
801.178109,-592.164754,-9548.656652,1225.752797
801.178433,4515.256246,-7179.997637,4136.915689
801.178757,8068.244768,-10658.965565,5209.449386
801.179081,7846.182985,-13323.706956,6052.154434
801.179405,6957.935855,-11621.233289,7584.345430
801.179729,5033.400406,-11695.253884,6894.859482
801.180053,2220.617826,-11769.274478,3830.477490
801.180377,666.185348,-11917.315666,2528.115143
801.180701,1406.391290,-9178.553681,2604.724693
801.181025,4367.215058,-5181.441594,-1149.143247
801.181349,1332.370696,-2368.659014,-6281.983084
801.181673,-6587.832884,-7920.203579,-2221.676944
801.181997,-9104.533087,-13397.727550,-3600.648841
801.182321,-8290.306550,-11251.130318,-7507.735880
801.182645,-12953.603985,-7105.977043,-1302.362347
801.182969,-12361.439231,-7105.977043,1072.533697
801.183293,-4811.338623,-10362.883188,-1302.362347
801.183617,444.123565,-10807.006753,919.314598
801.183941,4663.297435,-7402.059420,3907.087040
801.184265,8586.388927,-9622.677246,6052.154434
801.184589,9548.656652,-14582.057057,6052.154434
801.184913,7179.997637,-13619.789333,7431.126331
801.185237,4663.297435,-11251.130318,7048.078582
801.185561,2516.700203,-10288.862594,3677.258390
801.185885,814.226536,-11695.253884,1532.190996
801.186209,444.123565,-9474.636058,919.314598
801.186533,2516.700203,-1850.514855,-4213.525239
801.186857,592.164754,-2294.638420,-5745.716235
801.187181,-5921.647536,-11399.171507,-2374.896044
801.187505,-5699.585753,-13027.624579,-4903.011187
801.187829,-6439.791695,-8956.491898,-6894.859482
801.188153,-12139.377449,-5551.544565,-1455.581446
801.188478,-10584.944971,-7328.038826,-1991.848295
801.188802,-3478.967927,-11695.253884,-3447.429741
801.189126,1702.473667,-9918.759623,306.438199
801.189450,6365.771101,-7698.141797,4903.011187
801.189774,11029.068536,-11695.253884,5056.230287
801.190098,10288.862594,-13693.809927,4519.963438
801.190422,7920.203579,-11325.150913,6358.592633
801.190746,4811.338623,-10436.903782,4443.353888
801.191070,2664.741391,-12435.459826,2068.457845
801.191394,370.102971,-10807.006753,-2451.505594
801.191718,-222.061783,-7105.977043,-4673.182538
801.192042,296.082377,-8882.471304,-4596.572988
801.192366,1258.350101,-12583.501014,-4979.620737
801.192690,-740.205942,-10955.047942,-5515.887586
801.193014,-5699.585753,-8290.306550,-4136.915689
801.193338,-7402.059420,-5773.606348,-5439.278036
801.193662,-8808.450710,-7105.977043,-5669.106685
801.193986,-8068.244768,-9474.636058,-3294.210641
801.194310,-2368.659014,-8660.409521,-153.219100
801.194634,3256.906145,-8956.491898,229.828649
801.194958,4219.173869,-11621.233289,2451.505594
801.195282,3330.926739,-12213.398043,3983.696590
801.195606,4663.297435,-12139.377449,3677.258390
801.195930,3849.070898,-13397.727550,3217.601092
801.196254,2072.576638,-13175.665768,1991.848295
801.196578,2738.761985,-11029.068536,1455.581446
801.196902,5477.523971,-9030.512492,1302.362347
801.197226,5773.606348,-5921.647536,-5056.230287
801.197550,2886.803174,-7550.100608,-4903.011187
801.197874,-1036.288319,-12805.562797,-3447.429741
801.198198,-1554.432478,-13249.686362,-7201.297681
801.198522,-5995.668130,-9622.677246,-5439.278036
801.198846,-10066.800811,-6587.832884,-1838.629195
801.199170,-6957.935855,-7994.224174,-3370.820191
801.199494,-4737.318029,-11029.068536,-3447.429741
801.199818,-3108.864956,-8734.430116,-766.095498
801.200142,1258.350101,-5995.668130,2298.286494
801.200466,5847.626942,-9622.677246,2528.115143
801.200790,4145.153275,-12213.398043,4903.011187
801.201114,3849.070898,-11843.295072,5362.668486
801.201438,3330.926739,-11399.171507,4596.572988
801.201762,1036.288319,-12731.542202,3524.039291
801.202086,1480.411884,-11695.253884,2374.896044
801.202410,3849.070898,-7179.997637,2145.067394
801.202734,6069.688724,-4145.153275,306.438199
801.203058,3330.926739,-3552.988522,-5975.544884
801.203382,-3552.988522,-8438.347739,-2451.505594
801.203706,-6069.688724,-13767.830521,-2987.772442
801.204030,-6291.750507,-11621.233289,-7048.078582
801.204354,-11843.295072,-8290.306550,-1685.410096
801.204678,-11769.274478,-7402.059420,842.705048
801.205002,-4885.359217,-9918.759623,-1915.238745
801.205326,-1332.370696,-10436.903782,306.438199
801.205650,3034.844362,-7328.038826,3140.991542
801.205974,8364.327145,-7402.059420,4979.620737
801.206298,9326.594869,-12583.501014,5592.497135
801.206622,5847.626942,-12361.439231,7354.516781
801.206946,3108.864956,-10732.986159,6741.640382
801.207270,1258.350101,-10955.047942,3524.039291
801.207595,-222.061783,-11177.109724,1608.800546
801.207919,74.020594,-9622.677246,1532.190996
801.208243,3627.009116,-3552.988522,-1991.848295
801.208567,2590.720797,-3256.906145,-4979.620737
801.208891,-4663.297435,-9844.739029,-1838.629195
801.209215,-7105.977043,-13027.624579,-3983.696590
801.209539,-8216.285956,-10807.006753,-6894.859482
801.209863,-12435.459826,-8216.285956,-1915.238745
801.210187,-10436.903782,-8586.388927,-612.876398
801.210511,-2072.576638,-11843.295072,-995.924147
801.210835,4071.132681,-11251.130318,1762.019645
801.211159,7476.080014,-8734.430116,4826.401637
801.211483,10658.965565,-10362.883188,5592.497135
801.211807,9844.739029,-13027.624579,5669.106685
801.212131,6365.771101,-12139.377449,6511.811733
801.212455,3256.906145,-10807.006753,5056.230287
801.212779,814.226536,-10362.883188,2528.115143
801.213103,-222.061783,-10436.903782,229.828649
801.213427,0.000000,-6883.915261,-3064.381992
801.213751,962.267725,-4367.215058,-5975.544884
801.214075,-1924.535449,-8660.409521,-3140.991542
801.214399,-3034.844362,-11325.150913,-4213.525239
801.214723,-4737.318029,-9548.656652,-5286.058936
801.215047,-9696.697840,-7254.018232,-2451.505594
801.215371,-9548.656652,-7105.977043,-2987.772442
801.215696,-6365.771101,-10066.800811,-2451.505594
801.216020,-1332.370696,-10955.047942,766.095498
801.216344,5107.421000,-9474.636058,3524.039291
801.216668,9474.636058,-10807.006753,4673.182538
801.216992,9474.636058,-12953.603985,4979.620737
801.217316,7476.080014,-12583.501014,5822.325785
801.217641,4367.215058,-12065.356855,4136.915689
801.217965,444.123565,-11991.336260,1838.629195
801.218289,-1776.494261,-11399.171507,0.000000
801.218613,-1480.411884,-7698.141797,-1302.362347
801.218937,740.205942,-3849.070898,-5745.716235
801.219262,-962.267725,-7402.059420,-4213.525239
801.219586,-1924.535449,-10362.883188,-3753.867940
801.219910,-2294.638420,-9770.718434,-6665.030833
801.220234,-6439.791695,-7179.997637,-4596.572988
801.220558,-8808.450710,-5921.647536,-3064.381992
801.220882,-6957.935855,-8586.388927,-3677.258390
801.221207,-2072.576638,-10584.944971,-2068.457845
801.221531,2886.803174,-9474.636058,1302.362347
801.221855,7920.203579,-10214.842000,2757.943793
801.222179,9548.656652,-11399.171507,3447.429741
801.222503,8512.368333,-11547.212695,5132.839837
801.222828,6513.812290,-12213.398043,4290.134789
801.223152,2442.679609,-13249.686362,2298.286494
801.223476,-1406.391290,-13101.645173,-383.047749
801.223800,-2664.741391,-10881.027347,-1149.143247
801.224124,-1332.370696,-6661.853478,-4213.525239
801.224448,-148.041188,-7031.956449,-5209.449386
801.224773,-1554.432478,-9844.739029,-3677.258390
801.225097,-1628.453072,-11325.150913,-5745.716235
801.225421,-4071.132681,-10140.821405,-6435.202183
801.225745,-8068.244768,-7994.224174,-3983.696590
801.226069,-8438.347739,-8364.327145,-3217.601092
801.226394,-6069.688724,-11621.233289,-2451.505594
801.226718,-1924.535449,-11177.109724,-76.609550
801.227042,2738.761985,-9548.656652,2528.115143
801.227366,7698.141797,-11103.089130,3677.258390
801.227690,9178.553681,-12435.459826,5209.449386
801.228014,8364.327145,-11917.315666,6205.373534
801.228339,5403.503377,-11251.130318,5286.058936
801.228663,888.247130,-10955.047942,2374.896044
801.228987,-2146.597232,-10066.800811,459.657299
801.229311,-1998.556043,-6883.915261,-536.266849
801.229635,666.185348,-3997.112087,-3600.648841
801.229959,518.144159,-5255.462188,-3677.258390
801.230284,-1258.350101,-8438.347739,-2451.505594
801.230608,-1480.411884,-9474.636058,-4519.963438
801.230932,-4663.297435,-8216.285956,-4136.915689
801.231256,-8438.347739,-7402.059420,-1532.190996
801.231580,-7328.038826,-8882.471304,-1762.019645
801.231905,-3627.009116,-11399.171507,-153.219100
801.232229,0.000000,-11473.192101,2451.505594
801.232553,4145.153275,-10584.944971,4903.011187
801.232877,8142.265362,-11473.192101,5132.839837
801.233201,7624.121203,-12065.356855,6588.421283
801.233525,5625.565159,-11547.212695,7967.393179
801.233850,1628.453072,-10584.944971,4519.963438
801.234174,-1332.370696,-10288.862594,2911.162892
801.234498,-3923.091493,-9548.656652,1455.581446
801.234822,-2516.700203,-7179.997637,229.828649
801.235146,-222.061783,-4441.235652,-3524.039291
801.235471,-1036.288319,-5773.606348,-2451.505594
801.235795,-2442.679609,-8586.388927,-2528.115143
801.236119,-2220.617826,-8586.388927,-4290.134789
801.236443,-4737.318029,-7994.224174,-2757.943793
801.236767,-7402.059420,-7624.121203,-766.095498
801.237091,-5773.606348,-9104.533087,-919.314598
801.237416,-1850.514855,-10436.903782,-306.438199
801.237740,1776.494261,-10288.862594,2987.772442
801.238064,5847.626942,-11029.068536,5132.839837
801.238388,8882.471304,-12287.418637,4903.011187
801.238712,7698.141797,-12435.459826,6665.030833
801.239037,5255.462188,-11769.274478,6281.983084
801.239361,1406.391290,-11473.192101,3064.381992
801.239685,-2812.782580,-11325.150913,919.314598
801.240009,-4737.318029,-10288.862594,459.657299
801.240333,-2812.782580,-7920.203579,-1455.581446
801.240657,0.000000,-5699.585753,-4826.401637
801.240982,-1184.329507,-7254.018232,-3600.648841
801.241306,-2664.741391,-9622.677246,-4290.134789
801.241630,-1924.535449,-9770.718434,-5975.544884
801.241954,-4737.318029,-9104.533087,-3830.477490
801.242278,-6661.853478,-9178.553681,-2145.067394
801.242602,-4663.297435,-10732.986159,-2451.505594
801.242927,-814.226536,-11991.336260,-1378.971896
801.243251,2664.741391,-11399.171507,1991.848295
801.243575,7624.121203,-11473.192101,4060.306139
801.243899,10066.800811,-11843.295072,3983.696590
801.244223,8586.388927,-11103.089130,5592.497135
801.244548,5995.668130,-10584.944971,4673.182538
801.244872,2442.679609,-10807.006753,2374.896044
801.245196,-1406.391290,-10584.944971,-383.047749
801.245520,-3627.009116,-8438.347739,-2221.676944
801.245844,-2220.617826,-7031.956449,-3983.696590
801.246168,0.000000,-8290.306550,-4826.401637
801.246493,296.082377,-8808.450710,-5592.497135
801.246817,-962.267725,-8216.285956,-4826.401637
801.247141,-2442.679609,-7846.182985,-4979.620737
801.247465,-4737.318029,-7624.121203,-5439.278036
801.247789,-5995.668130,-8290.306550,-3753.867940
801.248114,-4737.318029,-9104.533087,-1762.019645
801.248438,-1258.350101,-10658.965565,459.657299
801.248762,2368.659014,-11991.336260,2298.286494
801.249086,5551.544565,-11769.274478,3524.039291
801.249410,7476.080014,-11695.253884,4213.525239
801.249734,7328.038826,-12287.418637,4443.353888
801.250059,4515.256246,-13175.665768,3217.601092
801.250383,740.205942,-11843.295072,2451.505594
801.250707,-1776.494261,-9770.718434,459.657299
801.251031,-1776.494261,-8734.430116,-612.876398
801.251355,-592.164754,-5699.585753,-5209.449386
801.251680,-740.205942,-5255.462188,-5286.058936
801.252004,-1850.514855,-8660.409521,-4290.134789
801.252328,-1184.329507,-9844.739029,-6971.469032
801.252652,-4071.132681,-8438.347739,-4749.792088
801.252976,-7031.956449,-7254.018232,-2451.505594
801.253300,-5773.606348,-8438.347739,-3064.381992
801.253625,-3849.070898,-10140.821405,-3140.991542
801.253949,-1406.391290,-10658.965565,612.876398
801.254273,2960.823768,-10510.924376,3524.039291
801.254597,6957.935855,-12583.501014,4060.306139
801.254921,7105.977043,-12805.562797,5975.544884
801.255245,6809.894666,-11621.233289,5745.716235
801.255570,4145.153275,-11399.171507,4366.744339
801.255894,74.020594,-11843.295072,2374.896044
801.256218,-2368.659014,-10436.903782,919.314598
801.256542,-1554.432478,-8290.306550,842.705048
801.256866,888.247130,-6587.832884,-919.314598
801.257191,444.123565,-3404.947333,-6205.373534
801.257515,-3701.029710,-5699.585753,-3830.477490
801.257839,-5995.668130,-11621.233289,-4136.915689
801.258163,-5255.462188,-11769.274478,-7048.078582
801.258487,-8586.388927,-9400.615463,-1838.629195
801.258811,-8438.347739,-8290.306550,995.924147
801.259136,-2960.823768,-10510.924376,-536.266849
801.259460,370.102971,-11843.295072,919.314598
801.259784,4293.194464,-9474.636058,4213.525239
801.260108,9030.512492,-9400.615463,5898.935335
801.260432,10436.903782,-13175.665768,6588.421283
801.260757,7920.203579,-12953.603985,7967.393179
801.261081,4737.318029,-10362.883188,6281.983084
801.261405,370.102971,-9548.656652,3907.087040
801.261729,-2886.803174,-9918.759623,1072.533697
801.262053,-3997.112087,-9252.574275,306.438199
801.262377,-592.164754,-4737.318029,-995.924147
801.262702,592.164754,-296.082377,-5975.544884
801.263026,-3552.988522,-4885.359217,-3217.601092
801.263350,-6883.915261,-11251.130318,-2911.162892
801.263674,-5403.503377,-12287.418637,-6665.030833
801.263998,-7994.224174,-9696.697840,-3524.039291
801.264323,-9548.656652,-8290.306550,842.705048
801.264647,-3330.926739,-10510.924376,-153.219100
801.264971,2294.638420,-12065.356855,1225.752797
801.265295,7402.059420,-10362.883188,5286.058936
801.265619,11621.233289,-9918.759623,6741.640382
801.265943,12657.521608,-13323.706956,6818.249932
801.266268,8586.388927,-13545.768739,7124.688131
801.266592,4071.132681,-10807.006753,6128.763984
801.266916,-296.082377,-9400.615463,2911.162892
801.267240,-3478.967927,-9844.739029,612.876398
801.267564,-5329.482782,-7624.121203,-1149.143247
801.267889,-3552.988522,-2072.576638,-8427.050478
801.268213,-3775.050304,-3701.029710,-5439.278036
801.268537,-4663.297435,-10658.965565,-3524.039291
801.268861,-2220.617826,-10881.027347,-7354.516781
801.269185,-5255.462188,-7772.162391,-3830.477490
801.269509,-8068.244768,-5773.606348,-2451.505594
801.269834,-6735.874072,-8882.471304,-2681.334243
801.270158,-2590.720797,-13693.809927,-612.876398
801.270482,4145.153275,-11325.150913,2911.162892
801.270806,11177.109724,-10881.027347,5132.839837
801.271130,12361.439231,-14434.015869,5286.058936
801.271454,9326.594869,-13841.851115,6435.202183
801.271779,6883.915261,-12805.562797,5592.497135
801.272103,2146.597232,-11991.336260,3140.991542
801.272427,-2516.700203,-11695.253884,229.828649
801.272751,-4663.297435,-9326.594869,-1532.190996
801.273075,-2516.700203,-2664.741391,-6281.983084
801.273400,-1554.432478,-4145.153275,-6435.202183
801.273724,-2886.803174,-10436.903782,-4136.915689
801.274048,-740.205942,-11251.130318,-7354.516781
801.274372,-3404.947333,-8808.450710,-6281.983084
801.274696,-7550.100608,-5921.647536,-3217.601092
801.275020,-7328.038826,-7328.038826,-3294.210641
801.275345,-4589.276840,-11621.233289,-2681.334243
801.275669,-1332.370696,-11621.233289,689.485948
801.275993,3478.967927,-10955.047942,2757.943793
801.276317,8364.327145,-13101.645173,3294.210641
801.276641,9770.718434,-12287.418637,5592.497135
801.276966,9696.697840,-11621.233289,6205.373534
801.277290,7031.956449,-12509.480420,4519.963438
801.277614,1628.453072,-12213.398043,1378.971896
801.277938,-1850.514855,-11621.233289,1149.143247
801.278262,-2072.576638,-7105.977043,-1225.752797
801.278586,-222.061783,-3330.926739,-7124.688131
801.278911,-2590.720797,-6291.750507,-4290.134789
801.279235,-3108.864956,-10510.924376,-4213.525239
801.279559,-2368.659014,-10510.924376,-7507.735880
801.279883,-5921.647536,-7031.956449,-4443.353888
801.280207,-7846.182985,-5995.668130,-2528.115143
801.280532,-7179.997637,-8290.306550,-3294.210641
801.280856,-4293.194464,-11103.089130,-1225.752797
801.281180,-296.082377,-9992.780217,1991.848295
801.281504,4811.338623,-9992.780217,3677.258390
801.281828,7550.100608,-13027.624579,4749.792088
801.282152,7550.100608,-12583.501014,7660.954980
801.282477,7624.121203,-11473.192101,6818.249932
801.282801,4145.153275,-11991.336260,5209.449386
801.283125,-888.247130,-11843.295072,1762.019645
801.283449,-3330.926739,-10732.986159,1149.143247
801.283773,-740.205942,-8142.265362,612.876398
801.284097,2368.659014,-5329.482782,-842.705048
801.284422,1184.329507,-1480.411884,-6205.373534
801.284746,-3775.050304,-5773.606348,-4290.134789
801.285070,-6143.709319,-12805.562797,-4213.525239
801.285394,-5181.441594,-11621.233289,-8120.612279
801.285718,-9030.512492,-8068.244768,-2987.772442
801.286043,-9992.780217,-8512.368333,459.657299
801.286367,-3923.091493,-11917.315666,-1685.410096
801.286691,0.000000,-13323.706956,153.219100
801.287015,4367.215058,-9030.512492,4749.792088
801.287339,11029.068536,-8438.347739,6205.373534
801.287663,12731.542202,-13915.871710,6665.030833
801.287988,9030.512492,-13619.789333,7584.345430
801.288312,5921.647536,-10881.027347,6665.030833
801.288636,2146.597232,-10436.903782,4443.353888
801.288960,-1480.411884,-11177.109724,1532.190996
801.289284,-2294.638420,-9104.533087,76.609550
801.289609,-592.164754,-666.185348,-5898.935335
801.289933,-1554.432478,-2146.597232,-6435.202183
801.290257,-5625.565159,-11251.130318,-2681.334243
801.290581,-3478.967927,-11991.336260,-6281.983084
801.290905,-6291.750507,-8808.450710,-5209.449386
801.291229,-11547.212695,-6069.688724,-1378.971896
801.291554,-9178.553681,-7476.080014,-2528.115143
801.291878,-4959.379811,-11769.274478,-1608.800546
801.292202,1036.288319,-11399.171507,3370.820191
801.292526,7328.038826,-9400.615463,5898.935335
801.292850,11547.212695,-13323.706956,5898.935335
801.293175,10510.924376,-14211.954086,7967.393179
801.293499,8808.450710,-12509.480420,7660.954980
801.293823,3923.091493,-11843.295072,6128.763984
801.294147,-444.123565,-10955.047942,1838.629195
801.294471,-2664.741391,-10510.924376,0.000000
801.294795,-1998.556043,-6957.935855,0.000000
801.295120,2516.700203,-3552.988522,-1532.190996
801.295444,666.185348,-888.247130,-6894.859482
801.295768,-5255.462188,-5921.647536,-4903.011187
801.296092,-8734.430116,-12213.398043,-4749.792088
801.296416,-7105.977043,-10807.006753,-8963.317327
801.296740,-10881.027347,-7624.121203,-3677.258390
801.297065,-11399.171507,-8512.368333,0.000000
801.297389,-4071.132681,-11695.253884,-1532.190996
801.297713,222.061783,-12805.562797,383.047749
801.298037,5033.400406,-9548.656652,3753.867940
801.298361,12435.459826,-9030.512492,5822.325785
801.298686,14656.077652,-14582.057057,6052.154434
801.299010,10436.903782,-15396.283594,6741.640382
801.299334,6365.771101,-11621.233289,5745.716235
801.299658,2294.638420,-10288.862594,2604.724693
801.299982,-666.185348,-11769.274478,-229.828649
801.300306,-2368.659014,-6217.729913,-7507.735880
801.300631,-2664.741391,-3108.864956,-8733.488677
801.300955,-3849.070898,-9178.553681,-3830.477490
801.301279,-1628.453072,-13545.768739,-7354.516781
801.301603,-3108.864956,-9622.677246,-6741.640382
801.301927,-8882.471304,-5329.482782,-2374.896044
801.302252,-9104.533087,-5181.441594,-5286.058936
801.302576,-7328.038826,-9918.759623,-4519.963438
801.302900,-4589.276840,-10066.800811,-1149.143247
801.303224,1406.391290,-8956.491898,2757.943793
801.303548,7105.977043,-14359.995275,4136.915689
801.303872,8660.409521,-16136.489536,6205.373534
801.304197,11325.150913,-12139.377449,6435.202183
801.304521,9474.636058,-10881.027347,6128.763984
801.304845,4219.173869,-13101.645173,2604.724693
801.305169,-444.123565,-12879.583391,459.657299
801.305493,-148.041188,-9696.697840,536.266849
801.305818,2960.823768,-5329.482782,-1149.143247
801.306142,2294.638420,-2220.617826,-7967.393179
801.306466,-3997.112087,-5995.668130,-4290.134789
801.306790,-6291.750507,-12139.377449,-3600.648841
801.307114,-5033.400406,-11251.130318,-10495.508323
801.307438,-10436.903782,-6439.791695,-3677.258390
801.307763,-12435.459826,-6069.688724,-766.095498
801.308087,-6809.894666,-9992.780217,-3600.648841
801.308411,-3108.864956,-11695.253884,-1072.533697
801.308735,1110.308913,-8068.244768,2145.067394
801.309059,7772.162391,-8734.430116,4903.011187
801.309383,10955.047942,-14508.036463,6052.154434
801.309708,9696.697840,-14285.974681,7737.564530
801.310032,8142.265362,-11399.171507,7584.345430
801.310356,3552.988522,-11251.130318,4903.011187
801.310680,-370.102971,-12213.398043,1072.533697
801.311004,-1628.453072,-11399.171507,995.924147
801.311329,1332.370696,-5625.565159,-536.266849
801.311653,2146.597232,-296.082377,-4673.182538
801.311977,-3997.112087,-4293.194464,-4903.011187
801.312301,-9400.615463,-11843.295072,-2604.724693
801.312625,-7624.121203,-13101.645173,-7660.954980
801.312949,-10214.842000,-8142.265362,-6894.859482
801.313274,-14656.077652,-6291.750507,612.876398
801.313598,-7698.141797,-9770.718434,-995.924147
801.313922,0.000000,-12657.521608,-153.219100
801.314246,4441.235652,-9474.636058,4290.134789
801.314570,10214.842000,-7328.038826,6052.154434
801.314895,13693.809927,-12731.542202,7507.735880
801.315219,11695.253884,-15692.365970,7431.126331
801.315543,7920.203579,-12065.356855,8273.831378
801.315867,3552.988522,-9622.677246,5515.887586
801.316191,0.000000,-10807.006753,1455.581446
801.316516,-1998.556043,-11769.274478,1072.533697
801.316840,-370.102971,-5403.503377,-2834.553343
801.317164,888.247130,0.000000,-7737.564530
801.317488,-5625.565159,-7476.080014,-3064.381992
801.317812,-7550.100608,-13915.871710,-3677.258390
801.318137,-7105.977043,-10807.006753,-7737.564530
801.318461,-11843.295072,-6291.750507,-2757.943793
801.318785,-12361.439231,-6069.688724,-766.095498
801.319109,-7105.977043,-11251.130318,-2451.505594
801.319433,-296.082377,-12879.583391,842.705048
801.319758,7031.956449,-8660.409521,5286.058936
801.320082,13397.727550,-10510.924376,6818.249932
801.320406,13693.809927,-14804.118840,7354.516781
801.320730,10658.965565,-13471.748144,8273.831378
801.321054,6513.812290,-10807.006753,6358.592633
801.321379,1258.350101,-10066.800811,3217.601092
801.321703,-1998.556043,-10955.047942,0.000000
801.322027,-2664.741391,-5995.668130,-2451.505594
801.322351,-592.164754,-1184.329507,-7584.345430
801.322676,-2812.782580,-6957.935855,-3830.477490
801.323000,-4219.173869,-11325.150913,-4673.182538
801.323324,-4589.276840,-9474.636058,-7431.126331
801.323648,-9474.636058,-6587.832884,-2911.162892
801.323972,-9918.759623,-4885.359217,-3140.991542
801.324297,-7994.224174,-8438.347739,-3907.087040
801.324621,-4367.215058,-11547.212695,0.000000
801.324945,2368.659014,-10362.883188,2987.772442
801.325269,9326.594869,-12287.418637,4213.525239
801.325593,11177.109724,-14063.912898,5745.716235
801.325918,11251.130318,-12583.501014,7354.516781
801.326242,9030.512492,-12213.398043,5975.544884
801.326566,3330.926739,-12213.398043,3294.210641
801.326890,-962.267725,-11991.336260,0.000000
801.327214,-2516.700203,-10510.924376,0.000000
801.327539,-296.082377,-4071.132681,-6128.763984
801.327863,-296.082377,-4515.256246,-6894.859482
801.328187,-3552.988522,-9992.780217,-2987.772442
801.328511,-2294.638420,-12361.439231,-7354.516781
801.328835,-4589.276840,-9696.697840,-7660.954980
801.329160,-9770.718434,-5699.585753,-2681.334243
801.329484,-8882.471304,-7105.977043,-3524.039291
801.329808,-5329.482782,-11547.212695,-3677.258390
801.330132,-592.164754,-10881.027347,229.828649
801.330456,5181.441594,-9252.574275,3677.258390
801.330781,10658.965565,-11251.130318,3907.087040
801.331105,10955.047942,-12361.439231,6052.154434
801.331429,9104.533087,-11547.212695,6281.983084
801.331753,6513.812290,-11769.274478,4443.353888
801.332077,370.102971,-12065.356855,1302.362347
801.332402,-3034.844362,-12139.377449,76.609550
801.332726,-2738.761985,-7624.121203,-2681.334243
801.333050,-592.164754,-3849.070898,-6894.859482
801.333374,-2664.741391,-7402.059420,-3830.477490
801.333699,-2886.803174,-10807.006753,-3983.696590
801.334023,-3034.844362,-10066.800811,-7354.516781
801.334347,-7402.059420,-7550.100608,-3830.477490
801.334671,-9252.574275,-6365.771101,-2681.334243
801.334995,-7328.038826,-9474.636058,-3370.820191
801.335320,-3108.864956,-11695.253884,-919.314598
801.335644,2072.576638,-9992.780217,2604.724693
801.335968,7105.977043,-10436.903782,3753.867940
801.336292,9400.615463,-12657.521608,5439.278036
801.336616,9030.512492,-12065.356855,7890.783629
801.336941,7476.080014,-11769.274478,6358.592633
801.337265,2812.782580,-11917.315666,4213.525239
801.337589,-2368.659014,-11621.233289,1608.800546
801.337913,-4219.173869,-9252.574275,612.876398
801.338237,-1850.514855,-6661.853478,-459.657299
801.338562,0.000000,-3404.947333,-4366.744339
801.338886,-1406.391290,-4293.194464,-3753.867940
801.339210,-4071.132681,-8586.388927,-2374.896044
801.339534,-3478.967927,-10732.986159,-5669.106685
801.339858,-6291.750507,-8808.450710,-4596.572988
801.340183,-9770.718434,-7846.182985,-383.047749
801.340507,-5255.462188,-10214.842000,-306.438199
801.340831,-296.082377,-12583.501014,-383.047749
801.341155,3108.864956,-11029.068536,3600.648841
801.341479,8068.244768,-9622.677246,6741.640382
801.341804,11695.253884,-12213.398043,6052.154434
801.342128,9474.636058,-12805.562797,7048.078582
801.342452,5477.523971,-10436.903782,6741.640382
801.342776,1258.350101,-9696.697840,3907.087040
801.343101,-2960.823768,-9770.718434,1149.143247
801.343425,-4441.235652,-8956.491898,76.609550
801.343749,-3108.864956,-4589.276840,-3830.477490
801.344073,-1480.411884,-4959.379811,-4366.744339
801.344397,-2442.679609,-9104.533087,-3064.381992
801.344722,-1480.411884,-9844.739029,-4443.353888
801.345046,-2960.823768,-9030.512492,-3370.820191
801.345370,-6143.709319,-8364.327145,-2221.676944
801.345694,-6735.874072,-9030.512492,-1838.629195
801.346018,-4219.173869,-10881.027347,-1225.752797
801.346343,1110.308913,-11251.130318,1762.019645
801.346667,5995.668130,-11695.253884,4903.011187
801.346991,9104.533087,-12657.521608,5132.839837
801.347315,8438.347739,-12139.377449,6205.373534
801.347639,6439.791695,-11695.253884,6358.592633
801.347964,2960.823768,-11399.171507,4290.134789
801.348288,-1776.494261,-11473.192101,1455.581446
801.348612,-4959.379811,-9918.759623,76.609550
801.348936,-4737.318029,-6809.894666,-1608.800546
801.349260,-2664.741391,-4219.173869,-5592.497135
801.349585,-2886.803174,-5921.647536,-4366.744339
801.349909,-2368.659014,-8956.491898,-3294.210641
801.350233,-518.144159,-9844.739029,-5209.449386
801.350557,-2886.803174,-8216.285956,-3370.820191
801.350881,-5329.482782,-7698.141797,-1762.019645
801.351206,-3923.091493,-9622.677246,-2145.067394
801.351530,-1258.350101,-12287.418637,-842.705048
801.351854,1998.556043,-11991.336260,2451.505594
801.352178,6143.709319,-11843.295072,4290.134789
801.352503,8956.491898,-12361.439231,4213.525239
801.352827,8216.285956,-12065.356855,6281.983084
801.353151,6217.729913,-11399.171507,6358.592633
801.353475,2146.597232,-11029.068536,2451.505594
801.353799,-3552.988522,-10807.006753,153.219100
801.354124,-5403.503377,-8734.430116,-995.924147
801.354448,-3627.009116,-5403.503377,-4673.182538
801.354772,-2960.823768,-5329.482782,-5056.230287
801.355096,-2220.617826,-8364.327145,-4366.744339
801.355420,-370.102971,-9474.636058,-5286.058936
801.355745,-1258.350101,-9104.533087,-4979.620737
801.356069,-3552.988522,-7772.162391,-3447.429741
801.356393,-4589.276840,-8660.409521,-2528.115143
801.356717,-3182.885551,-10510.924376,-2145.067394
801.357041,0.000000,-11177.109724,0.000000
801.357366,3478.967927,-11177.109724,2757.943793
801.357690,7254.018232,-11991.336260,3600.648841
801.358014,8586.388927,-11769.274478,4903.011187
801.358338,7846.182985,-11843.295072,5745.716235
801.358662,5033.400406,-11621.233289,4366.744339
801.358987,1110.308913,-11843.295072,1991.848295
801.359311,-3256.906145,-10436.903782,0.000000
801.359635,-4885.359217,-7476.080014,-2757.943793
801.359959,-3923.091493,-6291.750507,-4749.792088
801.360283,-2738.761985,-7624.121203,-3907.087040
801.360608,-1332.370696,-9326.594869,-4060.306139
801.360932,296.082377,-9326.594869,-4903.011187
801.361256,-2072.576638,-7920.203579,-3677.258390
801.361580,-4071.132681,-7846.182985,-2834.553343
801.361905,-4737.318029,-9622.677246,-2528.115143
801.362229,-3627.009116,-11029.068536,-1302.362347
801.362553,-1258.350101,-11177.109724,1455.581446
801.362877,3256.906145,-11769.274478,2681.334243
801.363201,6291.750507,-11547.212695,3983.696590
801.363526,7254.018232,-11325.150913,5745.716235
801.363850,6957.935855,-11695.253884,5745.716235
801.364174,4441.235652,-12065.356855,3983.696590
801.364498,296.082377,-11621.233289,2604.724693
801.364822,-2664.741391,-9178.553681,1149.143247
801.365147,-2812.782580,-7105.977043,0.000000
801.365471,-1776.494261,-4737.318029,-4136.915689
801.365795,-2812.782580,-5551.544565,-4443.353888
801.366119,-2220.617826,-9474.636058,-3217.601092
801.366443,-148.041188,-10066.800811,-5592.497135
801.366768,-2368.659014,-8808.450710,-3600.648841
801.367092,-5477.523971,-7772.162391,-1378.971896
801.367416,-4737.318029,-8956.491898,-2451.505594
801.367740,-3997.112087,-11029.068536,-1608.800546
801.368064,-2072.576638,-11399.171507,1838.629195
801.368389,2516.700203,-10807.006753,3753.867940
801.368713,6143.709319,-11991.336260,4213.525239
801.369037,6735.874072,-12509.480420,6052.154434
801.369361,6069.688724,-11843.295072,6358.592633
801.369685,4145.153275,-11843.295072,4903.011187
801.370010,-592.164754,-11103.089130,2451.505594
801.370334,-4071.132681,-9400.615463,1532.190996
801.370658,-3627.009116,-7994.224174,536.266849
801.370982,-814.226536,-5255.462188,-1685.410096
801.371306,-444.123565,-2738.761985,-5439.278036
801.371631,-3034.844362,-6587.832884,-3217.601092
801.371955,-3330.926739,-11547.212695,-3447.429741
801.372279,-2516.700203,-10584.944971,-5898.935335
801.372603,-5329.482782,-9104.533087,-1378.971896
801.372928,-5699.585753,-8364.327145,0.000000
801.373252,-1702.473667,-10658.965565,-1455.581446
801.373576,888.247130,-11991.336260,919.314598
801.373900,4515.256246,-10436.903782,4366.744339
801.374224,8882.471304,-10584.944971,5515.887586
801.374549,9696.697840,-12879.583391,5975.544884
801.374873,7179.997637,-11843.295072,6894.859482
801.375197,4811.338623,-10362.883188,5362.668486
801.375521,444.123565,-9622.677246,2681.334243
801.375845,-4219.173869,-10066.800811,383.047749
801.376170,-5699.585753,-8512.368333,-1072.533697
801.376494,-2886.803174,-3478.967927,-6052.154434
801.376818,-2590.720797,-5033.400406,-4903.011187
801.377142,-2886.803174,-10214.842000,-2911.162892
801.377466,-1480.411884,-10658.965565,-5515.887586
801.377791,-3775.050304,-8734.430116,-3753.867940
801.378115,-6735.874072,-7105.977043,-2374.896044
801.378439,-6069.688724,-8808.450710,-2528.115143
801.378763,-3034.844362,-11769.274478,-1378.971896
801.379087,1628.453072,-11399.171507,2528.115143
801.379412,7031.956449,-11251.130318,4749.792088
801.379736,9326.594869,-12287.418637,4903.011187
801.380060,8290.306550,-11843.295072,6588.421283
801.380384,6957.935855,-11177.109724,5898.935335
801.380708,3552.988522,-11251.130318,3753.867940
801.381033,-1406.391290,-10807.006753,995.924147
801.381357,-4885.359217,-9178.553681,-153.219100
801.381681,-4515.256246,-5403.503377,-3064.381992
801.382005,-2146.597232,-5107.421000,-6052.154434
801.382330,-2664.741391,-7476.080014,-4136.915689
801.382654,-888.247130,-9844.739029,-4826.401637
801.382978,-1110.308913,-9400.615463,-6511.811733
801.383302,-4515.256246,-7550.100608,-3064.381992
801.383626,-5625.565159,-7920.203579,-2834.553343
801.383951,-4737.318029,-10362.883188,-2757.943793
801.384275,-2368.659014,-11621.233289,-153.219100
801.384599,1776.494261,-11547.212695,2834.553343
801.384923,7031.956449,-12361.439231,2604.724693
801.385247,8734.430116,-12731.542202,5209.449386
801.385572,8438.347739,-12657.521608,6511.811733
801.385896,7105.977043,-12805.562797,4749.792088
801.386220,2664.741391,-11917.315666,2451.505594
801.386544,-2146.597232,-10955.047942,612.876398
801.386868,-3552.988522,-8512.368333,-1608.800546
801.387193,-2072.576638,-5921.647536,-4903.011187
801.387517,-2072.576638,-7328.038826,-4136.915689
801.387841,-1406.391290,-9252.574275,-4060.306139
801.388165,-518.144159,-9474.636058,-6281.983084
801.388489,-3182.885551,-8068.244768,-4290.134789
801.388814,-5107.421000,-7105.977043,-3294.210641
801.389138,-5033.400406,-8660.409521,-3447.429741
801.389462,-3701.029710,-9622.677246,-1685.410096
801.389786,-1406.391290,-9992.780217,1685.410096
801.390110,2738.761985,-10510.924376,2681.334243
801.390435,5625.565159,-11695.253884,3600.648841
801.390759,6513.812290,-11843.295072,6205.373534
801.391083,7254.018232,-11917.315666,6128.763984
801.391407,5403.503377,-12065.356855,4749.792088
801.391732,222.061783,-11177.109724,2987.772442
801.392056,-3627.009116,-9104.533087,1302.362347
801.392380,-3330.926739,-7402.059420,306.438199
801.392704,-1554.432478,-5033.400406,-3983.696590
801.393028,-1702.473667,-4071.132681,-5209.449386
801.393353,-3034.844362,-8142.265362,-3217.601092
801.393677,-1776.494261,-10658.965565,-5286.058936
801.394001,-2442.679609,-9400.615463,-5439.278036
801.394325,-6735.874072,-7476.080014,-1149.143247
801.394649,-6291.750507,-8364.327145,-1532.190996
801.394974,-4145.153275,-11399.171507,-2451.505594
801.395298,-1480.411884,-11695.253884,919.314598
801.395622,3404.947333,-10066.800811,4290.134789
801.395946,8660.409521,-11843.295072,4903.011187
801.396270,8438.347739,-13693.809927,6741.640382
801.396595,7254.018232,-12435.459826,7048.078582
801.396919,4663.297435,-11325.150913,4749.792088
801.397243,-370.102971,-11251.130318,2681.334243
801.397567,-3701.029710,-10362.883188,229.828649
801.397891,-3775.050304,-7772.162391,229.828649
801.398216,-592.164754,-3997.112087,-2911.162892
801.398540,296.082377,-2960.823768,-6281.983084
801.398864,-3108.864956,-8290.306550,-2604.724693
801.399188,-2516.700203,-12065.356855,-4903.011187
801.399512,-2738.761985,-10732.986159,-6205.373534
801.399837,-7476.080014,-7920.203579,-1225.752797
801.400161,-7624.121203,-8142.265362,-1302.362347
801.400485,-3478.967927,-11399.171507,-1991.848295
801.400809,74.020594,-12731.542202,1302.362347
801.401134,5625.565159,-10658.965565,5132.839837
801.401458,10362.883188,-11103.089130,5822.325785
801.401782,10066.800811,-13175.665768,6435.202183
801.402106,8142.265362,-12287.418637,8044.002729
801.402430,4663.297435,-11103.089130,5592.497135
801.402755,0.000000,-10807.006753,2834.553343
801.403079,-4071.132681,-10288.862594,919.314598
801.403403,-3997.112087,-7550.100608,-459.657299
801.403727,-1110.308913,-1184.329507,-6281.983084
801.404051,-1628.453072,-2442.679609,-5209.449386
801.404376,-4441.235652,-10140.821405,-2374.896044
801.404700,-2146.597232,-11843.295072,-6052.154434
801.405024,-4737.318029,-8586.388927,-5592.497135
801.405348,-9918.759623,-5847.626942,-1378.971896
801.405672,-7698.141797,-7550.100608,-2911.162892
801.405997,-3478.967927,-11843.295072,-2374.896044
801.406321,1110.308913,-11177.109724,2298.286494
801.406645,6217.729913,-10066.800811,5515.887586
801.406969,10214.842000,-13101.645173,5669.106685
801.407293,9474.636058,-13397.727550,6971.469032
801.407618,8512.368333,-12213.398043,7124.688131
801.407942,5181.441594,-11843.295072,5286.058936
801.408266,222.061783,-11547.212695,1302.362347
801.408590,-3034.844362,-10732.986159,229.828649
801.408914,-1850.514855,-7476.080014,-459.657299
801.409239,1110.308913,-2072.576638,-5975.544884
801.409563,-740.205942,-2738.761985,-7201.297681
801.409887,-5773.606348,-9844.739029,-3753.867940
801.410211,-4145.153275,-13249.686362,-7507.735880
801.410535,-5625.565159,-9770.718434,-8656.879127
801.410860,-11843.295072,-7402.059420,-2221.676944
801.411184,-9548.656652,-9104.533087,-3064.381992
801.411508,-3330.926739,-13101.645173,-3524.039291
801.411832,222.061783,-11695.253884,383.047749
801.412157,5107.421000,-9326.594869,3907.087040
801.412481,10584.944971,-13397.727550,4826.401637
801.412805,11399.171507,-15544.324782,5975.544884
801.413129,10140.821405,-13767.830521,7277.907231
801.413453,6809.894666,-11695.253884,4903.011187
801.413778,2664.741391,-11473.192101,2221.676944
801.414102,-444.123565,-11991.336260,459.657299
801.414426,-444.123565,-6809.894666,-842.705048
801.414750,1480.411884,74.020594,-8810.098227
801.415074,-2294.638420,-5255.462188,-5669.106685
801.415399,-5551.544565,-12953.603985,-3217.601092
801.415723,-2886.803174,-11769.274478,-9116.536426
801.416047,-6809.894666,-6809.894666,-5898.935335
801.416371,-12287.418637,-4737.318029,-1685.410096
801.416695,-8142.265362,-9474.636058,-4136.915689
801.417020,-2886.803174,-11473.192101,-2757.943793
801.417344,1406.391290,-7994.224174,2681.334243
801.417668,6661.853478,-8734.430116,5209.449386
801.417992,9770.718434,-14211.954086,5209.449386
801.418317,9918.759623,-14063.912898,7431.126331
801.418641,9252.574275,-11399.171507,7890.783629
801.418965,5329.482782,-11399.171507,6128.763984
801.419289,888.247130,-11991.336260,1838.629195
801.419613,-2146.597232,-10362.883188,1072.533697
801.419938,0.000000,-5773.606348,153.219100
801.420262,2516.700203,-1776.494261,-3983.696590
801.420586,-1406.391290,-2368.659014,-6971.469032
801.420910,-8882.471304,-9400.615463,-2604.724693
801.421234,-7698.141797,-12805.562797,-5439.278036
801.421559,-8216.285956,-8660.409521,-8656.879127
801.421883,-13841.851115,-7105.977043,0.000000
801.422207,-9770.718434,-9252.574275,-919.314598
801.422531,-1776.494261,-12805.562797,-1455.581446
801.422855,2886.803174,-11325.150913,2221.676944
801.423180,7402.059420,-7476.080014,5592.497135
801.423504,11029.068536,-11695.253884,7354.516781
801.423828,10658.965565,-16580.613101,6665.030833
801.424152,8438.347739,-14878.139434,7814.174080
801.424477,4811.338623,-11621.233289,6511.811733
801.424801,666.185348,-10658.965565,2374.896044
801.425125,-2516.700203,-11029.068536,306.438199
801.425449,-1850.514855,-7105.977043,-1225.752797
801.425773,518.144159,444.123565,-6741.640382
801.426098,-3552.988522,-4589.276840,-5286.058936
801.426422,-8438.347739,-13101.645173,-2604.724693
801.426746,-5995.668130,-12879.583391,-7124.688131
801.427070,-8586.388927,-7920.203579,-6435.202183
801.427394,-13175.665768,-6069.688724,-1072.533697
801.427719,-8142.265362,-10436.903782,-2374.896044
801.428043,-962.267725,-13915.871710,-1225.752797
801.428367,5403.503377,-10584.944971,3983.696590
801.428691,11103.089130,-8808.450710,6818.249932
801.429016,14434.015869,-13101.645173,6358.592633
801.429340,12287.418637,-14434.015869,7354.516781
801.429664,8586.388927,-12879.583391,7507.735880
801.429988,3478.967927,-11769.274478,5515.887586
801.430312,-1110.308913,-11399.171507,1225.752797
801.430637,-3627.009116,-9474.636058,842.705048
801.430961,-2812.782580,-2072.576638,-5515.887586
801.431285,-1776.494261,-1998.556043,-6741.640382
801.431609,-5033.400406,-10362.883188,-2145.067394
801.431933,-3478.967927,-11991.336260,-6128.763984
801.432258,-5403.503377,-7254.018232,-6128.763984
801.432582,-11103.089130,-3923.091493,-2068.457845
801.432906,-10140.821405,-5847.626942,-3140.991542
801.433230,-6069.688724,-10807.006753,-3064.381992
801.433554,-370.102971,-10140.821405,1225.752797
801.433879,6217.729913,-9030.512492,4979.620737
801.434203,11251.130318,-12287.418637,5132.839837
801.434527,11547.212695,-13249.686362,6971.469032
801.434851,10658.965565,-12435.459826,8273.831378
801.435176,7698.141797,-12583.501014,5822.325785
801.435500,1480.411884,-13101.645173,2987.772442
801.435824,-3034.844362,-11843.295072,-536.266849
801.436148,-2516.700203,-6143.709319,-1915.238745
801.436472,0.000000,-1036.288319,-8273.831378
801.436797,-3552.988522,-7031.956449,-4903.011187
801.437121,-4737.318029,-11843.295072,-4596.572988
801.437445,-3108.864956,-10658.965565,-9116.536426
801.437769,-6809.894666,-6365.771101,-5132.839837
801.438093,-9474.636058,-4811.338623,-3524.039291
801.438418,-6957.935855,-9474.636058,-4290.134789
801.438742,-2886.803174,-12139.377449,-2451.505594
801.439066,1036.288319,-9844.739029,1762.019645
801.439390,5625.565159,-11325.150913,3677.258390
801.439715,8586.388927,-14804.118840,4749.792088
801.440039,9252.574275,-13841.851115,6588.421283
801.440363,9474.636058,-12731.542202,6435.202183
801.440687,5329.482782,-12953.603985,4979.620737
801.441011,740.205942,-13545.768739,306.438199
801.441336,-1628.453072,-10436.903782,995.924147
801.441660,666.185348,-5625.565159,-1608.800546
801.441984,2146.597232,-740.205942,-9039.926876
801.442308,-2738.761985,-4959.379811,-5669.106685
801.442632,-5403.503377,-12361.439231,-4136.915689
801.442957,-2368.659014,-12435.459826,-9269.755526
801.443281,-6883.915261,-7624.121203,-6281.983084
801.443605,-11843.295072,-6143.709319,-919.314598
801.443929,-8142.265362,-10510.924376,-3294.210641
801.444253,-2886.803174,-13471.748144,-2528.115143
801.444578,1702.473667,-9548.656652,2145.067394
801.444902,7772.162391,-8438.347739,4596.572988
801.445226,11621.233289,-13767.830521,5132.839837
801.445550,10214.842000,-15174.221811,7967.393179
801.445875,8364.327145,-12213.398043,7354.516781
801.446199,3627.009116,-11251.130318,5669.106685
801.446523,-1850.514855,-11473.192101,536.266849
801.446847,-4441.235652,-9696.697840,153.219100
801.447171,-1480.411884,-5033.400406,-1302.362347
801.447496,1110.308913,-296.082377,-5898.935335
801.447820,-2590.720797,-3330.926739,-5592.497135
801.448144,-7328.038826,-10584.944971,-2068.457845
801.448468,-5847.626942,-12731.542202,-6511.811733
801.448792,-8142.265362,-9178.553681,-6818.249932
801.449117,-12509.480420,-7476.080014,766.095498
801.449441,-6143.709319,-9918.759623,-1225.752797
801.449765,1036.288319,-12657.521608,-842.705048
801.450089,5477.523971,-10066.800811,4290.134789
801.450414,9918.759623,-7994.224174,6818.249932
801.450738,13915.871710,-12287.418637,6971.469032
801.451062,11621.233289,-14730.098246,8044.002729
801.451386,6957.935855,-12287.418637,8273.831378
801.451710,1850.514855,-9770.718434,4979.620737
801.452035,-2516.700203,-9844.739029,612.876398
801.452359,-4885.359217,-9992.780217,-383.047749
801.452683,-2960.823768,-6143.709319,-2528.115143
801.453007,-370.102971,-666.185348,-7354.516781
801.453331,-4515.256246,-6069.688724,-3677.258390
801.453656,-7402.059420,-11473.192101,-2987.772442
801.453980,-5847.626942,-10288.862594,-6818.249932
801.454304,-9326.594869,-7846.182985,-3447.429741
801.454628,-11103.089130,-8142.265362,-459.657299
801.454952,-5107.421000,-11547.212695,-689.485948
801.455277,2960.823768,-12805.562797,1532.190996
801.455601,8882.471304,-10288.862594,5898.935335
801.455925,12953.603985,-11473.192101,7890.783629
801.456249,12879.583391,-14878.139434,7277.907231
801.456574,8808.450710,-14137.933492,7660.954980
801.456898,4145.153275,-11325.150913,5822.325785
801.457222,-1036.288319,-9548.656652,2911.162892
801.457546,-4663.297435,-9992.780217,-842.705048
801.457870,-6069.688724,-6513.812290,-2834.553343
801.458195,-3775.050304,-2442.679609,-7354.516781
801.458519,-4145.153275,-5921.647536,-5132.839837
801.458843,-3701.029710,-9918.759623,-4903.011187
801.459167,-3034.844362,-9030.512492,-6741.640382
801.459491,-5921.647536,-6661.853478,-3064.381992
801.459816,-6735.874072,-6217.729913,-2604.724693
801.460140,-5033.400406,-10362.883188,-2451.505594
801.460464,-1110.308913,-12657.521608,0.000000
801.460788,5773.606348,-11473.192101,3677.258390
801.461113,11399.171507,-12065.356855,5439.278036
801.461437,11917.315666,-13397.727550,6435.202183
801.461761,9548.656652,-12509.480420,7124.688131
801.462085,7031.956449,-11917.315666,5515.887586
801.462409,2368.659014,-12361.439231,2451.505594
801.462734,-3552.988522,-11769.274478,-229.828649
801.463058,-5995.668130,-7994.224174,-1302.362347
801.463382,-3923.091493,-3775.050304,-6128.763984
801.463706,-3627.009116,-5107.421000,-6128.763984
801.464030,-4515.256246,-8438.347739,-4903.011187
801.464355,-3404.947333,-9548.656652,-6818.249932
801.464679,-4071.132681,-8290.306550,-5515.887586
801.465003,-5699.585753,-6809.894666,-3447.429741
801.465327,-5847.626942,-8290.306550,-2834.553343
801.465651,-2738.761985,-11547.212695,-2145.067394
801.465976,1702.473667,-12435.459826,1455.581446
801.466300,6069.688724,-11843.295072,3524.039291
801.466624,9622.677246,-13175.665768,4136.915689
801.466948,9326.594869,-13619.789333,6435.202183
801.467273,7994.224174,-13249.686362,5975.544884
801.467597,4885.359217,-12583.501014,4290.134789
801.467921,-444.123565,-11991.336260,1302.362347
801.468245,-5107.421000,-10362.883188,-689.485948
801.468569,-5181.441594,-7994.224174,-1685.410096
801.468894,-2960.823768,-3330.926739,-5592.497135
801.469218,-3034.844362,-3404.947333,-5745.716235
801.469542,-4589.276840,-7772.162391,-4060.306139
801.469866,-2516.700203,-10214.842000,-6971.469032
801.470190,-3108.864956,-8512.368333,-6128.763984
801.470515,-6587.832884,-7476.080014,-2145.067394
801.470839,-4885.359217,-9622.677246,-1762.019645
801.471163,-1258.350101,-12509.480420,-1685.410096
801.471487,2442.679609,-11843.295072,1762.019645
801.471812,6809.894666,-11103.089130,5515.887586
801.472136,10658.965565,-12509.480420,4903.011187
801.472460,9844.739029,-12583.501014,6588.421283
801.472784,7402.059420,-11251.130318,6894.859482
801.473108,3404.947333,-10066.800811,4136.915689
801.473433,-1850.514855,-10658.965565,919.314598
801.473757,-6069.688724,-9770.718434,-459.657299
801.474081,-5995.668130,-5847.626942,-2911.162892
801.474405,-2812.782580,-4071.132681,-4903.011187
801.474729,-3182.885551,-5847.626942,-4596.572988
801.475054,-2886.803174,-8216.285956,-4749.792088
801.475378,-2368.659014,-8290.306550,-5898.935335
801.475702,-4219.173869,-8068.244768,-3907.087040
801.476026,-5847.626942,-8586.388927,-1991.848295
801.476350,-4145.153275,-10658.965565,-842.705048
801.476675,0.000000,-12139.377449,995.924147
801.476999,4515.256246,-11769.274478,3830.477490
801.477323,7698.141797,-12065.356855,5439.278036
801.477647,9252.574275,-13323.706956,5898.935335
801.477972,7994.224174,-13249.686362,6818.249932
801.478296,5625.565159,-12287.418637,6358.592633
801.478620,1480.411884,-11399.171507,3677.258390
801.478944,-3330.926739,-10066.800811,842.705048
801.479268,-5773.606348,-8512.368333,-383.047749
801.479593,-4293.194464,-7179.997637,-995.924147
801.479917,-1998.556043,-3330.926739,-4749.792088
801.480241,-3034.844362,-2738.761985,-6052.154434
801.480565,-5329.482782,-8216.285956,-3753.867940
801.480889,-3849.070898,-10955.047942,-5669.106685
801.481214,-3849.070898,-10214.842000,-4673.182538
801.481538,-5699.585753,-9400.615463,76.609550
801.481862,-2664.741391,-11177.109724,-153.219100
801.482186,666.185348,-12509.480420,306.438199
801.482511,3997.112087,-11991.336260,3753.867940
801.482835,8290.306550,-11399.171507,6435.202183
801.483159,10955.047942,-12361.439231,6052.154434
801.483483,8660.409521,-13027.624579,6894.859482
801.483807,4737.318029,-11547.212695,6128.763984
801.484132,888.247130,-9548.656652,3447.429741
801.484456,-3849.070898,-9178.553681,1225.752797
801.484780,-6957.935855,-9030.512492,0.000000
801.485104,-6365.771101,-4737.318029,-3753.867940
801.485428,-3849.070898,-1998.556043,-6665.030833
801.485753,-5181.441594,-5847.626942,-4060.306139
801.486077,-4293.194464,-9252.574275,-4213.525239
801.486401,-2368.659014,-8586.388927,-5209.449386
801.486725,-4441.235652,-7476.080014,-1532.190996
801.487049,-4515.256246,-8438.347739,-1225.752797
801.487374,-1998.556043,-10066.800811,-1532.190996
801.487698,2146.597232,-11251.130318,842.705048
801.488022,6735.874072,-11473.192101,4903.011187
801.488346,10807.006753,-12287.418637,5286.058936
801.488671,10510.924376,-13545.768739,5975.544884
801.488995,8142.265362,-11843.295072,7201.297681
801.489319,5477.523971,-11029.068536,4749.792088
801.489643,518.144159,-10955.047942,2221.676944
801.489967,-4811.338623,-10510.924376,-459.657299
801.490292,-7402.059420,-6883.915261,-3600.648841
801.490616,-5625.565159,-4737.318029,-5822.325785
801.490940,-4515.256246,-7105.977043,-5286.058936
801.491264,-2590.720797,-8586.388927,-5056.230287
801.491588,-1776.494261,-8586.388927,-6588.421283
801.491913,-3256.906145,-7698.141797,-4903.011187
801.492237,-3627.009116,-7550.100608,-4060.306139
801.492561,-3404.947333,-10362.883188,-3064.381992
801.492885,-962.267725,-12361.439231,-766.095498
801.493210,3478.967927,-12731.542202,2451.505594
801.493534,7698.141797,-12731.542202,3677.258390
801.493858,9400.615463,-13101.645173,4673.182538
801.494182,8438.347739,-12509.480420,5898.935335
801.494506,6957.935855,-12435.459826,4366.744339
801.494831,2960.823768,-12213.398043,2068.457845
801.495155,-2220.617826,-10807.006753,0.000000
801.495479,-5551.544565,-7402.059420,-3140.991542
801.495803,-6291.750507,-5995.668130,-4903.011187
801.496127,-5847.626942,-7105.977043,-5439.278036
801.496452,-3330.926739,-7476.080014,-6052.154434
801.496776,-1702.473667,-7476.080014,-6358.592633
801.497100,-1480.411884,-7994.224174,-5209.449386
801.497424,-2072.576638,-7105.977043,-3600.648841
801.497748,-2368.659014,-8734.430116,-2757.943793
801.498073,-2442.679609,-10658.965565,-459.657299
801.498397,-740.205942,-12361.439231,1149.143247
801.498721,2442.679609,-12879.583391,2604.724693
801.499045,5329.482782,-11843.295072,3983.696590
801.499370,7105.977043,-11843.295072,5745.716235
801.499694,7105.977043,-12731.542202,5745.716235
801.500018,4663.297435,-12805.562797,4060.306139
801.500342,888.247130,-11769.274478,2451.505594
801.500666,-3330.926739,-9326.594869,919.314598
801.500991,-4737.318029,-7476.080014,-612.876398
801.501315,-4737.318029,-4737.318029,-4136.915689
801.501639,-4737.318029,-4885.359217,-4290.134789
801.501963,-3108.864956,-7698.141797,-3983.696590
801.502287,-370.102971,-8586.388927,-4826.401637
801.502612,-592.164754,-8290.306550,-2834.553343
801.502936,-1702.473667,-7328.038826,-1378.971896
801.503260,-888.247130,-8734.430116,-1072.533697
801.503584,-518.144159,-10881.027347,-766.095498
801.503909,740.205942,-11029.068536,1762.019645
801.504233,3997.112087,-11695.253884,4519.963438
801.504557,7031.956449,-12509.480420,5592.497135
801.504881,7476.080014,-11843.295072,6665.030833
801.505205,5921.647536,-10807.006753,7201.297681
801.505530,3108.864956,-10807.006753,4826.401637
801.505854,-1184.329507,-11547.212695,2451.505594
801.506178,-5625.565159,-10214.842000,766.095498
801.506502,-6883.915261,-6809.894666,-766.095498
801.506826,-5699.585753,-4885.359217,-3677.258390
801.507151,-4885.359217,-5921.647536,-3753.867940
801.507475,-3330.926739,-7920.203579,-3217.601092
801.507799,-444.123565,-8808.450710,-3677.258390
801.508123,-1554.432478,-8512.368333,-3140.991542
801.508448,-2664.741391,-8808.450710,-1378.971896
801.508772,-2442.679609,-9844.739029,-1149.143247
801.509096,-1184.329507,-11251.130318,0.000000
801.509420,740.205942,-11991.336260,2528.115143
801.509744,3997.112087,-12509.480420,4366.744339
801.510069,7031.956449,-12583.501014,5132.839837
801.510393,7105.977043,-11473.192101,7048.078582
801.510717,5255.462188,-10955.047942,6511.811733
801.511041,3182.885551,-11325.150913,4213.525239
801.511365,-1184.329507,-10955.047942,2145.067394
801.511690,-5107.421000,-9400.615463,536.266849
801.512014,-6439.791695,-6587.832884,-1455.581446
801.512338,-4737.318029,-3701.029710,-5362.668486
801.512662,-3997.112087,-4959.379811,-4826.401637
801.512986,-2368.659014,-9104.533087,-4290.134789
801.513311,1406.391290,-9918.759623,-5592.497135
801.513635,666.185348,-8734.430116,-3830.477490
801.513959,-2146.597232,-8364.327145,-1762.019645
801.514283,-2294.638420,-10140.821405,-1762.019645
801.514608,-592.164754,-12657.521608,-1149.143247
801.514932,1924.535449,-12065.356855,1991.848295
801.515256,5699.585753,-12287.418637,4060.306139
801.515580,8068.244768,-11991.336260,4596.572988
801.515904,8364.327145,-11917.315666,5515.887586
801.516229,6439.791695,-11103.089130,5822.325785
801.516553,3701.029710,-10807.006753,3600.648841
801.516877,-740.205942,-10288.862594,995.924147
801.517201,-5403.503377,-8364.327145,-995.924147
801.517525,-5773.606348,-4811.338623,-4596.572988
801.517849,-4293.194464,-4885.359217,-5286.058936
801.518174,-1998.556043,-8216.285956,-5132.839837
801.518498,296.082377,-8660.409521,-5515.887586
801.518822,222.061783,-8142.265362,-4826.401637
801.519146,-1776.494261,-7698.141797,-4290.134789
801.519470,-3923.091493,-8808.450710,-2681.334243
801.519794,-3775.050304,-10066.800811,-2451.505594
801.520119,-2368.659014,-10658.965565,-995.924147
801.520443,-148.041188,-11843.295072,1838.629195
801.520767,2960.823768,-12879.583391,2681.334243
801.521091,5995.668130,-12509.480420,4519.963438
801.521415,7179.997637,-12731.542202,5439.278036
801.521739,6513.812290,-12583.501014,4519.963438
801.522064,2960.823768,-12213.398043,2451.505594
801.522388,-2146.597232,-10066.800811,459.657299
801.522712,-4367.215058,-8586.388927,153.219100
801.523036,-4293.194464,-6957.935855,-2451.505594
801.523360,-2516.700203,-4293.194464,-6588.421283
801.523684,-2960.823768,-5995.668130,-5056.230287
801.524009,-1110.308913,-9992.780217,-4903.011187
801.524333,1258.350101,-9844.739029,-6818.249932
801.524657,-1924.535449,-8734.430116,-3524.039291
801.524981,-4515.256246,-8142.265362,-2451.505594
801.525305,-3849.070898,-10066.800811,-3064.381992
801.525629,-3108.864956,-12065.356855,-2374.896044
801.525954,-666.185348,-11177.109724,1991.848295
801.526278,4737.318029,-11473.192101,4060.306139
801.526602,8882.471304,-12731.542202,4366.744339
801.526926,8660.409521,-11991.336260,6971.469032
801.527250,7624.121203,-11917.315666,6358.592633
801.527574,4515.256246,-11917.315666,3983.696590
801.527899,-1184.329507,-11325.150913,1685.410096
801.528223,-4663.297435,-9474.636058,842.705048
801.528547,-3478.967927,-5995.668130,-995.924147
801.528871,-1258.350101,-3478.967927,-6052.154434
801.529195,-2664.741391,-5921.647536,-4060.306139
801.529519,-2368.659014,-9844.739029,-2911.162892
801.529844,-296.082377,-10214.842000,-5439.278036
801.530168,-4145.153275,-7846.182985,-2987.772442
801.530492,-7254.018232,-6957.935855,-842.705048
801.530816,-5107.421000,-8956.491898,-1991.848295
801.531140,-2146.597232,-11473.192101,76.609550
801.531464,1332.370696,-11103.089130,3294.210641
801.531789,6217.729913,-9918.759623,5515.887586
801.532113,8512.368333,-11621.233289,6052.154434
801.532437,7920.203579,-12287.418637,8120.612279
801.532761,6513.812290,-11547.212695,7201.297681
801.533085,2146.597232,-10881.027347,4979.620737
801.533409,-3330.926739,-10288.862594,1762.019645
801.533734,-6513.812290,-9030.512492,459.657299
801.534058,-4145.153275,-5921.647536,-153.219100
801.534382,-370.102971,-3478.967927,-919.314598
801.534706,-370.102971,-1258.350101,-5132.839837
801.535030,-3478.967927,-5107.421000,-3753.867940
801.535354,-5847.626942,-10955.047942,-3677.258390
801.535679,-5033.400406,-11695.253884,-6665.030833
801.536003,-7846.182985,-9622.677246,-2834.553343
801.536327,-7920.203579,-10214.842000,612.876398
801.536651,-2072.576638,-12731.542202,153.219100
801.536975,2812.782580,-13619.789333,1838.629195
801.537299,7031.956449,-10807.006753,5209.449386
801.537624,11177.109724,-10140.821405,6894.859482
801.537948,11917.315666,-13397.727550,6741.640382
801.538272,7846.182985,-13545.768739,6358.592633
801.538596,3552.988522,-11251.130318,5362.668486
801.538920,-592.164754,-9992.780217,2528.115143
801.539244,-4515.256246,-9696.697840,0.000000
801.539569,-5773.606348,-6957.935855,-3677.258390
801.539893,-3849.070898,-3182.885551,-7660.954980
801.540217,-3849.070898,-6957.935855,-4903.011187
801.540541,-2146.597232,-11695.253884,-4749.792088
801.540865,-888.247130,-9918.759623,-6128.763984
801.541189,-4959.379811,-7328.038826,-2834.553343
801.541514,-7179.997637,-7179.997637,-2681.334243
801.541838,-6291.750507,-10658.965565,-3217.601092
801.542162,-2368.659014,-12139.377449,-612.876398
801.542486,4737.318029,-12065.356855,4213.525239
801.542810,11103.089130,-12213.398043,5209.449386
801.543134,12509.480420,-13619.789333,5745.716235
801.543459,9770.718434,-12361.439231,7354.516781
801.543783,6809.894666,-11621.233289,5132.839837
801.544107,1184.329507,-11991.336260,2604.724693
801.544431,-3923.091493,-11177.109724,0.000000
801.544755,-5551.544565,-7402.059420,-1762.019645
801.545079,-2516.700203,-2294.638420,-5669.106685
801.545404,-2294.638420,-4589.276840,-5745.716235
801.545728,-2960.823768,-8808.450710,-4673.182538
801.546052,-888.247130,-8882.471304,-7354.516781
801.546376,-3404.947333,-6957.935855,-5515.887586
801.546700,-6587.832884,-5477.523971,-3294.210641
801.547024,-6217.729913,-7328.038826,-3830.477490
801.547349,-3478.967927,-10955.047942,-1991.848295
801.547673,222.061783,-12361.439231,1455.581446
801.547997,5033.400406,-12361.439231,3447.429741
801.548321,8586.388927,-12509.480420,4290.134789
801.548645,9104.533087,-11843.295072,6511.811733
801.548969,8660.409521,-11769.274478,5975.544884
801.549294,4737.318029,-12361.439231,4136.915689
801.549618,-296.082377,-12509.480420,612.876398
801.549942,-3775.050304,-10955.047942,229.828649
801.550266,-3775.050304,-6143.709319,-2757.943793
801.550590,-2220.617826,-3404.947333,-6818.249932
801.550915,-3478.967927,-6587.832884,-5056.230287
801.551239,-2664.741391,-10658.965565,-5515.887586
801.551563,-1332.370696,-10584.944971,-7277.907231
801.551887,-3997.112087,-8068.244768,-4136.915689
801.552211,-5921.647536,-7624.121203,-2374.896044
801.552535,-4737.318029,-10362.883188,-2757.943793
801.552860,-2294.638420,-12139.377449,-1225.752797
801.553184,666.185348,-11695.253884,2451.505594
801.553508,5107.421000,-11991.336260,3447.429741
801.553832,7698.141797,-14285.974681,5209.449386
801.554156,8734.430116,-13619.789333,7431.126331
801.554480,8290.306550,-11621.233289,6358.592633
801.554805,3997.112087,-11399.171507,4290.134789
801.555129,-1036.288319,-10732.986159,1302.362347
801.555453,-4071.132681,-9548.656652,229.828649
801.555777,-2516.700203,-6957.935855,0.000000
801.556101,-814.226536,-2516.700203,-5132.839837
801.556425,-2368.659014,-3108.864956,-5439.278036
801.556750,-4515.256246,-9400.615463,-3217.601092
801.557074,-2516.700203,-11769.274478,-6665.030833
801.557398,-3404.947333,-9622.677246,-5362.668486
801.557722,-7846.182985,-7920.203579,-153.219100
801.558046,-5403.503377,-9104.533087,-536.266849
801.558370,-592.164754,-12065.356855,-459.657299
801.558695,3182.885551,-11177.109724,3140.991542
801.559019,7698.141797,-9474.636058,5898.935335
801.559343,11473.192101,-11991.336260,6741.640382
801.559667,9178.553681,-13397.727550,8273.831378
801.559991,6587.832884,-10658.965565,7890.783629
801.560315,2516.700203,-9030.512492,4673.182538
801.560640,-3108.864956,-10066.800811,1762.019645
801.560964,-6439.791695,-9844.739029,0.000000
801.561288,-4959.379811,-5255.462188,-2451.505594
801.561612,-1776.494261,-1184.329507,-6741.640382
801.561936,-4589.276840,-5847.626942,-4213.525239
801.562260,-4663.297435,-10584.944971,-3064.381992
801.562585,-2590.720797,-9992.780217,-5669.106685
801.562909,-5847.626942,-8068.244768,-2604.724693
801.563233,-8068.244768,-7402.059420,-1225.752797
801.563557,-4737.318029,-10510.924376,-1762.019645
801.563881,1036.288319,-12361.439231,1225.752797
801.564205,6217.729913,-11843.295072,5056.230287
801.564530,10214.842000,-12139.377449,6511.811733
801.564854,11103.089130,-14434.015869,6741.640382
801.565178,8142.265362,-13619.789333,7354.516781
801.565502,4589.276840,-11547.212695,5209.449386
801.565826,-296.082377,-10807.006753,2374.896044
801.566150,-4959.379811,-10955.047942,-306.438199
801.566475,-6809.894666,-8586.388927,-1149.143247
801.566799,-4737.318029,-4219.173869,-6358.592633
801.567123,-3627.009116,-3923.091493,-6128.763984
801.567447,-4293.194464,-8068.244768,-3983.696590
801.567771,-1406.391290,-10288.862594,-6128.763984
801.568095,-1702.473667,-9104.533087,-5209.449386
801.568420,-5033.400406,-7624.121203,-2221.676944
801.568744,-5033.400406,-9252.574275,-1838.629195
801.569068,-2146.597232,-12139.377449,-1378.971896
801.569392,2664.741391,-12435.459826,1378.971896
801.569716,7698.141797,-12435.459826,4749.792088
801.570040,10881.027347,-13175.665768,5439.278036
801.570365,10066.800811,-12953.603985,6665.030833
801.570689,8216.285956,-11695.253884,6588.421283
801.571013,4885.359217,-11177.109724,3830.477490
801.571337,-518.144159,-10807.006753,1225.752797
801.571661,-4885.359217,-8956.491898,-1685.410096
801.571985,-4885.359217,-5255.462188,-4136.915689
801.572310,-3997.112087,-5255.462188,-5286.058936
801.572634,-3256.906145,-7402.059420,-5209.449386
801.572958,-2516.700203,-7994.224174,-5592.497135
801.573282,-2960.823768,-7402.059420,-4749.792088
801.573606,-3627.009116,-7179.997637,-4366.744339
801.573930,-4589.276840,-7920.203579,-3064.381992
801.574255,-3552.988522,-9696.697840,-1685.410096
801.574579,-740.205942,-9844.739029,306.438199
801.574903,2960.823768,-11325.150913,2987.772442
801.575227,5255.462188,-12287.418637,3753.867940
801.575551,6587.832884,-12213.398043,5592.497135
801.575875,7624.121203,-12361.439231,6128.763984
801.576200,6809.894666,-12361.439231,4673.182538
801.576524,2738.761985,-11769.274478,3064.381992
801.576848,-2368.659014,-9992.780217,229.828649
801.577172,-4737.318029,-8142.265362,-1378.971896
801.577496,-4737.318029,-5773.606348,-4290.134789
801.577820,-4589.276840,-4959.379811,-5592.497135
801.578145,-3775.050304,-7476.080014,-4290.134789
801.578469,-1628.453072,-10066.800811,-5362.668486
801.578793,-1110.308913,-9400.615463,-5669.106685
801.579117,-3923.091493,-7846.182985,-2757.943793
801.579441,-4219.173869,-9104.533087,-2451.505594
801.579765,-3330.926739,-11695.253884,-2068.457845
801.580090,-666.185348,-11917.315666,-229.828649
801.580414,3108.864956,-11325.150913,3524.039291
801.580738,7179.997637,-12731.542202,4519.963438
801.581062,8216.285956,-13249.686362,4979.620737
801.581386,7920.203579,-12065.356855,6128.763984
801.581710,6069.688724,-11547.212695,4213.525239
801.582035,1924.535449,-11843.295072,2451.505594
801.582359,-2294.638420,-11399.171507,1149.143247
801.582683,-3404.947333,-8364.327145,0.000000
801.583007,-2516.700203,-4737.318029,-3907.087040
801.583331,-2886.803174,-5181.441594,-5439.278036
801.583655,-3849.070898,-8956.491898,-4136.915689
801.583980,-2294.638420,-9992.780217,-5515.887586
801.584304,-2072.576638,-9474.636058,-4903.011187
801.584628,-5033.400406,-8068.244768,-2221.676944
801.584952,-4737.318029,-8956.491898,-1762.019645
801.585276,-2146.597232,-10732.986159,-1225.752797
801.585600,592.164754,-10807.006753,1685.410096
801.585925,3997.112087,-11177.109724,4826.401637
801.586249,7179.997637,-12213.398043,5132.839837
801.586573,7179.997637,-12731.542202,6741.640382
801.586897,6735.874072,-11843.295072,7354.516781
801.587221,4367.215058,-10732.986159,5286.058936
801.587545,148.041188,-10955.047942,2911.162892
801.587870,-4293.194464,-9622.677246,1225.752797
801.588194,-4811.338623,-7550.100608,536.266849
801.588518,-2146.597232,-5255.462188,-536.266849
801.588842,-962.267725,-2072.576638,-3600.648841
801.589166,-2812.782580,-1406.391290,-5669.106685
801.589490,-6069.688724,-7328.038826,-3830.477490
801.589815,-5625.565159,-10955.047942,-5362.668486
801.590139,-5107.421000,-10214.842000,-4826.401637
801.590463,-6587.832884,-8882.471304,0.000000
801.590787,-3256.906145,-9622.677246,306.438199
801.591111,888.247130,-11843.295072,1532.190996
801.591435,3923.091493,-11399.171507,3294.210641
801.591760,7031.956449,-10881.027347,5592.497135
801.592084,9622.677246,-13101.645173,6281.983084
801.592408,8808.450710,-14063.912898,6281.983084
801.592732,5995.668130,-11769.274478,6358.592633
801.593056,2590.720797,-9992.780217,4290.134789
801.593380,-1332.370696,-9770.718434,2298.286494
801.593705,-4367.215058,-9918.759623,-306.438199
801.594029,-3478.967927,-6069.688724,-2604.724693
801.594353,-1110.308913,-1628.453072,-7124.688131
801.594677,-3034.844362,-4885.359217,-5822.325785
801.595001,-5847.626942,-11177.109724,-4290.134789
801.595325,-4589.276840,-12435.459826,-7124.688131
801.595650,-5995.668130,-10288.862594,-4060.306139
801.595974,-8142.265362,-8586.388927,-1762.019645
801.596298,-5033.400406,-10362.883188,-1991.848295
801.596622,0.000000,-11917.315666,153.219100
801.596946,5773.606348,-11547.212695,3830.477490
801.597271,10140.821405,-12805.562797,5975.544884
801.597595,11547.212695,-15026.180623,6052.154434
801.597919,9104.533087,-13471.748144,7048.078582
801.598243,6883.915261,-11103.089130,5745.716235
801.598567,2368.659014,-10214.842000,3370.820191
801.598891,-1406.391290,-10658.965565,229.828649
801.599216,-3775.050304,-8882.471304,-1149.143247
801.599540,-2812.782580,-3849.070898,-6588.421283
801.599864,-2294.638420,-4737.318029,-6358.592633
801.600188,-3478.967927,-9252.574275,-4673.182538
801.600512,-3108.864956,-10288.862594,-6894.859482
801.600836,-5773.606348,-8068.244768,-5515.887586
801.601161,-7920.203579,-6587.832884,-2757.943793
801.601485,-7254.018232,-8290.306550,-3753.867940
801.601809,-4071.132681,-10584.944971,-2068.457845
801.602133,962.267725,-9474.636058,1608.800546
801.602457,5995.668130,-9992.780217,4060.306139
801.602781,8142.265362,-14137.933492,5132.839837
801.603106,8586.388927,-15026.180623,6588.421283
801.603430,7994.224174,-12065.356855,6435.202183
801.603754,5403.503377,-10955.047942,4596.572988
801.604078,148.041188,-11029.068536,1225.752797
801.604402,-2664.741391,-10140.821405,-153.219100
801.604726,-2072.576638,-6883.915261,-689.485948
801.605051,0.000000,-2664.741391,-5745.716235
801.605375,-1702.473667,-3997.112087,-6052.154434
801.605699,-4589.276840,-9104.533087,-4060.306139
801.606023,-3478.967927,-10881.027347,-7201.297681
801.606347,-5033.400406,-8068.244768,-6281.983084
801.606671,-9030.512492,-6883.915261,-1762.019645
801.606996,-6883.915261,-9178.553681,-2451.505594
801.607320,-2442.679609,-11843.295072,-1532.190996
801.607644,2072.576638,-9474.636058,1762.019645
801.607968,7254.018232,-9178.553681,4749.792088
801.608292,10362.883188,-14063.912898,5745.716235
801.608616,9548.656652,-14952.160028,5975.544884
801.608941,7698.141797,-12213.398043,6052.154434
801.609265,3552.988522,-10881.027347,4290.134789
801.609589,-1110.308913,-11029.068536,1225.752797
801.609913,-4441.235652,-10807.006753,-306.438199
801.610237,-3552.988522,-6883.915261,-1838.629195
801.610561,-740.205942,-2738.761985,-7048.078582
801.610886,-3182.885551,-7031.956449,-3907.087040
801.611210,-3701.029710,-11621.233289,-3524.039291
801.611534,-1702.473667,-10807.006753,-6281.983084
801.611858,-4811.338623,-7846.182985,-3064.381992
801.612182,-7920.203579,-7254.018232,-1455.581446
801.612506,-5699.585753,-10584.944971,-2374.896044
801.612831,-1110.308913,-11843.295072,0.000000
801.613155,4367.215058,-9992.780217,3907.087040
801.613479,8660.409521,-10732.986159,5745.716235
801.613803,10214.842000,-13471.748144,6052.154434
801.614127,8586.388927,-12731.542202,6741.640382
801.614451,5847.626942,-10584.944971,5592.497135
801.614776,888.247130,-10510.924376,3600.648841
801.615100,-3775.050304,-10658.965565,306.438199
801.615424,-5329.482782,-7920.203579,-1072.533697
801.615748,-3256.906145,-3775.050304,-4979.620737
801.616072,-2516.700203,-5921.647536,-3753.867940
801.616396,-2516.700203,-9474.636058,-3294.210641
801.616721,-1628.453072,-9548.656652,-4903.011187
801.617045,-3627.009116,-8142.265362,-2911.162892
801.617370,-5477.523971,-6883.915261,-1991.848295
801.617694,-5625.565159,-8660.409521,-2068.457845
801.618018,-3256.906145,-11325.150913,76.609550
801.618342,1332.370696,-11251.130318,2757.943793
801.618666,6143.709319,-11621.233289,4596.572988
801.618991,8290.306550,-13101.645173,5439.278036
801.619315,7550.100608,-13101.645173,7201.297681
801.619639,7031.956449,-11843.295072,6052.154434
801.619963,3108.864956,-10807.006753,4290.134789
801.620287,-2072.576638,-10658.965565,1685.410096
801.620612,-4515.256246,-9474.636058,0.000000
801.620936,-4515.256246,-6365.771101,-1991.848295
801.621260,-2368.659014,-3775.050304,-5056.230287
801.621584,-2960.823768,-5995.668130,-3753.867940
801.621908,-2664.741391,-9770.718434,-3677.258390
801.622233,-1406.391290,-10066.800811,-5745.716235
801.622557,-3775.050304,-7994.224174,-3140.991542
801.622881,-5847.626942,-7179.997637,-1991.848295
801.623205,-4219.173869,-9770.718434,-2451.505594
801.623529,-1554.432478,-11473.192101,-153.219100
801.623853,2072.576638,-11251.130318,2451.505594
801.624178,6365.771101,-11399.171507,4596.572988
801.624502,7920.203579,-13027.624579,5362.668486
801.624826,7402.059420,-12509.480420,6205.373534
801.625150,6809.894666,-11547.212695,5362.668486
801.625474,3627.009116,-10510.924376,3217.601092
801.625799,-888.247130,-10288.862594,1302.362347
801.626123,-3849.070898,-8142.265362,-1532.190996
801.626447,-3108.864956,-5477.523971,-4596.572988
801.626771,-2664.741391,-7105.977043,-4443.353888
801.627095,-1628.453072,-9252.574275,-4136.915689
801.627420,222.061783,-9252.574275,-4903.011187
801.627744,-1332.370696,-7994.224174,-3830.477490
801.628068,-3701.029710,-6809.894666,-3140.991542
801.628392,-5255.462188,-7920.203579,-2757.943793
801.628716,-4145.153275,-10066.800811,-1915.238745
801.629041,-1036.288319,-10288.862594,383.047749
801.629365,2294.638420,-10658.965565,2298.286494
801.629689,4737.318029,-11843.295072,3524.039291
801.630013,5477.523971,-12583.501014,5822.325785
801.630337,6365.771101,-12287.418637,5439.278036
801.630661,4515.256246,-11325.150913,3677.258390
801.630986,666.185348,-11473.192101,1915.238745
801.631310,-2146.597232,-9696.697840,459.657299
801.631634,-3108.864956,-7179.997637,-1991.848295
801.631958,-2516.700203,-7031.956449,-4903.011187
801.632282,-2664.741391,-8586.388927,-3830.477490
801.632607,-222.061783,-9696.697840,-4290.134789
801.632931,0.000000,-9326.594869,-4749.792088
801.633255,-2368.659014,-8290.306550,-2987.772442
801.633579,-4293.194464,-8364.327145,-3217.601092
801.633903,-4515.256246,-9474.636058,-2987.772442
801.634228,-2886.803174,-10807.006753,-2068.457845
801.634552,-666.185348,-10214.842000,306.438199
801.634876,1776.494261,-9918.759623,2221.676944
801.635200,2738.761985,-11843.295072,3140.991542
801.635524,3330.926739,-12509.480420,4596.572988
801.635849,4589.276840,-12213.398043,4596.572988
801.636173,4589.276840,-11621.233289,2834.553343
801.636497,2072.576638,-10584.944971,1532.190996
801.636821,370.102971,-9178.553681,1532.190996
801.637145,444.123565,-7624.121203,0.000000
801.637469,518.144159,-5773.606348,-4136.915689
801.637794,-1258.350101,-7179.997637,-3907.087040
801.638118,-1702.473667,-9992.780217,-3217.601092
801.638442,-148.041188,-10584.944971,-4903.011187
801.638766,-2516.700203,-9622.677246,-4136.915689
801.639090,-5699.585753,-8660.409521,-1915.238745
801.639415,-5255.462188,-9400.615463,-2604.724693
801.639739,-3552.988522,-10658.965565,-2068.457845
801.640063,-1480.411884,-9696.697840,1302.362347
801.640387,1554.432478,-9104.533087,3140.991542
801.640711,4663.297435,-11695.253884,4826.401637
801.641036,5033.400406,-13545.768739,6358.592633
801.641360,5995.668130,-12583.501014,6511.811733
801.641684,4737.318029,-10807.006753,4903.011187
801.642008,1110.308913,-10436.903782,2757.943793
801.642332,-1480.411884,-9474.636058,1915.238745
801.642656,-962.267725,-7846.182985,1225.752797
801.642981,444.123565,-4589.276840,-2528.115143
801.643305,0.000000,-4737.318029,-4366.744339
801.643629,-2886.803174,-8808.450710,-2757.943793
801.643953,-1924.535449,-11399.171507,-4136.915689
801.644277,-3034.844362,-10066.800811,-4903.011187
801.644602,-7328.038826,-7994.224174,-1072.533697
801.644926,-6661.853478,-8216.285956,-1838.629195
801.645250,-3627.009116,-9770.718434,-1915.238745
801.645574,0.000000,-10066.800811,1532.190996
801.645898,3256.906145,-8512.368333,3677.258390
801.646223,6365.771101,-10881.027347,4979.620737
801.646547,6365.771101,-13175.665768,6281.983084
801.646871,6143.709319,-12361.439231,6741.640382
801.647195,4589.276840,-10807.006753,4979.620737
801.647519,666.185348,-10214.842000,2987.772442
801.647844,-2516.700203,-9622.677246,1378.971896
801.648168,-2368.659014,-8660.409521,612.876398
801.648492,74.020594,-4811.338623,-2757.943793
801.648816,296.082377,-3701.029710,-5822.325785
801.649140,-3627.009116,-8512.368333,-2987.772442
801.649464,-3923.091493,-12361.439231,-4290.134789
801.649789,-3552.988522,-11103.089130,-6511.811733
801.650113,-7105.977043,-8142.265362,-2451.505594
801.650437,-7179.997637,-7920.203579,-1838.629195
801.650761,-3182.885551,-10807.006753,-2298.286494
801.651085,370.102971,-11177.109724,766.095498
801.651410,4515.256246,-10140.821405,3830.477490
801.651734,7402.059420,-11991.336260,4673.182538
801.652058,8142.265362,-14508.036463,5132.839837
801.652382,7698.141797,-12953.603985,5898.935335
801.652706,5625.565159,-10436.903782,4673.182538
801.653031,1776.494261,-10288.862594,2451.505594
801.653355,-1480.411884,-10732.986159,766.095498
801.653679,-3034.844362,-7179.997637,-2298.286494
801.654003,-1406.391290,-3923.091493,-7048.078582
801.654327,-2368.659014,-7402.059420,-4596.572988
801.654652,-2294.638420,-11621.233289,-4213.525239
801.654976,-1258.350101,-10510.924376,-6511.811733
801.655300,-4885.359217,-7328.038826,-3140.991542
801.655624,-7105.977043,-6217.729913,-3524.039291
801.655948,-5773.606348,-9326.594869,-4060.306139
801.656272,-2738.761985,-10881.027347,-1532.190996
801.656597,1776.494261,-9474.636058,2145.067394
801.656921,6513.812290,-10510.924376,3600.648841
801.657245,7994.224174,-13545.768739,4826.401637
801.657569,7698.141797,-12509.480420,6358.592633
801.657893,7105.977043,-11399.171507,5592.497135
801.658218,3108.864956,-10584.944971,2911.162892
801.658542,-1332.370696,-10140.821405,536.266849
801.658866,-2886.803174,-8068.244768,-995.924147
801.659190,-2146.597232,-5107.421000,-4979.620737
801.659514,-1702.473667,-7402.059420,-4749.792088
801.659839,-1554.432478,-9918.759623,-4290.134789
801.660163,-370.102971,-9992.780217,-5898.935335
801.660487,-2738.761985,-8512.368333,-4519.963438
801.660811,-5107.421000,-6883.915261,-3294.210641
801.661135,-6069.688724,-7846.182985,-3524.039291
801.661460,-4737.318029,-10881.027347,-2451.505594
801.661784,-1776.494261,-10658.965565,459.657299
801.662108,2220.617826,-10584.944971,1991.848295
801.662432,4959.379811,-12213.398043,4136.915689
801.662756,6069.688724,-12879.583391,6205.373534
801.663080,7105.977043,-11991.336260,5286.058936
801.663405,5477.523971,-12139.377449,3907.087040
801.663729,296.082377,-11473.192101,1762.019645
801.664053,-2368.659014,-10140.821405,383.047749
801.664377,-2146.597232,-8586.388927,0.000000
801.664701,-444.123565,-5477.523971,-3064.381992
801.665026,-518.144159,-4441.235652,-5362.668486
801.665350,-2368.659014,-8512.368333,-3600.648841
801.665674,-814.226536,-11473.192101,-4903.011187
801.665998,-666.185348,-9622.677246,-5286.058936
801.666322,-5107.421000,-7698.141797,-1378.971896
801.666647,-5625.565159,-9252.574275,-1532.190996
801.666971,-2960.823768,-11547.212695,-1991.848295
801.667295,-740.205942,-11325.150913,919.314598
801.667619,2812.782580,-10436.903782,4443.353888
801.667943,6957.935855,-11547.212695,4826.401637
801.668268,6957.935855,-12953.603985,6128.763984
801.668592,6217.729913,-11769.274478,6741.640382
801.668916,3997.112087,-10214.842000,4979.620737
801.669240,-370.102971,-10510.924376,2987.772442
801.669564,-4219.173869,-10362.883188,919.314598
801.669888,-4737.318029,-7698.141797,459.657299
801.670213,-1406.391290,-4441.235652,-2221.676944
801.670537,0.000000,-2294.638420,-5286.058936
801.670861,-2812.782580,-7031.956449,-2528.115143
801.671185,-2368.659014,-11177.109724,-3294.210641
801.671509,-1924.535449,-10214.842000,-5286.058936
801.671834,-6217.729913,-8216.285956,-1532.190996
801.672158,-6809.894666,-8142.265362,-459.657299
801.672482,-2368.659014,-10658.965565,-536.266849
801.672806,1554.432478,-12361.439231,2298.286494
801.673130,5921.647536,-10732.986159,6052.154434
801.673455,9252.574275,-11251.130318,6205.373534
801.673779,9178.553681,-12583.501014,6588.421283
