#time,accel_x,accel_y,accel_z
830.182543,-4441.235652,-8660.409521,0.000000
830.182867,-5699.585753,-10955.047942,-1455.581446
830.183192,-7698.141797,-11473.192101,-1685.410096
830.183516,-8068.244768,-6513.812290,-1532.190996
830.183840,-7994.224174,-6217.729913,-995.924147
830.184164,-9326.594869,-8586.388927,-766.095498
830.184488,-9104.533087,-9326.594869,-995.924147
830.184813,-6143.709319,-9992.780217,-459.657299
830.185137,-2664.741391,-7994.224174,766.095498
830.185461,222.061783,-7550.100608,1838.629195
830.185785,2516.700203,-8438.347739,1685.410096
830.186109,4071.132681,-8882.471304,1455.581446
830.186434,4145.153275,-11843.295072,536.266849
830.186758,3923.091493,-12139.377449,766.095498
830.187082,2886.803174,-11843.295072,1915.238745
830.187406,2812.782580,-12731.542202,2834.553343
830.187730,1776.494261,-11695.253884,1762.019645
830.188054,-1036.288319,-10658.965565,459.657299
830.188379,-3923.091493,-9992.780217,0.000000
830.188703,-4515.256246,-9104.533087,153.219100
830.189027,-3923.091493,-8364.327145,306.438199
830.189351,-3182.885551,-6957.935855,1991.848295
830.189675,-2664.741391,-6587.832884,2451.505594
830.190000,-3627.009116,-8512.368333,1455.581446
830.190324,-4515.256246,-9178.553681,1455.581446
830.190648,-4663.297435,-8438.347739,229.828649
830.190972,-4737.318029,-9474.636058,383.047749
830.191296,-3627.009116,-12213.398043,995.924147
830.191620,-1036.288319,-13841.851115,459.657299
830.191945,1258.350101,-12879.583391,2374.896044
830.192269,1702.473667,-12805.562797,3983.696590
830.192593,592.164754,-13323.706956,4519.963438
830.192917,-1110.308913,-13323.706956,4060.306139
830.193241,-1998.556043,-11325.150913,3677.258390
830.193566,-2516.700203,-9548.656652,4136.915689
830.193890,-2738.761985,-10362.883188,3983.696590
830.194214,-3849.070898,-10362.883188,3370.820191
830.194538,-3552.988522,-9326.594869,4519.963438
830.194862,-2960.823768,-7846.182985,4519.963438
830.195187,-3256.906145,-6587.832884,4136.915689
830.195511,-3552.988522,-6217.729913,2911.162892
830.195835,-4885.359217,-5403.503377,2681.334243
830.196159,-3997.112087,-5773.606348,2068.457845
830.196483,-2368.659014,-7402.059420,2451.505594
830.196807,-1776.494261,-7920.203579,3064.381992
830.197132,-2146.597232,-7846.182985,2987.772442
830.197456,-2960.823768,-8882.471304,3064.381992
830.197780,-3330.926739,-10436.903782,3677.258390
830.198104,-3849.070898,-11843.295072,4826.401637
830.198428,-2960.823768,-11695.253884,5439.278036
830.198753,-1702.473667,-11399.171507,5362.668486
830.199077,-222.061783,-10955.047942,5975.544884
830.199401,444.123565,-10362.883188,5439.278036
830.199725,296.082377,-10066.800811,4903.011187
830.200049,-1628.453072,-9252.574275,4519.963438
830.200373,-3627.009116,-8216.285956,3600.648841
830.200698,-5107.421000,-6735.874072,1991.848295
830.201022,-5551.544565,-6291.750507,1915.238745
830.201346,-4885.359217,-5847.626942,459.657299
830.201670,-2738.761985,-5773.606348,229.828649
830.201994,-1184.329507,-6217.729913,-1532.190996
830.202319,-1332.370696,-9178.553681,153.219100
830.202643,-888.247130,-11843.295072,1838.629195
830.202967,296.082377,-12139.377449,1455.581446
830.203291,-962.267725,-11843.295072,3524.039291
830.203615,-2664.741391,-10807.006753,3907.087040
830.203940,-1998.556043,-10510.924376,2298.286494
830.204264,444.123565,-11769.274478,2298.286494
830.204588,2960.823768,-10436.903782,2374.896044
830.204912,5181.441594,-9844.739029,2911.162892
830.205236,4589.276840,-9844.739029,1149.143247
830.205560,222.061783,-9252.574275,-459.657299
830.205885,-4367.215058,-9474.636058,-1838.629195
830.206209,-6217.729913,-9770.718434,-3447.429741
830.206533,-6513.812290,-11917.315666,-3830.477490
830.206857,-4663.297435,-12509.480420,-3140.991542
830.207181,-888.247130,-11325.150913,-2374.896044
830.207506,1850.514855,-10510.924376,-1225.752797
830.207830,1480.411884,-10584.944971,-1072.533697
830.208154,-370.102971,-9696.697840,0.000000
830.208478,-1184.329507,-9474.636058,-766.095498
830.208802,-296.082377,-8882.471304,536.266849
830.209126,814.226536,-8956.491898,1685.410096
830.209451,2442.679609,-9770.718434,1455.581446
830.209775,3478.967927,-9844.739029,0.000000
830.210099,1776.494261,-10658.965565,-1532.190996
830.210423,-1628.453072,-11029.068536,-2068.457845
830.210748,-2812.782580,-10732.986159,-2451.505594
830.211072,-2146.597232,-9918.759623,-3217.601092
830.211397,-814.226536,-9918.759623,-1532.190996
830.211721,1258.350101,-10436.903782,-2145.067394
830.212045,2220.617826,-10807.006753,-3140.991542
830.212370,1036.288319,-9548.656652,-2987.772442
830.212694,740.205942,-8068.244768,-1532.190996
830.213019,1480.411884,-7624.121203,-766.095498
830.213343,1406.391290,-7402.059420,-76.609550
830.213668,0.000000,-8882.471304,612.876398
830.213992,-1702.473667,-10140.821405,766.095498
830.214317,-3849.070898,-11251.130318,-153.219100
830.214641,-5699.585753,-11251.130318,-766.095498
830.214966,-5107.421000,-9622.677246,-689.485948
830.215290,-2294.638420,-8364.327145,76.609550
830.215614,1258.350101,-8586.388927,-153.219100
830.215939,2664.741391,-9474.636058,-766.095498
830.216263,2072.576638,-10214.842000,-1302.362347
830.216588,1332.370696,-10288.862594,-1378.971896
830.216912,1332.370696,-9770.718434,-1532.190996
830.217237,1850.514855,-9030.512492,-1072.533697
830.217561,2590.720797,-9030.512492,0.000000
830.217886,2812.782580,-10214.842000,459.657299
830.218210,1850.514855,-11103.089130,459.657299
830.218535,-222.061783,-10510.924376,995.924147
830.218859,-2368.659014,-9030.512492,766.095498
830.219183,-2960.823768,-8586.388927,1302.362347
830.219508,-2146.597232,-9030.512492,1762.019645
830.219832,-296.082377,-9104.533087,1685.410096
830.220157,296.082377,-8808.450710,1762.019645
830.220481,0.000000,-8956.491898,1302.362347
830.220806,-814.226536,-8882.471304,766.095498
830.221130,-370.102971,-8290.306550,536.266849
830.221455,296.082377,-8734.430116,842.705048
830.221779,518.144159,-10955.047942,689.485948
830.222104,0.000000,-11917.315666,383.047749
830.222428,-1406.391290,-11769.274478,383.047749
830.222753,-2146.597232,-10807.006753,612.876398
830.223077,-1628.453072,-9622.677246,1149.143247
830.223401,148.041188,-8734.430116,2374.896044
830.223726,1480.411884,-9252.574275,2528.115143
830.224050,1406.391290,-9474.636058,2451.505594
830.224375,-444.123565,-9474.636058,2145.067394
830.224699,-2368.659014,-9030.512492,1608.800546
830.225024,-2738.761985,-8512.368333,995.924147
830.225348,-888.247130,-8438.347739,919.314598
830.225673,370.102971,-8660.409521,1532.190996
830.225997,2442.679609,-9474.636058,689.485948
830.226322,2368.659014,-10436.903782,1072.533697
830.226646,592.164754,-10955.047942,536.266849
830.226970,-592.164754,-9992.780217,0.000000
830.227295,-888.247130,-9178.553681,689.485948
830.227619,962.267725,-9474.636058,1455.581446
830.227944,2590.720797,-10066.800811,1455.581446
830.228268,2738.761985,-10584.944971,1532.190996
830.228593,74.020594,-10140.821405,1072.533697
830.228917,-1776.494261,-9622.677246,0.000000
830.229242,-2368.659014,-9030.512492,0.000000
830.229566,-2220.617826,-8512.368333,229.828649
830.229891,-1480.411884,-9178.553681,-459.657299
830.230215,-888.247130,-9918.759623,-1072.533697
830.230539,-1628.453072,-9770.718434,-1532.190996
830.230864,-1924.535449,-9992.780217,-1225.752797
830.231188,-1628.453072,-9474.636058,-1225.752797
830.231513,222.061783,-9474.636058,-306.438199
830.231837,2368.659014,-9622.677246,612.876398
830.232162,3330.926739,-9844.739029,842.705048
830.232486,2368.659014,-10066.800811,919.314598
830.232811,888.247130,-10066.800811,153.219100
830.233135,-740.205942,-9400.615463,-306.438199
830.233460,-592.164754,-8364.327145,-1225.752797
830.233784,518.144159,-8808.450710,-1378.971896
830.234108,814.226536,-9400.615463,-1532.190996
830.234433,-222.061783,-9770.718434,-1915.238745
830.234757,-1776.494261,-9548.656652,-2068.457845
830.235082,-2886.803174,-9400.615463,-2681.334243
830.235406,-2220.617826,-9178.553681,-2528.115143
830.235731,148.041188,-9326.594869,-2068.457845
830.236055,1850.514855,-10214.842000,-1225.752797
830.236380,2590.720797,-11547.212695,-459.657299
830.236704,1554.432478,-11325.150913,-306.438199
830.237029,74.020594,-10436.903782,-383.047749
830.237353,0.000000,-9474.636058,-536.266849
830.237677,888.247130,-9474.636058,-1072.533697
830.238002,2368.659014,-10140.821405,-1378.971896
830.238326,2146.597232,-11177.109724,-1225.752797
830.238651,-148.041188,-10955.047942,-1685.410096
830.238975,-2220.617826,-10362.883188,-1991.848295
830.239300,-2812.782580,-9474.636058,-2451.505594
830.239624,-2072.576638,-9030.512492,-1762.019645
830.239949,0.000000,-10288.862594,-1225.752797
830.240273,1554.432478,-10955.047942,-689.485948
830.240598,1850.514855,-10955.047942,-536.266849
830.240922,518.144159,-10214.842000,-612.876398
830.241246,-444.123565,-9474.636058,-459.657299
830.241571,0.000000,-9104.533087,0.000000
830.241895,1332.370696,-9326.594869,229.828649
830.242220,2072.576638,-9474.636058,229.828649
830.242544,1480.411884,-10066.800811,459.657299
830.242869,0.000000,-9696.697840,0.000000
830.243193,-1628.453072,-9178.553681,-689.485948
830.243518,-1702.473667,-8808.450710,-919.314598
830.243842,-1258.350101,-8586.388927,-383.047749
830.244167,0.000000,-9548.656652,-153.219100
830.244491,0.000000,-9992.780217,459.657299
830.244815,-1110.308913,-9252.574275,-306.438199
830.245140,-1480.411884,-8512.368333,612.876398
830.245464,-1184.329507,-8882.471304,459.657299
830.245789,-296.082377,-9030.512492,842.705048
830.246113,1036.288319,-9326.594869,1378.971896
830.246438,1406.391290,-10214.842000,1762.019645
830.246762,296.082377,-10140.821405,1378.971896
830.247087,-888.247130,-9622.677246,1838.629195
830.247411,-1406.391290,-8734.430116,1455.581446
830.247736,0.000000,-8142.265362,1532.190996
830.248060,1480.411884,-9178.553681,612.876398
830.248384,1332.370696,-9918.759623,1149.143247
830.248709,148.041188,-9918.759623,536.266849
830.249033,-1850.514855,-9696.697840,0.000000
830.249358,-3108.864956,-9104.533087,-229.828649
830.249682,-2368.659014,-8734.430116,383.047749
830.250007,-1332.370696,-9178.553681,383.047749
830.250331,444.123565,-9992.780217,536.266849
830.250656,222.061783,-10584.944971,842.705048
830.250980,-740.205942,-10436.903782,1225.752797
830.251305,-1480.411884,-10066.800811,995.924147
830.251629,-1110.308913,-9622.677246,1838.629195
830.251953,814.226536,-9918.759623,2068.457845
830.252278,2368.659014,-10214.842000,2145.067394
830.252602,2220.617826,-9918.759623,1762.019645
830.252927,296.082377,-10140.821405,1302.362347
830.253251,-1258.350101,-9992.780217,459.657299
830.253576,-1998.556043,-9474.636058,229.828649
830.253900,-1332.370696,-9104.533087,229.828649
830.254225,0.000000,-9252.574275,0.000000
830.254549,148.041188,-9622.677246,-536.266849
830.254874,-666.185348,-9622.677246,459.657299
830.255198,-1258.350101,-9252.574275,229.828649
830.255522,-1184.329507,-8956.491898,612.876398
830.255847,74.020594,-8438.347739,766.095498
830.256171,1998.556043,-8660.409521,1302.362347
830.256496,2812.782580,-9252.574275,1302.362347
830.256820,2146.597232,-9770.718434,766.095498
830.257145,222.061783,-9326.594869,842.705048
830.257469,-814.226536,-8808.450710,459.657299
830.257794,-222.061783,-9178.553681,76.609550
830.258118,1036.288319,-9178.553681,-612.876398
830.258443,1258.350101,-9104.533087,-842.705048
830.258767,222.061783,-9696.697840,-995.924147
830.259091,-370.102971,-10362.883188,-1149.143247
830.259416,-1110.308913,-9474.636058,-1532.190996
830.259740,-1036.288319,-8660.409521,-689.485948
830.260065,888.247130,-8734.430116,-229.828649
830.260389,2368.659014,-10214.842000,-229.828649
830.260714,2220.617826,-10955.047942,-306.438199
830.261038,0.000000,-10362.883188,-306.438199
830.261363,-1554.432478,-9992.780217,-766.095498
830.261687,-962.267725,-9548.656652,-919.314598
830.262012,222.061783,-9622.677246,-842.705048
830.262336,1110.308913,-9918.759623,-995.924147
830.262660,1184.329507,-10955.047942,-1225.752797
830.262985,592.164754,-11251.130318,-1302.362347
830.263309,-444.123565,-10584.944971,-1378.971896
830.263634,-962.267725,-9474.636058,-995.924147
830.263958,0.000000,-9622.677246,-919.314598
830.264283,1332.370696,-10362.883188,-536.266849
830.264607,2516.700203,-11103.089130,-766.095498
830.264932,1258.350101,-10658.965565,-842.705048
830.265256,-296.082377,-10658.965565,-766.095498
830.265581,-1480.411884,-9474.636058,-1225.752797
830.265905,-1036.288319,-8808.450710,-1149.143247
830.266229,296.082377,-9178.553681,-842.705048
830.266554,518.144159,-9770.718434,-1532.190996
830.266878,-962.267725,-10288.862594,-1149.143247
830.267203,-2220.617826,-9622.677246,-995.924147
830.267527,-2368.659014,-9178.553681,-1455.581446
830.267852,-1702.473667,-8956.491898,-995.924147
830.268176,0.000000,-9474.636058,-459.657299
830.268501,962.267725,-10807.006753,0.000000
830.268825,666.185348,-10807.006753,76.609550
830.269150,-740.205942,-10436.903782,-842.705048
830.269474,-1924.535449,-9918.759623,-459.657299
830.269798,-1924.535449,-9178.553681,-995.924147
830.270123,-740.205942,-9400.615463,-306.438199
830.270447,592.164754,-9548.656652,0.000000
830.270772,814.226536,-10066.800811,0.000000
830.271096,-222.061783,-9622.677246,229.828649
830.271421,-1628.453072,-9104.533087,-536.266849
830.271745,-1850.514855,-8290.306550,153.219100
830.272070,-518.144159,-8364.327145,229.828649
830.272394,1184.329507,-9252.574275,459.657299
830.272719,2220.617826,-10066.800811,689.485948
830.273043,1480.411884,-9844.739029,689.485948
830.273367,0.000000,-9178.553681,842.705048
830.273692,-740.205942,-8586.388927,459.657299
830.274016,-518.144159,-8512.368333,842.705048
830.274341,1184.329507,-9326.594869,612.876398
830.274665,1332.370696,-10140.821405,612.876398
830.274990,666.185348,-9992.780217,689.485948
830.275314,-444.123565,-9548.656652,689.485948
830.275639,-1036.288319,-9252.574275,689.485948
830.275963,148.041188,-8956.491898,766.095498
830.276288,1776.494261,-9622.677246,1302.362347
830.276612,2590.720797,-9770.718434,919.314598
830.276936,1924.535449,-10288.862594,1378.971896
830.277261,0.000000,-10214.842000,689.485948
830.277585,-1628.453072,-9548.656652,0.000000
830.277910,-1924.535449,-8808.450710,0.000000
830.278234,-740.205942,-8734.430116,383.047749
830.278559,1332.370696,-9474.636058,536.266849
830.278883,1628.453072,-9474.636058,612.876398
830.279208,148.041188,-9252.574275,306.438199
830.279532,-1332.370696,-9400.615463,153.219100
830.279857,-1628.453072,-8882.471304,229.828649
830.280181,74.020594,-9400.615463,1225.752797
830.280505,2368.659014,-9770.718434,1455.581446
830.280830,2960.823768,-10436.903782,1532.190996
830.281154,1480.411884,-10658.965565,919.314598
830.281479,-592.164754,-10658.965565,-459.657299
830.281803,-2294.638420,-9622.677246,-842.705048
830.282128,-1998.556043,-9400.615463,-612.876398
830.282452,-740.205942,-10214.842000,-766.095498
830.282777,-296.082377,-10881.027347,-766.095498
830.283101,-814.226536,-10732.986159,-306.438199
830.283426,-1924.535449,-10140.821405,-306.438199
830.283750,-1924.535449,-9918.759623,-612.876398
830.284074,-1554.432478,-9178.553681,536.266849
830.284399,814.226536,-9622.677246,76.609550
830.284723,2072.576638,-10288.862594,459.657299
830.285048,1332.370696,-10584.944971,612.876398
830.285372,-592.164754,-10140.821405,229.828649
830.285697,-1924.535449,-9696.697840,0.000000
830.286021,-1332.370696,-9104.533087,0.000000
830.286346,0.000000,-8438.347739,-383.047749
830.286670,1036.288319,-9400.615463,-459.657299
830.286995,444.123565,-10140.821405,-612.876398
830.287319,-962.267725,-10288.862594,-766.095498
830.287643,-2072.576638,-9474.636058,-842.705048
830.287968,-1702.473667,-8512.368333,-919.314598
830.288292,370.102971,-8956.491898,-459.657299
830.288617,2146.597232,-9770.718434,-153.219100
830.288941,3182.885551,-10881.027347,459.657299
830.289266,1628.453072,-10732.986159,229.828649
830.289590,-1110.308913,-9992.780217,-153.219100
830.289915,-2220.617826,-9548.656652,-766.095498
830.290239,-1776.494261,-9400.615463,-995.924147
830.290564,-222.061783,-9918.759623,-229.828649
830.290888,74.020594,-10732.986159,-536.266849
830.291212,0.000000,-10807.006753,-306.438199
830.291537,-1480.411884,-9696.697840,-306.438199
830.291861,-1776.494261,-9030.512492,-689.485948
830.292186,-666.185348,-8512.368333,-459.657299
830.292510,962.267725,-9104.533087,153.219100
830.292835,1776.494261,-9696.697840,0.000000
830.293159,1480.411884,-9474.636058,0.000000
830.293484,-148.041188,-9400.615463,0.000000
830.293808,-1036.288319,-9474.636058,-689.485948
830.294133,-962.267725,-9252.574275,-536.266849
830.294457,296.082377,-9030.512492,-229.828649
830.294781,1332.370696,-9622.677246,0.000000
830.295106,1036.288319,-10214.842000,153.219100
830.295430,0.000000,-10436.903782,383.047749
830.295755,-1036.288319,-9622.677246,153.219100
830.296079,-1184.329507,-9030.512492,0.000000
830.296404,518.144159,-8882.471304,612.876398
830.296728,2368.659014,-9992.780217,612.876398
830.297053,2664.741391,-10362.883188,536.266849
830.297377,1480.411884,-10436.903782,766.095498
830.297702,-444.123565,-9918.759623,-229.828649
830.298026,-1184.329507,-9326.594869,-459.657299
830.298351,-592.164754,-8882.471304,-383.047749
830.298675,666.185348,-9474.636058,-536.266849
830.298999,1110.308913,-9992.780217,0.000000
830.299324,370.102971,-10214.842000,229.828649
830.299648,-740.205942,-9918.759623,0.000000
830.299973,-1184.329507,-8956.491898,76.609550
830.300297,74.020594,-9030.512492,842.705048
830.300622,1480.411884,-9252.574275,689.485948
830.300946,2516.700203,-9918.759623,689.485948
830.301271,1480.411884,-10066.800811,1149.143247
830.301595,0.000000,-10066.800811,459.657299
830.301920,-1332.370696,-9400.615463,0.000000
830.302244,-962.267725,-9030.512492,-306.438199
830.302568,592.164754,-9252.574275,-383.047749
830.302893,1554.432478,-9992.780217,-612.876398
830.303217,740.205942,-10288.862594,-306.438199
830.303542,-1184.329507,-9844.739029,-153.219100
830.303866,-2368.659014,-9326.594869,-612.876398
830.304191,-1776.494261,-8882.471304,0.000000
830.304515,-296.082377,-9474.636058,0.000000
830.304840,1480.411884,-10066.800811,0.000000
830.305164,1480.411884,-10362.883188,0.000000
830.305489,-148.041188,-10658.965565,229.828649
830.305813,-2220.617826,-10140.821405,-153.219100
830.306137,-2516.700203,-9474.636058,-536.266849
830.306462,-1702.473667,-8808.450710,-383.047749
830.306786,0.000000,-8808.450710,-383.047749
830.307111,814.226536,-10066.800811,-383.047749
830.307435,-518.144159,-9770.718434,-383.047749
830.307760,-1776.494261,-9326.594869,-536.266849
830.308084,-1998.556043,-9104.533087,-383.047749
830.308409,-962.267725,-9030.512492,0.000000
830.308733,1036.288319,-9770.718434,306.438199
830.309058,1776.494261,-10288.862594,383.047749
830.309382,740.205942,-10584.944971,0.000000
830.309706,-1332.370696,-10510.924376,-229.828649
830.310031,-2590.720797,-9622.677246,-459.657299
830.310355,-2146.597232,-9400.615463,-689.485948
830.310680,-370.102971,-9400.615463,-459.657299
830.311004,740.205942,-10066.800811,-383.047749
830.311329,296.082377,-10288.862594,0.000000
830.311653,-1110.308913,-9622.677246,-76.609550
830.311977,-1554.432478,-9326.594869,-612.876398
830.312302,-1184.329507,-8882.471304,76.609550
830.312626,740.205942,-9474.636058,383.047749
830.312951,2738.761985,-10214.842000,766.095498
830.313275,3404.947333,-10288.862594,1072.533697
830.313600,2146.597232,-10140.821405,689.485948
830.313924,148.041188,-9918.759623,0.000000
830.314248,-296.082377,-9178.553681,-153.219100
830.314573,0.000000,-8660.409521,-306.438199
830.314897,1332.370696,-9474.636058,-229.828649
830.315222,1258.350101,-9992.780217,-306.438199
830.315546,296.082377,-9622.677246,0.000000
830.315870,-296.082377,-9104.533087,-153.219100
830.316195,-296.082377,-8586.388927,536.266849
830.316519,1258.350101,-8956.491898,689.485948
830.316844,2294.638420,-10066.800811,1072.533697
830.317168,1924.535449,-9992.780217,919.314598
830.317493,296.082377,-10140.821405,-229.828649
830.317817,-1036.288319,-9918.759623,0.000000
830.318141,-1850.514855,-9696.697840,-383.047749
830.318466,-1110.308913,-9474.636058,-153.219100
830.318790,592.164754,-9548.656652,0.000000
830.319115,1776.494261,-9770.718434,0.000000
830.319439,1110.308913,-10510.924376,0.000000
830.319763,-370.102971,-10214.842000,76.609550
830.320088,-1628.453072,-9474.636058,-306.438199
830.320412,-1036.288319,-9030.512492,-153.219100
830.320737,518.144159,-9548.656652,76.609550
830.321061,2368.659014,-10214.842000,153.219100
830.321386,2368.659014,-10214.842000,459.657299
830.321710,1110.308913,-9918.759623,-153.219100
830.322034,-1480.411884,-9696.697840,-612.876398
830.322359,-2368.659014,-8734.430116,-2068.457845
830.322683,-1702.473667,-8882.471304,-1302.362347
830.323008,-222.061783,-9844.739029,-995.924147
830.323332,0.000000,-10066.800811,-1072.533697
830.323656,-962.267725,-9770.718434,-689.485948
830.323981,-1776.494261,-9622.677246,-842.705048
830.324305,-1332.370696,-9696.697840,-536.266849
830.324630,-296.082377,-9326.594869,0.000000
830.324954,740.205942,-9770.718434,306.438199
830.325279,888.247130,-10510.924376,306.438199
830.325603,-148.041188,-10955.047942,306.438199
830.325927,-1480.411884,-10362.883188,229.828649
830.326252,-2368.659014,-9696.697840,-229.828649
830.326576,-1184.329507,-9548.656652,-995.924147
830.326901,518.144159,-9622.677246,-459.657299
830.327225,814.226536,-9844.739029,-612.876398
830.327549,-444.123565,-10140.821405,-919.314598
830.327874,-1998.556043,-10288.862594,-1072.533697
830.328198,-2590.720797,-9326.594869,-1072.533697
830.328523,-1628.453072,-8734.430116,-536.266849
830.328847,148.041188,-7994.224174,0.000000
830.329172,2442.679609,-9474.636058,153.219100
830.329496,3478.967927,-10214.842000,612.876398
830.329820,1406.391290,-10436.903782,842.705048
830.330145,-222.061783,-9400.615463,536.266849
830.330469,-888.247130,-8438.347739,0.000000
830.330794,0.000000,-8438.347739,0.000000
830.331118,814.226536,-9252.574275,76.609550
830.331442,740.205942,-10066.800811,612.876398
830.331767,0.000000,-10214.842000,153.219100
830.332091,-1406.391290,-9400.615463,-459.657299
830.332416,-1924.535449,-8660.409521,0.000000
830.332740,-740.205942,-9104.533087,76.609550
830.333065,148.041188,-10066.800811,459.657299
830.333389,518.144159,-10658.965565,919.314598
830.333713,0.000000,-10140.821405,1225.752797
830.334038,-962.267725,-9622.677246,842.705048
830.334362,-1184.329507,-9252.574275,612.876398
830.334687,-444.123565,-8956.491898,612.876398
830.335011,666.185348,-9474.636058,612.876398
830.335335,814.226536,-10214.842000,306.438199
830.335660,0.000000,-9992.780217,76.609550
830.335984,-1184.329507,-9474.636058,0.000000
830.336309,-1332.370696,-8882.471304,-153.219100
830.336633,74.020594,-8808.450710,766.095498
830.336958,2072.576638,-9030.512492,766.095498
830.337282,3627.009116,-9326.594869,306.438199
830.337606,2886.803174,-9844.739029,766.095498
830.337931,1036.288319,-9844.739029,459.657299
830.338255,-814.226536,-9474.636058,-306.438199
830.338580,-1924.535449,-8586.388927,-229.828649
830.338904,-962.267725,-8660.409521,-536.266849
830.339228,370.102971,-9696.697840,0.000000
830.339553,814.226536,-9844.739029,0.000000
830.339877,222.061783,-10140.821405,-153.219100
830.340202,-592.164754,-9844.739029,-306.438199
830.340526,-740.205942,-9252.574275,-153.219100
830.340851,148.041188,-9178.553681,459.657299
830.341175,1628.453072,-10140.821405,612.876398
830.341499,1702.473667,-10955.047942,842.705048
830.341824,518.144159,-10955.047942,306.438199
830.342148,-1184.329507,-9918.759623,0.000000
830.342473,-1850.514855,-9844.739029,-919.314598
830.342797,-1332.370696,-9400.615463,-1302.362347
830.343121,0.000000,-9104.533087,-1302.362347
830.343446,592.164754,-9844.739029,-1149.143247
830.343770,0.000000,-10510.924376,-689.485948
830.344095,-1924.535449,-9548.656652,-536.266849
830.344419,-1776.494261,-8660.409521,-612.876398
830.344744,-444.123565,-8512.368333,-842.705048
830.345068,1628.453072,-9548.656652,-153.219100
830.345392,3034.844362,-10510.924376,306.438199
830.345717,2738.761985,-10510.924376,383.047749
830.346041,888.247130,-10140.821405,0.000000
830.346366,-888.247130,-9622.677246,-1072.533697
830.346690,-1480.411884,-9104.533087,-842.705048
830.347014,-592.164754,-9622.677246,-612.876398
830.347339,0.000000,-10362.883188,-766.095498
830.347663,0.000000,-10214.842000,-919.314598
830.347988,-740.205942,-9992.780217,-766.095498
830.348312,-1628.453072,-9696.697840,-766.095498
830.348636,-1480.411884,-9030.512492,-383.047749
830.348961,-296.082377,-8586.388927,76.609550
830.349285,148.041188,-9400.615463,153.219100
830.349610,814.226536,-10584.944971,306.438199
830.349934,-370.102971,-10288.862594,76.609550
830.350259,-1480.411884,-9326.594869,0.000000
830.350583,-1480.411884,-9252.574275,-306.438199
830.350907,-740.205942,-9400.615463,-459.657299
830.351232,1036.288319,-9400.615463,766.095498
830.351556,1110.308913,-9844.739029,76.609550
830.351881,-296.082377,-10066.800811,-306.438199
830.352205,-1628.453072,-10066.800811,-536.266849
830.352529,-1998.556043,-9178.553681,-383.047749
830.352854,-592.164754,-8956.491898,0.000000
830.353178,1480.411884,-9548.656652,383.047749
830.353503,2664.741391,-10140.821405,306.438199
830.353827,2146.597232,-10362.883188,612.876398
830.354152,518.144159,-10436.903782,76.609550
830.354476,-888.247130,-9622.677246,-383.047749
830.354800,-1332.370696,-8956.491898,-459.657299
830.355125,-222.061783,-9474.636058,-229.828649
830.355449,962.267725,-10510.924376,76.609550
830.355774,1702.473667,-10658.965565,153.219100
830.356098,814.226536,-10214.842000,536.266849
830.356422,-370.102971,-9474.636058,0.000000
830.356747,-148.041188,-9178.553681,0.000000
830.357071,962.267725,-9178.553681,536.266849
830.357396,2146.597232,-9844.739029,842.705048
830.357720,1776.494261,-10436.903782,766.095498
830.358045,296.082377,-10436.903782,459.657299
830.358369,-1184.329507,-9622.677246,-383.047749
830.358693,-1110.308913,-8586.388927,-229.828649
830.359018,148.041188,-9178.553681,0.000000
830.359342,1332.370696,-9474.636058,0.000000
830.359667,1258.350101,-9992.780217,229.828649
830.359991,0.000000,-10066.800811,306.438199
830.360315,-1554.432478,-9474.636058,-153.219100
830.360640,-1776.494261,-8512.368333,-153.219100
830.360964,-518.144159,-8068.244768,0.000000
830.361289,1332.370696,-9030.512492,459.657299
830.361613,3108.864956,-10510.924376,689.485948
830.361938,1702.473667,-10584.944971,383.047749
830.362262,-518.144159,-9770.718434,-153.219100
830.362586,-2368.659014,-8956.491898,-1378.971896
830.362911,-2220.617826,-8512.368333,-1532.190996
830.363235,-814.226536,-9400.615463,-1072.533697
830.363560,592.164754,-9918.759623,-766.095498
830.363884,1036.288319,-10066.800811,-383.047749
830.364208,-518.144159,-10066.800811,-536.266849
830.364533,-1554.432478,-9992.780217,-842.705048
830.364857,-1406.391290,-9474.636058,-766.095498
830.365182,0.000000,-9622.677246,0.000000
830.365506,1406.391290,-10807.006753,0.000000
830.365831,1628.453072,-10658.965565,536.266849
830.366155,-222.061783,-10214.842000,0.000000
830.366479,-1480.411884,-10066.800811,-612.876398
830.366804,-1702.473667,-9770.718434,-1149.143247
830.367128,-888.247130,-9252.574275,-1149.143247
830.367453,0.000000,-9548.656652,-919.314598
830.367777,-148.041188,-10362.883188,-919.314598
830.368101,-1332.370696,-10362.883188,-306.438199
830.368426,-3108.864956,-9770.718434,-383.047749
830.368750,-2738.761985,-9178.553681,-612.876398
830.369075,-962.267725,-9474.636058,-306.438199
830.369399,1850.514855,-10140.821405,459.657299
830.369724,3627.009116,-10510.924376,1225.752797
830.370048,2590.720797,-10658.965565,1149.143247
830.370372,222.061783,-9992.780217,536.266849
830.370697,-1184.329507,-9622.677246,0.000000
830.371021,-1628.453072,-8808.450710,229.828649
830.371346,222.061783,-9548.656652,0.000000
830.371670,592.164754,-9696.697840,0.000000
830.371994,370.102971,-10214.842000,0.000000
830.372319,-1036.288319,-9622.677246,-383.047749
830.372643,-1850.514855,-8660.409521,-306.438199
830.372968,-1628.453072,-8216.285956,153.219100
830.373292,0.000000,-8438.347739,995.924147
830.373617,1036.288319,-9104.533087,1072.533697
830.373941,1480.411884,-9474.636058,1532.190996
830.374265,296.082377,-9696.697840,1072.533697
830.374590,-518.144159,-9252.574275,536.266849
830.374914,-1036.288319,-8438.347739,766.095498
830.375239,0.000000,-8290.306550,612.876398
830.375563,1406.391290,-9104.533087,919.314598
830.375887,1776.494261,-10066.800811,995.924147
830.376212,-444.123565,-9844.739029,306.438199
830.376536,-1850.514855,-9696.697840,229.828649
830.376861,-1406.391290,-9474.636058,229.828649
830.377185,74.020594,-9104.533087,689.485948
830.377510,2442.679609,-9252.574275,842.705048
830.377834,2738.761985,-9622.677246,1072.533697
830.378158,2072.576638,-10140.821405,612.876398
830.378483,-296.082377,-9918.759623,-459.657299
830.378807,-1850.514855,-9178.553681,-1072.533697
830.379132,-1258.350101,-8734.430116,-766.095498
830.379456,296.082377,-9474.636058,-459.657299
830.379780,1628.453072,-9548.656652,-229.828649
830.380105,1258.350101,-9844.739029,-689.485948
830.380429,0.000000,-9770.718434,-459.657299
830.380754,-740.205942,-9696.697840,-919.314598
830.381078,0.000000,-9622.677246,0.000000
830.381403,1480.411884,-9770.718434,-76.609550
830.381727,2442.679609,-10584.944971,76.609550
830.382051,1776.494261,-10807.006753,306.438199
830.382376,0.000000,-10658.965565,-306.438199
830.382700,-1258.350101,-10214.842000,-766.095498
830.383025,-1850.514855,-9622.677246,-1608.800546
830.383349,-888.247130,-9548.656652,-689.485948
830.383673,370.102971,-9918.759623,-1455.581446
830.383998,0.000000,-10436.903782,-1302.362347
830.384322,-1850.514855,-10881.027347,-1532.190996
830.384647,-3330.926739,-10436.903782,-1455.581446
830.384971,-2516.700203,-9622.677246,-995.924147
830.385296,-592.164754,-8956.491898,-76.609550
830.385620,1850.514855,-9622.677246,153.219100
830.385944,2886.803174,-10140.821405,383.047749
830.386269,1702.473667,-10288.862594,0.000000
830.386593,370.102971,-10288.862594,-229.828649
830.386918,-962.267725,-8882.471304,-1149.143247
830.387242,-1036.288319,-8438.347739,-1072.533697
830.387566,222.061783,-8956.491898,-919.314598
830.387891,666.185348,-9474.636058,-995.924147
830.388215,0.000000,-9770.718434,-1072.533697
830.388540,-444.123565,-9252.574275,-689.485948
830.388864,-1924.535449,-8660.409521,-612.876398
830.389188,-814.226536,-8216.285956,0.000000
830.389513,814.226536,-8364.327145,229.828649
830.389837,1554.432478,-9474.636058,766.095498
830.390162,1110.308913,-10732.986159,766.095498
830.390486,-592.164754,-10362.883188,842.705048
830.390811,-1850.514855,-9104.533087,383.047749
830.391135,-1480.411884,-9178.553681,-229.828649
830.391459,-888.247130,-9474.636058,-306.438199
830.391784,148.041188,-9844.739029,0.000000
830.392108,148.041188,-10288.862594,0.000000
830.392433,-1036.288319,-10288.862594,0.000000
830.392757,-2368.659014,-9474.636058,-153.219100
830.393081,-2368.659014,-8438.347739,153.219100
830.393406,-296.082377,-8734.430116,612.876398
830.393730,2072.576638,-9696.697840,919.314598
830.394055,2664.741391,-9770.718434,1149.143247
830.394379,1776.494261,-9770.718434,919.314598
830.394704,-592.164754,-9400.615463,76.609550
830.395028,-1924.535449,-9104.533087,-306.438199
830.395352,-1406.391290,-8808.450710,-229.828649
830.395677,0.000000,-9770.718434,0.000000
830.396001,962.267725,-10436.903782,0.000000
830.396326,1258.350101,-10288.862594,0.000000
830.396650,592.164754,-9548.656652,76.609550
830.396974,0.000000,-9474.636058,0.000000
830.397299,444.123565,-9474.636058,229.828649
830.397623,1480.411884,-10066.800811,766.095498
830.397948,2220.617826,-10584.944971,766.095498
830.398272,1850.514855,-10732.986159,536.266849
830.398597,0.000000,-10362.883188,-229.828649
830.398921,-1480.411884,-10214.842000,-306.438199
830.399245,-1332.370696,-10066.800811,-612.876398
830.399570,-148.041188,-9770.718434,-229.828649
830.399894,296.082377,-9844.739029,-612.876398
830.400219,0.000000,-9918.759623,-689.485948
830.400543,-1258.350101,-10214.842000,-459.657299
830.400867,-2368.659014,-9548.656652,-536.266849
830.401192,-1628.453072,-8808.450710,-383.047749
830.401516,592.164754,-8586.388927,306.438199
830.401841,2738.761985,-9326.594869,689.485948
830.402165,3701.029710,-9992.780217,689.485948
830.402490,2442.679609,-10436.903782,919.314598
830.402814,74.020594,-9548.656652,306.438199
830.403138,-1628.453072,-8808.450710,-995.924147
830.403463,-1850.514855,-8956.491898,-536.266849
830.403787,-740.205942,-9474.636058,-536.266849
830.404112,0.000000,-10584.944971,-689.485948
830.404436,-74.020594,-10658.965565,-153.219100
830.404760,-888.247130,-9696.697840,-306.438199
830.405085,-1332.370696,-9030.512492,-766.095498
830.405409,-740.205942,-8512.368333,0.000000
830.405734,148.041188,-8734.430116,229.828649
830.406058,1480.411884,-10584.944971,536.266849
830.406383,740.205942,-10584.944971,383.047749
830.406707,-1036.288319,-9844.739029,383.047749
830.407031,-1702.473667,-9252.574275,-153.219100
830.407356,-1332.370696,-8734.430116,0.000000
830.407680,-222.061783,-9326.594869,0.000000
830.408005,-296.082377,-9326.594869,-306.438199
830.408329,-592.164754,-10214.842000,0.000000
830.408653,-1850.514855,-9474.636058,0.000000
830.408978,-3034.844362,-8734.430116,-842.705048
830.409302,-2220.617826,-8512.368333,-536.266849
830.409627,74.020594,-9252.574275,0.000000
830.409951,2294.638420,-9992.780217,536.266849
830.410276,2442.679609,-10066.800811,995.924147
830.410600,1554.432478,-10362.883188,0.000000
830.410924,-592.164754,-10140.821405,-229.828649
830.411249,-1628.453072,-9622.677246,-919.314598
830.411573,-1110.308913,-9770.718434,-306.438199
830.411898,370.102971,-10140.821405,0.000000
830.412222,962.267725,-10584.944971,0.000000
830.412546,518.144159,-10955.047942,-306.438199
830.412871,-296.082377,-10362.883188,-612.876398
830.413195,-1332.370696,-9770.718434,-306.438199
830.413520,-296.082377,-9548.656652,153.219100
830.413844,814.226536,-9696.697840,0.000000
830.414169,1702.473667,-10214.842000,76.609550
830.414493,1554.432478,-10732.986159,153.219100
830.414817,666.185348,-10881.027347,0.000000
830.415142,0.000000,-9992.780217,-919.314598
830.415466,444.123565,-8882.471304,229.828649
830.415790,888.247130,-8956.491898,-383.047749
830.416114,1110.308913,-9918.759623,-766.095498
830.416439,444.123565,-10436.903782,-229.828649
830.416763,-814.226536,-10510.924376,76.609550
830.417087,-1406.391290,-9474.636058,-306.438199
830.417412,-592.164754,-8956.491898,536.266849
830.417736,518.144159,-8068.244768,766.095498
830.418060,2664.741391,-9178.553681,536.266849
830.418384,2812.782580,-9992.780217,919.314598
830.418709,888.247130,-10066.800811,383.047749
830.419033,-1332.370696,-9548.656652,-153.219100
830.419357,-2220.617826,-8364.327145,-766.095498
830.419682,-1184.329507,-8364.327145,-612.876398
830.420006,222.061783,-8956.491898,0.000000
830.420330,1258.350101,-9474.636058,-229.828649
830.420654,740.205942,-9548.656652,536.266849
830.420979,-592.164754,-8956.491898,76.609550
830.421303,-1036.288319,-8660.409521,-229.828649
830.421627,-370.102971,-8216.285956,0.000000
830.421952,888.247130,-9474.636058,229.828649
830.422276,1776.494261,-10214.842000,306.438199
830.422600,888.247130,-10066.800811,1072.533697
830.422924,-444.123565,-9770.718434,0.000000
830.423249,-1406.391290,-8882.471304,0.000000
830.423573,-1332.370696,-9178.553681,-612.876398
830.423897,-296.082377,-9548.656652,-689.485948
830.424222,74.020594,-10066.800811,-689.485948
830.424546,-592.164754,-10658.965565,-306.438199
830.424870,-1776.494261,-10214.842000,-995.924147
830.425194,-2146.597232,-10140.821405,-1149.143247
830.425519,-1702.473667,-9104.533087,-842.705048
830.425843,592.164754,-9844.739029,0.000000
830.426167,2072.576638,-10807.006753,0.000000
830.426491,2072.576638,-11325.150913,536.266849
830.426816,518.144159,-10955.047942,153.219100
830.427140,-1184.329507,-10584.944971,-919.314598
830.427464,-1406.391290,-10362.883188,-842.705048
830.427789,-518.144159,-10214.842000,-459.657299
830.428113,444.123565,-10732.986159,-1378.971896
830.428437,1036.288319,-11029.068536,-459.657299
830.428761,148.041188,-10288.862594,-383.047749
830.429086,-666.185348,-9844.739029,-612.876398
830.429410,-740.205942,-9548.656652,-689.485948
830.429734,74.020594,-9178.553681,-459.657299
830.430059,1480.411884,-9548.656652,0.000000
830.430383,1628.453072,-9918.759623,76.609550
830.430707,1184.329507,-10658.965565,612.876398
830.431031,-444.123565,-9918.759623,76.609550
830.431356,-1184.329507,-9400.615463,0.000000
830.431680,-814.226536,-9178.553681,-229.828649
830.432004,0.000000,-9326.594869,-229.828649
830.432329,74.020594,-9474.636058,383.047749
830.432653,-296.082377,-9770.718434,536.266849
830.432977,-1776.494261,-9474.636058,612.876398
830.433301,-2516.700203,-8586.388927,0.000000
830.433626,-1702.473667,-7920.203579,383.047749
830.433950,444.123565,-8586.388927,995.924147
830.434274,2368.659014,-9252.574275,1302.362347
830.434599,2146.597232,-9326.594869,1455.581446
830.434923,148.041188,-9326.594869,995.924147
830.435247,-1110.308913,-9400.615463,306.438199
830.435571,-1776.494261,-8882.471304,-229.828649
830.435896,-888.247130,-8882.471304,-153.219100
830.436220,148.041188,-9474.636058,0.000000
830.436544,740.205942,-9992.780217,-306.438199
830.436868,0.000000,-9474.636058,76.609550
830.437193,-444.123565,-8734.430116,-459.657299
830.437517,-666.185348,-8660.409521,-459.657299
830.437841,0.000000,-8512.368333,76.609550
830.438166,1332.370696,-9474.636058,306.438199
830.438490,2368.659014,-10436.903782,766.095498
830.438814,1776.494261,-10584.944971,689.485948
830.439138,148.041188,-9992.780217,0.000000
830.439463,-518.144159,-9770.718434,0.000000
830.439787,-592.164754,-9400.615463,-383.047749
830.440111,592.164754,-9622.677246,0.000000
830.440436,814.226536,-10584.944971,-536.266849
830.440760,-222.061783,-10955.047942,-536.266849
830.441084,-1924.535449,-10584.944971,-1072.533697
830.441408,-2442.679609,-9992.780217,-1378.971896
830.441733,-1554.432478,-9326.594869,-995.924147
830.442057,592.164754,-9992.780217,0.000000
830.442381,2072.576638,-10881.027347,383.047749
830.442706,2516.700203,-11103.089130,76.609550
830.443030,888.247130,-10510.924376,459.657299
830.443354,-1036.288319,-10066.800811,-153.219100
830.443678,-1480.411884,-9696.697840,-306.438199
830.444003,-296.082377,-9696.697840,-153.219100
830.444327,518.144159,-9844.739029,459.657299
830.444651,370.102971,-9326.594869,0.000000
830.444976,74.020594,-8956.491898,-459.657299
830.445300,-1184.329507,-8808.450710,-1149.143247
830.445624,-1480.411884,-8512.368333,-995.924147
830.445948,-518.144159,-8142.265362,-612.876398
830.446273,592.164754,-8586.388927,0.000000
830.446597,1184.329507,-9104.533087,0.000000
830.446921,666.185348,-9030.512492,-153.219100
830.447245,-444.123565,-9252.574275,-459.657299
830.447570,-962.267725,-8956.491898,0.000000
830.447894,-444.123565,-9178.553681,-459.657299
830.448218,222.061783,-9326.594869,0.000000
830.448543,74.020594,-9770.718434,0.000000
830.448867,-592.164754,-9918.759623,-229.828649
830.449191,-2368.659014,-10066.800811,-536.266849
830.449515,-2590.720797,-9918.759623,-842.705048
830.449840,-2220.617826,-9326.594869,-689.485948
830.450164,0.000000,-9696.697840,0.000000
830.450488,1702.473667,-10362.883188,229.828649
830.450813,1406.391290,-10658.965565,76.609550
830.451137,-518.144159,-10807.006753,-383.047749
830.451461,-2294.638420,-9992.780217,-689.485948
830.451785,-2516.700203,-9474.636058,-919.314598
830.452110,-592.164754,-9622.677246,-612.876398
830.452434,1036.288319,-10436.903782,153.219100
830.452758,1480.411884,-10881.027347,0.000000
830.453083,888.247130,-10288.862594,0.000000
830.453407,0.000000,-9844.739029,-229.828649
830.453731,-444.123565,-9474.636058,0.000000
830.454055,222.061783,-9030.512492,459.657299
830.454380,1776.494261,-9400.615463,919.314598
830.454704,2072.576638,-10288.862594,842.705048
830.455028,1554.432478,-10510.924376,689.485948
830.455353,148.041188,-9992.780217,459.657299
830.455677,-592.164754,-9622.677246,0.000000
830.456001,-370.102971,-9030.512492,-459.657299
830.456325,592.164754,-9104.533087,-229.828649
830.456650,148.041188,-9844.739029,-612.876398
830.456974,-74.020594,-10436.903782,383.047749
830.457298,-1258.350101,-9918.759623,0.000000
830.457622,-1776.494261,-8956.491898,0.000000
830.457947,-592.164754,-8438.347739,306.438199
830.458271,1258.350101,-9400.615463,995.924147
830.458595,2590.720797,-10140.821405,1762.019645
830.458920,2220.617826,-10066.800811,995.924147
830.459244,444.123565,-9548.656652,1378.971896
830.459568,-740.205942,-9030.512492,612.876398
830.459892,-888.247130,-8882.471304,-229.828649
830.460217,0.000000,-8956.491898,0.000000
830.460541,888.247130,-9696.697840,0.000000
830.460865,740.205942,-9770.718434,0.000000
830.461190,592.164754,-9030.512492,-306.438199
830.461514,-296.082377,-9400.615463,229.828649
830.461838,-962.267725,-8956.491898,-153.219100
830.462162,-296.082377,-8808.450710,-153.219100
830.462487,1184.329507,-9844.739029,536.266849
830.462811,1924.535449,-10732.986159,689.485948
830.463135,962.267725,-10732.986159,306.438199
830.463460,-592.164754,-10140.821405,76.609550
830.463784,-962.267725,-10288.862594,-383.047749
830.464108,-518.144159,-9844.739029,-536.266849
830.464432,0.000000,-9918.759623,-229.828649
830.464757,0.000000,-10066.800811,-306.438199
830.465081,-962.267725,-10510.924376,-842.705048
830.465405,-2146.597232,-10288.862594,-919.314598
830.465730,-2294.638420,-9474.636058,-1149.143247
830.466054,-1036.288319,-9252.574275,-1225.752797
830.466378,888.247130,-9474.636058,-766.095498
830.466702,2220.617826,-9548.656652,-459.657299
830.467027,2368.659014,-10362.883188,-153.219100
830.467351,518.144159,-10955.047942,-153.219100
830.467675,-1184.329507,-10140.821405,-689.485948
830.467999,-1554.432478,-9252.574275,-995.924147
830.468324,-592.164754,-9474.636058,-536.266849
830.468648,518.144159,-10510.924376,-459.657299
830.468972,518.144159,-10807.006753,0.000000
830.469297,-370.102971,-9918.759623,536.266849
830.469621,-1480.411884,-9252.574275,153.219100
830.469945,-1258.350101,-8660.409521,0.000000
830.470269,-148.041188,-8734.430116,306.438199
830.470594,518.144159,-9252.574275,536.266849
830.470918,962.267725,-10288.862594,536.266849
830.471242,0.000000,-10066.800811,153.219100
830.471567,-1480.411884,-9178.553681,0.000000
830.471891,-2146.597232,-8438.347739,-689.485948
830.472215,-888.247130,-8438.347739,-612.876398
830.472539,814.226536,-9474.636058,0.000000
830.472864,888.247130,-9992.780217,153.219100
830.473188,-296.082377,-10066.800811,153.219100
830.473512,-1776.494261,-9548.656652,76.609550
830.473837,-2072.576638,-8586.388927,0.000000
830.474161,-370.102971,-8956.491898,689.485948
830.474485,2146.597232,-9030.512492,1149.143247
830.474809,3404.947333,-9400.615463,1608.800546
830.475134,3404.947333,-10288.862594,1532.190996
830.475458,1184.329507,-9992.780217,766.095498
830.475782,-962.267725,-9474.636058,-153.219100
830.476107,-1850.514855,-8586.388927,-229.828649
830.476431,-1110.308913,-9252.574275,0.000000
830.476755,-296.082377,-10066.800811,-229.828649
830.477079,296.082377,-10436.903782,76.609550
830.477404,-518.144159,-9474.636058,-153.219100
830.477728,-962.267725,-9400.615463,-383.047749
830.478052,-444.123565,-8882.471304,0.000000
830.478376,666.185348,-9104.533087,459.657299
830.478701,1702.473667,-9622.677246,306.438199
830.479025,1924.535449,-11103.089130,689.485948
830.479349,888.247130,-10807.006753,536.266849
830.479674,-296.082377,-9844.739029,0.000000
830.479998,-518.144159,-9992.780217,-612.876398
830.480322,148.041188,-9770.718434,-612.876398
830.480646,1036.288319,-10066.800811,-536.266849
830.480971,1110.308913,-10732.986159,-612.876398
830.481295,-296.082377,-10214.842000,-536.266849
830.481619,-1702.473667,-9918.759623,-842.705048
830.481944,-1924.535449,-9030.512492,-1225.752797
830.482268,-592.164754,-8586.388927,-689.485948
830.482592,1184.329507,-9844.739029,-229.828649
830.482916,2664.741391,-10732.986159,229.828649
830.483241,2294.638420,-10584.944971,76.609550
830.483565,-370.102971,-9696.697840,-306.438199
830.483889,-2294.638420,-9030.512492,-1608.800546
830.484214,-2516.700203,-9252.574275,-1532.190996
830.484538,-1480.411884,-9918.759623,-919.314598
830.484862,222.061783,-10658.965565,-536.266849
830.485186,444.123565,-10658.965565,-459.657299
830.485511,0.000000,-9918.759623,-306.438199
830.485835,-888.247130,-9326.594869,-306.438199
830.486159,-1036.288319,-8438.347739,76.609550
830.486484,0.000000,-9918.759623,612.876398
830.486808,962.267725,-9770.718434,612.876398
830.487132,1036.288319,-10214.842000,383.047749
830.487456,0.000000,-9844.739029,153.219100
830.487781,-1036.288319,-9474.636058,0.000000
830.488105,-1776.494261,-9326.594869,-459.657299
830.488429,-740.205942,-9252.574275,153.219100
830.488753,-370.102971,-9474.636058,153.219100
830.489078,0.000000,-9622.677246,0.000000
830.489402,-740.205942,-9844.739029,76.609550
830.489726,-2072.576638,-9326.594869,229.828649
830.490051,-2072.576638,-8660.409521,459.657299
830.490375,-296.082377,-8882.471304,1072.533697
830.490699,1480.411884,-9548.656652,766.095498
830.491023,2812.782580,-9622.677246,2068.457845
830.491348,2146.597232,-9622.677246,1378.971896
830.491672,222.061783,-9696.697840,1455.581446
830.491996,-1554.432478,-9548.656652,459.657299
830.492321,-2368.659014,-8882.471304,153.219100
830.492645,-1702.473667,-8660.409521,0.000000
830.492969,-222.061783,-9548.656652,0.000000
830.493293,296.082377,-9622.677246,76.609550
830.493618,0.000000,-9844.739029,0.000000
830.493942,-1110.308913,-8882.471304,229.828649
830.494266,-1332.370696,-8068.244768,766.095498
830.494591,0.000000,-9030.512492,766.095498
830.494915,1036.288319,-9918.759623,1378.971896
830.495239,1184.329507,-10807.006753,995.924147
830.495563,518.144159,-10732.986159,459.657299
830.495888,-370.102971,-10066.800811,76.609550
830.496212,-592.164754,-9252.574275,-306.438199
830.496536,0.000000,-9548.656652,229.828649
830.496861,518.144159,-10066.800811,0.000000
830.497185,814.226536,-10658.965565,0.000000
830.497509,-222.061783,-10288.862594,0.000000
830.497833,-1110.308913,-9770.718434,-229.828649
830.498158,-518.144159,-8882.471304,-383.047749
830.498482,296.082377,-8956.491898,229.828649
830.498806,2738.761985,-9474.636058,536.266849
830.499130,3108.864956,-9918.759623,0.000000
830.499455,2220.617826,-10436.903782,229.828649
830.499779,592.164754,-9992.780217,0.000000
830.500103,-444.123565,-9548.656652,-459.657299
830.500428,-592.164754,-8808.450710,-383.047749
830.500752,0.000000,-9326.594869,-1072.533697
830.501076,1036.288319,-10288.862594,-1149.143247
830.501400,1258.350101,-10066.800811,-766.095498
830.501725,814.226536,-9696.697840,-766.095498
830.502049,-222.061783,-8956.491898,-536.266849
830.502373,0.000000,-8586.388927,-459.657299
830.502698,962.267725,-8512.368333,-536.266849
830.503022,1480.411884,-9548.656652,-306.438199
830.503346,1480.411884,-10510.924376,-306.438199
830.503670,370.102971,-10510.924376,0.000000
830.503995,-888.247130,-9918.759623,-306.438199
830.504319,-1480.411884,-9030.512492,-766.095498
830.504643,-1258.350101,-9030.512492,-1838.629195
830.504968,74.020594,-10288.862594,-1608.800546
830.505292,74.020594,-10881.027347,-1072.533697
830.505616,-1184.329507,-10658.965565,-1225.752797
830.505940,-2368.659014,-9770.718434,-1225.752797
830.506265,-1850.514855,-9104.533087,-842.705048
830.506589,-518.144159,-8808.450710,-995.924147
830.506913,1258.350101,-9918.759623,76.609550
830.507238,2442.679609,-10658.965565,0.000000
830.507562,1184.329507,-11103.089130,0.000000
830.507886,-518.144159,-10362.883188,-536.266849
830.508210,-1850.514855,-9252.574275,-995.924147
830.508535,-1628.453072,-9030.512492,-995.924147
830.508859,-518.144159,-9696.697840,-1225.752797
830.509183,222.061783,-10066.800811,-612.876398
830.509507,222.061783,-9918.759623,-306.438199
830.509832,-296.082377,-9622.677246,-383.047749
830.510156,-888.247130,-8956.491898,-536.266849
830.510480,-666.185348,-8512.368333,-229.828649
830.510805,592.164754,-9252.574275,0.000000
830.511129,1406.391290,-10066.800811,0.000000
830.511453,814.226536,-10584.944971,306.438199
830.511777,-518.144159,-10584.944971,0.000000
830.512102,-1258.350101,-9474.636058,0.000000
830.512426,-1406.391290,-9400.615463,-229.828649
830.512750,-666.185348,-9474.636058,0.000000
830.513074,222.061783,-10140.821405,0.000000
830.513398,296.082377,-10066.800811,536.266849
830.513722,-296.082377,-10362.883188,612.876398
830.514047,-814.226536,-9474.636058,1225.752797
830.514371,-666.185348,-8956.491898,383.047749
830.514695,518.144159,-9622.677246,1149.143247
830.515019,2220.617826,-10066.800811,1302.362347
830.515343,2664.741391,-10510.924376,1608.800546
830.515667,1702.473667,-10362.883188,1532.190996
830.515991,0.000000,-9770.718434,1149.143247
830.516316,-1332.370696,-8660.409521,229.828649
830.516640,-740.205942,-9400.615463,383.047749
830.516964,74.020594,-9548.656652,536.266849
830.517288,592.164754,-9918.759623,0.000000
830.517612,518.144159,-9548.656652,689.485948
830.517936,0.000000,-9104.533087,689.485948
830.518260,-518.144159,-8882.471304,995.924147
830.518585,-296.082377,-8438.347739,1378.971896
830.518909,962.267725,-8586.388927,1302.362347
830.519233,1258.350101,-9474.636058,1608.800546
830.519557,518.144159,-9474.636058,1378.971896
830.519881,-444.123565,-9696.697840,1225.752797
830.520205,-1332.370696,-9178.553681,689.485948
830.520529,-1332.370696,-8290.306550,306.438199
830.520854,-518.144159,-8438.347739,383.047749
830.521178,148.041188,-8882.471304,229.828649
830.521502,0.000000,-9844.739029,306.438199
830.521826,-1480.411884,-9622.677246,0.000000
830.522150,-2442.679609,-9178.553681,-153.219100
830.522474,-1776.494261,-8808.450710,-306.438199
830.522798,296.082377,-9178.553681,0.000000
830.523123,2368.659014,-10362.883188,306.438199
830.523447,2664.741391,-10807.006753,-229.828649
830.523771,1480.411884,-10066.800811,459.657299
830.524095,-518.144159,-9770.718434,-229.828649
830.524419,-962.267725,-9548.656652,-995.924147
830.524743,-1332.370696,-9474.636058,-1072.533697
830.525067,74.020594,-10362.883188,-842.705048
830.525392,814.226536,-10955.047942,-919.314598
830.525716,444.123565,-10955.047942,-766.095498
830.526040,-1036.288319,-9918.759623,-459.657299
830.526364,-1850.514855,-8956.491898,-1915.238745
830.526688,-962.267725,-9178.553681,-1225.752797
830.527012,370.102971,-9622.677246,-612.876398
830.527336,1332.370696,-10955.047942,-995.924147
830.527661,814.226536,-11103.089130,-536.266849
830.527985,-148.041188,-10510.924376,-459.657299
830.528309,-740.205942,-10214.842000,-842.705048
830.528633,-592.164754,-9844.739029,-2374.896044
830.528957,0.000000,-9474.636058,-1225.752797
830.529281,518.144159,-10140.821405,-1378.971896
830.529605,148.041188,-10362.883188,-1378.971896
830.529930,-962.267725,-10288.862594,-1302.362347
830.530254,-2368.659014,-9474.636058,-1762.019645
830.530578,-1628.453072,-8734.430116,-1455.581446
830.530902,444.123565,-9474.636058,-995.924147
830.531226,1776.494261,-9474.636058,-842.705048
830.531550,2368.659014,-10362.883188,229.828649
830.531874,592.164754,-10066.800811,-383.047749
830.532199,-1258.350101,-9696.697840,-689.485948
830.532523,-1702.473667,-9548.656652,-995.924147
830.532847,-1036.288319,-9474.636058,-612.876398
830.533171,518.144159,-9770.718434,0.000000
830.533495,962.267725,-9770.718434,0.000000
830.533819,592.164754,-9770.718434,0.000000
830.534143,-666.185348,-9474.636058,0.000000
830.534468,-1628.453072,-8808.450710,-306.438199
830.534792,-1258.350101,-8660.409521,76.609550
830.535116,74.020594,-9252.574275,689.485948
830.535440,1036.288319,-9844.739029,1149.143247
830.535764,1184.329507,-10362.883188,995.924147
830.536088,-444.123565,-9474.636058,1225.752797
830.536412,-888.247130,-9326.594869,612.876398
830.536737,-592.164754,-8956.491898,383.047749
830.537061,-74.020594,-8882.471304,612.876398
830.537385,518.144159,-9474.636058,536.266849
830.537709,0.000000,-9622.677246,536.266849
830.538033,-814.226536,-9548.656652,383.047749
830.538357,-1554.432478,-9104.533087,229.828649
830.538681,-962.267725,-8290.306550,919.314598
830.539006,370.102971,-8512.368333,842.705048
830.539330,2220.617826,-9474.636058,1378.971896
830.539654,2516.700203,-10066.800811,1225.752797
830.539978,1036.288319,-10436.903782,1378.971896
830.540302,-370.102971,-9770.718434,919.314598
830.540626,-1258.350101,-8956.491898,459.657299
830.540950,0.000000,-8660.409521,153.219100
830.541275,592.164754,-9252.574275,0.000000
830.541599,1258.350101,-10510.924376,153.219100
830.541923,888.247130,-10584.944971,536.266849
830.542247,-370.102971,-9622.677246,229.828649
830.542571,-814.226536,-9104.533087,229.828649
830.542895,0.000000,-8956.491898,383.047749
830.543219,814.226536,-9474.636058,689.485948
830.543544,1776.494261,-10955.047942,842.705048
830.543868,740.205942,-10807.006753,689.485948
830.544192,-518.144159,-10288.862594,459.657299
830.544516,-1554.432478,-9770.718434,0.000000
830.544840,-1258.350101,-9400.615463,-306.438199
830.545164,-444.123565,-9474.636058,-536.266849
830.545488,0.000000,-9770.718434,-689.485948
830.545813,-296.082377,-10214.842000,-536.266849
830.546137,-1184.329507,-10066.800811,-229.828649
830.546461,-2294.638420,-9178.553681,-612.876398
830.546785,-1110.308913,-9178.553681,-612.876398
830.547109,592.164754,-9400.615463,-76.609550
830.547433,2368.659014,-10288.862594,0.000000
830.547757,2886.803174,-10955.047942,536.266849
830.548082,740.205942,-10658.965565,153.219100
830.548406,-888.247130,-10214.842000,-229.828649
830.548730,-1628.453072,-9696.697840,-536.266849
830.549054,-962.267725,-9696.697840,-536.266849
830.549378,0.000000,-10214.842000,-689.485948
830.549702,0.000000,-10584.944971,-612.876398
830.550026,-370.102971,-10214.842000,-612.876398
830.550351,-1110.308913,-9474.636058,-153.219100
830.550675,-1406.391290,-9030.512492,0.000000
830.550999,-1184.329507,-8290.306550,-536.266849
830.551323,0.000000,-8808.450710,76.609550
830.551647,148.041188,-9992.780217,0.000000
830.551971,74.020594,-10066.800811,0.000000
830.552295,-1036.288319,-9252.574275,153.219100
830.552620,-1110.308913,-8290.306550,0.000000
830.552944,-592.164754,-8142.265362,-153.219100
830.553268,222.061783,-8586.388927,0.000000
830.553592,1480.411884,-9400.615463,383.047749
830.553916,148.041188,-10214.842000,76.609550
830.554240,-1184.329507,-9696.697840,-229.828649
830.554564,-1924.535449,-8660.409521,0.000000
830.554889,-1258.350101,-8290.306550,0.000000
830.555213,962.267725,-8364.327145,306.438199
830.555537,2590.720797,-9696.697840,536.266849
830.555861,3108.864956,-9844.739029,1072.533697
830.556185,1702.473667,-9992.780217,689.485948
830.556509,0.000000,-9770.718434,0.000000
830.556833,-666.185348,-9030.512492,-306.438199
830.557158,74.020594,-9104.533087,-459.657299
830.557482,1406.391290,-9696.697840,-766.095498
830.557806,1628.453072,-11103.089130,-459.657299
830.558130,1406.391290,-10732.986159,-459.657299
830.558454,444.123565,-9696.697840,-153.219100
830.558778,0.000000,-9474.636058,-153.219100
830.559102,814.226536,-9548.656652,0.000000
830.559427,1184.329507,-10436.903782,76.609550
830.559751,1628.453072,-11177.109724,0.000000
830.560075,740.205942,-11177.109724,-229.828649
830.560399,-370.102971,-10288.862594,-229.828649
830.560723,-888.247130,-9918.759623,-306.438199
830.561047,-296.082377,-9622.677246,-459.657299
830.561371,518.144159,-9770.718434,-383.047749
830.561696,740.205942,-10362.883188,-612.876398
830.562020,-370.102971,-10658.965565,-536.266849
830.562344,-1628.453072,-10658.965565,-1072.533697
830.562668,-2590.720797,-9252.574275,-306.438199
830.562992,-1850.514855,-8956.491898,-459.657299
830.563316,74.020594,-9178.553681,-612.876398
830.563640,1480.411884,-9918.759623,-459.657299
830.563965,1258.350101,-10362.883188,-229.828649
830.564289,-444.123565,-9918.759623,0.000000
830.564613,-1924.535449,-9326.594869,-766.095498
830.564937,-2146.597232,-8882.471304,-459.657299
830.565261,-666.185348,-8734.430116,-536.266849
830.565585,444.123565,-8956.491898,-689.485948
830.565909,1258.350101,-10140.821405,383.047749
830.566234,222.061783,-9326.594869,0.000000
830.566558,-296.082377,-9326.594869,766.095498
830.566882,-666.185348,-8586.388927,76.609550
830.567206,-444.123565,-7994.224174,153.219100
830.567530,370.102971,-8882.471304,153.219100
830.567854,814.226536,-10362.883188,383.047749
830.568178,0.000000,-10214.842000,153.219100
830.568503,-888.247130,-9326.594869,0.000000
830.568827,-1702.473667,-8512.368333,-229.828649
830.569151,-1480.411884,-8808.450710,0.000000
830.569475,-296.082377,-9252.574275,-229.828649
830.569799,0.000000,-10066.800811,0.000000
830.570123,-1110.308913,-10732.986159,383.047749
830.570447,-2072.576638,-10066.800811,306.438199
830.570772,-1924.535449,-10140.821405,612.876398
830.571096,-1036.288319,-9252.574275,1149.143247
830.571420,1332.370696,-9918.759623,995.924147
830.571744,2442.679609,-10732.986159,1149.143247
830.572068,2220.617826,-10732.986159,1302.362347
830.572392,370.102971,-10288.862594,842.705048
830.572716,-1480.411884,-9252.574275,0.000000
830.573041,-1850.514855,-9400.615463,-229.828649
830.573365,-1406.391290,-9326.594869,-612.876398
830.573689,-148.041188,-10214.842000,-689.485948
830.574013,592.164754,-10288.862594,0.000000
830.574337,0.000000,-9918.759623,612.876398
830.574661,-1036.288319,-9548.656652,306.438199
830.574985,-1258.350101,-8512.368333,612.876398
830.575310,296.082377,-8438.347739,842.705048
830.575634,1702.473667,-9474.636058,842.705048
830.575958,2442.679609,-10658.965565,1149.143247
830.576282,1924.535449,-10658.965565,1225.752797
830.576606,148.041188,-9696.697840,766.095498
830.576930,-1036.288319,-9030.512492,0.000000
830.577254,-888.247130,-9030.512492,-153.219100
830.577579,0.000000,-9474.636058,-612.876398
830.577903,444.123565,-10066.800811,-919.314598
830.578227,-222.061783,-10288.862594,-229.828649
830.578551,-1332.370696,-9474.636058,0.000000
830.578875,-1554.432478,-8956.491898,-153.219100
830.579199,-222.061783,-8586.388927,0.000000
830.579523,2220.617826,-9178.553681,459.657299
830.579848,3701.029710,-9622.677246,229.828649
830.580172,3034.844362,-9770.718434,306.438199
830.580496,1110.308913,-10066.800811,153.219100
830.580820,-1036.288319,-9844.739029,-1149.143247
830.581144,-1332.370696,-9326.594869,-1225.752797
830.581468,-444.123565,-9696.697840,-1072.533697
830.581792,1184.329507,-10510.924376,-1455.581446
830.582117,1480.411884,-10436.903782,-1149.143247
830.582441,592.164754,-9770.718434,-766.095498
830.582765,-74.020594,-9696.697840,-919.314598
830.583089,-148.041188,-8882.471304,-1225.752797
830.583413,296.082377,-8956.491898,-766.095498
830.583737,1554.432478,-9992.780217,-306.438199
830.584061,1924.535449,-11029.068536,0.000000
830.584386,888.247130,-10658.965565,0.000000
830.584710,-740.205942,-9622.677246,-766.095498
830.585034,-1776.494261,-9622.677246,-766.095498
830.585358,-1406.391290,-9474.636058,-842.705048
830.585682,-666.185348,-9918.759623,-689.485948
830.586006,-444.123565,-10510.924376,-919.314598
830.586330,-1628.453072,-10955.047942,-842.705048
830.586655,-2516.700203,-10510.924376,-1072.533697
830.586979,-2146.597232,-9030.512492,-536.266849
830.587303,74.020594,-9030.512492,-76.609550
830.587627,1776.494261,-9474.636058,153.219100
830.587951,2886.803174,-9992.780217,306.438199
830.588275,2294.638420,-10362.883188,306.438199
830.588599,148.041188,-10140.821405,-229.828649
830.588924,-1554.432478,-9918.759623,-383.047749
830.589248,-1850.514855,-8956.491898,-995.924147
830.589572,-814.226536,-8882.471304,-842.705048
830.589896,444.123565,-9474.636058,-459.657299
830.590220,518.144159,-9622.677246,0.000000
830.590544,148.041188,-9474.636058,306.438199
830.590868,-1184.329507,-9030.512492,-153.219100
830.591193,-1184.329507,-8438.347739,229.828649
830.591517,74.020594,-8956.491898,612.876398
830.591841,1332.370696,-9770.718434,1225.752797
830.592165,1184.329507,-10288.862594,995.924147
830.592489,148.041188,-10066.800811,689.485948
830.592813,-1036.288319,-9548.656652,-306.438199
830.593137,-1554.432478,-9622.677246,-76.609550
830.593462,-1258.350101,-9474.636058,-153.219100
830.593786,-370.102971,-9844.739029,-306.438199
830.594110,-148.041188,-10584.944971,-153.219100
830.594434,-1110.308913,-10584.944971,-153.219100
830.594758,-1924.535449,-9918.759623,0.000000
830.595082,-2146.597232,-9252.574275,536.266849
830.595406,296.082377,-9474.636058,919.314598
830.595731,2294.638420,-9474.636058,1149.143247
830.596055,3256.906145,-10066.800811,1225.752797
830.596379,2664.741391,-10658.965565,1149.143247
830.596703,518.144159,-10658.965565,612.876398
830.597027,-1332.370696,-9844.739029,-306.438199
830.597351,-1998.556043,-8734.430116,-766.095498
830.597675,-518.144159,-9474.636058,-306.438199
830.598000,962.267725,-10066.800811,-612.876398
830.598324,1480.411884,-9992.780217,-306.438199
830.598648,1036.288319,-9474.636058,-306.438199
830.598972,-518.144159,-8956.491898,0.000000
830.599296,-518.144159,-8734.430116,76.609550
830.599620,370.102971,-8734.430116,612.876398
830.599944,1554.432478,-9918.759623,1072.533697
830.600269,1628.453072,-10510.924376,919.314598
830.600593,444.123565,-10288.862594,1685.410096
830.600917,-1036.288319,-9474.636058,1149.143247
830.601241,-1184.329507,-9030.512492,689.485948
830.601565,-518.144159,-8882.471304,76.609550
830.601889,444.123565,-9474.636058,153.219100
830.602213,222.061783,-10066.800811,229.828649
830.602538,-962.267725,-10140.821405,306.438199
830.602862,-2368.659014,-9400.615463,459.657299
830.603186,-1776.494261,-8586.388927,76.609550
830.603510,-666.185348,-8216.285956,-306.438199
830.603834,1184.329507,-9326.594869,689.485948
830.604158,2368.659014,-9992.780217,689.485948
830.604482,1702.473667,-9770.718434,919.314598
830.604807,148.041188,-9992.780217,689.485948
830.605131,-1702.473667,-9400.615463,0.000000
830.605455,-2294.638420,-8660.409521,0.000000
830.605779,-962.267725,-9104.533087,-229.828649
830.606103,74.020594,-9622.677246,-995.924147
830.606427,148.041188,-9992.780217,-459.657299
830.606751,-888.247130,-9844.739029,-306.438199
830.607076,-1554.432478,-9622.677246,-612.876398
830.607400,-1554.432478,-9178.553681,-153.219100
830.607724,-296.082377,-9178.553681,-229.828649
830.608048,888.247130,-10362.883188,-153.219100
830.608372,814.226536,-10955.047942,153.219100
830.608696,444.123565,-11103.089130,0.000000
830.609020,-592.164754,-10362.883188,-383.047749
830.609345,-740.205942,-9918.759623,-612.876398
830.609669,-296.082377,-9548.656652,-995.924147
830.609993,296.082377,-9770.718434,-459.657299
830.610317,-296.082377,-10658.965565,-995.924147
830.610641,-1258.350101,-11103.089130,-612.876398
830.610965,-2368.659014,-10362.883188,-1225.752797
830.611289,-1776.494261,-9474.636058,-1072.533697
830.611614,0.000000,-8808.450710,-995.924147
830.611938,1776.494261,-9474.636058,-383.047749
830.612262,2590.720797,-10140.821405,229.828649
830.612586,2072.576638,-10436.903782,-153.219100
830.612907,0.000000,-9844.739029,-306.438199
830.613232,-1480.411884,-9400.615463,-612.876398
830.613556,-1480.411884,-8808.450710,-1072.533697
830.613880,74.020594,-9178.553681,-995.924147
830.614204,1702.473667,-10288.862594,-766.095498
830.614528,1776.494261,-10658.965565,-383.047749
830.614852,962.267725,-10214.842000,76.609550
830.615176,-296.082377,-9178.553681,-306.438199
830.615500,296.082377,-8660.409521,0.000000
830.615824,814.226536,-9178.553681,-383.047749
830.616148,1850.514855,-10288.862594,612.876398
830.616473,1776.494261,-10658.965565,536.266849
830.616797,666.185348,-10214.842000,459.657299
830.617121,-518.144159,-9326.594869,383.047749
830.617445,-1036.288319,-8438.347739,0.000000
830.617769,-814.226536,-8956.491898,153.219100
830.618093,0.000000,-9104.533087,-153.219100
830.618417,-222.061783,-9770.718434,-153.219100
830.618741,-1184.329507,-9622.677246,-229.828649
830.619065,-1924.535449,-9030.512492,0.000000
830.619389,-1406.391290,-8142.265362,153.219100
830.619714,222.061783,-8216.285956,919.314598
830.620038,2442.679609,-9622.677246,1302.362347
830.620362,2368.659014,-10140.821405,1378.971896
830.620686,1036.288319,-9918.759623,1455.581446
830.621010,-592.164754,-9622.677246,689.485948
830.621334,-1776.494261,-9252.574275,153.219100
830.621658,-1258.350101,-8586.388927,0.000000
830.621982,0.000000,-9104.533087,76.609550
830.622306,888.247130,-9696.697840,-306.438199
830.622630,370.102971,-9696.697840,-383.047749
830.622954,-592.164754,-9178.553681,0.000000
830.623279,-2146.597232,-9104.533087,-306.438199
830.623603,-1702.473667,-8882.471304,-153.219100
830.623927,-444.123565,-9474.636058,306.438199
830.624251,1258.350101,-10362.883188,536.266849
830.624575,1258.350101,-11029.068536,842.705048
830.624899,444.123565,-10955.047942,1302.362347
830.625223,-296.082377,-9844.739029,0.000000
830.625547,-592.164754,-9326.594869,-306.438199
830.625871,-444.123565,-9696.697840,-459.657299
830.626195,148.041188,-10510.924376,-536.266849
830.626520,0.000000,-11177.109724,-459.657299
830.626844,-814.226536,-10584.944971,-612.876398
830.627168,-1628.453072,-10288.862594,0.000000
830.627492,-1776.494261,-9400.615463,-995.924147
830.627816,0.000000,-9326.594869,-306.438199
830.628140,1998.556043,-9992.780217,459.657299
830.628464,2368.659014,-10658.965565,383.047749
830.628788,1184.329507,-11103.089130,459.657299
830.629112,-592.164754,-10732.986159,76.609550
830.629436,-1184.329507,-10140.821405,-766.095498
830.629761,-666.185348,-9474.636058,0.000000
830.630085,0.000000,-9548.656652,-612.876398
830.630409,592.164754,-10140.821405,-689.485948
830.630733,370.102971,-10214.842000,-459.657299
830.631057,-666.185348,-9622.677246,-536.266849
830.631381,-1332.370696,-9104.533087,-919.314598
830.631705,-1110.308913,-8660.409521,-536.266849
830.632029,666.185348,-8882.471304,229.828649
830.632353,1924.535449,-9400.615463,1072.533697
830.632677,1776.494261,-9844.739029,536.266849
830.633001,0.000000,-9548.656652,536.266849
830.633326,-1184.329507,-8956.491898,306.438199
830.633650,-1258.350101,-8660.409521,306.438199
830.633974,0.000000,-8734.430116,153.219100
830.634298,814.226536,-9326.594869,536.266849
830.634622,0.000000,-9474.636058,-153.219100
830.634946,-1110.308913,-9548.656652,-306.438199
830.635270,-1776.494261,-8882.471304,-153.219100
830.635594,-1554.432478,-8586.388927,-229.828649
830.635918,-370.102971,-8734.430116,76.609550
830.636242,1036.288319,-9474.636058,229.828649
830.636567,1924.535449,-9992.780217,766.095498
830.636891,592.164754,-9770.718434,1149.143247
830.637215,0.000000,-10288.862594,766.095498
830.637539,-592.164754,-9622.677246,-306.438199
830.637863,74.020594,-9104.533087,-153.219100
830.638187,666.185348,-9696.697840,-229.828649
830.638511,1036.288319,-10510.924376,-153.219100
830.638835,370.102971,-10658.965565,0.000000
830.639159,-962.267725,-10140.821405,-766.095498
830.639483,-962.267725,-9104.533087,-766.095498
830.639807,0.000000,-9252.574275,153.219100
830.640132,1776.494261,-9696.697840,76.609550
830.640456,2886.803174,-10436.903782,153.219100
830.640780,2294.638420,-10436.903782,0.000000
830.641104,740.205942,-10288.862594,0.000000
830.641428,-592.164754,-10214.842000,-536.266849
830.641752,-444.123565,-9548.656652,-766.095498
830.642076,0.000000,-8956.491898,-612.876398
830.642400,888.247130,-9918.759623,-536.266849
830.642724,666.185348,-10658.965565,-919.314598
830.643048,-444.123565,-11029.068536,-383.047749
830.643373,-1110.308913,-10362.883188,0.000000
830.643697,-1036.288319,-9474.636058,-383.047749
830.644021,0.000000,-8882.471304,0.000000
830.644345,1628.453072,-9548.656652,459.657299
830.644669,1924.535449,-10214.842000,76.609550
830.644993,666.185348,-10362.883188,153.219100
830.645317,-1110.308913,-9992.780217,-383.047749
830.645641,-2146.597232,-8734.430116,-1072.533697
830.645965,-1480.411884,-8586.388927,-1378.971896
830.646289,-222.061783,-9474.636058,-1225.752797
830.646614,592.164754,-10362.883188,-919.314598
830.646938,592.164754,-10510.924376,-689.485948
830.647262,0.000000,-9770.718434,-459.657299
830.647586,-1184.329507,-8808.450710,-306.438199
830.647910,-666.185348,-8586.388927,-306.438199
830.648234,1036.288319,-9030.512492,229.828649
830.648558,2072.576638,-9770.718434,766.095498
830.648882,1480.411884,-9844.739029,1302.362347
830.649206,222.061783,-9770.718434,536.266849
830.649530,-1110.308913,-9030.512492,-153.219100
830.649854,-1702.473667,-8438.347739,-459.657299
830.650179,-1850.514855,-9104.533087,-76.609550
830.650503,-1258.350101,-9918.759623,-842.705048
830.650827,-1554.432478,-10362.883188,-306.438199
830.651151,-2368.659014,-9992.780217,-536.266849
830.651475,-2442.679609,-9474.636058,0.000000
830.651799,-1776.494261,-8882.471304,-76.609550
830.652123,0.000000,-9548.656652,76.609550
830.652447,1628.453072,-9918.759623,612.876398
830.652771,2294.638420,-10436.903782,1072.533697
830.653095,1332.370696,-10732.986159,1455.581446
830.653420,0.000000,-10584.944971,995.924147
830.653744,-1184.329507,-9548.656652,536.266849
830.654068,-1184.329507,-8808.450710,76.609550
830.654392,-222.061783,-9474.636058,76.609550
830.654716,444.123565,-9992.780217,0.000000
830.655040,-148.041188,-9992.780217,76.609550
830.655364,-1184.329507,-9474.636058,229.828649
830.655688,-1702.473667,-8808.450710,0.000000
830.656012,-962.267725,-8216.285956,536.266849
830.656336,962.267725,-8438.347739,459.657299
830.656660,2146.597232,-9326.594869,1225.752797
830.656985,1998.556043,-10140.821405,1608.800546
830.657309,296.082377,-10066.800811,1455.581446
830.657633,-222.061783,-9474.636058,919.314598
830.657957,-370.102971,-9252.574275,306.438199
830.658281,74.020594,-8956.491898,0.000000
830.658605,888.247130,-9548.656652,229.828649
830.658929,222.061783,-10436.903782,536.266849
830.659253,-148.041188,-10288.862594,612.876398
830.659577,-1184.329507,-9400.615463,153.219100
830.659901,-814.226536,-8586.388927,153.219100
830.660226,444.123565,-8660.409521,76.609550
830.660550,2072.576638,-9326.594869,76.609550
830.660874,2146.597232,-9844.739029,153.219100
830.661198,1184.329507,-9992.780217,766.095498
830.661522,-444.123565,-9918.759623,0.000000
830.661846,-962.267725,-9104.533087,-383.047749
830.662170,-370.102971,-8882.471304,-842.705048
830.662494,814.226536,-9696.697840,-995.924147
830.662818,1036.288319,-10955.047942,-919.314598
830.663142,296.082377,-10510.924376,-536.266849
830.663467,-740.205942,-9770.718434,-612.876398
830.663791,-1184.329507,-8956.491898,-1149.143247
830.664115,0.000000,-9474.636058,-1225.752797
830.664439,1332.370696,-10066.800811,-536.266849
830.664763,1850.514855,-10510.924376,-306.438199
830.665087,1332.370696,-10732.986159,-153.219100
830.665411,-296.082377,-10658.965565,-306.438199
830.665735,-1480.411884,-10362.883188,-995.924147
830.666059,-1850.514855,-9030.512492,-1302.362347
830.666383,-444.123565,-9844.739029,-1838.629195
830.666707,148.041188,-10658.965565,-1378.971896
830.667032,-74.020594,-11029.068536,-1762.019645
830.667356,-1332.370696,-10066.800811,-1378.971896
830.667680,-1628.453072,-9252.574275,-1455.581446
830.668004,-1258.350101,-8882.471304,-1608.800546
830.668328,444.123565,-9178.553681,-1532.190996
830.668652,2072.576638,-9844.739029,-766.095498
830.668976,1998.556043,-10214.842000,-383.047749
830.669300,814.226536,-11029.068536,306.438199
830.669624,-592.164754,-10584.944971,-306.438199
830.669948,-1184.329507,-9918.759623,-919.314598
830.670273,-592.164754,-9474.636058,-842.705048
830.670597,444.123565,-10140.821405,-612.876398
830.670921,740.205942,-10288.862594,-612.876398
830.671245,74.020594,-10584.944971,0.000000
830.671569,-814.226536,-9400.615463,-383.047749
830.671893,-1554.432478,-8142.265362,-612.876398
830.672217,-296.082377,-8142.265362,-383.047749
830.672541,740.205942,-9252.574275,229.828649
830.672865,1406.391290,-10140.821405,459.657299
830.673189,888.247130,-9992.780217,612.876398
830.673514,-666.185348,-9252.574275,459.657299
830.673838,-1332.370696,-9030.512492,306.438199
830.674162,-888.247130,-8882.471304,689.485948
830.674486,444.123565,-9400.615463,842.705048
830.674810,888.247130,-9844.739029,612.876398
830.675134,0.000000,-10066.800811,689.485948
830.675458,-962.267725,-9474.636058,306.438199
830.675782,-1554.432478,-8808.450710,1225.752797
830.676106,-666.185348,-8512.368333,1072.533697
830.676430,296.082377,-8956.491898,1608.800546
830.676754,1554.432478,-10066.800811,1608.800546
830.677079,1628.453072,-10584.944971,1532.190996
830.677403,666.185348,-10881.027347,1685.410096
830.677727,-1184.329507,-10510.924376,842.705048
830.678051,-2368.659014,-9622.677246,383.047749
830.678375,-1776.494261,-9474.636058,153.219100
830.678699,-518.144159,-10362.883188,689.485948
830.679023,0.000000,-10510.924376,689.485948
830.679347,-740.205942,-10066.800811,842.705048
830.679671,-1258.350101,-9474.636058,919.314598
830.679995,-962.267725,-8734.430116,1072.533697
830.680320,0.000000,-7920.203579,1225.752797
830.680644,1628.453072,-8586.388927,2145.067394
830.680968,2368.659014,-8956.491898,1455.581446
830.681292,1184.329507,-9400.615463,919.314598
830.681616,0.000000,-9474.636058,842.705048
830.681940,-962.267725,-8586.388927,306.438199
830.682264,-666.185348,-8290.306550,0.000000
830.682588,296.082377,-8660.409521,-229.828649
830.682912,1110.308913,-9770.718434,-842.705048
830.683236,666.185348,-9474.636058,76.609550
830.683560,-370.102971,-10584.944971,-229.828649
830.683885,-1036.288319,-9474.636058,-612.876398
830.684209,-222.061783,-9104.533087,-229.828649
830.684533,1258.350101,-9474.636058,306.438199
830.684857,2738.761985,-10288.862594,0.000000
830.685181,2960.823768,-10807.006753,0.000000
830.685505,888.247130,-10584.944971,0.000000
830.685829,-296.082377,-10881.027347,-536.266849
830.686153,-1110.308913,-9474.636058,-1838.629195
830.686477,-814.226536,-9474.636058,-1608.800546
830.686801,-370.102971,-9992.780217,-2298.286494
830.687126,-222.061783,-10510.924376,-2374.896044
830.687450,-962.267725,-10510.924376,-1685.410096
830.687774,-1406.391290,-10288.862594,-1685.410096
830.688098,-888.247130,-9992.780217,-1225.752797
830.688422,0.000000,-8956.491898,-919.314598
830.688746,1776.494261,-9474.636058,-459.657299
830.689070,1924.535449,-10510.924376,-842.705048
830.689394,1036.288319,-10955.047942,-689.485948
830.689718,-666.185348,-10510.924376,-1149.143247
830.690042,-1480.411884,-10066.800811,-995.924147
830.690367,-148.041188,-9252.574275,-1378.971896
830.690691,740.205942,-9474.636058,-1685.410096
830.691015,444.123565,-10140.821405,-1915.238745
830.691339,-370.102971,-10955.047942,-1915.238745
830.691663,-1554.432478,-10955.047942,-1532.190996
830.691987,-2072.576638,-9844.739029,-1225.752797
830.692311,-1258.350101,-8956.491898,-766.095498
830.692635,-222.061783,-9178.553681,-766.095498
830.692959,1332.370696,-9918.759623,-689.485948
830.693283,1110.308913,-10732.986159,-536.266849
830.693607,-444.123565,-10807.006753,-229.828649
830.693932,-1628.453072,-9844.739029,-153.219100
830.694256,-1628.453072,-8808.450710,-766.095498
830.694580,-1184.329507,-8438.347739,-766.095498
830.694904,-592.164754,-8956.491898,-919.314598
830.695228,0.000000,-10510.924376,-536.266849
830.695552,-518.144159,-10214.842000,-306.438199
830.695876,-518.144159,-9400.615463,459.657299
830.696200,0.000000,-8438.347739,766.095498
830.696524,1036.288319,-8660.409521,1072.533697
830.696848,1628.453072,-9622.677246,1149.143247
830.697173,1628.453072,-10436.903782,995.924147
830.697497,1110.308913,-10955.047942,919.314598
830.697821,-148.041188,-10214.842000,1302.362347
830.698145,-962.267725,-8808.450710,1072.533697
830.698469,74.020594,-8734.430116,842.705048
830.698793,444.123565,-8808.450710,459.657299
830.699117,740.205942,-9844.739029,76.609550
830.699441,0.000000,-10362.883188,459.657299
830.699765,-592.164754,-9992.780217,459.657299
830.700089,-814.226536,-8956.491898,1302.362347
830.700414,-962.267725,-7920.203579,1225.752797
830.700738,296.082377,-9030.512492,1149.143247
830.701062,1776.494261,-10436.903782,1149.143247
830.701386,2072.576638,-10807.006753,1685.410096
830.701710,1258.350101,-10214.842000,1685.410096
830.702034,222.061783,-9030.512492,919.314598
830.702358,74.020594,-8068.244768,229.828649
830.702682,222.061783,-8364.327145,766.095498
830.703006,444.123565,-9548.656652,0.000000
830.703330,370.102971,-9844.739029,76.609550
830.703654,-740.205942,-9622.677246,229.828649
830.703979,-1036.288319,-9252.574275,76.609550
830.704303,-740.205942,-8586.388927,76.609550
830.704627,148.041188,-8438.347739,919.314598
830.704951,1184.329507,-9252.574275,536.266849
830.705275,1258.350101,-10140.821405,995.924147
830.705599,74.020594,-10214.842000,766.095498
830.705923,-1184.329507,-9770.718434,536.266849
830.706247,-1332.370696,-9474.636058,0.000000
830.706571,-1184.329507,-9178.553681,-306.438199
830.706895,-444.123565,-9918.759623,-536.266849
830.707220,0.000000,-10658.965565,-459.657299
830.707544,74.020594,-11029.068536,0.000000
830.707868,-518.144159,-10436.903782,-306.438199
830.708192,-888.247130,-9474.636058,-459.657299
830.708516,-666.185348,-9030.512492,-306.438199
830.708840,814.226536,-9696.697840,76.609550
830.709164,1924.535449,-10584.944971,0.000000
830.709488,1628.453072,-10658.965565,-459.657299
830.709812,74.020594,-10362.883188,0.000000
830.710136,-1258.350101,-9474.636058,-1072.533697
830.710460,-1406.391290,-8956.491898,-612.876398
830.710785,-888.247130,-8882.471304,-1072.533697
830.711109,-148.041188,-9770.718434,-1302.362347
830.711433,-370.102971,-9992.780217,-1149.143247
830.711757,-740.205942,-10066.800811,-766.095498
830.712081,-1110.308913,-9326.594869,-919.314598
830.712405,-370.102971,-8586.388927,-229.828649
830.712729,444.123565,-9178.553681,76.609550
830.713053,1406.391290,-9918.759623,-383.047749
830.713377,1480.411884,-10955.047942,0.000000
830.713701,74.020594,-11177.109724,0.000000
830.714026,-1184.329507,-10584.944971,0.000000
830.714350,-1628.453072,-9548.656652,-689.485948
830.714674,-814.226536,-9474.636058,-842.705048
830.714998,296.082377,-9622.677246,-995.924147
830.715322,740.205942,-10436.903782,-76.609550
830.715646,-222.061783,-10584.944971,-612.876398
830.715970,-1924.535449,-9474.636058,-842.705048
830.716294,-2220.617826,-8438.347739,-766.095498
830.716618,-814.226536,-8216.285956,-459.657299
830.716942,1258.350101,-9178.553681,-306.438199
830.717266,2442.679609,-9992.780217,383.047749
830.717590,3108.864956,-9992.780217,459.657299
830.717914,1332.370696,-9918.759623,76.609550
830.718238,-148.041188,-9178.553681,0.000000
830.718562,-148.041188,-8660.409521,-383.047749
830.718886,444.123565,-9104.533087,-229.828649
830.719211,740.205942,-9992.780217,-766.095498
830.719535,0.000000,-10362.883188,153.219100
830.719859,0.000000,-10066.800811,0.000000
830.720183,0.000000,-9474.636058,383.047749
830.720507,222.061783,-8956.491898,76.609550
830.720831,888.247130,-9030.512492,76.609550
830.721155,1258.350101,-9844.739029,153.219100
830.721479,814.226536,-10955.047942,0.000000
830.721803,-296.082377,-10658.965565,0.000000
830.722127,-1480.411884,-10140.821405,-229.828649
830.722451,-1702.473667,-9474.636058,-689.485948
830.722775,-296.082377,-9474.636058,-383.047749
830.723099,592.164754,-9770.718434,-536.266849
830.723423,518.144159,-10436.903782,-536.266849
830.723747,-370.102971,-10658.965565,-689.485948
830.724071,-1480.411884,-9844.739029,-689.485948
830.724395,-1332.370696,-9104.533087,-229.828649
830.724719,-296.082377,-8660.409521,-383.047749
830.725043,1406.391290,-9474.636058,153.219100
830.725367,2368.659014,-9918.759623,0.000000
830.725691,2220.617826,-10510.924376,153.219100
830.726015,666.185348,-10214.842000,0.000000
830.726339,-592.164754,-9474.636058,-383.047749
830.726663,-740.205942,-8882.471304,-612.876398
830.726987,-370.102971,-9104.533087,-153.219100
830.727311,0.000000,-9696.697840,-612.876398
830.727635,74.020594,-10214.842000,-383.047749
830.727959,-740.205942,-9622.677246,0.000000
830.728283,-1628.453072,-9252.574275,0.000000
830.728608,-1332.370696,-8438.347739,229.828649
830.728932,-370.102971,-8734.430116,1149.143247
830.729256,740.205942,-9326.594869,1225.752797
830.729580,592.164754,-10066.800811,1302.362347
830.729904,370.102971,-10288.862594,1302.362347
830.730228,-1184.329507,-9622.677246,1072.533697
830.730552,-1184.329507,-9178.553681,689.485948
830.730876,-222.061783,-9548.656652,612.876398
830.731200,0.000000,-9548.656652,306.438199
830.731524,-148.041188,-10140.821405,153.219100
830.731848,-1110.308913,-10436.903782,153.219100
830.732172,-2146.597232,-9992.780217,0.000000
830.732496,-2146.597232,-8734.430116,459.657299
830.732820,-444.123565,-8216.285956,536.266849
830.733144,1036.288319,-9326.594869,919.314598
830.733468,2220.617826,-10288.862594,842.705048
830.733792,1776.494261,-10436.903782,1302.362347
830.734116,518.144159,-10510.924376,919.314598
830.734440,-888.247130,-9770.718434,459.657299
830.734764,-1110.308913,-9252.574275,766.095498
830.735088,-814.226536,-9696.697840,689.485948
830.735412,0.000000,-10807.006753,153.219100
830.735736,148.041188,-10881.027347,689.485948
830.736060,-888.247130,-10214.842000,383.047749
830.736384,-1554.432478,-9474.636058,459.657299
830.736708,-1406.391290,-8660.409521,153.219100
830.737032,-370.102971,-8512.368333,306.438199
830.737356,370.102971,-9030.512492,459.657299
830.737680,814.226536,-10140.821405,76.609550
830.738004,-148.041188,-10362.883188,0.000000
830.738329,-592.164754,-10288.862594,306.438199
830.738653,74.020594,-9548.656652,229.828649
830.738977,1110.308913,-8956.491898,76.609550
830.739301,1628.453072,-9252.574275,-229.828649
830.739625,888.247130,-9770.718434,-306.438199
830.739949,370.102971,-10362.883188,0.000000
830.740273,-518.144159,-9548.656652,153.219100
830.740597,-296.082377,-8734.430116,383.047749
830.740921,962.267725,-8512.368333,459.657299
830.741245,2368.659014,-8734.430116,536.266849
830.741569,2664.741391,-9326.594869,-153.219100
830.741893,1480.411884,-9326.594869,-536.266849
830.742217,-444.123565,-9918.759623,-459.657299
830.742541,-1258.350101,-9548.656652,-1072.533697
830.742865,-518.144159,-8512.368333,-2145.067394
830.743189,74.020594,-8734.430116,-995.924147
830.743513,296.082377,-10066.800811,-1838.629195
830.743837,148.041188,-10436.903782,-2145.067394
830.744161,-592.164754,-10510.924376,-919.314598
830.744485,-444.123565,-10214.842000,-612.876398
830.744809,0.000000,-8512.368333,0.000000
830.745133,1258.350101,-9104.533087,306.438199
830.745457,1628.453072,-10140.821405,-153.219100
830.745781,1628.453072,-11029.068536,-459.657299
830.746105,0.000000,-10955.047942,-766.095498
830.746429,-2072.576638,-10288.862594,-689.485948
830.746753,-2442.679609,-9400.615463,-1608.800546
830.747077,-1258.350101,-8956.491898,-1685.410096
830.747401,-222.061783,-9474.636058,-1532.190996
830.747725,-444.123565,-10658.965565,-1302.362347
830.748050,-1036.288319,-11399.171507,-1455.581446
830.748374,-1554.432478,-10510.924376,-1072.533697
830.748698,-962.267725,-9030.512492,-689.485948
830.749022,296.082377,-8660.409521,-536.266849
830.749346,1924.535449,-9622.677246,-612.876398
830.749670,2368.659014,-11029.068536,0.000000
830.749994,1406.391290,-11399.171507,-229.828649
830.750318,0.000000,-10658.965565,0.000000
830.750642,-1184.329507,-9622.677246,-536.266849
830.750966,-1184.329507,-8882.471304,-1072.533697
830.751290,-592.164754,-9252.574275,-919.314598
830.751614,0.000000,-10584.944971,-459.657299
830.751938,-222.061783,-10807.006753,-306.438199
830.752262,-962.267725,-9992.780217,0.000000
830.752586,-962.267725,-8660.409521,766.095498
830.752910,0.000000,-8142.265362,612.876398
830.753234,1110.308913,-8882.471304,842.705048
830.753558,1480.411884,-9770.718434,612.876398
830.753882,370.102971,-10436.903782,842.705048
830.754206,-444.123565,-10658.965565,919.314598
830.754530,-1110.308913,-10584.944971,919.314598
830.754854,-814.226536,-9474.636058,995.924147
830.755178,-370.102971,-9252.574275,0.000000
830.755502,0.000000,-9770.718434,306.438199
830.755826,0.000000,-10362.883188,153.219100
830.756150,-814.226536,-10214.842000,306.438199
830.756474,-1480.411884,-9326.594869,842.705048
830.756798,-1110.308913,-8364.327145,1455.581446
830.757122,370.102971,-8068.244768,1915.238745
830.757446,1998.556043,-8956.491898,1532.190996
830.757771,2516.700203,-9770.718434,1378.971896
830.758095,1702.473667,-9918.759623,1302.362347
830.758419,0.000000,-9918.759623,919.314598
830.758743,-1406.391290,-9178.553681,612.876398
830.759067,-1332.370696,-8142.265362,842.705048
830.759391,-518.144159,-9178.553681,459.657299
830.759715,296.082377,-10066.800811,995.924147
830.760039,592.164754,-10140.821405,536.266849
830.760363,0.000000,-9622.677246,995.924147
830.760687,-370.102971,-8956.491898,919.314598
830.761011,-148.041188,-8290.306550,1225.752797
830.761335,888.247130,-8734.430116,1378.971896
830.761659,1480.411884,-9326.594869,1072.533697
830.761983,1036.288319,-9992.780217,459.657299
830.762307,-518.144159,-9622.677246,1072.533697
830.762631,-1184.329507,-9696.697840,76.609550
830.762955,-1258.350101,-9030.512492,-229.828649
830.763279,-592.164754,-8808.450710,-306.438199
830.763603,296.082377,-9474.636058,-383.047749
830.763927,0.000000,-9696.697840,-919.314598
830.764251,-518.144159,-10732.986159,0.000000
830.764575,-1406.391290,-10214.842000,-153.219100
830.764899,-814.226536,-9252.574275,0.000000
830.765223,814.226536,-8882.471304,153.219100
830.765547,2590.720797,-9474.636058,383.047749
830.765871,3404.947333,-10584.944971,0.000000
830.766195,1924.535449,-10510.924376,153.219100
830.766519,74.020594,-10881.027347,-229.828649
830.766843,-1406.391290,-10140.821405,-919.314598
830.767168,-1036.288319,-9474.636058,-1532.190996
830.767492,-1036.288319,-9622.677246,-2298.286494
830.767816,-592.164754,-10584.944971,-2604.724693
830.768140,-814.226536,-11029.068536,-2068.457845
830.768464,-962.267725,-11029.068536,-1378.971896
830.768788,-888.247130,-9548.656652,-919.314598
830.769112,-296.082377,-8956.491898,-842.705048
830.769436,592.164754,-8882.471304,-689.485948
830.769760,2146.597232,-10510.924376,-306.438199
830.770084,1480.411884,-10955.047942,-766.095498
830.770408,222.061783,-10955.047942,-383.047749
830.770732,-1110.308913,-10288.862594,-383.047749
830.771056,-814.226536,-9030.512492,-919.314598
830.771380,-444.123565,-9326.594869,-919.314598
830.771704,-296.082377,-9548.656652,-1608.800546
830.772028,-1258.350101,-10140.821405,-1991.848295
830.772352,-2812.782580,-10732.986159,-1532.190996
830.772676,-2960.823768,-9918.759623,-919.314598
830.773000,-1776.494261,-8734.430116,-383.047749
830.773324,518.144159,-8216.285956,0.000000
830.773648,2368.659014,-9030.512492,306.438199
830.773972,2368.659014,-9548.656652,0.000000
830.774296,1110.308913,-10214.842000,0.000000
830.774620,-592.164754,-10140.821405,153.219100
830.774944,-1406.391290,-9474.636058,-229.828649
830.775268,-1184.329507,-8660.409521,-536.266849
830.775592,-370.102971,-9178.553681,-995.924147
830.775916,0.000000,-10066.800811,-919.314598
830.776240,-74.020594,-10362.883188,-153.219100
830.776564,-962.267725,-9992.780217,0.000000
830.776889,-444.123565,-8882.471304,536.266849
830.777213,148.041188,-8216.285956,842.705048
830.777537,1332.370696,-8808.450710,1149.143247
830.777861,1924.535449,-9918.759623,842.705048
830.778185,1258.350101,-10584.944971,919.314598
830.778509,0.000000,-10436.903782,1225.752797
830.778833,-518.144159,-10066.800811,1302.362347
830.779157,-370.102971,-9030.512492,1072.533697
830.779481,74.020594,-8956.491898,689.485948
830.779805,74.020594,-9474.636058,-383.047749
830.780129,-740.205942,-10510.924376,0.000000
830.780453,-1480.411884,-10881.027347,0.000000
830.780777,-1776.494261,-10066.800811,1072.533697
830.781101,-518.144159,-8586.388927,1378.971896
830.781425,814.226536,-8438.347739,1455.581446
830.781749,2294.638420,-9326.594869,919.314598
830.782073,2738.761985,-10066.800811,1072.533697
830.782397,1776.494261,-10362.883188,1455.581446
830.782721,222.061783,-10140.821405,995.924147
830.783045,-370.102971,-8586.388927,1072.533697
830.783369,-370.102971,-8142.265362,842.705048
830.783693,444.123565,-9474.636058,0.000000
830.784017,148.041188,-9918.759623,-689.485948
830.784341,-148.041188,-10214.842000,-383.047749
830.784665,-518.144159,-9918.759623,229.828649
830.784989,0.000000,-9030.512492,459.657299
830.785313,148.041188,-8438.347739,919.314598
830.785637,740.205942,-8956.491898,1072.533697
830.785961,666.185348,-9992.780217,536.266849
830.786285,370.102971,-10214.842000,306.438199
830.786610,-370.102971,-10066.800811,689.485948
830.786934,-740.205942,-9474.636058,306.438199
830.787258,-518.144159,-8882.471304,0.000000
830.787582,74.020594,-9326.594869,-383.047749
830.787906,0.000000,-9696.697840,-1149.143247
830.788230,-1036.288319,-10732.986159,-1302.362347
830.788554,-2368.659014,-10436.903782,-612.876398
830.788878,-2590.720797,-9474.636058,-536.266849
830.789202,-1332.370696,-8216.285956,76.609550
830.789526,888.247130,-8882.471304,0.000000
830.789850,2516.700203,-10214.842000,0.000000
830.790174,2590.720797,-10584.944971,0.000000
830.790498,1480.411884,-10510.924376,76.609550
830.790822,-296.082377,-9696.697840,-383.047749
830.791146,-1332.370696,-9400.615463,-612.876398
830.791470,-1110.308913,-9622.677246,-1302.362347
830.791794,-296.082377,-10436.903782,-1378.971896
830.792118,74.020594,-10732.986159,-1608.800546
830.792442,-148.041188,-10732.986159,-1225.752797
830.792766,-740.205942,-10362.883188,-612.876398
830.793090,-592.164754,-9548.656652,-306.438199
830.793414,-296.082377,-9252.574275,-536.266849
830.793738,296.082377,-9696.697840,-153.219100
830.794062,666.185348,-10955.047942,-459.657299
830.794386,0.000000,-11029.068536,-229.828649
830.794710,-888.247130,-10140.821405,0.000000
830.795034,-1184.329507,-9178.553681,0.000000
830.795358,-296.082377,-8882.471304,-383.047749
830.795682,296.082377,-9252.574275,0.000000
830.796007,148.041188,-9770.718434,-459.657299
830.796331,-592.164754,-10436.903782,-612.876398
830.796655,-1850.514855,-10140.821405,-383.047749
830.796979,-2146.597232,-9474.636058,-383.047749
830.797303,-814.226536,-8660.409521,76.609550
830.797627,1258.350101,-9252.574275,459.657299
830.797951,3034.844362,-9844.739029,842.705048
830.798275,2886.803174,-9992.780217,536.266849
830.798599,1776.494261,-10140.821405,919.314598
830.798923,-518.144159,-9548.656652,383.047749
830.799247,-1036.288319,-9252.574275,76.609550
830.799571,-518.144159,-8808.450710,0.000000
830.799895,74.020594,-9844.739029,-306.438199
830.800219,666.185348,-10436.903782,229.828649
830.800543,74.020594,-9992.780217,0.000000
830.800867,0.000000,-9104.533087,76.609550
830.801191,0.000000,-8364.327145,383.047749
830.801515,444.123565,-8660.409521,459.657299
830.801839,962.267725,-9104.533087,229.828649
830.802163,814.226536,-9474.636058,0.000000
830.802487,444.123565,-10140.821405,383.047749
830.802811,-370.102971,-9770.718434,229.828649
830.803135,-740.205942,-8882.471304,-153.219100
830.803459,148.041188,-8438.347739,306.438199
830.803783,888.247130,-8734.430116,0.000000
830.804107,1332.370696,-9548.656652,-383.047749
830.804431,0.000000,-10066.800811,-153.219100
830.804755,-1480.411884,-10140.821405,0.000000
830.805079,-1702.473667,-9770.718434,229.828649
830.805403,-740.205942,-8882.471304,0.000000
830.805728,74.020594,-8660.409521,306.438199
830.806052,2072.576638,-9696.697840,459.657299
830.806376,2146.597232,-10362.883188,0.000000
830.806700,74.020594,-10510.924376,-383.047749
830.807024,-2294.638420,-9770.718434,-1072.533697
830.807348,-2960.823768,-9252.574275,-1532.190996
830.807672,-1924.535449,-8808.450710,-1532.190996
830.807996,-518.144159,-9622.677246,-1455.581446
830.808320,0.000000,-10362.883188,-1225.752797
830.808644,148.041188,-10436.903782,-766.095498
830.808968,-962.267725,-9992.780217,-689.485948
830.809292,-888.247130,-9178.553681,-536.266849
830.809616,0.000000,-9178.553681,-306.438199
830.809940,740.205942,-9770.718434,0.000000
830.810264,1702.473667,-11325.150913,766.095498
830.810588,814.226536,-11473.192101,306.438199
830.810912,0.000000,-10732.986159,536.266849
830.811236,-814.226536,-9696.697840,-153.219100
830.811560,-296.082377,-9474.636058,-459.657299
830.811884,0.000000,-9622.677246,-459.657299
830.812208,-74.020594,-10436.903782,-383.047749
830.812532,-666.185348,-11029.068536,0.000000
830.812856,-2516.700203,-10362.883188,-459.657299
830.813180,-2442.679609,-9474.636058,306.438199
830.813504,-1184.329507,-8734.430116,459.657299
830.813828,666.185348,-9326.594869,842.705048
830.814152,2294.638420,-9844.739029,1149.143247
830.814476,1924.535449,-10288.862594,1532.190996
830.814800,296.082377,-9622.677246,1608.800546
830.815124,-1702.473667,-9252.574275,536.266849
830.815449,-2368.659014,-8364.327145,0.000000
830.815773,-1258.350101,-8586.388927,153.219100
830.816097,222.061783,-9178.553681,383.047749
830.816421,1110.308913,-9992.780217,459.657299
830.816745,444.123565,-9622.677246,766.095498
830.817069,-518.144159,-9030.512492,1072.533697
830.817393,-666.185348,-8068.244768,919.314598
830.817717,74.020594,-7772.162391,995.924147
830.818041,1332.370696,-8512.368333,1378.971896
830.818365,1628.453072,-8882.471304,1455.581446
830.818690,1184.329507,-9918.759623,1532.190996
830.819014,0.000000,-9918.759623,1532.190996
830.819338,-740.205942,-8882.471304,919.314598
830.819662,0.000000,-8364.327145,1072.533697
830.819986,222.061783,-8364.327145,0.000000
830.820310,-148.041188,-9178.553681,229.828649
830.820634,-1036.288319,-9770.718434,0.000000
830.820959,-2368.659014,-10140.821405,-383.047749
830.821283,-2146.597232,-9622.677246,-153.219100
830.821607,-592.164754,-9030.512492,229.828649
830.821931,1406.391290,-9178.553681,306.438199
830.822255,2664.741391,-10214.842000,306.438199
830.822579,2590.720797,-10955.047942,76.609550
830.822903,1258.350101,-11177.109724,306.438199
830.823228,-1110.308913,-11325.150913,-229.828649
830.823552,-1554.432478,-10288.862594,-995.924147
830.823876,-444.123565,-9770.718434,-842.705048
830.824200,666.185348,-10288.862594,-1302.362347
830.824524,1110.308913,-11547.212695,-1149.143247
830.824848,888.247130,-10881.027347,-995.924147
830.825173,-814.226536,-10140.821405,-842.705048
830.825497,-1332.370696,-9030.512492,-995.924147
830.825821,222.061783,-9178.553681,-995.924147
830.826145,1406.391290,-9696.697840,-995.924147
830.826469,1406.391290,-10732.986159,-1225.752797
830.826793,666.185348,-11251.130318,-1149.143247
830.827117,148.041188,-10362.883188,-1149.143247
830.827442,-370.102971,-9104.533087,-1455.581446
830.827766,0.000000,-8808.450710,-1685.410096
830.828090,1036.288319,-8956.491898,-1072.533697
830.828414,962.267725,-10510.924376,-1149.143247
830.828738,-148.041188,-10881.027347,-1149.143247
830.829062,-1702.473667,-10066.800811,-766.095498
830.829386,-2220.617826,-8586.388927,-536.266849
830.829711,-666.185348,-8290.306550,-383.047749
830.830035,1184.329507,-8956.491898,-153.219100
830.830359,2294.638420,-9622.677246,383.047749
830.830683,1850.514855,-10436.903782,459.657299
830.831007,0.000000,-9918.759623,229.828649
830.831331,-1702.473667,-8808.450710,-306.438199
830.831655,-1776.494261,-7772.162391,-612.876398
830.831980,-666.185348,-8290.306550,-306.438199
830.832304,370.102971,-8956.491898,-459.657299
830.832628,592.164754,-10288.862594,-459.657299
830.832952,0.000000,-9918.759623,-76.609550
830.833276,-1110.308913,-8216.285956,0.000000
830.833600,-1036.288319,-8068.244768,306.438199
830.833924,148.041188,-8660.409521,306.438199
830.834249,1184.329507,-9252.574275,612.876398
830.834573,888.247130,-10584.944971,1378.971896
830.834897,592.164754,-10288.862594,995.924147
830.835221,-962.267725,-9030.512492,153.219100
830.835545,-1036.288319,-8808.450710,229.828649
830.835869,-814.226536,-9178.553681,536.266849
830.836194,296.082377,-10140.821405,0.000000
830.836518,592.164754,-10510.924376,306.438199
830.836842,-666.185348,-10510.924376,0.000000
830.837166,-2294.638420,-9918.759623,0.000000
830.837490,-2072.576638,-9622.677246,0.000000
830.837814,-592.164754,-9622.677246,612.876398
830.838138,962.267725,-10066.800811,766.095498
830.838463,1628.453072,-10732.986159,766.095498
830.838787,1406.391290,-10881.027347,459.657299
830.839111,0.000000,-10732.986159,229.828649
830.839435,-1184.329507,-10362.883188,153.219100
830.839759,-1628.453072,-10066.800811,229.828649
830.840083,-444.123565,-9770.718434,383.047749
830.840407,444.123565,-10362.883188,-229.828649
830.840732,1258.350101,-10658.965565,0.000000
830.841056,888.247130,-10658.965565,229.828649
830.841380,370.102971,-9622.677246,459.657299
830.841704,0.000000,-8364.327145,536.266849
830.842028,740.205942,-8438.347739,612.876398
830.842352,1480.411884,-9104.533087,153.219100
830.842676,1998.556043,-10436.903782,536.266849
830.843001,666.185348,-10436.903782,612.876398
830.843325,-666.185348,-9548.656652,229.828649
830.843649,-740.205942,-8808.450710,76.609550
830.843973,0.000000,-8808.450710,0.000000
830.844297,518.144159,-8586.388927,76.609550
830.844621,444.123565,-9400.615463,0.000000
830.844946,-1110.308913,-9474.636058,-383.047749
830.845270,-2664.741391,-9178.553681,-229.828649
830.845594,-2812.782580,-8290.306550,0.000000
830.845918,-1110.308913,-7994.224174,689.485948
830.846242,888.247130,-9104.533087,1072.533697
830.846566,2516.700203,-9622.677246,919.314598
830.846890,2294.638420,-10066.800811,1455.581446
830.847215,222.061783,-9992.780217,766.095498
830.847539,-1480.411884,-9474.636058,153.219100
830.847863,-1776.494261,-8956.491898,-459.657299
830.848187,-962.267725,-9030.512492,-919.314598
830.848511,0.000000,-9622.677246,-1072.533697
830.848835,148.041188,-9918.759623,-306.438199
830.849159,-222.061783,-9844.739029,-766.095498
830.849484,-740.205942,-9548.656652,0.000000
830.849808,-444.123565,-8956.491898,153.219100
830.850132,518.144159,-8956.491898,76.609550
830.850456,1480.411884,-10066.800811,0.000000
830.850780,1258.350101,-10584.944971,76.609550
830.851104,0.000000,-11103.089130,153.219100
830.851428,-1110.308913,-10658.965565,0.000000
830.851753,-518.144159,-9770.718434,-229.828649
830.852077,-222.061783,-9030.512492,-842.705048
830.852401,222.061783,-9548.656652,-919.314598
830.852725,-444.123565,-10658.965565,-1149.143247
830.853049,-1184.329507,-11473.192101,-1149.143247
830.853373,-2146.597232,-10955.047942,-1149.143247
830.853698,-2294.638420,-10066.800811,-306.438199
830.854022,148.041188,-9622.677246,-153.219100
830.854346,2072.576638,-9770.718434,-536.266849
830.854670,2664.741391,-10881.027347,229.828649
830.854994,1776.494261,-11325.150913,153.219100
830.855318,0.000000,-10881.027347,76.609550
830.855642,-1480.411884,-9918.759623,-383.047749
830.855967,-1258.350101,-8882.471304,-536.266849
830.856291,0.000000,-8512.368333,-689.485948
830.856615,666.185348,-9178.553681,-383.047749
830.856939,740.205942,-10140.821405,-306.438199
830.857263,0.000000,-9548.656652,-689.485948
830.857587,-666.185348,-8438.347739,0.000000
830.857911,-888.247130,-7772.162391,0.000000
830.858236,370.102971,-8216.285956,229.828649
830.858560,1628.453072,-9622.677246,229.828649
830.858884,1480.411884,-10362.883188,459.657299
830.859208,444.123565,-10288.862594,229.828649
830.859532,-592.164754,-9548.656652,0.000000
830.859856,0.000000,-8956.491898,-536.266849
830.860180,370.102971,-8512.368333,-306.438199
830.860505,740.205942,-9104.533087,-229.828649
830.860829,148.041188,-9918.759623,-306.438199
830.861153,-1184.329507,-10214.842000,-153.219100
830.861477,-1924.535449,-10140.821405,0.000000
830.861801,-1406.391290,-8586.388927,0.000000
830.862125,148.041188,-8364.327145,536.266849
830.862449,2294.638420,-9770.718434,459.657299
830.862774,2442.679609,-10066.800811,306.438199
830.863098,1184.329507,-10362.883188,689.485948
830.863422,-740.205942,-10140.821405,306.438199
830.863746,-1776.494261,-9178.553681,-153.219100
830.864070,-1258.350101,-8364.327145,-612.876398
830.864394,148.041188,-8882.471304,-842.705048
830.864719,592.164754,-9622.677246,-689.485948
830.865043,1036.288319,-10362.883188,-459.657299
830.865367,0.000000,-9770.718434,-306.438199
830.865691,-962.267725,-9252.574275,-383.047749
830.866015,-740.205942,-8660.409521,229.828649
830.866339,444.123565,-9252.574275,229.828649
830.866663,1850.514855,-10881.027347,689.485948
830.866988,1332.370696,-11103.089130,306.438199
830.867312,370.102971,-11177.109724,842.705048
830.867636,-518.144159,-10066.800811,459.657299
830.867960,-666.185348,-9622.677246,0.000000
830.868284,0.000000,-9474.636058,0.000000
830.868608,592.164754,-10140.821405,-536.266849
830.868932,296.082377,-10658.965565,-383.047749
830.869257,-1332.370696,-10658.965565,-536.266849
830.869581,-1776.494261,-9770.718434,-689.485948
830.869905,-2368.659014,-8586.388927,-536.266849
830.870229,-444.123565,-8734.430116,306.438199
830.870553,1480.411884,-9474.636058,0.000000
830.870877,2220.617826,-10066.800811,0.000000
830.871201,1184.329507,-10214.842000,76.609550
830.871526,-814.226536,-9548.656652,383.047749
830.871850,-1776.494261,-9104.533087,0.000000
830.872174,-1554.432478,-8586.388927,153.219100
830.872498,-888.247130,-9178.553681,-919.314598
830.872822,222.061783,-10066.800811,-306.438199
830.873146,74.020594,-10066.800811,-229.828649
830.873471,-444.123565,-9844.739029,0.000000
830.873795,-814.226536,-9252.574275,153.219100
830.874119,-666.185348,-8512.368333,229.828649
830.874443,296.082377,-9104.533087,612.876398
830.874767,74.020594,-9992.780217,153.219100
830.875091,814.226536,-10807.006753,76.609550
830.875415,-592.164754,-10436.903782,76.609550
830.875740,-1628.453072,-9918.759623,0.000000
830.876064,-1406.391290,-9474.636058,0.000000
830.876388,-666.185348,-9474.636058,-153.219100
830.876712,518.144159,-9400.615463,0.000000
830.877036,222.061783,-9770.718434,-153.219100
830.877360,-888.247130,-9918.759623,0.000000
830.877684,-1924.535449,-9252.574275,76.609550
830.878009,-1332.370696,-8586.388927,459.657299
830.878333,814.226536,-9030.512492,689.485948
830.878657,2442.679609,-9474.636058,689.485948
830.878981,3034.844362,-10140.821405,1149.143247
830.879305,2146.597232,-10436.903782,1072.533697
830.879629,148.041188,-9992.780217,689.485948
830.879953,-1184.329507,-8956.491898,0.000000
830.880278,-1258.350101,-8586.388927,-383.047749
830.880602,-666.185348,-9548.656652,-459.657299
830.880926,444.123565,-10288.862594,-689.485948
830.881250,74.020594,-10362.883188,-229.828649
830.881574,-222.061783,-9844.739029,0.000000
830.881898,-888.247130,-9474.636058,-383.047749
830.882223,-518.144159,-8438.347739,0.000000
830.882547,444.123565,-9326.594869,153.219100
830.882871,1036.288319,-10140.821405,76.609550
830.883195,666.185348,-10510.924376,-153.219100
830.883519,-518.144159,-10436.903782,0.000000
830.883843,-1110.308913,-9844.739029,-842.705048
830.884167,-666.185348,-8882.471304,-919.314598
830.884492,148.041188,-8438.347739,-1685.410096
830.884816,1258.350101,-9474.636058,-1072.533697
830.885140,592.164754,-10362.883188,-1225.752797
830.885464,-370.102971,-10362.883188,-1149.143247
830.885788,-1184.329507,-9770.718434,-1072.533697
830.886112,-592.164754,-8882.471304,-536.266849
830.886436,1110.308913,-8586.388927,-153.219100
830.886761,2886.803174,-9696.697840,-229.828649
830.887085,3627.009116,-10510.924376,229.828649
830.887409,2294.638420,-10362.883188,0.000000
830.887733,-296.082377,-10066.800811,-689.485948
830.888057,-2072.576638,-9770.718434,-1302.362347
830.888381,-2146.597232,-9400.615463,-1608.800546
830.888705,-814.226536,-9474.636058,-1225.752797
830.889030,0.000000,-10214.842000,-2145.067394
830.889354,0.000000,-10807.006753,-1532.190996
830.889678,-666.185348,-10510.924376,-536.266849
830.890002,-1110.308913,-9770.718434,-383.047749
830.890326,-666.185348,-9400.615463,0.000000
830.890650,148.041188,-9622.677246,0.000000
830.890975,444.123565,-10214.842000,76.609550
830.891299,370.102971,-10510.924376,-229.828649
830.891623,-518.144159,-10436.903782,153.219100
830.891947,-1184.329507,-9770.718434,-229.828649
830.892271,-1110.308913,-8956.491898,-766.095498
830.892595,-592.164754,-9030.512492,-689.485948
830.892919,0.000000,-9548.656652,-689.485948
830.893244,0.000000,-9474.636058,-766.095498
830.893568,-962.267725,-10214.842000,306.438199
830.893892,-2516.700203,-9548.656652,0.000000
830.894216,-1480.411884,-9178.553681,1072.533697
830.894540,-370.102971,-8734.430116,689.485948
830.894864,1184.329507,-9104.533087,919.314598
830.895188,1850.514855,-9622.677246,1072.533697
830.895513,740.205942,-10140.821405,1302.362347
830.895837,-1110.308913,-10066.800811,766.095498
830.896161,-2146.597232,-8734.430116,459.657299
830.896485,-2294.638420,-8364.327145,229.828649
830.896809,-814.226536,-8660.409521,76.609550
830.897133,740.205942,-9844.739029,229.828649
830.897457,888.247130,-10584.944971,1302.362347
830.897782,-222.061783,-9844.739029,1532.190996
830.898106,-888.247130,-8882.471304,1149.143247
830.898430,-888.247130,-8660.409521,1608.800546
830.898754,370.102971,-8956.491898,1838.629195
830.899078,1036.288319,-9622.677246,1455.581446
830.899402,962.267725,-10288.862594,2068.457845
830.899726,-296.082377,-9622.677246,1378.971896
830.900051,-1332.370696,-8438.347739,766.095498
830.900375,-888.247130,-7550.100608,612.876398
830.900699,444.123565,-8068.244768,383.047749
830.901023,1406.391290,-9178.553681,306.438199
830.901347,666.185348,-9474.636058,229.828649
830.901671,-666.185348,-9326.594869,306.438199
830.901996,-1110.308913,-9622.677246,766.095498
830.902320,0.000000,-8956.491898,306.438199
830.902644,1702.473667,-8882.471304,1072.533697
830.902968,3330.926739,-9770.718434,1225.752797
830.903292,3404.947333,-10510.924376,995.924147
830.903616,1628.453072,-10436.903782,612.876398
830.903940,-370.102971,-10436.903782,0.000000
830.904265,-1628.453072,-9548.656652,-229.828649
830.904589,-1036.288319,-8882.471304,-842.705048
830.904913,0.000000,-9474.636058,-536.266849
830.905237,888.247130,-9770.718434,-1225.752797
830.905561,518.144159,-10214.842000,-1225.752797
830.905885,-740.205942,-10362.883188,-1149.143247
830.906209,-1332.370696,-9696.697840,-1762.019645
830.906534,-740.205942,-8956.491898,-1378.971896
830.906858,222.061783,-9400.615463,-383.047749
830.907182,1998.556043,-10214.842000,-995.924147
830.907506,1702.473667,-10214.842000,-689.485948
830.907830,0.000000,-10732.986159,-536.266849
830.908154,-888.247130,-10510.924376,-1225.752797
830.908478,-518.144159,-9548.656652,-1302.362347
830.908803,592.164754,-9252.574275,-1455.581446
830.909127,888.247130,-9400.615463,-1762.019645
830.909451,148.041188,-10658.965565,-1762.019645
830.909775,-1480.411884,-10881.027347,-1149.143247
830.910099,-1924.535449,-11029.068536,-1608.800546
830.910423,-1554.432478,-9770.718434,-1378.971896
830.910748,74.020594,-9400.615463,-1149.143247
830.911072,1628.453072,-10066.800811,-842.705048
830.911396,1998.556043,-10288.862594,-766.095498
830.911720,814.226536,-10881.027347,0.000000
830.912044,-888.247130,-10881.027347,-689.485948
830.912368,-2072.576638,-9326.594869,-919.314598
830.912692,-1480.411884,-9178.553681,-1225.752797
830.913017,74.020594,-9252.574275,-995.924147
830.913341,962.267725,-9918.759623,-766.095498
830.913665,0.000000,-10807.006753,-306.438199
830.913989,-1258.350101,-10362.883188,0.000000
830.914313,-1480.411884,-9252.574275,0.000000
830.914637,-592.164754,-8660.409521,383.047749
830.914961,444.123565,-8808.450710,383.047749
830.915285,1110.308913,-9622.677246,459.657299
830.915609,666.185348,-10288.862594,919.314598
830.915933,-814.226536,-9918.759623,919.314598
830.916257,-2146.597232,-8734.430116,842.705048
830.916582,-1480.411884,-7994.224174,842.705048
830.916906,518.144159,-8512.368333,995.924147
830.917230,1332.370696,-9104.533087,459.657299
830.917554,518.144159,-9770.718434,1149.143247
830.917878,-1480.411884,-9696.697840,995.924147
830.918202,-2590.720797,-9178.553681,689.485948
830.918526,-1776.494261,-8364.327145,1532.190996
830.918850,0.000000,-8586.388927,995.924147
830.919174,1924.535449,-8882.471304,1225.752797
830.919498,2220.617826,-9992.780217,1762.019645
830.919822,444.123565,-10066.800811,1302.362347
830.920146,-1702.473667,-9474.636058,306.438199
830.920470,-1850.514855,-8734.430116,383.047749
830.920794,-962.267725,-8808.450710,306.438199
830.921118,740.205942,-9622.677246,229.828649
830.921443,1628.453072,-9918.759623,306.438199
830.921767,1628.453072,-10066.800811,1608.800546
830.922091,592.164754,-10362.883188,919.314598
830.922415,-296.082377,-9844.739029,383.047749
830.922739,0.000000,-9178.553681,1225.752797
830.923063,1036.288319,-9622.677246,1302.362347
830.923387,1628.453072,-10732.986159,766.095498
830.923711,962.267725,-10732.986159,1072.533697
830.924035,-148.041188,-10214.842000,306.438199
830.924359,-666.185348,-9474.636058,-306.438199
830.924683,-592.164754,-9400.615463,-459.657299
830.925007,518.144159,-9770.718434,-306.438199
830.925331,1036.288319,-9918.759623,-842.705048
830.925655,296.082377,-9992.780217,-766.095498
830.925980,-814.226536,-10214.842000,-153.219100
830.926304,-962.267725,-9696.697840,-919.314598
830.926628,148.041188,-8956.491898,-536.266849
830.926952,1924.535449,-9252.574275,0.000000
830.927276,2960.823768,-9622.677246,-153.219100
830.927600,2590.720797,-10140.821405,-383.047749
830.927924,444.123565,-10066.800811,-919.314598
830.928248,-1776.494261,-9844.739029,-1532.190996
830.928572,-2442.679609,-9252.574275,-1608.800546
830.928896,-1332.370696,-8438.347739,-2068.457845
830.929220,0.000000,-9252.574275,-1378.971896
830.929544,962.267725,-10140.821405,-1378.971896
830.929868,370.102971,-9992.780217,-919.314598
830.930192,-666.185348,-9622.677246,-459.657299
830.930516,-1332.370696,-8882.471304,-689.485948
830.930841,-740.205942,-8364.327145,-153.219100
830.931165,518.144159,-9104.533087,-229.828649
830.931489,1110.308913,-10066.800811,-459.657299
830.931813,74.020594,-10510.924376,153.219100
830.932137,-1702.473667,-9992.780217,-612.876398
830.932461,-2368.659014,-9696.697840,-919.314598
830.932785,-1998.556043,-9178.553681,-1225.752797
830.933109,-666.185348,-8956.491898,-1225.752797
830.933433,0.000000,-9104.533087,-842.705048
830.933757,-740.205942,-9992.780217,-689.485948
830.934081,-2146.597232,-9918.759623,-229.828649
830.934405,-2516.700203,-9474.636058,-229.828649
830.934729,-1332.370696,-8808.450710,0.000000
830.935053,1184.329507,-9252.574275,0.000000
830.935377,3182.885551,-9918.759623,229.828649
830.935702,3552.988522,-10955.047942,612.876398
830.936026,1110.308913,-11103.089130,229.828649
830.936350,-666.185348,-11029.068536,0.000000
830.936674,-2072.576638,-9770.718434,-459.657299
830.936998,-1776.494261,-9400.615463,-1225.752797
830.937322,-222.061783,-10436.903782,-1225.752797
830.937646,518.144159,-11473.192101,-612.876398
830.937970,0.000000,-11547.212695,0.000000
830.938294,-814.226536,-10658.965565,383.047749
830.938618,-814.226536,-9474.636058,459.657299
830.938942,296.082377,-9326.594869,842.705048
830.939266,1258.350101,-9548.656652,689.485948
830.939590,1850.514855,-10658.965565,919.314598
830.939914,1110.308913,-11325.150913,1149.143247
830.940239,0.000000,-11029.068536,995.924147
830.940563,-666.185348,-9474.636058,919.314598
830.940887,-814.226536,-8660.409521,383.047749
830.941211,370.102971,-8734.430116,-153.219100
830.941535,888.247130,-9400.615463,229.828649
830.941859,74.020594,-9992.780217,306.438199
830.942183,-1110.308913,-9548.656652,766.095498
830.942507,-962.267725,-8734.430116,612.876398
830.942831,0.000000,-7698.141797,612.876398
830.943155,1776.494261,-7698.141797,153.219100
830.943479,2664.741391,-8660.409521,689.485948
830.943803,2664.741391,-9474.636058,1608.800546
830.944127,1110.308913,-9844.739029,1225.752797
830.944451,-962.267725,-9178.553681,919.314598
830.944775,-1480.411884,-8364.327145,689.485948
830.945100,-592.164754,-8290.306550,383.047749
830.945424,592.164754,-8882.471304,0.000000
830.945748,1110.308913,-9918.759623,689.485948
830.946072,222.061783,-9252.574275,153.219100
830.946396,-740.205942,-9030.512492,0.000000
830.946720,-1332.370696,-8068.244768,306.438199
830.947044,-888.247130,-8142.265362,383.047749
830.947368,444.123565,-8956.491898,459.657299
830.947692,1258.350101,-9622.677246,0.000000
830.948016,296.082377,-9918.759623,536.266849
830.948340,-1258.350101,-9992.780217,612.876398
830.948664,-1702.473667,-9696.697840,-306.438199
830.948988,-1110.308913,-9104.533087,-153.219100
830.949312,-148.041188,-9400.615463,-842.705048
830.949636,0.000000,-10214.842000,-995.924147
830.949961,-888.247130,-10658.965565,-689.485948
830.950285,-1702.473667,-10732.986159,-536.266849
830.950609,-1776.494261,-10214.842000,-1149.143247
830.950933,0.000000,-9622.677246,-536.266849
830.951257,2146.597232,-9770.718434,-153.219100
830.951581,3108.864956,-10955.047942,0.000000
830.951905,2590.720797,-11399.171507,-229.828649
830.952229,518.144159,-11399.171507,-306.438199
830.952553,-1628.453072,-10881.027347,-1149.143247
830.952877,-1924.535449,-10140.821405,-1532.190996
830.953201,-888.247130,-9696.697840,-1838.629195
830.953525,888.247130,-10658.965565,-1225.752797
830.953849,888.247130,-10658.965565,-1378.971896
830.954173,0.000000,-10510.924376,-1302.362347
830.954498,-1406.391290,-9474.636058,-766.095498
830.954822,-1110.308913,-8956.491898,-306.438199
830.955146,0.000000,-8660.409521,-229.828649
830.955470,1332.370696,-9326.594869,689.485948
830.955794,1110.308913,-9992.780217,0.000000
830.956118,0.000000,-10362.883188,-306.438199
830.956442,-1480.411884,-9770.718434,0.000000
830.956766,-1702.473667,-9474.636058,-459.657299
830.957090,-1110.308913,-9178.553681,-612.876398
830.957414,-222.061783,-9104.533087,-612.876398
830.957738,296.082377,-9400.615463,-842.705048
830.958062,0.000000,-9622.677246,-459.657299
830.958386,-1332.370696,-9918.759623,-153.219100
830.958710,-1628.453072,-8956.491898,0.000000
830.959034,-296.082377,-8364.327145,306.438199
830.959359,1924.535449,-9104.533087,459.657299
830.959683,3034.844362,-9548.656652,229.828649
830.960007,2146.597232,-9474.636058,995.924147
830.960331,148.041188,-9844.739029,766.095498
830.960655,-1406.391290,-9992.780217,229.828649
830.960979,-1554.432478,-9030.512492,-766.095498
830.961303,-592.164754,-8438.347739,-229.828649
830.961627,888.247130,-9474.636058,-306.438199
830.961951,1258.350101,-10140.821405,-229.828649
830.962275,962.267725,-9992.780217,306.438199
830.962599,0.000000,-9326.594869,842.705048
830.962923,-148.041188,-8808.450710,612.876398
830.963247,1184.329507,-8512.368333,689.485948
830.963571,1850.514855,-9178.553681,306.438199
830.963895,2072.576638,-9992.780217,536.266849
830.964220,666.185348,-10732.986159,306.438199
830.964544,-740.205942,-10658.965565,-306.438199
830.964868,-1332.370696,-9622.677246,-383.047749
830.965192,-814.226536,-9030.512492,-919.314598
830.965516,296.082377,-9770.718434,-536.266849
830.965840,222.061783,-10732.986159,-383.047749
830.966164,-1480.411884,-10881.027347,-689.485948
830.966488,-2590.720797,-10584.944971,-383.047749
830.966812,-2368.659014,-10140.821405,-306.438199
830.967136,-740.205942,-9770.718434,383.047749
830.967460,1924.535449,-10214.842000,153.219100
830.967784,2590.720797,-9992.780217,306.438199
830.968108,2146.597232,-10436.903782,76.609550
830.968432,-814.226536,-10658.965565,-383.047749
830.968757,-2368.659014,-10214.842000,-689.485948
830.969081,-2590.720797,-9400.615463,-1072.533697
830.969405,-962.267725,-9474.636058,-1302.362347
830.969729,74.020594,-9548.656652,-536.266849
830.970053,888.247130,-10140.821405,-536.266849
830.970377,-148.041188,-9844.739029,-306.438199
830.970701,-1184.329507,-9104.533087,-689.485948
830.971025,-1480.411884,-8290.306550,0.000000
830.971349,-370.102971,-8216.285956,0.000000
830.971673,1184.329507,-8882.471304,383.047749
830.971997,1702.473667,-9474.636058,919.314598
830.972321,1480.411884,-10288.862594,536.266849
830.972645,0.000000,-9474.636058,612.876398
830.972969,-740.205942,-8956.491898,459.657299
830.973293,-444.123565,-8438.347739,-153.219100
830.973618,296.082377,-9030.512492,-153.219100
830.973942,148.041188,-9696.697840,0.000000
830.974266,-814.226536,-10436.903782,76.609550
830.974590,-1480.411884,-10436.903782,306.438199
830.974914,-1406.391290,-9474.636058,153.219100
830.975238,0.000000,-8660.409521,306.438199
830.975562,1628.453072,-9252.574275,766.095498
830.975886,2516.700203,-9992.780217,1072.533697
830.976210,1776.494261,-10658.965565,1149.143247
830.976534,-518.144159,-10436.903782,459.657299
830.976858,-1998.556043,-9696.697840,229.828649
830.977182,-1998.556043,-9400.615463,-383.047749
830.977506,-666.185348,-9030.512492,-459.657299
830.977830,1110.308913,-9844.739029,0.000000
830.978154,962.267725,-10066.800811,0.000000
830.978479,-296.082377,-9992.780217,0.000000
830.978803,-1036.288319,-9400.615463,0.000000
830.979127,-740.205942,-8734.430116,229.828649
830.979451,370.102971,-9326.594869,536.266849
830.979775,1702.473667,-9844.739029,1072.533697
830.980099,1258.350101,-10140.821405,1072.533697
830.980423,814.226536,-10807.006753,1149.143247
830.980747,-666.185348,-10288.862594,766.095498
830.981071,-1406.391290,-9548.656652,153.219100
830.981395,-1184.329507,-9104.533087,-153.219100
830.981719,0.000000,-9326.594869,-306.438199
830.982043,370.102971,-9992.780217,383.047749
830.982367,-962.267725,-10436.903782,229.828649
830.982691,-2294.638420,-9770.718434,0.000000
830.983016,-1924.535449,-9252.574275,-229.828649
830.983340,0.000000,-8808.450710,0.000000
830.983664,2294.638420,-9104.533087,229.828649
830.983988,3330.926739,-9844.739029,0.000000
830.984312,2146.597232,-9474.636058,383.047749
830.984636,148.041188,-10066.800811,0.000000
830.984960,-962.267725,-9844.739029,-995.924147
830.985284,-1184.329507,-8956.491898,-383.047749
830.985608,444.123565,-8808.450710,-1072.533697
830.985932,1702.473667,-9326.594869,-536.266849
830.986256,1924.535449,-9844.739029,-383.047749
830.986580,222.061783,-9474.636058,0.000000
830.986904,-1036.288319,-9030.512492,-536.266849
830.987228,-962.267725,-8438.347739,-306.438199
830.987552,444.123565,-8734.430116,-383.047749
830.987877,1554.432478,-9844.739029,-536.266849
830.988201,1406.391290,-10584.944971,-766.095498
830.988525,518.144159,-10584.944971,-383.047749
830.988849,-888.247130,-10066.800811,-612.876398
830.989173,-1554.432478,-9622.677246,-1455.581446
830.989497,-666.185348,-9696.697840,-1608.800546
830.989821,444.123565,-9622.677246,-1378.971896
830.990145,888.247130,-10436.903782,-689.485948
830.990469,-296.082377,-11029.068536,-689.485948
830.990793,-1924.535449,-10436.903782,-612.876398
830.991117,-2294.638420,-9474.636058,-919.314598
830.991441,-222.061783,-9326.594869,-766.095498
830.991765,1998.556043,-9770.718434,-153.219100
830.992089,2886.803174,-10140.821405,-612.876398
830.992413,1406.391290,-10510.924376,0.000000
830.992738,-1332.370696,-10140.821405,-995.924147
830.993062,-3330.926739,-9474.636058,-1608.800546
830.993386,-2738.761985,-9400.615463,-1915.238745
830.993710,-1036.288319,-9400.615463,-1915.238745
830.994034,888.247130,-9844.739029,-1149.143247
830.994358,1036.288319,-10066.800811,-459.657299
830.994682,444.123565,-10140.821405,306.438199
830.995006,-296.082377,-9770.718434,76.609550
830.995330,-222.061783,-9474.636058,0.000000
830.995654,1110.308913,-9918.759623,383.047749
830.995978,2368.659014,-10214.842000,612.876398
830.996302,1776.494261,-10881.027347,1072.533697
830.996626,740.205942,-11029.068536,536.266849
830.996950,-888.247130,-10140.821405,0.000000
830.997275,-1628.453072,-9474.636058,766.095498
830.997599,-1184.329507,-9178.553681,-383.047749
830.997923,222.061783,-9400.615463,-383.047749
830.998247,0.000000,-9844.739029,76.609550
830.998571,-1110.308913,-10288.862594,153.219100
830.998895,-1924.535449,-9548.656652,612.876398
830.999219,-2072.576638,-8512.368333,0.000000
830.999543,-444.123565,-8808.450710,995.924147
830.999867,1924.535449,-9030.512492,995.924147
831.000191,2516.700203,-9696.697840,1532.190996
831.000515,1110.308913,-9992.780217,1455.581446
831.000839,-1184.329507,-10066.800811,919.314598
831.001163,-2516.700203,-9252.574275,306.438199
831.001487,-1998.556043,-8586.388927,76.609550
