#time,accel_x,accel_y,accel_z
440.232664,1702.473667,-11251.130318,3064.381992
440.232988,-296.082377,-12731.542202,3294.210641
440.233312,-3182.885551,-11621.233289,306.438199
440.233637,-5625.565159,-8142.265362,-1378.971896
440.233961,-5255.462188,-6883.915261,-1915.238745
440.234285,-2220.617826,-7179.997637,-1378.971896
440.234609,1184.329507,-6957.935855,995.924147
440.234934,4663.297435,-7698.141797,3064.381992
440.235258,7105.977043,-9844.739029,4213.525239
440.235582,7550.100608,-11325.150913,2604.724693
440.235907,6365.771101,-11843.295072,1608.800546
440.236231,4589.276840,-13027.624579,229.828649
440.236555,2812.782580,-13619.789333,-1378.971896
440.236880,1110.308913,-13323.706956,-1915.238745
440.237204,0.000000,-12953.603985,-1685.410096
440.237528,-444.123565,-12805.562797,-689.485948
440.237853,0.000000,-12139.377449,-919.314598
440.238177,296.082377,-10140.821405,-766.095498
440.238501,814.226536,-8512.368333,-383.047749
440.238825,592.164754,-8290.306550,383.047749
440.239150,1184.329507,-8882.471304,689.485948
440.239474,1702.473667,-8956.491898,1762.019645
440.239798,2516.700203,-8808.450710,2221.676944
440.240123,3182.885551,-9178.553681,1532.190996
440.240447,3552.988522,-10066.800811,689.485948
440.240771,4145.153275,-10214.842000,459.657299
440.241096,4071.132681,-10807.006753,306.438199
440.241420,2590.720797,-11399.171507,229.828649
440.241744,1628.453072,-11029.068536,0.000000
440.242069,1628.453072,-9918.759623,1072.533697
440.242393,2368.659014,-9474.636058,1915.238745
440.242717,3256.906145,-9030.512492,2451.505594
440.243041,3923.091493,-9104.533087,2987.772442
440.243366,4145.153275,-9178.553681,4290.134789
440.243690,4367.215058,-8956.491898,4290.134789
440.244014,3256.906145,-8438.347739,3830.477490
440.244339,2294.638420,-8438.347739,3217.601092
440.244663,1776.494261,-8956.491898,3677.258390
440.244987,1776.494261,-9992.780217,3140.991542
440.245312,1850.514855,-10066.800811,3217.601092
440.245636,1776.494261,-10066.800811,2987.772442
440.245960,1480.411884,-9844.739029,3830.477490
440.246285,888.247130,-10510.924376,3830.477490
440.246609,1258.350101,-10214.842000,4136.915689
440.246933,1702.473667,-8734.430116,4596.572988
440.247257,1924.535449,-7698.141797,4979.620737
440.247582,2368.659014,-7105.977043,5515.887586
440.247906,3034.844362,-5995.668130,5439.278036
440.248230,4071.132681,-5995.668130,5056.230287
440.248555,4293.194464,-6143.709319,4366.744339
440.248879,3775.050304,-6217.729913,4213.525239
440.249203,2812.782580,-6661.853478,3753.867940
440.249528,1258.350101,-7698.141797,3294.210641
440.249852,-444.123565,-9622.677246,2987.772442
440.250176,-1480.411884,-11399.171507,2298.286494
440.250500,-1628.453072,-12139.377449,2221.676944
440.250825,-1110.308913,-11917.315666,2604.724693
440.251149,296.082377,-11399.171507,3294.210641
440.251473,2368.659014,-11177.109724,3370.820191
440.251798,3701.029710,-10584.944971,3677.258390
440.252122,3849.070898,-10140.821405,3140.991542
440.252446,3182.885551,-10214.842000,2221.676944
440.252771,1850.514855,-9474.636058,1915.238745
440.253095,740.205942,-9104.533087,1378.971896
440.253419,148.041188,-8586.388927,536.266849
440.253744,-296.082377,-8734.430116,0.000000
440.254068,-1110.308913,-9178.553681,0.000000
440.254392,-740.205942,-9770.718434,-229.828649
440.254716,0.000000,-9400.615463,-459.657299
440.255041,518.144159,-10214.842000,-229.828649
440.255365,-888.247130,-10362.883188,-383.047749
440.255689,-1776.494261,-10807.006753,-919.314598
440.256014,-2960.823768,-10436.903782,-689.485948
440.256338,-2664.741391,-9992.780217,-689.485948
440.256662,-1036.288319,-9474.636058,-383.047749
440.256987,888.247130,-9474.636058,-536.266849
440.257311,3552.988522,-10066.800811,-306.438199
440.257635,5551.544565,-11177.109724,-766.095498
440.257960,5329.482782,-11473.192101,-1685.410096
440.258284,2738.761985,-11621.233289,-2757.943793
440.258608,-592.164754,-11769.274478,-2987.772442
440.258932,-2368.659014,-10658.965565,-3600.648841
440.259257,-1554.432478,-10584.944971,-2834.553343
440.259581,148.041188,-10140.821405,-2451.505594
440.259905,1702.473667,-9992.780217,-1991.848295
440.260230,2516.700203,-9770.718434,-1378.971896
440.260554,3034.844362,-9030.512492,-383.047749
440.260878,2294.638420,-8586.388927,-153.219100
440.261203,444.123565,-8512.368333,-306.438199
440.261527,-740.205942,-8290.306550,-842.705048
440.261851,-1036.288319,-8364.327145,-1685.410096
440.262176,-962.267725,-8512.368333,-2298.286494
440.262500,-1702.473667,-9104.533087,-3064.381992
440.262827,-2738.761985,-9622.677246,-4060.306139
440.263151,-4145.153275,-9622.677246,-4749.792088
440.263475,-4293.194464,-9326.594869,-4136.915689
440.263799,-3034.844362,-9178.553681,-3140.991542
440.264124,-148.041188,-9770.718434,-1685.410096
440.264448,2442.679609,-9622.677246,-536.266849
440.264772,4885.359217,-9622.677246,842.705048
440.265097,5847.626942,-10066.800811,1608.800546
440.265421,5329.482782,-10436.903782,1991.848295
440.265745,2146.597232,-11029.068536,995.924147
440.266070,-296.082377,-10214.842000,689.485948
440.266394,-2590.720797,-9622.677246,-612.876398
440.266718,-3404.947333,-10362.883188,-1378.971896
440.267042,-3256.906145,-11621.233289,-1762.019645
440.267367,-2960.823768,-11695.253884,-1915.238745
440.267691,-3182.885551,-10658.965565,-1991.848295
440.268015,-4145.153275,-8882.471304,-842.705048
440.268340,-4811.338623,-8068.244768,-766.095498
440.268664,-3627.009116,-7698.141797,-383.047749
440.268988,-1110.308913,-7994.224174,1225.752797
440.269313,2220.617826,-9252.574275,2145.067394
440.269637,4737.318029,-10140.821405,2604.724693
440.269961,5033.400406,-9918.759623,3370.820191
440.270285,3627.009116,-9400.615463,3524.039291
440.270610,1554.432478,-9696.697840,1685.410096
440.270934,-1850.514855,-9326.594869,995.924147
440.271258,-2960.823768,-9474.636058,689.485948
440.271583,-1850.514855,-10658.965565,842.705048
440.271907,-222.061783,-10881.027347,1149.143247
440.272231,888.247130,-10584.944971,1685.410096
440.272556,444.123565,-9992.780217,1838.629195
440.272880,-518.144159,-9770.718434,995.924147
440.273204,-962.267725,-8956.491898,1915.238745
440.273528,-888.247130,-8438.347739,1378.971896
440.273853,1036.288319,-8882.471304,2451.505594
440.274177,2664.741391,-9548.656652,2604.724693
440.274501,3256.906145,-9400.615463,2528.115143
440.274826,2590.720797,-8586.388927,1838.629195
440.275150,814.226536,-7698.141797,459.657299
440.275474,-444.123565,-8068.244768,0.000000
440.275799,-444.123565,-7550.100608,-306.438199
440.276123,0.000000,-7624.121203,153.219100
440.276447,518.144159,-9252.574275,919.314598
440.276771,296.082377,-10288.862594,1302.362347
440.277096,-592.164754,-10955.047942,1302.362347
440.277420,-2220.617826,-10140.821405,612.876398
440.277744,-3404.947333,-9992.780217,306.438199
440.278069,-3404.947333,-9474.636058,-229.828649
440.278393,-2368.659014,-9178.553681,459.657299
440.278717,-296.082377,-9696.697840,536.266849
440.279042,666.185348,-10140.821405,229.828649
440.279366,1110.308913,-10140.821405,-306.438199
440.279690,444.123565,-9178.553681,-1149.143247
440.280014,0.000000,-7846.182985,-1455.581446
440.280339,222.061783,-7920.203579,-1302.362347
440.280663,1628.453072,-9030.512492,-612.876398
440.280987,3404.947333,-9622.677246,306.438199
440.281312,4441.235652,-10881.027347,459.657299
440.281636,4145.153275,-11917.315666,612.876398
440.281960,1924.535449,-11917.315666,0.000000
440.282285,-1184.329507,-11251.130318,-995.924147
440.282609,-3627.009116,-10732.986159,-1149.143247
440.282933,-3775.050304,-10732.986159,-1149.143247
440.283257,-2368.659014,-10214.842000,-919.314598
440.283582,-444.123565,-10362.883188,-842.705048
440.283906,1184.329507,-10140.821405,-1072.533697
440.284230,1776.494261,-9770.718434,-1532.190996
440.284555,740.205942,-9030.512492,-2374.896044
440.284879,0.000000,-8956.491898,-2145.067394
440.285203,518.144159,-8364.327145,-2068.457845
440.285527,2146.597232,-9104.533087,-2145.067394
440.285852,3627.009116,-10807.006753,-229.828649
440.286176,3552.988522,-11843.295072,0.000000
440.286500,1702.473667,-12361.439231,-229.828649
440.286825,-1332.370696,-11769.274478,-919.314598
440.287149,-4515.256246,-10807.006753,-1762.019645
440.287473,-5403.503377,-9474.636058,-1455.581446
440.287798,-4367.215058,-9104.533087,-1072.533697
440.288122,-1850.514855,-8956.491898,0.000000
440.288446,222.061783,-8808.450710,-459.657299
440.288770,1258.350101,-8364.327145,-306.438199
440.289095,1258.350101,-7846.182985,-919.314598
440.289419,148.041188,-7698.141797,-1608.800546
440.289743,-666.185348,-7476.080014,-1991.848295
440.290068,0.000000,-8142.265362,-766.095498
440.290392,1998.556043,-9252.574275,-689.485948
440.290716,3478.967927,-10807.006753,306.438199
440.291041,2960.823768,-11695.253884,76.609550
440.291365,1110.308913,-11843.295072,459.657299
440.291689,-2368.659014,-10955.047942,153.219100
440.292013,-4737.318029,-10066.800811,-383.047749
440.292338,-4589.276840,-9400.615463,153.219100
440.292662,-2516.700203,-8956.491898,766.095498
440.292986,296.082377,-9548.656652,1532.190996
440.293311,1998.556043,-9252.574275,995.924147
440.293635,2220.617826,-9178.553681,766.095498
440.293959,814.226536,-8956.491898,76.609550
440.294284,-666.185348,-8808.450710,-689.485948
440.294608,-666.185348,-8882.471304,-766.095498
440.294932,0.000000,-8808.450710,-229.828649
440.295256,1776.494261,-10066.800811,229.828649
440.295581,2294.638420,-11029.068536,1378.971896
440.295905,1702.473667,-11547.212695,842.705048
440.296229,-592.164754,-10807.006753,842.705048
440.296554,-3256.906145,-10140.821405,612.876398
440.296878,-4515.256246,-8956.491898,766.095498
440.297202,-3108.864956,-8660.409521,1149.143247
440.297527,-1036.288319,-8660.409521,1685.410096
440.297851,888.247130,-9030.512492,1302.362347
440.298175,1850.514855,-8808.450710,1532.190996
440.298499,1110.308913,-8734.430116,995.924147
440.298824,0.000000,-9030.512492,0.000000
440.299148,-1184.329507,-8956.491898,-766.095498
440.299472,-1554.432478,-9252.574275,-842.705048
440.299797,-148.041188,-9770.718434,-842.705048
440.300121,1406.391290,-10288.862594,-306.438199
440.300445,2590.720797,-11103.089130,612.876398
440.300770,2220.617826,-11621.233289,1072.533697
440.301094,296.082377,-11251.130318,919.314598
440.301418,-1702.473667,-10140.821405,459.657299
440.301742,-2146.597232,-9252.574275,459.657299
440.302067,-814.226536,-9104.533087,919.314598
440.302391,1036.288319,-9400.615463,919.314598
440.302715,2590.720797,-9474.636058,1915.238745
440.303040,2146.597232,-9252.574275,1302.362347
440.303364,1110.308913,-9030.512492,229.828649
440.303688,-370.102971,-8512.368333,-995.924147
440.304013,-1110.308913,-8364.327145,-1532.190996
440.304337,-222.061783,-8364.327145,-1302.362347
440.304661,1332.370696,-9622.677246,-459.657299
440.304985,2442.679609,-10807.006753,-536.266849
440.305310,2294.638420,-11769.274478,766.095498
440.305634,0.000000,-11695.253884,612.876398
440.305958,-2664.741391,-10584.944971,-612.876398
440.306283,-3701.029710,-9918.759623,-306.438199
440.306607,-2738.761985,-9474.636058,0.000000
440.306931,-222.061783,-9696.697840,536.266849
440.307256,1406.391290,-9696.697840,995.924147
440.307580,2220.617826,-9918.759623,689.485948
440.307904,1258.350101,-8734.430116,-229.828649
440.308228,-296.082377,-8660.409521,-766.095498
440.308553,-1850.514855,-8956.491898,-1608.800546
440.308877,-1480.411884,-8808.450710,-1608.800546
440.309201,370.102971,-9252.574275,-1302.362347
440.309526,2368.659014,-10066.800811,-995.924147
440.309850,2886.803174,-11325.150913,0.000000
440.310174,1628.453072,-11547.212695,-612.876398
440.310498,-1184.329507,-10584.944971,-1225.752797
440.310823,-3849.070898,-9622.677246,-1225.752797
440.311147,-4367.215058,-9104.533087,-1225.752797
440.311471,-2886.803174,-9104.533087,-536.266849
440.311796,-370.102971,-9178.553681,0.000000
440.312120,1110.308913,-8956.491898,306.438199
440.312444,1998.556043,-9030.512492,-306.438199
440.312769,1554.432478,-8364.327145,-919.314598
440.313093,962.267725,-8660.409521,-1149.143247
440.313417,962.267725,-9030.512492,-1378.971896
440.313741,1998.556043,-9178.553681,-842.705048
440.314066,2812.782580,-10436.903782,-229.828649
440.314390,3108.864956,-11917.315666,459.657299
440.314714,2220.617826,-12583.501014,229.828649
440.315039,0.000000,-11917.315666,0.000000
440.315363,-3923.091493,-10066.800811,-229.828649
440.315687,-4959.379811,-9844.739029,-1455.581446
440.316012,-4219.173869,-9252.574275,-536.266849
440.316336,-1924.535449,-9030.512492,536.266849
440.316660,370.102971,-8808.450710,995.924147
440.316984,1924.535449,-9030.512492,842.705048
440.317309,1850.514855,-8438.347739,306.438199
440.317633,888.247130,-8438.347739,0.000000
440.317957,0.000000,-8364.327145,-689.485948
440.318282,-370.102971,-8364.327145,-536.266849
440.318606,814.226536,-9178.553681,0.000000
440.318930,2368.659014,-10214.842000,536.266849
440.319255,3108.864956,-11917.315666,1149.143247
440.319579,1776.494261,-11991.336260,689.485948
440.319903,-962.267725,-11399.171507,306.438199
440.320227,-4145.153275,-9844.739029,-229.828649
440.320552,-5403.503377,-9252.574275,-306.438199
440.320876,-3701.029710,-8956.491898,459.657299
440.321200,-962.267725,-9178.553681,1225.752797
440.321525,1554.432478,-9178.553681,1455.581446
440.321849,2738.761985,-9104.533087,1378.971896
440.322173,1850.514855,-8956.491898,612.876398
440.322498,592.164754,-8882.471304,-766.095498
440.322822,0.000000,-8586.388927,-689.485948
440.323146,148.041188,-9030.512492,-766.095498
440.323470,962.267725,-9844.739029,-459.657299
440.323795,2294.638420,-11325.150913,0.000000
440.324119,1998.556043,-11917.315666,766.095498
440.324443,370.102971,-11177.109724,383.047749
440.324768,-2738.761985,-10658.965565,-306.438199
440.325092,-5107.421000,-9178.553681,-459.657299
440.325416,-5107.421000,-9030.512492,-229.828649
440.325741,-3182.885551,-8956.491898,383.047749
440.326065,-740.205942,-8734.430116,919.314598
440.326389,1036.288319,-8808.450710,766.095498
440.326713,1702.473667,-8364.327145,842.705048
440.327038,1110.308913,-8364.327145,-229.828649
440.327362,296.082377,-7846.182985,-766.095498
440.327686,148.041188,-8290.306550,-919.314598
440.328011,1480.411884,-9326.594869,-612.876398
440.328335,2960.823768,-10214.842000,-383.047749
440.328659,3478.967927,-11103.089130,229.828649
440.328984,2886.803174,-11621.233289,1302.362347
440.329308,444.123565,-11769.274478,229.828649
440.329632,-2738.761985,-10436.903782,-306.438199
440.329956,-3701.029710,-9104.533087,-612.876398
440.330281,-3330.926739,-8882.471304,0.000000
440.330605,-1332.370696,-9030.512492,153.219100
440.330929,1036.288319,-9474.636058,612.876398
440.331254,2294.638420,-9252.574275,306.438199
440.331578,1924.535449,-8734.430116,-229.828649
440.331902,962.267725,-8586.388927,-1378.971896
440.332227,444.123565,-8438.347739,-1762.019645
440.332551,1702.473667,-9104.533087,-1302.362347
440.332875,2590.720797,-9992.780217,-612.876398
440.333199,3478.967927,-11029.068536,-383.047749
440.333524,3034.844362,-11843.295072,306.438199
440.333848,1184.329507,-12139.377449,229.828649
440.334172,-1480.411884,-11399.171507,-459.657299
440.334497,-4145.153275,-10140.821405,-536.266849
440.334821,-4589.276840,-9178.553681,-536.266849
440.335145,-2960.823768,-8882.471304,153.219100
440.335469,-370.102971,-9474.636058,689.485948
440.335794,888.247130,-9252.574275,1149.143247
440.336118,1332.370696,-8808.450710,229.828649
440.336442,814.226536,-8660.409521,-306.438199
440.336767,-148.041188,-8512.368333,-689.485948
440.337091,0.000000,-8438.347739,-689.485948
440.337415,888.247130,-8586.388927,-229.828649
440.337740,2442.679609,-9918.759623,153.219100
440.338064,2812.782580,-10881.027347,229.828649
440.338388,1850.514855,-11621.233289,459.657299
440.338712,-592.164754,-11251.130318,383.047749
440.339037,-3552.988522,-10288.862594,76.609550
440.339361,-5107.421000,-9104.533087,-459.657299
440.339685,-4293.194464,-8438.347739,612.876398
440.340010,-1924.535449,-9178.553681,842.705048
440.340334,0.000000,-9252.574275,1149.143247
440.340658,1554.432478,-8956.491898,842.705048
440.340983,1776.494261,-8290.306550,689.485948
440.341307,592.164754,-8290.306550,0.000000
440.341631,0.000000,-8586.388927,-612.876398
440.341955,296.082377,-8808.450710,-612.876398
440.342280,1406.391290,-9844.739029,0.000000
440.342604,2590.720797,-11399.171507,0.000000
440.342928,2516.700203,-11843.295072,612.876398
440.343253,1036.288319,-11917.315666,383.047749
440.343577,-1628.453072,-11399.171507,-306.438199
440.343901,-4071.132681,-10362.883188,-612.876398
440.344226,-4589.276840,-9400.615463,-383.047749
440.344550,-2738.761985,-8882.471304,0.000000
440.344874,0.000000,-8882.471304,1302.362347
440.345198,1702.473667,-8512.368333,1532.190996
440.345523,2368.659014,-8512.368333,766.095498
440.345847,1258.350101,-8586.388927,-612.876398
440.346171,-666.185348,-8734.430116,-1225.752797
440.346496,-1036.288319,-8808.450710,-1225.752797
440.346820,0.000000,-9030.512492,-1072.533697
440.347144,1406.391290,-9992.780217,-1072.533697
440.347469,2368.659014,-10436.903782,-306.438199
440.347793,1924.535449,-11473.192101,0.000000
440.348117,148.041188,-11695.253884,-153.219100
440.348441,-2664.741391,-11325.150913,-995.924147
440.348766,-4219.173869,-9918.759623,-995.924147
440.349090,-4071.132681,-9474.636058,-536.266849
440.349414,-2294.638420,-9622.677246,0.000000
440.349739,148.041188,-9770.718434,536.266849
440.350063,1924.535449,-9696.697840,1149.143247
440.350387,1998.556043,-9622.677246,76.609550
440.350712,814.226536,-9474.636058,-229.828649
440.351036,370.102971,-9326.594869,-842.705048
440.351360,296.082377,-9178.553681,-1072.533697
440.351684,1628.453072,-9696.697840,-1072.533697
440.352009,2590.720797,-10881.027347,76.609550
440.352333,2960.823768,-11843.295072,689.485948
440.352657,1850.514855,-11843.295072,153.219100
440.352982,-962.267725,-10807.006753,153.219100
440.353306,-3108.864956,-9844.739029,-383.047749
440.353630,-3775.050304,-8956.491898,-229.828649
440.353955,-2442.679609,-8734.430116,536.266849
440.354279,0.000000,-8660.409521,1225.752797
440.354603,1628.453072,-8660.409521,1762.019645
440.354927,2220.617826,-8660.409521,1302.362347
440.355252,1036.288319,-7624.121203,459.657299
440.355576,-1406.391290,-7328.038826,-689.485948
440.355900,-1850.514855,-7698.141797,-919.314598
440.356225,-1332.370696,-8216.285956,-1072.533697
440.356549,444.123565,-9326.594869,-153.219100
440.356873,1924.535449,-10214.842000,0.000000
440.357198,2220.617826,-10955.047942,1225.752797
440.357522,888.247130,-10881.027347,383.047749
440.357846,-1480.411884,-10658.965565,229.828649
440.358170,-2960.823768,-10362.883188,0.000000
440.358495,-2294.638420,-9696.697840,459.657299
440.358819,0.000000,-9474.636058,1149.143247
440.359143,1850.514855,-9474.636058,1685.410096
440.359468,2442.679609,-9104.533087,1378.971896
440.359792,1702.473667,-8956.491898,306.438199
440.360116,222.061783,-9326.594869,-536.266849
440.360440,-1258.350101,-8290.306550,-1608.800546
440.360765,-740.205942,-8142.265362,-1532.190996
440.361089,666.185348,-9178.553681,-689.485948
440.361413,2072.576638,-10510.924376,-383.047749
440.361738,2812.782580,-11399.171507,612.876398
440.362062,1258.350101,-11621.233289,0.000000
440.362386,-1110.308913,-11325.150913,-689.485948
440.362711,-3775.050304,-10362.883188,-536.266849
440.363035,-4145.153275,-10066.800811,0.000000
440.363359,-2220.617826,-9992.780217,229.828649
440.363683,74.020594,-9844.739029,612.876398
440.364008,1480.411884,-9474.636058,689.485948
440.364332,1924.535449,-9474.636058,153.219100
440.364656,1258.350101,-9400.615463,-612.876398
440.364981,-296.082377,-8956.491898,-995.924147
440.365305,-1406.391290,-8364.327145,-1302.362347
440.365629,-814.226536,-9252.574275,-995.924147
440.365953,814.226536,-10066.800811,-612.876398
440.366278,1924.535449,-10955.047942,0.000000
440.366602,1702.473667,-11399.171507,612.876398
440.366926,296.082377,-11473.192101,-306.438199
440.367251,-2516.700203,-11029.068536,-306.438199
440.367575,-3701.029710,-9548.656652,-459.657299
440.367899,-3404.947333,-9178.553681,0.000000
440.368223,-814.226536,-9030.512492,766.095498
440.368548,1036.288319,-9030.512492,1072.533697
440.368872,1998.556043,-8586.388927,766.095498
440.369196,1998.556043,-8068.244768,229.828649
440.369520,148.041188,-7994.224174,-306.438199
440.369845,-888.247130,-8364.327145,-1532.190996
440.370169,-370.102971,-8438.347739,-919.314598
440.370493,370.102971,-9030.512492,-459.657299
440.370818,1850.514855,-10362.883188,-306.438199
440.371142,2220.617826,-11251.130318,306.438199
440.371466,1036.288319,-11177.109724,306.438199
440.371790,-1554.432478,-10955.047942,0.000000
440.372115,-3849.070898,-10214.842000,-306.438199
440.372439,-3923.091493,-9400.615463,-306.438199
440.372763,-1850.514855,-8956.491898,766.095498
440.373088,444.123565,-9178.553681,1072.533697
440.373412,1406.391290,-8956.491898,1149.143247
440.373736,1480.411884,-9030.512492,229.828649
440.374060,444.123565,-8956.491898,-689.485948
440.374385,-518.144159,-8512.368333,-1378.971896
440.374709,-962.267725,-8660.409521,-1532.190996
440.375033,-296.082377,-8734.430116,-536.266849
440.375357,1628.453072,-9918.759623,-459.657299
440.375682,2664.741391,-11103.089130,0.000000
440.376006,2516.700203,-11843.295072,0.000000
440.376330,444.123565,-11843.295072,0.000000
440.376655,-2590.720797,-11325.150913,-995.924147
440.376979,-3552.988522,-11103.089130,-536.266849
440.377303,-3108.864956,-10510.924376,306.438199
440.377627,-814.226536,-10288.862594,842.705048
440.377952,1406.391290,-9770.718434,1302.362347
440.378276,2442.679609,-9696.697840,919.314598
440.378600,2590.720797,-9548.656652,306.438199
440.378925,1110.308913,-9474.636058,-766.095498
440.379249,0.000000,-9252.574275,-2298.286494
440.379573,0.000000,-8438.347739,-842.705048
440.379897,666.185348,-9030.512492,-1302.362347
440.380222,2294.638420,-10140.821405,-383.047749
440.380546,2738.761985,-11399.171507,0.000000
440.380870,1628.453072,-11621.233289,0.000000
440.381194,-666.185348,-10955.047942,0.000000
440.381519,-2812.782580,-10362.883188,-459.657299
440.381843,-3108.864956,-9178.553681,919.314598
440.382167,-1258.350101,-9030.512492,919.314598
440.382492,444.123565,-9104.533087,1532.190996
440.382816,1850.514855,-8956.491898,1532.190996
440.383140,2220.617826,-8216.285956,1072.533697
440.383464,1406.391290,-8438.347739,459.657299
440.383789,0.000000,-8142.265362,-459.657299
440.384113,-1184.329507,-8142.265362,-995.924147
440.384437,-814.226536,-8512.368333,-766.095498
440.384762,370.102971,-9252.574275,-536.266849
440.385086,1258.350101,-10362.883188,76.609550
440.385410,1554.432478,-10584.944971,306.438199
440.385734,444.123565,-10732.986159,229.828649
440.386059,-1850.514855,-10658.965565,153.219100
440.386383,-3478.967927,-9696.697840,153.219100
440.386707,-2960.823768,-9178.553681,689.485948
440.387031,-888.247130,-9104.533087,1532.190996
440.387356,888.247130,-9104.533087,1762.019645
440.387680,1776.494261,-8734.430116,1532.190996
440.388004,1406.391290,-8586.388927,842.705048
440.388329,-370.102971,-8512.368333,-536.266849
440.388653,-1258.350101,-8364.327145,-1072.533697
440.388977,-962.267725,-8068.244768,-1225.752797
440.389301,0.000000,-8364.327145,-536.266849
440.389626,1776.494261,-9622.677246,0.000000
440.389950,2738.761985,-11103.089130,229.828649
440.390274,1628.453072,-11769.274478,536.266849
440.390599,0.000000,-11547.212695,0.000000
440.390923,-2590.720797,-11251.130318,-306.438199
440.391247,-3478.967927,-10362.883188,0.000000
440.391571,-2146.597232,-9770.718434,766.095498
440.391896,0.000000,-10140.821405,1608.800546
440.392220,1406.391290,-10510.924376,2068.457845
440.392544,1776.494261,-9548.656652,919.314598
440.392869,518.144159,-9252.574275,-383.047749
440.393193,-1184.329507,-8808.450710,-1225.752797
440.393517,-2294.638420,-8660.409521,-2145.067394
440.393841,-1850.514855,-9252.574275,-1378.971896
440.394166,-740.205942,-9326.594869,-383.047749
440.394490,962.267725,-10510.924376,-766.095498
440.394814,1332.370696,-11177.109724,-842.705048
440.395138,518.144159,-11325.150913,-689.485948
440.395463,-1628.453072,-11029.068536,-919.314598
440.395787,-2886.803174,-10066.800811,-842.705048
440.396111,-2368.659014,-9252.574275,0.000000
440.396436,-814.226536,-9474.636058,612.876398
440.396760,1480.411884,-8956.491898,1225.752797
440.397084,3034.844362,-8882.471304,1072.533697
440.397408,3182.885551,-8660.409521,612.876398
440.397733,1184.329507,-8290.306550,-459.657299
440.398057,-444.123565,-8068.244768,-1685.410096
440.398381,-592.164754,-7550.100608,-1685.410096
440.398706,0.000000,-8290.306550,-1685.410096
440.399030,1184.329507,-9474.636058,-995.924147
440.399354,1850.514855,-10807.006753,-612.876398
440.399678,1036.288319,-10807.006753,-1149.143247
440.400003,-518.144159,-10732.986159,-919.314598
440.400327,-2664.741391,-10066.800811,-1225.752797
440.400651,-3330.926739,-9622.677246,-612.876398
440.400975,-2294.638420,-9622.677246,153.219100
440.401300,370.102971,-9844.739029,1072.533697
440.401624,2442.679609,-9252.574275,1685.410096
440.401948,2738.761985,-9030.512492,612.876398
440.402273,1850.514855,-9104.533087,-766.095498
440.402597,740.205942,-9104.533087,-995.924147
440.402921,-962.267725,-9104.533087,-1532.190996
440.403245,-740.205942,-9030.512492,-1455.581446
440.403570,74.020594,-9622.677246,-1149.143247
440.403894,1332.370696,-10362.883188,-536.266849
440.404218,1924.535449,-11103.089130,76.609550
440.404543,1332.370696,-11399.171507,0.000000
440.404867,-444.123565,-11029.068536,-842.705048
440.405191,-2146.597232,-10140.821405,-306.438199
440.405515,-2442.679609,-9844.739029,306.438199
440.405840,-814.226536,-9992.780217,1225.752797
440.406164,888.247130,-10066.800811,1532.190996
440.406488,1702.473667,-9326.594869,1685.410096
440.406812,1998.556043,-9326.594869,536.266849
440.407137,148.041188,-8734.430116,0.000000
440.407461,-1036.288319,-9104.533087,-153.219100
440.407785,-1776.494261,-8512.368333,-995.924147
440.408110,-962.267725,-9178.553681,-689.485948
440.408434,370.102971,-10066.800811,-306.438199
440.408758,1110.308913,-11177.109724,153.219100
440.409082,1110.308913,-11399.171507,536.266849
440.409407,0.000000,-11473.192101,919.314598
440.409731,-2368.659014,-10658.965565,842.705048
440.410055,-3108.864956,-9696.697840,842.705048
440.410380,-1850.514855,-9104.533087,1455.581446
440.410704,222.061783,-9252.574275,1915.238745
440.411028,2220.617826,-8956.491898,2298.286494
440.411352,2516.700203,-8216.285956,1991.848295
440.411677,1998.556043,-8216.285956,1149.143247
440.412001,0.000000,-7846.182985,-612.876398
440.412325,-1702.473667,-7328.038826,-842.705048
440.412649,-1924.535449,-7846.182985,-689.485948
440.412974,-962.267725,-8586.388927,-459.657299
440.413298,370.102971,-9474.636058,0.000000
440.413622,1184.329507,-10362.883188,153.219100
440.413947,1258.350101,-10881.027347,689.485948
440.414271,-444.123565,-10955.047942,383.047749
440.414595,-2072.576638,-9696.697840,76.609550
440.414919,-2368.659014,-9030.512492,766.095498
440.415244,-1184.329507,-9474.636058,919.314598
440.415568,444.123565,-9918.759623,1762.019645
440.415892,1850.514855,-9548.656652,1302.362347
440.416217,1850.514855,-8734.430116,459.657299
440.416541,962.267725,-8882.471304,-766.095498
440.416865,-962.267725,-8586.388927,-1455.581446
440.417189,-1480.411884,-8364.327145,-1762.019645
440.417514,-1110.308913,-8586.388927,-1608.800546
440.417838,222.061783,-9474.636058,-1149.143247
440.418162,1702.473667,-10510.924376,-536.266849
440.418487,2072.576638,-11325.150913,-536.266849
440.418811,888.247130,-11621.233289,0.000000
440.419135,-1332.370696,-11177.109724,-229.828649
440.419459,-3034.844362,-9918.759623,-383.047749
440.419784,-1406.391290,-9992.780217,229.828649
440.420108,296.082377,-10140.821405,919.314598
440.420432,1776.494261,-10066.800811,1072.533697
440.420756,2664.741391,-10066.800811,536.266849
440.421081,1628.453072,-9770.718434,-536.266849
440.421405,-518.144159,-9252.574275,-995.924147
440.421729,-1776.494261,-8438.347739,-2068.457845
440.422054,-1702.473667,-8808.450710,-2221.676944
440.422378,-814.226536,-9252.574275,-1455.581446
440.422702,518.144159,-9770.718434,-995.924147
440.423026,1554.432478,-10881.027347,-459.657299
440.423351,1184.329507,-11177.109724,0.000000
440.423675,-592.164754,-10510.924376,0.000000
440.423999,-2664.741391,-9918.759623,0.000000
440.424324,-3034.844362,-9548.656652,459.657299
440.424648,-2294.638420,-8956.491898,766.095498
440.424972,0.000000,-9400.615463,995.924147
440.425296,1406.391290,-9178.553681,919.314598
440.425621,1998.556043,-8808.450710,383.047749
440.425945,814.226536,-8364.327145,-229.828649
440.426269,0.000000,-8216.285956,-1302.362347
440.426593,-1036.288319,-8068.244768,-1685.410096
440.426918,-518.144159,-7994.224174,-1762.019645
440.427242,888.247130,-9326.594869,-995.924147
440.427566,1924.535449,-10807.006753,-689.485948
440.427891,2294.638420,-11621.233289,-383.047749
440.428215,1036.288319,-11843.295072,-383.047749
440.428539,-888.247130,-11473.192101,-766.095498
440.428863,-2368.659014,-10362.883188,-383.047749
440.429188,-2072.576638,-10066.800811,383.047749
440.429512,-444.123565,-9696.697840,459.657299
440.429836,1258.350101,-9992.780217,1149.143247
440.430161,2146.597232,-9548.656652,689.485948
440.430485,1776.494261,-8956.491898,-229.828649
440.430809,148.041188,-8956.491898,-842.705048
440.431133,-1332.370696,-8586.388927,-1532.190996
440.431458,-1332.370696,-8512.368333,-1608.800546
440.431782,-222.061783,-8734.430116,-612.876398
440.432106,814.226536,-10140.821405,-766.095498
440.432430,1702.473667,-11177.109724,0.000000
440.432755,1998.556043,-11843.295072,229.828649
440.433079,222.061783,-11695.253884,153.219100
440.433403,-1628.453072,-10807.006753,383.047749
440.433728,-3108.864956,-9696.697840,766.095498
440.434052,-1998.556043,-9770.718434,1608.800546
440.434376,-444.123565,-9696.697840,2068.457845
440.434700,1258.350101,-9474.636058,1762.019645
440.435025,1628.453072,-9400.615463,1072.533697
440.435349,888.247130,-8882.471304,153.219100
440.435673,-1036.288319,-7920.203579,-612.876398
440.435998,-1924.535449,-7328.038826,-919.314598
440.436322,-1332.370696,-7920.203579,-459.657299
440.436646,0.000000,-9178.553681,-229.828649
440.436970,962.267725,-10362.883188,459.657299
440.437295,1554.432478,-11103.089130,919.314598
440.437619,370.102971,-11473.192101,995.924147
440.437943,-1850.514855,-10955.047942,766.095498
440.438267,-3034.844362,-10140.821405,1072.533697
440.438592,-2442.679609,-9104.533087,1302.362347
440.438916,-518.144159,-9252.574275,2221.676944
440.439240,1628.453072,-9474.636058,2298.286494
440.439565,2368.659014,-8956.491898,1685.410096
440.439889,2072.576638,-8660.409521,612.876398
440.440213,148.041188,-8364.327145,-459.657299
440.440537,-1332.370696,-7624.121203,-1149.143247
440.440862,-1776.494261,-7254.018232,-1149.143247
440.441186,-740.205942,-7994.224174,-919.314598
440.441510,1184.329507,-9474.636058,-459.657299
440.441835,2072.576638,-10807.006753,229.828649
440.442159,1924.535449,-11473.192101,229.828649
440.442483,222.061783,-11621.233289,76.609550
440.442807,-1554.432478,-10732.986159,76.609550
440.443132,-2368.659014,-10436.903782,766.095498
440.443456,-1924.535449,-10140.821405,919.314598
440.443780,-370.102971,-10066.800811,1455.581446
440.444104,1036.288319,-9918.759623,842.705048
440.444429,1554.432478,-9474.636058,153.219100
440.444753,888.247130,-9474.636058,-536.266849
440.445077,-296.082377,-9030.512492,-1455.581446
440.445402,-592.164754,-7920.203579,-1532.190996
440.445726,-518.144159,-7920.203579,-1455.581446
440.446050,740.205942,-8808.450710,-995.924147
440.446374,2220.617826,-9992.780217,-229.828649
440.446699,2590.720797,-11103.089130,-536.266849
440.447023,1332.370696,-11621.233289,-459.657299
440.447347,-1036.288319,-11103.089130,-766.095498
440.447672,-2590.720797,-10140.821405,-612.876398
440.447996,-2590.720797,-9326.594869,306.438199
440.448320,-666.185348,-9178.553681,995.924147
440.448644,1776.494261,-9770.718434,1302.362347
440.448969,3404.947333,-9770.718434,1378.971896
440.449293,3034.844362,-9178.553681,153.219100
440.449617,1184.329507,-8734.430116,-995.924147
440.449942,-814.226536,-8290.306550,-1762.019645
440.450266,-1406.391290,-8364.327145,-2528.115143
440.450590,-592.164754,-9400.615463,-1608.800546
440.450914,444.123565,-9918.759623,-919.314598
440.451239,1776.494261,-10658.965565,-383.047749
440.451563,1406.391290,-11251.130318,-612.876398
440.451887,0.000000,-11251.130318,-612.876398
440.452211,-2442.679609,-10584.944971,-842.705048
440.452536,-3849.070898,-9770.718434,-612.876398
440.452860,-2442.679609,-9474.636058,766.095498
440.453184,-148.041188,-9622.677246,1378.971896
440.453509,1036.288319,-9400.615463,1532.190996
440.453833,1776.494261,-9104.533087,1149.143247
440.454157,1036.288319,-8660.409521,0.000000
440.454481,-296.082377,-8364.327145,-1072.533697
440.454806,-1110.308913,-8216.285956,-1455.581446
440.455130,-666.185348,-7994.224174,-1302.362347
440.455454,148.041188,-8364.327145,-842.705048
440.455779,962.267725,-9844.739029,-306.438199
440.456103,1406.391290,-11621.233289,153.219100
440.456427,148.041188,-11621.233289,-153.219100
440.456751,-1702.473667,-11325.150913,-689.485948
440.457076,-2960.823768,-10140.821405,-153.219100
440.457400,-2442.679609,-9844.739029,536.266849
440.457724,-740.205942,-10140.821405,1455.581446
440.458048,1036.288319,-9992.780217,1838.629195
440.458373,1628.453072,-9770.718434,1532.190996
440.458697,1110.308913,-8512.368333,842.705048
440.459021,518.144159,-8956.491898,0.000000
440.459346,-444.123565,-8882.471304,-1072.533697
440.459670,-1110.308913,-8142.265362,-1149.143247
440.459994,-666.185348,-8438.347739,-842.705048
440.460318,296.082377,-9844.739029,-306.438199
440.460643,1702.473667,-10584.944971,0.000000
440.460967,2294.638420,-11769.274478,306.438199
440.461291,1184.329507,-11473.192101,383.047749
440.461616,-740.205942,-11177.109724,229.828649
440.461940,-2072.576638,-10362.883188,306.438199
440.462264,-1924.535449,-9844.739029,1455.581446
440.462588,-518.144159,-9548.656652,1455.581446
440.462913,1406.391290,-9474.636058,1991.848295
440.463237,2294.638420,-8734.430116,2068.457845
440.463561,1406.391290,-8512.368333,842.705048
440.463885,-444.123565,-8142.265362,-459.657299
440.464210,-1554.432478,-7624.121203,-1149.143247
440.464534,-1702.473667,-7550.100608,-1225.752797
440.464858,-592.164754,-7772.162391,-383.047749
440.465182,148.041188,-9178.553681,-536.266849
440.465507,740.205942,-10288.862594,229.828649
440.465831,148.041188,-11251.130318,383.047749
440.466155,-1924.535449,-10807.006753,-536.266849
440.466479,-3108.864956,-10288.862594,-306.438199
440.466803,-2960.823768,-9622.677246,459.657299
440.467128,-814.226536,-9918.759623,1072.533697
440.467452,1850.514855,-9844.739029,1072.533697
440.467776,2886.803174,-9400.615463,1991.848295
440.468100,2590.720797,-9030.512492,842.705048
440.468425,888.247130,-8290.306550,-536.266849
440.468749,-814.226536,-8586.388927,-1608.800546
440.469073,-1258.350101,-8142.265362,-2068.457845
440.469397,-518.144159,-8586.388927,-1762.019645
440.469722,888.247130,-9548.656652,-1149.143247
440.470046,2368.659014,-10436.903782,-842.705048
440.470370,2146.597232,-11103.089130,-919.314598
440.470694,1036.288319,-11621.233289,-612.876398
440.471018,-1110.308913,-11251.130318,-919.314598
440.471343,-2516.700203,-10584.944971,-612.876398
440.471667,-1998.556043,-10732.986159,229.828649
440.471991,-222.061783,-10732.986159,229.828649
440.472315,1480.411884,-10584.944971,995.924147
440.472640,2590.720797,-9918.759623,842.705048
440.472964,1776.494261,-9622.677246,-306.438199
440.473288,370.102971,-9178.553681,-1378.971896
440.473612,-740.205942,-7994.224174,-2145.067394
440.473937,-370.102971,-8512.368333,-2221.676944
440.474261,0.000000,-9474.636058,-1991.848295
440.474585,444.123565,-10436.903782,-1149.143247
440.474909,740.205942,-11177.109724,-995.924147
440.475233,296.082377,-11399.171507,-766.095498
440.475558,-1628.453072,-10732.986159,-536.266849
440.475882,-3330.926739,-10584.944971,-919.314598
440.476206,-3108.864956,-10140.821405,229.828649
440.476530,-1110.308913,-9474.636058,842.705048
440.476855,1110.308913,-9030.512492,1532.190996
440.477179,2590.720797,-8882.471304,1838.629195
440.477503,3034.844362,-8808.450710,1455.581446
440.477827,2072.576638,-9030.512492,459.657299
440.478152,666.185348,-8586.388927,0.000000
440.478476,-370.102971,-7994.224174,-383.047749
440.478800,0.000000,-8364.327145,0.000000
440.479124,888.247130,-9474.636058,-766.095498
440.479448,1924.535449,-10732.986159,-383.047749
440.479773,1702.473667,-11473.192101,0.000000
440.480097,-148.041188,-11399.171507,-306.438199
440.480421,-2590.720797,-10658.965565,-229.828649
440.480745,-4071.132681,-9474.636058,0.000000
440.481070,-2886.803174,-9104.533087,536.266849
440.481394,-1184.329507,-8882.471304,1532.190996
440.481718,814.226536,-9178.553681,1915.238745
440.482042,1924.535449,-9178.553681,2068.457845
440.482366,1776.494261,-8438.347739,1838.629195
440.482691,518.144159,-7624.121203,459.657299
440.483015,-444.123565,-7920.203579,0.000000
440.483339,-518.144159,-7550.100608,-995.924147
440.483663,0.000000,-8438.347739,-459.657299
440.483988,296.082377,-9696.697840,-229.828649
440.484312,740.205942,-10881.027347,76.609550
440.484636,370.102971,-11547.212695,76.609550
440.484960,-1776.494261,-11325.150913,-536.266849
440.485285,-3256.906145,-10288.862594,-536.266849
440.485609,-3552.988522,-9548.656652,306.438199
440.485933,-2072.576638,-9622.677246,612.876398
440.486257,592.164754,-9992.780217,1455.581446
440.486581,2590.720797,-10214.842000,2221.676944
440.486906,3182.885551,-9844.739029,1762.019645
440.487230,2368.659014,-9400.615463,383.047749
440.487554,296.082377,-8512.368333,-842.705048
440.487878,-814.226536,-8882.471304,-995.924147
440.488203,-888.247130,-9326.594869,-1072.533697
440.488527,-296.082377,-10362.883188,-689.485948
440.488851,1036.288319,-11177.109724,-536.266849
440.489175,1702.473667,-11621.233289,0.000000
440.489500,518.144159,-11769.274478,-612.876398
440.489824,-1184.329507,-11325.150913,-919.314598
440.490148,-2664.741391,-9770.718434,-919.314598
440.490472,-3108.864956,-8660.409521,536.266849
440.490796,-962.267725,-9104.533087,1378.971896
440.491121,1110.308913,-9252.574275,1685.410096
440.491445,2516.700203,-8882.471304,1455.581446
440.491769,2368.659014,-8734.430116,536.266849
440.492093,1036.288319,-8660.409521,-612.876398
440.492418,-296.082377,-7550.100608,-842.705048
440.492742,0.000000,-7920.203579,-536.266849
440.493066,518.144159,-9104.533087,-919.314598
440.493390,1850.514855,-10066.800811,0.000000
440.493714,1850.514855,-10732.986159,-153.219100
440.494039,592.164754,-10955.047942,-306.438199
440.494363,-1998.556043,-10436.903782,-995.924147
440.494687,-4441.235652,-9548.656652,-1455.581446
440.495011,-4811.338623,-8586.388927,-842.705048
440.495336,-3701.029710,-8438.347739,-536.266849
440.495660,-1184.329507,-8512.368333,612.876398
440.495984,592.164754,-8882.471304,766.095498
440.496308,1258.350101,-8808.450710,459.657299
440.496633,814.226536,-8660.409521,-919.314598
440.496957,-148.041188,-8364.327145,-1225.752797
440.497281,-296.082377,-8734.430116,-1378.971896
440.497605,1110.308913,-9400.615463,-2068.457845
440.497929,2368.659014,-9918.759623,-919.314598
440.498254,3182.885551,-11399.171507,-229.828649
440.498578,2664.741391,-12361.439231,-536.266849
440.498902,1036.288319,-12731.542202,-995.924147
440.499226,-1110.308913,-12139.377449,-1225.752797
440.499551,-2812.782580,-10807.006753,-1225.752797
440.499875,-3552.988522,-10140.821405,-612.876398
440.500199,-2220.617826,-10214.842000,459.657299
440.500523,444.123565,-10362.883188,536.266849
440.500848,2294.638420,-9992.780217,229.828649
440.501172,2368.659014,-9326.594869,0.000000
440.501496,1258.350101,-8956.491898,-842.705048
440.501820,148.041188,-8956.491898,-1149.143247
440.502144,148.041188,-9252.574275,-1072.533697
440.502469,962.267725,-9474.636058,-842.705048
440.502793,1184.329507,-10066.800811,-1608.800546
440.503117,1850.514855,-10807.006753,-612.876398
440.503441,1184.329507,-11621.233289,0.000000
440.503766,-1110.308913,-11103.089130,0.000000
440.504090,-3849.070898,-9918.759623,0.000000
440.504414,-5403.503377,-8956.491898,153.219100
440.504738,-3923.091493,-8142.265362,1072.533697
440.505063,-1258.350101,-7772.162391,1762.019645
440.505387,1184.329507,-7698.141797,2145.067394
440.505711,2516.700203,-8142.265362,1378.971896
440.506035,1406.391290,-7476.080014,536.266849
440.506359,148.041188,-7772.162391,229.828649
440.506684,-814.226536,-8068.244768,0.000000
440.507008,-518.144159,-8216.285956,0.000000
440.507332,814.226536,-9326.594869,383.047749
440.507656,2368.659014,-10510.924376,919.314598
440.507981,3108.864956,-11547.212695,919.314598
440.508305,1480.411884,-11621.233289,1072.533697
440.508629,-1258.350101,-10955.047942,612.876398
440.508953,-3627.009116,-10436.903782,383.047749
440.509277,-4219.173869,-9474.636058,536.266849
440.509602,-2812.782580,-8512.368333,919.314598
440.509926,-222.061783,-9030.512492,2068.457845
440.510250,1850.514855,-8956.491898,1532.190996
440.510574,2146.597232,-8660.409521,1455.581446
440.510899,1406.391290,-8438.347739,0.000000
440.511223,0.000000,-7550.100608,-689.485948
440.511547,-444.123565,-7994.224174,-766.095498
440.511871,444.123565,-9178.553681,-766.095498
440.512196,1554.432478,-10362.883188,-612.876398
440.512520,2072.576638,-11251.130318,-153.219100
440.512844,1258.350101,-11843.295072,-306.438199
440.513168,-518.144159,-12213.398043,-1072.533697
440.513492,-3256.906145,-10955.047942,-995.924147
440.513817,-4145.153275,-10140.821405,-383.047749
440.514141,-2442.679609,-10066.800811,-153.219100
440.514465,-148.041188,-9918.759623,612.876398
440.514789,1554.432478,-9770.718434,1072.533697
440.515114,2072.576638,-9548.656652,612.876398
440.515438,1776.494261,-9770.718434,-383.047749
440.515762,148.041188,-9400.615463,-1072.533697
440.516086,-962.267725,-9474.636058,-2068.457845
440.516411,-296.082377,-9844.739029,-1532.190996
440.516735,1184.329507,-10066.800811,-1608.800546
440.517059,2220.617826,-10807.006753,-1225.752797
440.517383,2368.659014,-11991.336260,-919.314598
440.517707,814.226536,-12287.418637,-1225.752797
440.518032,-1554.432478,-11325.150913,-1302.362347
440.518356,-4071.132681,-9770.718434,-689.485948
440.518680,-4293.194464,-9178.553681,-842.705048
440.519004,-2442.679609,-9178.553681,0.000000
440.519329,148.041188,-9030.512492,842.705048
440.519653,2516.700203,-8660.409521,1149.143247
440.519977,3108.864956,-8438.347739,919.314598
440.520301,2294.638420,-7920.203579,76.609550
440.520625,814.226536,-7550.100608,-995.924147
440.520950,518.144159,-7550.100608,-1149.143247
440.521274,1036.288319,-8586.388927,-1072.533697
440.521598,1702.473667,-9844.739029,-919.314598
440.521922,1924.535449,-10955.047942,-383.047749
440.522247,888.247130,-11251.130318,0.000000
440.522571,-1184.329507,-11029.068536,-383.047749
440.522895,-3182.885551,-10658.965565,-612.876398
440.523219,-4515.256246,-9622.677246,-383.047749
440.523544,-4145.153275,-8660.409521,229.828649
440.523868,-2072.576638,-8290.306550,1149.143247
440.524192,0.000000,-8290.306550,1378.971896
440.524516,1332.370696,-8290.306550,842.705048
440.524840,962.267725,-7772.162391,0.000000
440.525165,-296.082377,-7994.224174,-766.095498
440.525489,-962.267725,-8068.244768,-1149.143247
440.525813,-888.247130,-8956.491898,-1991.848295
440.526137,444.123565,-9844.739029,-689.485948
440.526462,2294.638420,-10955.047942,-536.266849
440.526786,2812.782580,-12213.398043,229.828649
440.527110,1924.535449,-13027.624579,536.266849
440.527434,-666.185348,-12287.418637,-229.828649
440.527759,-2368.659014,-11695.253884,-919.314598
440.528083,-3034.844362,-10436.903782,229.828649
440.528407,-1184.329507,-10288.862594,1225.752797
440.528731,1480.411884,-10066.800811,1685.410096
440.529055,3404.947333,-9918.759623,1685.410096
440.529380,3108.864956,-10140.821405,919.314598
440.529704,1628.453072,-10066.800811,383.047749
440.530028,-296.082377,-9178.553681,-842.705048
440.530352,-444.123565,-9400.615463,-229.828649
440.530677,0.000000,-9252.574275,0.000000
440.531001,518.144159,-10510.924376,-459.657299
440.531325,1036.288319,-10955.047942,0.000000
440.531649,518.144159,-11325.150913,0.000000
440.531973,-962.267725,-11177.109724,0.000000
440.532298,-3256.906145,-10288.862594,-306.438199
440.532622,-4885.359217,-8882.471304,0.000000
440.532946,-4145.153275,-8142.265362,1378.971896
440.533270,-1554.432478,-8586.388927,1762.019645
440.533595,888.247130,-8364.327145,2298.286494
440.533919,2220.617826,-8068.244768,1685.410096
440.534243,1924.535449,-7772.162391,1149.143247
440.534567,740.205942,-7846.182985,536.266849
440.534892,-444.123565,-7550.100608,-459.657299
440.535216,-740.205942,-8142.265362,306.438199
440.535540,-148.041188,-8438.347739,0.000000
440.535864,1258.350101,-9548.656652,-153.219100
440.536188,1998.556043,-10288.862594,306.438199
440.536513,1036.288319,-11029.068536,0.000000
440.536837,-888.247130,-10732.986159,-306.438199
440.537161,-2738.761985,-9992.780217,-153.219100
440.537485,-3627.009116,-9326.594869,-229.828649
440.537810,-2960.823768,-8956.491898,153.219100
440.538134,-592.164754,-9030.512492,1302.362347
440.538458,1554.432478,-9326.594869,1378.971896
440.538782,2368.659014,-9400.615463,842.705048
440.539107,1554.432478,-9104.533087,-383.047749
440.539431,444.123565,-8364.327145,-1072.533697
440.539755,-296.082377,-8660.409521,-1072.533697
440.540079,666.185348,-8956.491898,-919.314598
440.540403,1998.556043,-9992.780217,-1072.533697
440.540728,2220.617826,-11325.150913,-459.657299
440.541052,1480.411884,-12361.439231,-612.876398
440.541376,0.000000,-12435.459826,-995.924147
440.541700,-2368.659014,-11399.171507,-1302.362347
440.542025,-3627.009116,-9770.718434,-1302.362347
440.542349,-3034.844362,-9474.636058,-536.266849
440.542673,-1184.329507,-9400.615463,76.609550
440.542997,1184.329507,-9622.677246,1072.533697
440.543322,2072.576638,-9474.636058,459.657299
440.543646,1776.494261,-8956.491898,-766.095498
440.543970,518.144159,-8660.409521,-1762.019645
440.544294,-814.226536,-8586.388927,-2068.457845
440.544618,444.123565,-9104.533087,-1532.190996
440.544943,1258.350101,-9918.759623,-919.314598
440.545267,2590.720797,-10732.986159,-612.876398
440.545591,2812.782580,-11843.295072,-229.828649
440.545915,1998.556043,-12583.501014,-612.876398
440.546240,0.000000,-12509.480420,-995.924147
440.546564,-2590.720797,-10955.047942,-1149.143247
440.546888,-3330.926739,-9918.759623,-1149.143247
440.547212,-2516.700203,-9918.759623,76.609550
440.547536,-444.123565,-9992.780217,689.485948
440.547861,1332.370696,-9622.677246,1378.971896
440.548185,2368.659014,-9474.636058,689.485948
440.548509,1628.453072,-8512.368333,-459.657299
440.548833,222.061783,-7846.182985,-1378.971896
440.549158,0.000000,-7772.162391,-1378.971896
440.549482,740.205942,-8438.347739,-612.876398
440.549806,1924.535449,-8956.491898,766.095498
440.550130,2368.659014,-9918.759623,689.485948
440.550455,1998.556043,-10658.965565,536.266849
440.550779,0.000000,-10510.924376,-306.438199
440.551103,-2664.741391,-9844.739029,-383.047749
440.551427,-4515.256246,-9178.553681,-153.219100
440.551751,-4367.215058,-8734.430116,689.485948
440.552076,-2664.741391,-8882.471304,306.438199
440.552400,-148.041188,-9104.533087,1838.629195
440.552724,1258.350101,-8290.306550,1762.019645
440.553048,1554.432478,-8364.327145,919.314598
440.553373,0.000000,-8068.244768,0.000000
440.553697,-1628.453072,-8364.327145,-612.876398
440.554021,-2072.576638,-8364.327145,-1149.143247
440.554345,-888.247130,-9326.594869,-459.657299
440.554670,740.205942,-10658.965565,76.609550
440.554994,1554.432478,-11547.212695,0.000000
440.555318,1332.370696,-11917.315666,-153.219100
440.555642,0.000000,-11843.295072,0.000000
440.555966,-2294.638420,-11177.109724,0.000000
440.556291,-3034.844362,-10214.842000,919.314598
440.556615,-1998.556043,-9992.780217,1455.581446
440.556939,444.123565,-9104.533087,1915.238745
440.557263,2812.782580,-8882.471304,2221.676944
440.557588,3552.988522,-8216.285956,1838.629195
440.557912,2220.617826,-8956.491898,612.876398
440.558236,222.061783,-9030.512492,-536.266849
440.558560,-962.267725,-8438.347739,-1225.752797
440.558884,-962.267725,-8142.265362,-1378.971896
440.559209,444.123565,-9696.697840,-995.924147
440.559533,1258.350101,-10362.883188,-689.485948
440.559857,1480.411884,-11843.295072,0.000000
440.560181,740.205942,-11843.295072,0.000000
440.560506,-1332.370696,-11399.171507,-383.047749
440.560830,-2960.823768,-10510.924376,0.000000
440.561154,-2664.741391,-9770.718434,766.095498
440.561478,-518.144159,-9770.718434,1685.410096
440.561803,1480.411884,-9918.759623,1915.238745
440.562127,2294.638420,-9622.677246,1225.752797
440.562451,1628.453072,-9252.574275,689.485948
440.562775,148.041188,-8808.450710,0.000000
440.563099,-1184.329507,-8438.347739,-1072.533697
440.563424,-1850.514855,-7994.224174,-1685.410096
440.563748,-1110.308913,-8142.265362,-1608.800546
440.564072,518.144159,-9104.533087,-1762.019645
440.564396,1554.432478,-9696.697840,-612.876398
440.564721,1110.308913,-10436.903782,-1149.143247
440.565045,-592.164754,-10066.800811,-919.314598
440.565369,-2368.659014,-9992.780217,-1302.362347
440.565694,-3330.926739,-9178.553681,-766.095498
440.566018,-2072.576638,-9104.533087,153.219100
440.566342,518.144159,-9474.636058,919.314598
440.566667,2664.741391,-9178.553681,1762.019645
440.566991,3552.988522,-9474.636058,919.314598
440.567315,2738.761985,-9030.512492,-306.438199
440.567640,814.226536,-8808.450710,-1378.971896
440.567964,-222.061783,-8882.471304,-1685.410096
440.568288,74.020594,-9178.553681,-1991.848295
440.568612,1036.288319,-10436.903782,-1608.800546
440.568937,1554.432478,-11103.089130,-1532.190996
440.569261,1258.350101,-11991.336260,-1302.362347
440.569585,74.020594,-12213.398043,-1378.971896
440.569910,-2146.597232,-11843.295072,-1838.629195
440.570234,-3849.070898,-10807.006753,-995.924147
440.570558,-3701.029710,-9252.574275,-306.438199
440.570883,-1998.556043,-9400.615463,306.438199
440.571207,444.123565,-9696.697840,919.314598
440.571531,2220.617826,-9474.636058,1302.362347
440.571855,2442.679609,-9252.574275,536.266849
440.572180,1258.350101,-8512.368333,-459.657299
440.572504,-592.164754,-8142.265362,-689.485948
440.572828,-1110.308913,-7994.224174,-383.047749
440.573153,0.000000,-9326.594869,-1608.800546
440.573477,740.205942,-10140.821405,-1072.533697
440.573801,1850.514855,-10807.006753,-383.047749
440.574126,1332.370696,-11325.150913,0.000000
440.574450,-370.102971,-11399.171507,0.000000
440.574774,-2220.617826,-10362.883188,-153.219100
440.575099,-3627.009116,-9400.615463,306.438199
440.575423,-2442.679609,-9030.512492,766.095498
440.575747,0.000000,-9030.512492,1455.581446
440.576071,1850.514855,-9104.533087,2528.115143
440.576396,2368.659014,-8734.430116,2145.067394
440.576720,1406.391290,-8364.327145,1302.362347
440.577044,-592.164754,-8364.327145,0.000000
440.577369,-1998.556043,-7994.224174,-536.266849
440.577693,-1924.535449,-8142.265362,-383.047749
440.578017,-518.144159,-9326.594869,-306.438199
440.578342,592.164754,-10288.862594,0.000000
440.578666,1406.391290,-11029.068536,306.438199
440.578990,814.226536,-11325.150913,306.438199
440.579315,-1406.391290,-10955.047942,0.000000
440.579639,-2960.823768,-9770.718434,0.000000
440.579963,-2590.720797,-8734.430116,1072.533697
440.580287,-1184.329507,-8734.430116,1455.581446
440.580612,1184.329507,-9104.533087,2145.067394
440.580936,2664.741391,-9252.574275,1838.629195
440.581260,2664.741391,-8808.450710,1149.143247
440.581585,1554.432478,-8512.368333,0.000000
440.581909,-592.164754,-8882.471304,-229.828649
440.582233,-1110.308913,-8290.306550,-842.705048
440.582558,-592.164754,-8290.306550,-766.095498
440.582882,222.061783,-9844.739029,-842.705048
440.583206,1332.370696,-10658.965565,-612.876398
440.583531,888.247130,-11325.150913,-383.047749
440.583855,-444.123565,-11843.295072,-612.876398
440.584179,-2294.638420,-11103.089130,-536.266849
440.584503,-3330.926739,-10140.821405,-306.438199
440.584828,-2738.761985,-9770.718434,766.095498
440.585152,74.020594,-10658.965565,383.047749
440.585476,2072.576638,-10288.862594,1072.533697
440.585801,3478.967927,-9844.739029,842.705048
440.586125,3256.906145,-9844.739029,306.438199
440.586449,1924.535449,-9252.574275,-919.314598
440.586774,814.226536,-9252.574275,-1532.190996
440.587098,296.082377,-8660.409521,-1149.143247
440.587422,1406.391290,-9622.677246,-995.924147
440.587746,1998.556043,-9992.780217,-919.314598
440.588071,1554.432478,-10881.027347,-229.828649
440.588395,666.185348,-11177.109724,-459.657299
440.588719,-1628.453072,-10658.965565,-766.095498
440.589044,-4145.153275,-9770.718434,-1072.533697
440.589368,-4219.173869,-8956.491898,-306.438199
440.589692,-2886.803174,-8512.368333,76.609550
440.590017,0.000000,-9178.553681,1225.752797
440.590341,1628.453072,-9178.553681,1532.190996
440.590665,1776.494261,-8882.471304,689.485948
440.590990,814.226536,-8512.368333,-612.876398
440.591314,-740.205942,-8216.285956,-1302.362347
440.591638,-1036.288319,-8586.388927,-1455.581446
440.591962,-592.164754,-9400.615463,-1225.752797
440.592287,740.205942,-9770.718434,-229.828649
440.592611,1850.514855,-11177.109724,0.000000
440.592935,1702.473667,-11917.315666,0.000000
440.593260,0.000000,-12065.356855,-459.657299
440.593584,-2294.638420,-11325.150913,-459.657299
440.593908,-3478.967927,-10214.842000,0.000000
440.594233,-2590.720797,-9548.656652,306.438199
440.594557,-740.205942,-9474.636058,919.314598
440.594881,1110.308913,-8956.491898,1072.533697
440.595206,2738.761985,-8438.347739,1302.362347
440.595530,2664.741391,-8734.430116,76.609550
440.595854,1036.288319,-8808.450710,-995.924147
440.596178,-444.123565,-8364.327145,-1378.971896
440.596503,-444.123565,-8290.306550,-1225.752797
440.596827,592.164754,-9252.574275,-1149.143247
440.597151,1924.535449,-10066.800811,-459.657299
440.597476,1998.556043,-11325.150913,0.000000
440.597800,1332.370696,-11991.336260,0.000000
440.598124,-962.267725,-11621.233289,-536.266849
440.598449,-2738.761985,-10732.986159,153.219100
440.598773,-3775.050304,-9844.739029,383.047749
440.599097,-2812.782580,-9326.594869,919.314598
440.599422,-370.102971,-9326.594869,1455.581446
440.599746,1184.329507,-8734.430116,1608.800546
440.600070,1924.535449,-8956.491898,1072.533697
440.600394,666.185348,-8512.368333,153.219100
440.600719,-370.102971,-8512.368333,-766.095498
440.601043,-1332.370696,-8068.244768,-612.876398
440.601367,-962.267725,-8216.285956,-459.657299
440.601692,222.061783,-9178.553681,-459.657299
440.602016,888.247130,-9844.739029,-306.438199
440.602340,1924.535449,-11029.068536,0.000000
440.602665,888.247130,-10881.027347,383.047749
440.602989,-1184.329507,-10140.821405,459.657299
440.603313,-2368.659014,-9400.615463,689.485948
440.603637,-2146.597232,-8956.491898,689.485948
440.603962,-1036.288319,-8068.244768,1532.190996
440.604286,1184.329507,-8956.491898,1685.410096
440.604610,2368.659014,-9030.512492,1838.629195
440.604935,2664.741391,-9178.553681,1378.971896
440.605259,1332.370696,-8882.471304,0.000000
440.605583,-296.082377,-8364.327145,-842.705048
440.605908,-1110.308913,-8734.430116,-1455.581446
440.606232,-518.144159,-9474.636058,-1072.533697
440.606556,592.164754,-11029.068536,-612.876398
440.606881,1480.411884,-11843.295072,153.219100
440.607205,814.226536,-12287.418637,153.219100
440.607529,-888.247130,-11473.192101,0.000000
440.607853,-2738.761985,-10658.965565,-612.876398
440.608178,-3701.029710,-9622.677246,-306.438199
440.608502,-2442.679609,-9400.615463,536.266849
440.608826,-370.102971,-9474.636058,1225.752797
440.609151,2294.638420,-9326.594869,1455.581446
440.609475,2812.782580,-8734.430116,536.266849
440.609799,1924.535449,-8734.430116,0.000000
440.610124,0.000000,-8660.409521,-1149.143247
440.610448,-1036.288319,-8660.409521,-1455.581446
440.610772,-888.247130,-8956.491898,-1225.752797
440.611097,222.061783,-9474.636058,-612.876398
440.611421,1480.411884,-10732.986159,-766.095498
440.611745,1554.432478,-11695.253884,-766.095498
440.612069,148.041188,-11473.192101,-536.266849
440.612394,-1332.370696,-11029.068536,-536.266849
440.612718,-3034.844362,-9992.780217,-229.828649
440.613042,-3108.864956,-9326.594869,0.000000
440.613367,-1850.514855,-9252.574275,766.095498
440.613691,0.000000,-8956.491898,766.095498
440.614015,2294.638420,-9252.574275,842.705048
440.614340,1776.494261,-8808.450710,0.000000
440.614664,962.267725,-8734.430116,-1991.848295
440.614988,0.000000,-8734.430116,-1685.410096
440.615313,0.000000,-9400.615463,-1762.019645
440.615637,370.102971,-9400.615463,-1225.752797
440.615961,1702.473667,-10140.821405,-612.876398
440.616285,2294.638420,-10955.047942,-689.485948
440.616610,1924.535449,-11769.274478,-612.876398
440.616934,222.061783,-11103.089130,-306.438199
440.617258,-1850.514855,-10066.800811,-766.095498
440.617583,-2738.761985,-9326.594869,-306.438199
440.617907,-2072.576638,-9178.553681,0.000000
440.618231,-222.061783,-9104.533087,536.266849
440.618556,1110.308913,-8808.450710,1225.752797
440.618880,2146.597232,-8734.430116,229.828649
440.619204,1110.308913,-8586.388927,-1072.533697
440.619528,0.000000,-8808.450710,-995.924147
440.619853,-1036.288319,-9030.512492,-1302.362347
440.620177,-962.267725,-9548.656652,-995.924147
440.620501,-296.082377,-10066.800811,-766.095498
440.620826,666.185348,-10732.986159,-612.876398
440.621150,962.267725,-11547.212695,306.438199
440.621474,74.020594,-11843.295072,0.000000
440.621799,-888.247130,-10955.047942,229.828649
440.622123,-2738.761985,-9918.759623,229.828649
440.622447,-3034.844362,-9252.574275,536.266849
440.622772,-1628.453072,-9400.615463,1302.362347
440.623096,74.020594,-9104.533087,1455.581446
440.623420,1628.453072,-9104.533087,1532.190996
440.623744,2072.576638,-8808.450710,1302.362347
440.624069,1480.411884,-8660.409521,383.047749
440.624393,222.061783,-8068.244768,-459.657299
440.624717,-148.041188,-8808.450710,0.000000
440.625042,518.144159,-8956.491898,0.000000
440.625366,1184.329507,-9844.739029,383.047749
440.625690,1998.556043,-10955.047942,1072.533697
440.626015,1480.411884,-11251.130318,919.314598
440.626339,0.000000,-11251.130318,536.266849
440.626663,-2738.761985,-9918.759623,459.657299
440.626988,-4219.173869,-9252.574275,536.266849
440.627312,-3849.070898,-9030.512492,1072.533697
440.627636,-1776.494261,-8882.471304,1455.581446
440.627960,518.144159,-8660.409521,2068.457845
440.628285,2146.597232,-8808.450710,1532.190996
440.628609,962.267725,-8660.409521,229.828649
440.628933,0.000000,-8290.306550,-383.047749
440.629258,-740.205942,-8438.347739,-612.876398
440.629582,-888.247130,-8808.450710,-536.266849
440.629906,74.020594,-9548.656652,-229.828649
440.630231,962.267725,-10066.800811,0.000000
440.630555,1628.453072,-11325.150913,229.828649
440.630879,1036.288319,-11251.130318,0.000000
440.631204,-814.226536,-10510.924376,383.047749
440.631528,-1998.556043,-9696.697840,0.000000
440.631852,-2738.761985,-9326.594869,229.828649
440.632176,-1480.411884,-9104.533087,612.876398
440.632501,0.000000,-9030.512492,995.924147
440.632825,1628.453072,-9178.553681,1072.533697
440.633149,2220.617826,-9178.553681,0.000000
440.633474,518.144159,-8956.491898,-306.438199
440.633798,0.000000,-8586.388927,-1762.019645
440.634122,-148.041188,-8438.347739,-1762.019645
440.634447,296.082377,-9178.553681,-1302.362347
440.634771,1332.370696,-10140.821405,-1225.752797
440.635095,1776.494261,-11251.130318,-536.266849
440.635419,1406.391290,-12287.418637,-383.047749
440.635744,0.000000,-11917.315666,-612.876398
440.636068,-2146.597232,-11177.109724,-1378.971896
440.636392,-3849.070898,-10066.800811,-383.047749
440.636717,-3182.885551,-9770.718434,-306.438199
440.637041,-1184.329507,-9474.636058,536.266849
440.637365,962.267725,-9400.615463,842.705048
440.637690,2146.597232,-9252.574275,0.000000
440.638014,2442.679609,-8956.491898,-153.219100
440.638338,1480.411884,-8438.347739,-459.657299
440.638663,296.082377,-8512.368333,-1762.019645
440.638987,-148.041188,-8290.306550,-1685.410096
440.639311,592.164754,-9326.594869,-1225.752797
440.639635,1554.432478,-10140.821405,-919.314598
440.639960,1998.556043,-11251.130318,-766.095498
440.640284,814.226536,-11473.192101,-229.828649
440.640608,-1406.391290,-10510.924376,-995.924147
440.640933,-3404.947333,-9474.636058,-1225.752797
440.641257,-4219.173869,-8586.388927,-459.657299
440.641581,-3108.864956,-8808.450710,153.219100
440.641906,-1036.288319,-9400.615463,995.924147
440.642230,666.185348,-9400.615463,842.705048
440.642554,1554.432478,-8882.471304,0.000000
440.642879,1332.370696,-8882.471304,-919.314598
440.643203,222.061783,-8142.265362,-1378.971896
440.643527,-296.082377,-9178.553681,-1302.362347
440.643851,148.041188,-9992.780217,-1072.533697
440.644176,1332.370696,-10807.006753,-536.266849
440.644500,2220.617826,-11843.295072,-229.828649
440.644824,2146.597232,-12435.459826,0.000000
440.645149,370.102971,-12065.356855,229.828649
440.645473,-1924.535449,-11325.150913,-1072.533697
440.645797,-3701.029710,-9770.718434,-459.657299
440.646122,-3182.885551,-9252.574275,689.485948
440.646446,-1258.350101,-9252.574275,1072.533697
440.646770,1036.288319,-8808.450710,1532.190996
440.647095,2516.700203,-8586.388927,1455.581446
440.647419,2590.720797,-8290.306550,76.609550
440.647743,1628.453072,-8364.327145,-536.266849
440.648067,370.102971,-8142.265362,-459.657299
440.648392,0.000000,-8142.265362,-383.047749
440.648716,296.082377,-9030.512492,-229.828649
440.649040,1258.350101,-10214.842000,0.000000
440.649365,1924.535449,-11251.130318,459.657299
440.649689,1332.370696,-11843.295072,306.438199
440.650013,-740.205942,-11177.109724,306.438199
440.650338,-3256.906145,-10288.862594,-842.705048
440.650662,-3923.091493,-9474.636058,76.609550
440.650986,-2738.761985,-10066.800811,1225.752797
440.651310,-1110.308913,-9548.656652,2068.457845
440.651635,740.205942,-9474.636058,2145.067394
440.651959,1406.391290,-8882.471304,1378.971896
440.652283,814.226536,-8438.347739,0.000000
440.652608,-222.061783,-8438.347739,-229.828649
440.652932,-666.185348,-8586.388927,0.000000
440.653256,-740.205942,-8660.409521,0.000000
440.653581,148.041188,-9400.615463,-306.438199
440.653905,1332.370696,-10066.800811,0.000000
440.654229,1850.514855,-11103.089130,76.609550
440.654554,888.247130,-11399.171507,0.000000
440.654878,-1258.350101,-10066.800811,-306.438199
440.655202,-2442.679609,-9252.574275,0.000000
440.655526,-2590.720797,-8808.450710,842.705048
440.655851,-518.144159,-8808.450710,1149.143247
440.656175,1110.308913,-9030.512492,1608.800546
440.656499,2146.597232,-9252.574275,1149.143247
440.656824,2146.597232,-9474.636058,229.828649
440.657148,1036.288319,-9252.574275,-459.657299
440.657472,0.000000,-9252.574275,-995.924147
440.657797,0.000000,-9178.553681,-1225.752797
440.658121,0.000000,-10066.800811,-612.876398
440.658445,1110.308913,-10955.047942,-766.095498
440.658770,1998.556043,-11473.192101,-459.657299
440.659094,1554.432478,-11991.336260,0.000000
440.659418,-74.020594,-11991.336260,-612.876398
440.659742,-2368.659014,-10658.965565,-459.657299
440.660067,-3478.967927,-9252.574275,-306.438199
440.660391,-1998.556043,-9474.636058,0.000000
440.660715,-592.164754,-9104.533087,919.314598
440.661040,1554.432478,-9400.615463,1378.971896
440.661364,2442.679609,-8882.471304,919.314598
440.661688,2072.576638,-8808.450710,-153.219100
440.662013,592.164754,-7994.224174,-459.657299
440.662337,0.000000,-7698.141797,-919.314598
440.662661,-148.041188,-8142.265362,-1225.752797
440.662986,1184.329507,-9252.574275,-689.485948
440.663310,2072.576638,-10362.883188,-536.266849
440.663634,2220.617826,-11251.130318,0.000000
440.663958,1110.308913,-11473.192101,-536.266849
440.664283,-1110.308913,-10732.986159,-383.047749
440.664607,-3034.844362,-9400.615463,-306.438199
440.664931,-3108.864956,-9178.553681,229.828649
440.665255,-962.267725,-9844.739029,1225.752797
440.665580,666.185348,-9400.615463,1378.971896
440.665904,1850.514855,-9474.636058,1378.971896
440.666228,1776.494261,-9030.512492,76.609550
440.666552,0.000000,-8808.450710,-995.924147
440.666876,-1628.453072,-8808.450710,-1378.971896
440.667200,-1332.370696,-9178.553681,-2374.896044
440.667525,-1036.288319,-9030.512492,-995.924147
440.667849,74.020594,-9918.759623,-995.924147
440.668173,1406.391290,-10881.027347,-459.657299
440.668497,1628.453072,-11843.295072,-306.438199
440.668821,-296.082377,-11547.212695,-766.095498
440.669145,-2442.679609,-10362.883188,-766.095498
440.669470,-2886.803174,-9474.636058,0.000000
440.669794,-2516.700203,-8882.471304,1225.752797
440.670118,-148.041188,-9104.533087,1532.190996
440.670442,1406.391290,-8956.491898,1455.581446
440.670766,2664.741391,-8956.491898,919.314598
440.671091,1776.494261,-9030.512492,-153.219100
440.671415,0.000000,-8586.388927,-919.314598
440.671739,-1110.308913,-8364.327145,-1302.362347
440.672063,-1036.288319,-8882.471304,-1072.533697
440.672387,-666.185348,-9622.677246,-995.924147
440.672711,888.247130,-10807.006753,-766.095498
440.673036,1258.350101,-12065.356855,-306.438199
440.673360,444.123565,-12657.521608,-229.828649
440.673684,-1924.535449,-11547.212695,-306.438199
440.674008,-3923.091493,-10436.903782,153.219100
440.674332,-4071.132681,-9474.636058,919.314598
440.674656,-1702.473667,-9696.697840,1302.362347
440.674981,666.185348,-9030.512492,1762.019645
440.675305,2442.679609,-8808.450710,1378.971896
440.675629,2516.700203,-8290.306550,536.266849
440.675953,1332.370696,-8216.285956,0.000000
440.676277,-296.082377,-8512.368333,0.000000
440.676601,-962.267725,-8142.265362,-536.266849
440.676926,-592.164754,-8068.244768,-689.485948
440.677250,814.226536,-9474.636058,0.000000
440.677574,1554.432478,-10510.924376,76.609550
440.677898,1480.411884,-11325.150913,689.485948
440.678222,222.061783,-10881.027347,76.609550
440.678546,-1850.514855,-10140.821405,536.266849
440.678871,-2590.720797,-9178.553681,919.314598
440.679195,-2146.597232,-8660.409521,612.876398
440.679519,0.000000,-9400.615463,1762.019645
440.679843,1036.288319,-9104.533087,1915.238745
440.680167,1628.453072,-8734.430116,689.485948
440.680492,444.123565,-8438.347739,-229.828649
440.680816,-1332.370696,-8364.327145,-842.705048
440.681140,-1554.432478,-8512.368333,-1532.190996
440.681464,-888.247130,-8586.388927,-1302.362347
440.681788,74.020594,-9326.594869,-536.266849
440.682112,888.247130,-10140.821405,-842.705048
440.682437,1332.370696,-11399.171507,-306.438199
440.682761,370.102971,-11843.295072,-306.438199
440.683085,-1628.453072,-11103.089130,-689.485948
440.683409,-3182.885551,-9992.780217,-612.876398
440.683733,-2886.803174,-9474.636058,153.219100
440.684057,-962.267725,-9474.636058,1225.752797
440.684382,1998.556043,-9030.512492,1455.581446
440.684706,3108.864956,-9474.636058,1302.362347
440.685030,3182.885551,-9474.636058,0.000000
440.685354,1850.514855,-9030.512492,-1149.143247
440.685678,370.102971,-8808.450710,-1762.019645
440.686002,-148.041188,-8660.409521,-1991.848295
440.686327,222.061783,-9992.780217,-1762.019645
440.686651,1184.329507,-10732.986159,-1378.971896
440.686975,1406.391290,-11473.192101,-1072.533697
440.687299,1628.453072,-12879.583391,-536.266849
440.687623,148.041188,-12435.459826,-766.095498
440.687947,-1628.453072,-12287.418637,-459.657299
440.688272,-3034.844362,-11029.068536,-229.828649
440.688596,-2516.700203,-10288.862594,-306.438199
440.688920,-592.164754,-10140.821405,1072.533697
440.689244,1110.308913,-9622.677246,1149.143247
440.689568,2442.679609,-9030.512492,536.266849
440.689893,1924.535449,-8290.306550,-383.047749
440.690217,370.102971,-8068.244768,-1302.362347
440.690541,-296.082377,-8142.265362,-1302.362347
440.690865,-296.082377,-8290.306550,-919.314598
440.691189,444.123565,-8438.347739,-766.095498
440.691513,1036.288319,-9474.636058,0.000000
440.691838,1554.432478,-10732.986159,459.657299
440.692162,888.247130,-11547.212695,153.219100
440.692486,-1554.432478,-10362.883188,459.657299
440.692810,-3404.947333,-9178.553681,919.314598
440.693134,-3701.029710,-8586.388927,1302.362347
440.693458,-2294.638420,-8142.265362,1532.190996
440.693783,148.041188,-7772.162391,2068.457845
440.694107,2516.700203,-8364.327145,2374.896044
440.694431,2368.659014,-7772.162391,1225.752797
440.694755,888.247130,-7846.182985,0.000000
440.695079,-1110.308913,-7624.121203,-612.876398
440.695403,-1924.535449,-8068.244768,-766.095498
440.695728,-1184.329507,-9252.574275,-536.266849
440.696052,0.000000,-10214.842000,0.000000
440.696376,666.185348,-11547.212695,306.438199
440.696700,666.185348,-11991.336260,919.314598
440.697024,-814.226536,-12213.398043,459.657299
440.697349,-2220.617826,-11621.233289,153.219100
440.697673,-2664.741391,-10362.883188,459.657299
440.697997,-1998.556043,-9770.718434,1072.533697
440.698321,0.000000,-9696.697840,2681.334243
440.698645,2294.638420,-9400.615463,2451.505594
440.698969,2960.823768,-9030.512492,1608.800546
440.699294,2220.617826,-8438.347739,306.438199
440.699618,814.226536,-8290.306550,-919.314598
440.699942,-592.164754,-8216.285956,-1532.190996
440.700266,-666.185348,-8586.388927,-1608.800546
440.700590,-148.041188,-9474.636058,-1378.971896
440.700914,666.185348,-10510.924376,-689.485948
440.701239,962.267725,-11695.253884,-229.828649
440.701563,666.185348,-12361.439231,-612.876398
440.701887,-444.123565,-12065.356855,0.000000
440.702211,-2220.617826,-10807.006753,153.219100
440.702535,-2146.597232,-10214.842000,612.876398
440.702859,-592.164754,-9770.718434,1149.143247
440.703184,1258.350101,-9474.636058,2068.457845
440.703508,2886.803174,-9326.594869,995.924147
440.703832,3478.967927,-9400.615463,229.828649
440.704156,2072.576638,-8290.306550,-306.438199
440.704480,444.123565,-8364.327145,-1762.019645
440.704804,-1332.370696,-8512.368333,-2221.676944
440.705129,-1628.453072,-9178.553681,-2145.067394
440.705453,-962.267725,-9844.739029,-1838.629195
440.705777,592.164754,-10658.965565,-383.047749
440.706101,666.185348,-11103.089130,536.266849
440.706425,74.020594,-11029.068536,0.000000
440.706750,-1998.556043,-9696.697840,-153.219100
440.707074,-2442.679609,-9104.533087,536.266849
440.707398,-2442.679609,-8438.347739,689.485948
440.707722,-666.185348,-8512.368333,1455.581446
440.708046,1184.329507,-8734.430116,2528.115143
440.708370,2368.659014,-7994.224174,1302.362347
440.708695,1924.535449,-8068.244768,0.000000
440.709019,296.082377,-7698.141797,-1838.629195
440.709343,-1110.308913,-8068.244768,-1915.238745
440.709667,-1406.391290,-9030.512492,-2374.896044
440.709991,-518.144159,-9992.780217,-1838.629195
440.710315,222.061783,-10584.944971,-1225.752797
440.710640,1036.288319,-11399.171507,-766.095498
440.710964,0.000000,-11917.315666,-1072.533697
440.711288,-1702.473667,-11769.274478,-1302.362347
440.711612,-3034.844362,-10658.965565,-612.876398
440.711936,-3182.885551,-10288.862594,0.000000
440.712260,-1776.494261,-9622.677246,383.047749
440.712585,888.247130,-9474.636058,1302.362347
440.712909,2960.823768,-9326.594869,1455.581446
440.713233,3108.864956,-9178.553681,0.000000
440.713557,2442.679609,-9474.636058,-689.485948
440.713881,1110.308913,-9696.697840,-1685.410096
440.714206,0.000000,-9548.656652,-2068.457845
440.714530,-222.061783,-10140.821405,-1838.629195
440.714854,740.205942,-10807.006753,-1225.752797
440.715178,1776.494261,-11917.315666,-1302.362347
440.715502,2146.597232,-12731.542202,-76.609550
440.715826,1184.329507,-12139.377449,536.266849
440.716151,-518.144159,-10732.986159,229.828649
440.716475,-1776.494261,-10214.842000,1225.752797
440.716799,-1924.535449,-9622.677246,1072.533697
440.717123,-814.226536,-9178.553681,1991.848295
440.717447,962.267725,-9178.553681,2298.286494
440.717771,1998.556043,-8660.409521,1838.629195
440.718096,1776.494261,-8512.368333,1072.533697
440.718420,0.000000,-7772.162391,76.609550
440.718744,-814.226536,-8216.285956,-612.876398
440.719068,-1406.391290,-8512.368333,-229.828649
440.719392,-962.267725,-8734.430116,-153.219100
440.719716,-444.123565,-9474.636058,229.828649
440.720041,222.061783,-10288.862594,919.314598
440.720365,0.000000,-10658.965565,1532.190996
440.720689,-1776.494261,-9992.780217,1149.143247
440.721013,-3404.947333,-8808.450710,1532.190996
440.721337,-3478.967927,-7698.141797,1838.629195
440.721661,-2368.659014,-7476.080014,2145.067394
440.721986,0.000000,-7550.100608,2604.724693
440.722310,1702.473667,-7624.121203,2451.505594
440.722634,2294.638420,-7624.121203,2298.286494
440.722958,1480.411884,-7698.141797,229.828649
440.723282,-296.082377,-7772.162391,-612.876398
440.723607,-1628.453072,-8290.306550,-1072.533697
440.723931,-1258.350101,-9400.615463,-995.924147
440.724255,-148.041188,-10214.842000,-383.047749
440.724579,962.267725,-11325.150913,153.219100
440.724903,1332.370696,-12213.398043,0.000000
440.725227,592.164754,-12583.501014,76.609550
440.725552,-814.226536,-11621.233289,612.876398
440.725876,-1554.432478,-10510.924376,459.657299
440.726200,-1628.453072,-9918.759623,612.876398
440.726524,-148.041188,-10066.800811,1225.752797
440.726848,2220.617826,-10214.842000,1455.581446
440.727172,3182.885551,-9844.739029,459.657299
440.727497,2220.617826,-9918.759623,-229.828649
440.727821,888.247130,-9918.759623,-1685.410096
440.728145,-222.061783,-9548.656652,-2451.505594
440.728469,-296.082377,-9844.739029,-1685.410096
440.728793,444.123565,-10510.924376,-1608.800546
440.729117,1184.329507,-10881.027347,-1225.752797
440.729442,1776.494261,-11843.295072,-995.924147
440.729766,1110.308913,-12287.418637,-1225.752797
440.730090,-666.185348,-11399.171507,-1302.362347
440.730414,-2294.638420,-10066.800811,-1072.533697
440.730738,-2960.823768,-9252.574275,-689.485948
440.731063,-1998.556043,-8882.471304,-459.657299
440.731387,0.000000,-8734.430116,459.657299
440.731711,1776.494261,-8808.450710,612.876398
440.732035,2294.638420,-9104.533087,0.000000
440.732359,1332.370696,-8438.347739,-995.924147
440.732683,-296.082377,-8216.285956,-1685.410096
440.733008,-1628.453072,-7920.203579,-2145.067394
440.733332,-1850.514855,-8660.409521,-2221.676944
440.733656,-1184.329507,-9400.615463,-1608.800546
440.733980,296.082377,-10140.821405,-1149.143247
440.734304,1110.308913,-11103.089130,-1378.971896
440.734628,148.041188,-10881.027347,-612.876398
440.734953,-1628.453072,-9844.739029,-1302.362347
440.735277,-2960.823768,-8808.450710,-995.924147
440.735601,-3256.906145,-8290.306550,-229.828649
440.735925,-1406.391290,-8216.285956,0.000000
440.736249,666.185348,-8882.471304,766.095498
440.736573,2220.617826,-8882.471304,1302.362347
440.736898,2442.679609,-9252.574275,306.438199
440.737222,1406.391290,-9104.533087,-766.095498
440.737546,74.020594,-8956.491898,-1532.190996
440.737870,-740.205942,-9178.553681,-1378.971896
440.738194,0.000000,-9844.739029,-1608.800546
440.738518,592.164754,-10584.944971,-1302.362347
440.738843,1036.288319,-11325.150913,-612.876398
440.739167,592.164754,-12213.398043,0.000000
440.739491,-592.164754,-12065.356855,-459.657299
440.739815,-2516.700203,-11103.089130,-536.266849
440.740139,-3552.988522,-9696.697840,0.000000
440.740464,-2590.720797,-9326.594869,536.266849
440.740788,-222.061783,-9548.656652,1915.238745
440.741112,2294.638420,-9326.594869,2451.505594
440.741436,3478.967927,-9104.533087,1532.190996
440.741760,1998.556043,-8956.491898,536.266849
440.742084,740.205942,-9400.615463,-306.438199
440.742409,-740.205942,-9474.636058,-306.438199
440.742733,-1110.308913,-9474.636058,-459.657299
440.743057,0.000000,-9844.739029,0.000000
440.743381,814.226536,-10510.924376,612.876398
440.743705,1332.370696,-11325.150913,459.657299
440.744029,1036.288319,-11325.150913,919.314598
440.744354,-296.082377,-10732.986159,612.876398
440.744678,-1628.453072,-9622.677246,1302.362347
440.745002,-2146.597232,-8882.471304,1685.410096
440.745326,-814.226536,-8660.409521,2374.896044
440.745650,1406.391290,-8438.347739,2834.553343
440.745974,2368.659014,-8512.368333,2451.505594
440.746299,2220.617826,-8216.285956,1532.190996
440.746623,296.082377,-8438.347739,306.438199
440.746947,-1628.453072,-8068.244768,-536.266849
440.747271,-2072.576638,-8068.244768,-689.485948
440.747595,-1480.411884,-8808.450710,-612.876398
440.747920,-148.041188,-9400.615463,-153.219100
440.748244,592.164754,-9992.780217,459.657299
440.748568,740.205942,-10881.027347,229.828649
440.748892,-1036.288319,-10362.883188,229.828649
440.749216,-2442.679609,-9696.697840,153.219100
440.749540,-2960.823768,-8882.471304,612.876398
440.749865,-2220.617826,-8734.430116,995.924147
440.750189,148.041188,-8734.430116,1302.362347
440.750513,2368.659014,-9030.512492,1838.629195
440.750837,2886.803174,-8290.306550,1149.143247
440.751161,2368.659014,-8586.388927,0.000000
440.751485,962.267725,-8660.409521,-995.924147
440.751810,-444.123565,-8660.409521,-1762.019645
440.752134,-1036.288319,-8956.491898,-1838.629195
440.752458,0.000000,-9622.677246,-1685.410096
440.752782,1036.288319,-10584.944971,-995.924147
440.753106,1776.494261,-11473.192101,-383.047749
440.753430,962.267725,-11695.253884,-919.314598
440.753755,-222.061783,-11621.233289,-1762.019645
440.754079,-2442.679609,-10436.903782,-1302.362347
440.754403,-2664.741391,-10288.862594,-689.485948
440.754727,-1850.514855,-10066.800811,0.000000
440.755051,222.061783,-10510.924376,1072.533697
440.755375,2146.597232,-10066.800811,383.047749
440.755700,2664.741391,-9992.780217,0.000000
440.756024,2146.597232,-9844.739029,-1532.190996
440.756348,518.144159,-9992.780217,-1915.238745
440.756672,296.082377,-9918.759623,-1608.800546
440.756996,592.164754,-9622.677246,-1149.143247
440.757321,1184.329507,-10140.821405,-536.266849
440.757645,1850.514855,-11547.212695,-995.924147
440.757969,962.267725,-11769.274478,-536.266849
440.758293,-592.164754,-11251.130318,-995.924147
440.758617,-2960.823768,-9918.759623,-1149.143247
440.758941,-4441.235652,-8882.471304,-919.314598
440.759266,-3775.050304,-8438.347739,0.000000
440.759590,-1628.453072,-8882.471304,766.095498
440.759914,740.205942,-8364.327145,1762.019645
440.760238,1628.453072,-8068.244768,1072.533697
440.760562,1702.473667,-8512.368333,536.266849
440.760886,296.082377,-8290.306550,-766.095498
440.761211,-814.226536,-8586.388927,-995.924147
440.761535,-1110.308913,-9326.594869,-1072.533697
440.761859,-296.082377,-9696.697840,-536.266849
440.762183,1332.370696,-10658.965565,-306.438199
440.762507,2294.638420,-11103.089130,153.219100
440.762831,2146.597232,-11621.233289,76.609550
440.763156,222.061783,-11325.150913,0.000000
440.763480,-1554.432478,-9548.656652,153.219100
440.763804,-2664.741391,-9104.533087,689.485948
440.764128,-1702.473667,-8956.491898,1225.752797
440.764452,0.000000,-8660.409521,1455.581446
440.764777,1850.514855,-8660.409521,1302.362347
440.765101,1924.535449,-8364.327145,995.924147
440.765425,740.205942,-8512.368333,-383.047749
440.765749,0.000000,-8586.388927,-1072.533697
440.766073,-1184.329507,-7920.203579,-919.314598
440.766397,-666.185348,-8808.450710,-842.705048
440.766721,222.061783,-9770.718434,-766.095498
440.767045,1036.288319,-10955.047942,-536.266849
440.767370,962.267725,-11843.295072,76.609550
440.767694,-148.041188,-11991.336260,-229.828649
440.768018,-2146.597232,-11251.130318,-383.047749
440.768342,-3552.988522,-10214.842000,383.047749
440.768666,-2812.782580,-9992.780217,612.876398
440.768990,-1036.288319,-9770.718434,1685.410096
440.769314,1036.288319,-9770.718434,1838.629195
440.769639,2294.638420,-9400.615463,1378.971896
440.769963,1554.432478,-9030.512492,229.828649
440.770287,222.061783,-9030.512492,-383.047749
440.770611,-1406.391290,-8808.450710,-766.095498
440.770935,-2146.597232,-8808.450710,-1378.971896
440.771259,-1480.411884,-9252.574275,-995.924147
440.771583,0.000000,-9696.697840,-766.095498
440.771907,1184.329507,-10881.027347,0.000000
440.772232,1258.350101,-11103.089130,76.609550
440.772556,148.041188,-10881.027347,459.657299
440.772880,-740.205942,-9770.718434,766.095498
440.773204,-1628.453072,-8882.471304,842.705048
440.773528,-740.205942,-8882.471304,1608.800546
440.773852,814.226536,-9104.533087,1762.019645
440.774176,2812.782580,-9030.512492,1915.238745
440.774500,3404.947333,-9104.533087,1532.190996
440.774825,2072.576638,-8882.471304,536.266849
440.775149,74.020594,-8882.471304,-459.657299
440.775473,-1184.329507,-8364.327145,-995.924147
440.775797,-1184.329507,-8734.430116,-919.314598
440.776121,-296.082377,-9548.656652,-842.705048
440.776445,0.000000,-10658.965565,-306.438199
440.776769,148.041188,-11325.150913,-383.047749
440.777094,-666.185348,-11029.068536,0.000000
440.777418,-2368.659014,-10510.924376,0.000000
440.777742,-3404.947333,-9474.636058,76.609550
440.778066,-3256.906145,-8734.430116,995.924147
440.778390,-1036.288319,-8808.450710,1225.752797
440.778714,1480.411884,-9178.553681,1378.971896
440.779038,2738.761985,-9178.553681,766.095498
440.779362,2368.659014,-8586.388927,-229.828649
440.779687,888.247130,-8660.409521,-1149.143247
440.780011,-370.102971,-8734.430116,-1378.971896
440.780335,-962.267725,-9104.533087,-1378.971896
440.780659,-370.102971,-9770.718434,-1685.410096
440.780983,962.267725,-10584.944971,-766.095498
440.781307,1850.514855,-11769.274478,-995.924147
440.781631,1776.494261,-12139.377449,-842.705048
440.781955,74.020594,-11325.150913,-766.095498
440.782280,-1998.556043,-9696.697840,-919.314598
440.782604,-2368.659014,-9992.780217,-383.047749
440.782928,-1702.473667,-9474.636058,76.609550
440.783252,222.061783,-9622.677246,1072.533697
440.783576,1776.494261,-9696.697840,689.485948
440.783900,2220.617826,-9622.677246,153.219100
440.784224,1702.473667,-10066.800811,-995.924147
440.784549,0.000000,-9252.574275,-1685.410096
440.784873,-740.205942,-8512.368333,-1838.629195
440.785197,-444.123565,-9104.533087,-1991.848295
440.785521,148.041188,-9770.718434,-1225.752797
440.785845,1110.308913,-11103.089130,-766.095498
440.786169,1406.391290,-11843.295072,-612.876398
440.786493,0.000000,-11621.233289,-612.876398
440.786817,-1850.514855,-10955.047942,-536.266849
440.787142,-3404.947333,-9400.615463,-383.047749
440.787466,-2960.823768,-8438.347739,459.657299
440.787790,-370.102971,-8290.306550,1225.752797
440.788114,1924.535449,-8808.450710,2068.457845
440.788438,2960.823768,-8512.368333,1838.629195
440.788762,2886.803174,-8364.327145,1149.143247
440.789086,1184.329507,-7624.121203,229.828649
440.789410,-962.267725,-7105.977043,-842.705048
440.789735,-2072.576638,-7476.080014,-1378.971896
440.790059,-1924.535449,-8438.347739,-612.876398
440.790383,-518.144159,-9696.697840,-689.485948
440.790707,222.061783,-10881.027347,0.000000
440.791031,518.144159,-11473.192101,153.219100
440.791355,-592.164754,-11103.089130,229.828649
440.791679,-2368.659014,-10436.903782,0.000000
440.792004,-2960.823768,-9474.636058,1455.581446
440.792328,-1850.514855,-9474.636058,1608.800546
440.792652,148.041188,-9844.739029,2451.505594
440.792976,2072.576638,-9696.697840,2451.505594
440.793300,2664.741391,-9326.594869,1532.190996
440.793624,1850.514855,-9104.533087,306.438199
440.793948,0.000000,-8660.409521,-689.485948
440.794272,-962.267725,-8808.450710,-919.314598
440.794597,-1184.329507,-8882.471304,-995.924147
440.794921,-740.205942,-9474.636058,-919.314598
440.795245,370.102971,-10584.944971,-383.047749
440.795569,888.247130,-11769.274478,-153.219100
440.795893,74.020594,-11769.274478,0.000000
440.796217,-1406.391290,-10955.047942,-153.219100
440.796541,-2368.659014,-9844.739029,766.095498
440.796865,-1998.556043,-9178.553681,995.924147
440.797190,0.000000,-9770.718434,1225.752797
440.797514,1332.370696,-9030.512492,1225.752797
440.797838,2812.782580,-9252.574275,1149.143247
440.798162,2664.741391,-9252.574275,76.609550
440.798486,1184.329507,-9030.512492,-995.924147
440.798810,-222.061783,-8882.471304,-1532.190996
440.799134,-1776.494261,-8512.368333,-1838.629195
440.799459,-814.226536,-9474.636058,-1149.143247
440.799783,222.061783,-9844.739029,-1685.410096
440.800107,1184.329507,-11103.089130,-766.095498
440.800431,1406.391290,-12139.377449,-306.438199
440.800755,518.144159,-12139.377449,-306.438199
440.801079,-962.267725,-11029.068536,0.000000
440.801403,-1850.514855,-9548.656652,229.828649
440.801727,-1184.329507,-8734.430116,766.095498
440.802052,444.123565,-8882.471304,1225.752797
440.802376,2516.700203,-8512.368333,842.705048
440.802700,3552.988522,-8734.430116,153.219100
440.803024,2590.720797,-8734.430116,-842.705048
440.803348,1036.288319,-8216.285956,-1915.238745
440.803672,-740.205942,-8216.285956,-1838.629195
440.803996,-592.164754,-8364.327145,-1915.238745
440.804320,370.102971,-9918.759623,-1149.143247
440.804645,592.164754,-10732.986159,-383.047749
440.804969,1406.391290,-11547.212695,-459.657299
440.805293,740.205942,-11991.336260,-306.438199
440.805617,-1258.350101,-11473.192101,-536.266849
440.805941,-2960.823768,-10510.924376,76.609550
440.806265,-2960.823768,-10140.821405,0.000000
440.806589,-1776.494261,-9474.636058,766.095498
440.806914,592.164754,-9696.697840,919.314598
440.807238,1480.411884,-9474.636058,919.314598
440.807562,1480.411884,-9548.656652,0.000000
440.807886,444.123565,-9030.512492,-459.657299
440.808210,-962.267725,-8586.388927,-995.924147
440.808534,-1776.494261,-8438.347739,-1302.362347
440.808858,-1628.453072,-9030.512492,-995.924147
440.809182,-444.123565,-9918.759623,-689.485948
440.809507,1036.288319,-10510.924376,76.609550
440.809831,1036.288319,-11843.295072,536.266849
440.810155,-222.061783,-11473.192101,459.657299
440.810479,-2368.659014,-9918.759623,536.266849
440.810803,-2812.782580,-9030.512492,919.314598
440.811127,-1850.514855,-8586.388927,1455.581446
440.811451,74.020594,-8956.491898,1991.848295
440.811775,2886.803174,-9104.533087,2528.115143
440.812100,3923.091493,-8068.244768,2221.676944
440.812424,3034.844362,-8438.347739,1149.143247
440.812748,1110.308913,-8512.368333,-229.828649
440.813072,-592.164754,-8882.471304,-995.924147
440.813396,-1406.391290,-9030.512492,-1072.533697
440.813720,-962.267725,-9918.759623,-766.095498
440.814044,0.000000,-10881.027347,-229.828649
440.814369,888.247130,-11621.233289,459.657299
440.814693,0.000000,-11843.295072,459.657299
440.815017,-1554.432478,-10955.047942,153.219100
440.815341,-2812.782580,-10362.883188,-153.219100
440.815665,-2886.803174,-9326.594869,995.924147
440.815989,-1480.411884,-8808.450710,2068.457845
440.816313,370.102971,-8734.430116,2374.896044
440.816637,1998.556043,-8586.388927,1685.410096
440.816962,2294.638420,-8586.388927,536.266849
440.817286,666.185348,-8734.430116,-459.657299
440.817610,74.020594,-8734.430116,-1225.752797
440.817934,-666.185348,-8808.450710,-1532.190996
440.818258,-962.267725,-9104.533087,-1685.410096
440.818582,-370.102971,-9844.739029,-1378.971896
440.818906,444.123565,-11103.089130,-842.705048
440.819230,1184.329507,-11621.233289,-995.924147
440.819555,666.185348,-11695.253884,0.000000
440.819879,-1110.308913,-10584.944971,-383.047749
440.820203,-2442.679609,-9474.636058,0.000000
440.820527,-2220.617826,-9400.615463,459.657299
440.820851,-740.205942,-9548.656652,766.095498
440.821175,1110.308913,-9918.759623,766.095498
440.821499,2146.597232,-9622.677246,0.000000
440.821824,1850.514855,-9178.553681,-612.876398
440.822148,814.226536,-9400.615463,-1378.971896
440.822472,74.020594,-9400.615463,-1838.629195
440.822796,-518.144159,-9622.677246,-1838.629195
440.823120,0.000000,-10066.800811,-1685.410096
440.823444,962.267725,-10658.965565,-1302.362347
440.823768,1332.370696,-11473.192101,-1225.752797
440.824092,740.205942,-11695.253884,-919.314598
440.824417,-814.226536,-11103.089130,-995.924147
440.824741,-3108.864956,-9992.780217,-995.924147
440.825065,-3701.029710,-9030.512492,-76.609550
440.825389,-2886.803174,-8364.327145,153.219100
440.825713,-592.164754,-8290.306550,919.314598
440.826037,1258.350101,-8438.347739,766.095498
440.826361,2146.597232,-8068.244768,76.609550
440.826685,1554.432478,-8068.244768,-459.657299
440.827010,370.102971,-8660.409521,-1378.971896
440.827334,-666.185348,-9326.594869,-1915.238745
440.827658,-370.102971,-9474.636058,-1072.533697
440.827982,296.082377,-10140.821405,-689.485948
440.828306,888.247130,-11251.130318,-766.095498
440.828630,888.247130,-12139.377449,-689.485948
440.828954,-518.144159,-11769.274478,-459.657299
440.829279,-1850.514855,-11177.109724,-459.657299
440.829603,-3478.967927,-9622.677246,0.000000
440.829927,-2738.761985,-8808.450710,229.828649
440.830251,-888.247130,-8808.450710,842.705048
440.830575,1258.350101,-8734.430116,1302.362347
440.830899,2590.720797,-8956.491898,1455.581446
440.831223,2590.720797,-8956.491898,842.705048
440.831547,1924.535449,-9178.553681,76.609550
440.831872,888.247130,-8956.491898,76.609550
440.832196,222.061783,-8438.347739,-536.266849
440.832520,518.144159,-9696.697840,-612.876398
440.832844,1406.391290,-11029.068536,0.000000
440.833168,2368.659014,-11917.315666,76.609550
440.833492,1480.411884,-11991.336260,536.266849
440.833816,-444.123565,-11547.212695,459.657299
440.834141,-2220.617826,-10658.965565,383.047749
440.834465,-3404.947333,-9326.594869,459.657299
440.834789,-2146.597232,-8586.388927,1455.581446
440.835113,518.144159,-9030.512492,2068.457845
440.835437,2072.576638,-9326.594869,2374.896044
440.835761,2516.700203,-8808.450710,1838.629195
440.836085,1628.453072,-8290.306550,1072.533697
440.836409,-444.123565,-8290.306550,-459.657299
440.836734,-1850.514855,-8586.388927,-766.095498
440.837058,-2220.617826,-9030.512492,-612.876398
440.837382,-1332.370696,-9622.677246,-153.219100
440.837706,0.000000,-10362.883188,229.828649
440.838030,888.247130,-10955.047942,612.876398
440.838354,444.123565,-11399.171507,536.266849
440.838678,-962.267725,-10214.842000,229.828649
440.839002,-2368.659014,-9030.512492,842.705048
440.839327,-2590.720797,-8512.368333,919.314598
440.839651,-1258.350101,-8660.409521,1532.190996
440.839975,518.144159,-8808.450710,2145.067394
440.840299,2294.638420,-8512.368333,1455.581446
440.840623,2294.638420,-8438.347739,383.047749
440.840947,1184.329507,-8660.409521,-536.266849
440.841271,-148.041188,-8438.347739,-995.924147
440.841596,-222.061783,-9252.574275,-689.485948
440.841920,-370.102971,-9326.594869,-919.314598
440.842244,148.041188,-10362.883188,-459.657299
440.842568,1184.329507,-11621.233289,-459.657299
440.842892,592.164754,-11917.315666,-689.485948
440.843216,-740.205942,-11769.274478,-612.876398
440.843540,-2146.597232,-10510.924376,0.000000
440.843864,-3182.885551,-9548.656652,306.438199
440.844189,-2516.700203,-9104.533087,459.657299
440.844513,0.000000,-9400.615463,1608.800546
440.844837,2146.597232,-9326.594869,1302.362347
440.845161,2812.782580,-9326.594869,76.609550
440.845485,1924.535449,-9326.594869,-612.876398
440.845809,444.123565,-9326.594869,-1378.971896
440.846133,0.000000,-8734.430116,-1685.410096
440.846457,-444.123565,-8882.471304,-1378.971896
440.846782,370.102971,-9622.677246,-1378.971896
440.847106,1480.411884,-10955.047942,-1072.533697
440.847430,1628.453072,-11547.212695,-1072.533697
440.847754,814.226536,-11325.150913,-689.485948
440.848078,-888.247130,-10732.986159,-919.314598
440.848402,-2664.741391,-9400.615463,-766.095498
440.848726,-2960.823768,-9252.574275,76.609550
440.849051,-2146.597232,-8882.471304,383.047749
440.849375,222.061783,-9178.553681,919.314598
440.849699,1702.473667,-9326.594869,383.047749
440.850023,2072.576638,-9474.636058,0.000000
440.850347,1036.288319,-9178.553681,-995.924147
440.850671,0.000000,-9178.553681,-1455.581446
440.850995,0.000000,-9696.697840,-1532.190996
440.851319,444.123565,-9400.615463,-1378.971896
440.851644,1406.391290,-10881.027347,-1149.143247
440.851968,1628.453072,-11325.150913,-995.924147
440.852292,1776.494261,-12213.398043,-383.047749
440.852616,0.000000,-11769.274478,-306.438199
440.852940,-2368.659014,-10658.965565,-612.876398
440.853264,-3330.926739,-9548.656652,76.609550
440.853588,-2516.700203,-8438.347739,1072.533697
440.853912,-370.102971,-8808.450710,1991.848295
440.854237,1110.308913,-8364.327145,1762.019645
440.854561,2442.679609,-8290.306550,1225.752797
440.854885,2072.576638,-7920.203579,0.000000
440.855209,518.144159,-7994.224174,-766.095498
440.855533,-444.123565,-7994.224174,-995.924147
440.855857,-666.185348,-8364.327145,-536.266849
440.856181,-296.082377,-9548.656652,-153.219100
440.856506,814.226536,-10288.862594,-306.438199
440.856830,1998.556043,-11399.171507,76.609550
440.857154,1110.308913,-11473.192101,153.219100
440.857478,-666.185348,-10955.047942,459.657299
440.857802,-2294.638420,-10066.800811,612.876398
440.858126,-2738.761985,-9622.677246,1302.362347
440.858450,-1776.494261,-9178.553681,1532.190996
440.858774,74.020594,-8882.471304,2604.724693
440.859099,1850.514855,-8808.450710,2298.286494
440.859423,2072.576638,-9178.553681,612.876398
440.859747,444.123565,-9104.533087,-153.219100
440.860071,-1184.329507,-8808.450710,-689.485948
440.860395,-1480.411884,-8660.409521,-842.705048
440.860719,-592.164754,-9030.512492,-612.876398
440.861043,74.020594,-9474.636058,-612.876398
440.861367,1332.370696,-10807.006753,0.000000
440.861692,1628.453072,-11843.295072,0.000000
440.862016,370.102971,-11769.274478,383.047749
440.862340,-1554.432478,-10881.027347,306.438199
440.862664,-3034.844362,-9918.759623,536.266849
440.862988,-2516.700203,-9474.636058,995.924147
440.863312,-444.123565,-9474.636058,1838.629195
440.863636,1332.370696,-9252.574275,2145.067394
440.863961,2072.576638,-8660.409521,1072.533697
440.864285,1776.494261,-8586.388927,306.438199
440.864609,740.205942,-8956.491898,-612.876398
440.864933,-962.267725,-8734.430116,-1532.190996
440.865257,-1850.514855,-9030.512492,-1149.143247
440.865581,-1480.411884,-9918.759623,-1302.362347
440.865905,-740.205942,-10436.903782,-1072.533697
440.866230,518.144159,-11473.192101,-1225.752797
440.866554,0.000000,-11547.212695,0.000000
440.866878,-666.185348,-11399.171507,-229.828649
440.867202,-2220.617826,-10214.842000,0.000000
440.867526,-2738.761985,-9104.533087,459.657299
440.867850,-1702.473667,-9252.574275,1072.533697
440.868175,0.000000,-8956.491898,1378.971896
440.868499,2146.597232,-9104.533087,1685.410096
440.868823,2294.638420,-8512.368333,0.000000
440.869147,1924.535449,-8142.265362,-919.314598
440.869471,518.144159,-7994.224174,-1378.971896
440.869795,-148.041188,-8068.244768,-1685.410096
440.870120,148.041188,-8882.471304,-1455.581446
440.870444,888.247130,-9548.656652,-1685.410096
440.870768,1258.350101,-10362.883188,-1149.143247
440.871092,1480.411884,-11621.233289,-919.314598
440.871416,296.082377,-11547.212695,-612.876398
440.871740,-1332.370696,-10732.986159,-766.095498
440.872065,-2738.761985,-9622.677246,-536.266849
440.872389,-2664.741391,-9326.594869,0.000000
440.872713,-444.123565,-9548.656652,689.485948
440.873037,1628.453072,-9474.636058,1149.143247
440.873361,3404.947333,-9844.739029,1149.143247
440.873685,2664.741391,-9326.594869,306.438199
440.874010,1036.288319,-9030.512492,-689.485948
440.874334,-518.144159,-9178.553681,-1685.410096
440.874658,-962.267725,-9474.636058,-1915.238745
440.874982,0.000000,-10140.821405,-1302.362347
440.875306,962.267725,-10881.027347,-1302.362347
440.875630,1628.453072,-11695.253884,-919.314598
440.875955,1110.308913,-11325.150913,-612.876398
440.876279,-962.267725,-11029.068536,-689.485948
440.876603,-2368.659014,-10214.842000,-689.485948
440.876927,-3701.029710,-9178.553681,0.000000
440.877251,-2886.803174,-9104.533087,612.876398
440.877576,-888.247130,-9252.574275,995.924147
440.877900,740.205942,-8808.450710,995.924147
440.878224,1850.514855,-8660.409521,1149.143247
440.878548,666.185348,-8512.368333,0.000000
440.878872,74.020594,-8290.306550,-766.095498
440.879196,-592.164754,-8512.368333,-689.485948
440.879521,0.000000,-8956.491898,-766.095498
440.879845,1110.308913,-10214.842000,-766.095498
440.880169,1406.391290,-11325.150913,-306.438199
440.880493,1332.370696,-11695.253884,0.000000
440.880817,-222.061783,-11843.295072,0.000000
440.881141,-1850.514855,-11177.109724,-153.219100
440.881466,-3552.988522,-9918.759623,459.657299
440.881790,-2886.803174,-9474.636058,842.705048
440.882114,-962.267725,-9030.512492,1685.410096
440.882438,1036.288319,-8882.471304,2298.286494
440.882762,2442.679609,-8216.285956,2145.067394
440.883086,2664.741391,-8586.388927,1149.143247
440.883411,592.164754,-7772.162391,-153.219100
440.883735,-962.267725,-7846.182985,-383.047749
440.884059,-1184.329507,-8364.327145,-459.657299
440.884383,-518.144159,-8882.471304,-689.485948
440.884707,518.144159,-9622.677246,-459.657299
440.885031,1776.494261,-10658.965565,229.828649
440.885356,1998.556043,-11029.068536,76.609550
440.885680,148.041188,-11325.150913,842.705048
440.886004,-1480.411884,-10732.986159,536.266849
440.886328,-2886.803174,-9696.697840,76.609550
440.886652,-2294.638420,-9844.739029,1302.362347
440.886977,-592.164754,-9400.615463,2145.067394
440.887301,1258.350101,-8956.491898,1991.848295
440.887625,2072.576638,-8586.388927,1225.752797
440.887949,1480.411884,-8290.306550,153.219100
440.888273,-296.082377,-8512.368333,-689.485948
440.888597,-1110.308913,-8364.327145,-1149.143247
440.888922,-888.247130,-8734.430116,-1072.533697
440.889246,0.000000,-9622.677246,-1072.533697
440.889570,666.185348,-10658.965565,-842.705048
440.889894,814.226536,-12065.356855,-766.095498
440.890218,74.020594,-12509.480420,-842.705048
440.890542,-1480.411884,-11621.233289,-459.657299
440.890867,-2590.720797,-10510.924376,-153.219100
440.891191,-2664.741391,-9770.718434,306.438199
440.891515,-888.247130,-9622.677246,919.314598
440.891839,1554.432478,-9400.615463,1302.362347
440.892163,3034.844362,-9178.553681,1149.143247
440.892487,2664.741391,-8734.430116,0.000000
440.892812,1332.370696,-8438.347739,-612.876398
440.893136,-1184.329507,-8586.388927,-1532.190996
440.893460,-1850.514855,-8068.244768,-1608.800546
440.893784,-1184.329507,-9030.512492,-1762.019645
440.894108,0.000000,-10362.883188,-1762.019645
440.894432,592.164754,-11177.109724,-1225.752797
440.894757,740.205942,-11769.274478,-766.095498
440.895081,-296.082377,-11399.171507,-1072.533697
440.895405,-2146.597232,-10807.006753,-612.876398
440.895729,-3256.906145,-9622.677246,229.828649
440.896053,-2072.576638,-9474.636058,306.438199
440.896378,444.123565,-9178.553681,1225.752797
440.896702,2368.659014,-8734.430116,1378.971896
440.897026,3256.906145,-8808.450710,536.266849
440.897350,2368.659014,-8586.388927,-229.828649
440.897674,740.205942,-8216.285956,-1302.362347
440.897998,-222.061783,-8216.285956,-1302.362347
440.898323,-296.082377,-8586.388927,-1532.190996
440.898647,0.000000,-9400.615463,-1225.752797
440.898971,370.102971,-10436.903782,-1455.581446
440.899295,740.205942,-11621.233289,-995.924147
440.899619,222.061783,-11991.336260,-766.095498
440.899943,-1184.329507,-11325.150913,-1225.752797
440.900268,-2442.679609,-9770.718434,-76.609550
440.900592,-2368.659014,-9030.512492,306.438199
440.900916,-592.164754,-9178.553681,995.924147
440.901240,1554.432478,-9178.553681,1532.190996
440.901564,2960.823768,-9030.512492,1685.410096
440.901888,2664.741391,-8956.491898,612.876398
440.902213,1332.370696,-8734.430116,-383.047749
440.902537,-222.061783,-8438.347739,-1532.190996
440.902861,-1036.288319,-8734.430116,-1225.752797
440.903185,-814.226536,-9474.636058,-536.266849
440.903509,-296.082377,-10362.883188,-842.705048
440.903833,0.000000,-11251.130318,-612.876398
440.904158,296.082377,-11621.233289,-306.438199
440.904482,-592.164754,-11843.295072,0.000000
440.904806,-1924.535449,-11029.068536,842.705048
440.905130,-2146.597232,-10584.944971,919.314598
440.905454,-1702.473667,-9030.512492,1762.019645
440.905778,-222.061783,-8660.409521,1608.800546
440.906103,1628.453072,-8808.450710,1991.848295
440.906427,2146.597232,-8956.491898,1378.971896
440.906751,1480.411884,-8734.430116,766.095498
440.907075,592.164754,-8660.409521,0.000000
440.907399,-962.267725,-7698.141797,-383.047749
440.907724,-962.267725,-8068.244768,-766.095498
440.908048,-296.082377,-8882.471304,-229.828649
440.908372,222.061783,-10066.800811,0.000000
440.908696,740.205942,-11325.150913,0.000000
440.909020,0.000000,-11695.253884,383.047749
440.909344,-1036.288319,-10955.047942,536.266849
440.909669,-2146.597232,-9918.759623,919.314598
440.909993,-2146.597232,-8956.491898,383.047749
440.910317,-592.164754,-9474.636058,2221.676944
440.910641,1258.350101,-9696.697840,2681.334243
440.910965,2590.720797,-9400.615463,2221.676944
440.911289,2664.741391,-9104.533087,1302.362347
440.911614,1258.350101,-8586.388927,229.828649
440.911938,-444.123565,-8142.265362,-1225.752797
440.912262,-1776.494261,-8586.388927,-766.095498
440.912586,-1702.473667,-9400.615463,-995.924147
440.912910,-1036.288319,-9548.656652,-459.657299
440.913234,148.041188,-10732.986159,-689.485948
440.913559,666.185348,-11843.295072,-459.657299
440.913883,0.000000,-11769.274478,-383.047749
440.914207,-1258.350101,-10955.047942,76.609550
440.914531,-1998.556043,-9770.718434,842.705048
440.914855,-1480.411884,-9474.636058,1225.752797
440.915179,148.041188,-9400.615463,1991.848295
440.915504,1332.370696,-9178.553681,1915.238745
440.915828,2220.617826,-8882.471304,919.314598
440.916152,1924.535449,-8586.388927,-459.657299
440.916476,444.123565,-8438.347739,-1455.581446
440.916800,-740.205942,-7846.182985,-1149.143247
440.917125,-962.267725,-8142.265362,-2374.896044
440.917449,-370.102971,-9030.512492,-1685.410096
440.917773,740.205942,-10362.883188,-1302.362347
440.918097,666.185348,-11547.212695,-995.924147
440.918421,0.000000,-11843.295072,-1225.752797
440.918745,-1480.411884,-11621.233289,-1378.971896
440.919070,-3108.864956,-10510.924376,-1225.752797
440.919394,-3034.844362,-10140.821405,-536.266849
440.919718,-1184.329507,-9622.677246,995.924147
440.920042,1480.411884,-9474.636058,1685.410096
440.920366,2886.803174,-9622.677246,1225.752797
440.920690,3330.926739,-9548.656652,383.047749
440.921015,2146.597232,-9030.512492,-919.314598
440.921339,74.020594,-8438.347739,-1762.019645
440.921663,-1184.329507,-8586.388927,-2145.067394
440.921987,-888.247130,-9030.512492,-2221.676944
440.922311,0.000000,-9548.656652,-1991.848295
440.922635,1628.453072,-10732.986159,-1225.752797
440.922960,1258.350101,-11473.192101,-1762.019645
440.923284,222.061783,-11177.109724,-1762.019645
440.923608,-1554.432478,-10584.944971,-1838.629195
440.923932,-2886.803174,-9474.636058,-919.314598
440.924256,-2516.700203,-9252.574275,0.000000
440.924580,-518.144159,-9030.512492,536.266849
440.924905,1406.391290,-9474.636058,1378.971896
440.925229,2812.782580,-9474.636058,1608.800546
440.925553,2590.720797,-9178.553681,383.047749
440.925877,1258.350101,-9030.512492,-459.657299
440.926201,0.000000,-8660.409521,-1532.190996
440.926525,-444.123565,-8734.430116,-1838.629195
440.926850,0.000000,-9474.636058,-1225.752797
440.927174,518.144159,-10214.842000,-1072.533697
440.927498,370.102971,-10807.006753,-1072.533697
440.927822,0.000000,-11769.274478,-995.924147
440.928146,-1702.473667,-11547.212695,-919.314598
440.928471,-3552.988522,-9622.677246,-995.924147
440.928795,-3923.091493,-8512.368333,0.000000
440.929119,-2220.617826,-8586.388927,1455.581446
440.929443,518.144159,-8734.430116,2221.676944
440.929767,2664.741391,-8734.430116,2221.676944
440.930091,3034.844362,-8586.388927,1915.238745
440.930416,2442.679609,-8216.285956,842.705048
440.930740,888.247130,-7920.203579,0.000000
440.931064,-592.164754,-8586.388927,-689.485948
440.931388,-888.247130,-9252.574275,-306.438199
440.931712,0.000000,-9548.656652,-689.485948
440.932036,1258.350101,-10881.027347,0.000000
440.932361,1628.453072,-11843.295072,0.000000
440.932685,666.185348,-12065.356855,0.000000
440.933009,-1258.350101,-11769.274478,229.828649
440.933333,-2960.823768,-10658.965565,612.876398
440.933657,-3034.844362,-9770.718434,1225.752797
440.933981,-1332.370696,-9548.656652,1762.019645
440.934306,370.102971,-9474.636058,2528.115143
440.934630,1480.411884,-9252.574275,2298.286494
440.934954,1406.391290,-8808.450710,995.924147
440.935278,74.020594,-8438.347739,0.000000
440.935602,-1554.432478,-8216.285956,-536.266849
440.935926,-1702.473667,-7994.224174,-766.095498
440.936251,-814.226536,-8512.368333,-612.876398
440.936575,0.000000,-9400.615463,-766.095498
440.936899,444.123565,-10584.944971,-306.438199
440.937223,518.144159,-11029.068536,-229.828649
440.937547,-518.144159,-11029.068536,0.000000
440.937872,-2072.576638,-9770.718434,0.000000
440.938196,-2590.720797,-8660.409521,229.828649
440.938520,-1184.329507,-8586.388927,919.314598
440.938844,1036.288319,-8956.491898,1915.238745
440.939168,3034.844362,-9252.574275,2298.286494
440.939492,3108.864956,-8734.430116,1378.971896
440.939817,1924.535449,-8808.450710,459.657299
440.940141,0.000000,-8660.409521,-1225.752797
440.940465,-1258.350101,-8808.450710,-1991.848295
440.940789,-1184.329507,-9178.553681,-1608.800546
440.941113,0.000000,-9696.697840,-1072.533697
440.941437,1406.391290,-10807.006753,-1302.362347
440.941762,1850.514855,-11399.171507,-995.924147
440.942086,1184.329507,-11621.233289,-919.314598
440.942410,-222.061783,-11695.253884,-383.047749
440.942734,-1998.556043,-10584.944971,-612.876398
440.943058,-1998.556043,-9844.739029,306.438199
440.943382,-370.102971,-9770.718434,919.314598
440.943707,1702.473667,-9770.718434,1455.581446
440.944031,3182.885551,-9030.512492,766.095498
440.944355,3182.885551,-9178.553681,0.000000
440.944679,1776.494261,-8882.471304,-995.924147
440.945003,-222.061783,-8512.368333,-1532.190996
440.945327,-296.082377,-8438.347739,-1762.019645
440.945652,-148.041188,-8734.430116,-1532.190996
440.945976,296.082377,-9918.759623,-1532.190996
440.946300,222.061783,-11103.089130,-1532.190996
440.946624,-444.123565,-11769.274478,-1455.581446
440.946948,-1406.391290,-11029.068536,-1225.752797
440.947272,-2664.741391,-10362.883188,-919.314598
440.947597,-3404.947333,-9696.697840,153.219100
440.947921,-2368.659014,-9622.677246,689.485948
440.948245,-444.123565,-9474.636058,1378.971896
440.948569,1184.329507,-9622.677246,1685.410096
440.948893,2664.741391,-9474.636058,1072.533697
440.949218,1776.494261,-8660.409521,0.000000
440.949542,-222.061783,-8068.244768,-1302.362347
440.949866,-1554.432478,-8290.306550,-1608.800546
440.950190,-1332.370696,-8956.491898,-1455.581446
440.950514,-370.102971,-9548.656652,-1149.143247
440.950838,888.247130,-10732.986159,-612.876398
440.951163,1258.350101,-10881.027347,-306.438199
440.951487,888.247130,-11251.130318,0.000000
440.951811,-962.267725,-10658.965565,229.828649
440.952135,-2590.720797,-9474.636058,612.876398
440.952459,-2368.659014,-9252.574275,766.095498
440.952783,-1258.350101,-8956.491898,1532.190996
440.953108,666.185348,-8734.430116,1838.629195
440.953432,1924.535449,-8586.388927,1685.410096
440.953756,2368.659014,-8290.306550,842.705048
440.954080,888.247130,-8660.409521,459.657299
440.954404,-814.226536,-8660.409521,-766.095498
440.954728,-1332.370696,-8512.368333,-842.705048
440.955053,-592.164754,-9326.594869,-995.924147
440.955377,0.000000,-10362.883188,-689.485948
440.955701,444.123565,-11325.150913,-612.876398
440.956025,370.102971,-12361.439231,0.000000
440.956349,-1036.288319,-11843.295072,306.438199
440.956673,-2294.638420,-11325.150913,-229.828649
440.956998,-2960.823768,-9992.780217,459.657299
440.957322,-2072.576638,-9400.615463,766.095498
440.957646,0.000000,-8956.491898,1455.581446
440.957970,1924.535449,-9326.594869,1455.581446
440.958294,2664.741391,-9178.553681,689.485948
440.958619,2220.617826,-8660.409521,229.828649
440.958943,518.144159,-8438.347739,-153.219100
440.959267,-666.185348,-8438.347739,-919.314598
440.959591,-962.267725,-8956.491898,-536.266849
440.959915,-222.061783,-9770.718434,-1072.533697
440.960239,592.164754,-10436.903782,-612.876398
440.960564,1554.432478,-11621.233289,-306.438199
440.960888,1628.453072,-11547.212695,76.609550
440.961212,148.041188,-11399.171507,612.876398
440.961536,-1554.432478,-9918.759623,229.828649
440.961860,-2072.576638,-9474.636058,1225.752797
440.962184,-1110.308913,-9030.512492,1149.143247
440.962509,518.144159,-9178.553681,1685.410096
440.962833,1554.432478,-9030.512492,1378.971896
440.963157,1406.391290,-8808.450710,229.828649
440.963481,0.000000,-8438.347739,-459.657299
440.963805,-1258.350101,-7994.224174,-1302.362347
440.964129,-1702.473667,-8216.285956,-1072.533697
440.964454,-1184.329507,-8808.450710,-995.924147
440.964778,-592.164754,-9474.636058,-689.485948
440.965102,518.144159,-10807.006753,-536.266849
440.965426,518.144159,-11547.212695,-306.438199
440.965750,-296.082377,-11621.233289,153.219100
440.966074,-1776.494261,-10584.944971,229.828649
440.966399,-1850.514855,-9696.697840,766.095498
440.966723,-1332.370696,-8734.430116,1225.752797
440.967047,518.144159,-9030.512492,1378.971896
440.967371,2146.597232,-9326.594869,1302.362347
440.967695,2738.761985,-8808.450710,459.657299
440.968020,2146.597232,-8808.450710,-612.876398
440.968344,518.144159,-8734.430116,-1072.533697
440.968668,-888.247130,-8882.471304,-2068.457845
440.968992,-814.226536,-8734.430116,-1838.629195
440.969316,0.000000,-9696.697840,-1685.410096
440.969641,814.226536,-10658.965565,-1225.752797
440.969965,1480.411884,-11769.274478,-689.485948
440.970289,1406.391290,-12065.356855,-459.657299
440.970613,296.082377,-11547.212695,-383.047749
440.970937,-814.226536,-10807.006753,0.000000
440.971262,-1628.453072,-10436.903782,1225.752797
440.971586,-814.226536,-9770.718434,995.924147
440.971910,962.267725,-9178.553681,842.705048
440.972234,2220.617826,-9104.533087,536.266849
440.972558,2368.659014,-9104.533087,-383.047749
440.972883,1480.411884,-9252.574275,-1149.143247
440.973207,148.041188,-8882.471304,-1378.971896
440.973531,-222.061783,-8734.430116,-536.266849
440.973855,-148.041188,-8956.491898,-689.485948
440.974179,518.144159,-9400.615463,-842.705048
440.974504,444.123565,-10140.821405,-919.314598
440.974828,814.226536,-10955.047942,-612.876398
440.975152,-222.061783,-11177.109724,-306.438199
440.975476,-2294.638420,-9548.656652,-459.657299
440.975800,-3404.947333,-8808.450710,766.095498
440.976124,-2812.782580,-8586.388927,766.095498
440.976449,-1258.350101,-9030.512492,1072.533697
440.976773,444.123565,-9104.533087,1302.362347
440.977097,1258.350101,-9178.553681,536.266849
440.977421,1184.329507,-9326.594869,0.000000
440.977745,148.041188,-9178.553681,-536.266849
440.978070,-1110.308913,-9252.574275,-689.485948
440.978394,-1776.494261,-9474.636058,-1225.752797
440.978718,-1110.308913,-9918.759623,-842.705048
440.979042,0.000000,-10955.047942,-1149.143247
440.979366,814.226536,-11843.295072,-689.485948
440.979691,962.267725,-12287.418637,0.000000
440.980015,-296.082377,-11695.253884,229.828649
440.980339,-1924.535449,-10288.862594,612.876398
440.980663,-2738.761985,-9548.656652,689.485948
440.980987,-2072.576638,-8586.388927,1378.971896
440.981312,0.000000,-8586.388927,1455.581446
440.981636,1184.329507,-8734.430116,1915.238745
440.981960,2294.638420,-8808.450710,842.705048
440.982284,1924.535449,-8438.347739,76.609550
440.982608,1036.288319,-8142.265362,-612.876398
440.982933,370.102971,-7920.203579,-459.657299
440.983257,74.020594,-8364.327145,-383.047749
440.983581,888.247130,-9622.677246,-383.047749
440.983905,1332.370696,-10510.924376,0.000000
440.984229,1110.308913,-11843.295072,0.000000
440.984554,0.000000,-11695.253884,0.000000
440.984878,-1628.453072,-10584.944971,0.000000
440.985202,-2738.761985,-9474.636058,459.657299
440.985526,-2886.803174,-8586.388927,842.705048
440.985850,-1184.329507,-8586.388927,1532.190996
440.986174,222.061783,-8808.450710,1302.362347
440.986499,962.267725,-8956.491898,612.876398
440.986823,814.226536,-8882.471304,0.000000
440.987147,-370.102971,-8660.409521,-1225.752797
440.987471,-1332.370696,-8660.409521,-995.924147
440.987795,-740.205942,-8808.450710,-1302.362347
440.988120,592.164754,-9622.677246,-919.314598
440.988444,1850.514855,-10584.944971,-536.266849
440.988768,1998.556043,-11695.253884,-1225.752797
440.989092,1554.432478,-11991.336260,-536.266849
440.989416,-296.082377,-11621.233289,-766.095498
440.989741,-2368.659014,-11029.068536,-612.876398
440.990065,-3182.885551,-9844.739029,-153.219100
440.990389,-2368.659014,-8882.471304,-153.219100
440.990713,74.020594,-8734.430116,459.657299
440.991037,1850.514855,-8956.491898,383.047749
440.991362,2442.679609,-9474.636058,0.000000
440.991686,1776.494261,-9474.636058,-689.485948
440.992010,370.102971,-9030.512492,-1302.362347
440.992334,-518.144159,-9104.533087,-1608.800546
440.992658,-592.164754,-9178.553681,-1532.190996
440.992983,444.123565,-9918.759623,-1072.533697
440.993307,1628.453072,-11621.233289,-1072.533697
440.993631,1332.370696,-12213.398043,-842.705048
440.993955,592.164754,-12139.377449,-459.657299
440.994279,-1554.432478,-11177.109724,-306.438199
440.994604,-2886.803174,-10140.821405,0.000000
440.994928,-2886.803174,-9252.574275,536.266849
440.995252,-962.267725,-9178.553681,306.438199
440.995576,1036.288319,-8956.491898,1455.581446
440.995900,2294.638420,-8438.347739,995.924147
440.996225,2294.638420,-8438.347739,-229.828649
440.996549,1036.288319,-8142.265362,-459.657299
440.996873,-296.082377,-8142.265362,-1225.752797
440.997197,-1036.288319,-8364.327145,-919.314598
440.997521,-666.185348,-8586.388927,-842.705048
440.997845,888.247130,-10066.800811,-383.047749
440.998170,1480.411884,-10658.965565,-153.219100
440.998494,1628.453072,-11325.150913,153.219100
440.998818,740.205942,-11547.212695,306.438199
440.999142,-1184.329507,-10436.903782,689.485948
440.999466,-2442.679609,-9548.656652,842.705048
440.999791,-1924.535449,-9104.533087,1378.971896
441.000115,0.000000,-8956.491898,2068.457845
441.000439,1480.411884,-8808.450710,2221.676944
441.000763,2294.638420,-9252.574275,1762.019645
441.001087,1702.473667,-8808.450710,383.047749
441.001412,222.061783,-8438.347739,-612.876398
441.001736,-1110.308913,-8734.430116,-995.924147
441.002060,-1628.453072,-8808.450710,-842.705048
441.002384,-962.267725,-9104.533087,-383.047749
441.002708,-222.061783,-10214.842000,-229.828649
441.003033,222.061783,-11621.233289,-153.219100
441.003357,-592.164754,-11695.253884,0.000000
441.003681,-1776.494261,-10807.006753,0.000000
441.004005,-2812.782580,-9844.739029,689.485948
441.004329,-2812.782580,-9252.574275,1378.971896
441.004654,-1110.308913,-8734.430116,1915.238745
441.004978,888.247130,-8660.409521,1838.629195
441.005302,1332.370696,-9030.512492,919.314598
441.005626,1924.535449,-8882.471304,612.876398
441.005950,888.247130,-9104.533087,-306.438199
441.006275,-518.144159,-9104.533087,-919.314598
441.006599,-1184.329507,-8882.471304,-1225.752797
441.006923,-962.267725,-9326.594869,-612.876398
441.007247,0.000000,-10140.821405,-995.924147
441.007571,592.164754,-11621.233289,-919.314598
441.007896,888.247130,-12583.501014,-229.828649
441.008220,222.061783,-12139.377449,-76.609550
441.008544,-888.247130,-11547.212695,76.609550
441.008868,-1924.535449,-10584.944971,536.266849
441.009192,-1480.411884,-9992.780217,995.924147
441.009516,74.020594,-9252.574275,1302.362347
441.009841,1480.411884,-9696.697840,1455.581446
441.010165,2516.700203,-9474.636058,1072.533697
441.010489,1998.556043,-9030.512492,0.000000
441.010813,962.267725,-8586.388927,-1149.143247
441.011137,-370.102971,-8068.244768,-1685.410096
441.011462,-592.164754,-8216.285956,-1302.362347
441.011786,-148.041188,-8956.491898,-1225.752797
441.012110,814.226536,-9918.759623,-1149.143247
441.012434,740.205942,-10362.883188,-689.485948
441.012758,296.082377,-11029.068536,-995.924147
441.013083,-1258.350101,-10510.924376,-383.047749
441.013407,-3034.844362,-9696.697840,0.000000
441.013731,-2960.823768,-8956.491898,459.657299
441.014055,-1776.494261,-8586.388927,919.314598
441.014379,518.144159,-8956.491898,1762.019645
441.014704,2368.659014,-8956.491898,2068.457845
441.015028,1998.556043,-8808.450710,842.705048
441.015352,962.267725,-8068.244768,-153.219100
441.015676,-814.226536,-8068.244768,-1225.752797
441.016000,-1406.391290,-8586.388927,-1608.800546
441.016325,-888.247130,-9104.533087,-1608.800546
441.016649,74.020594,-9770.718434,-1149.143247
441.016973,1036.288319,-11177.109724,-1378.971896
441.017297,1332.370696,-12139.377449,-536.266849
441.017621,222.061783,-11843.295072,-995.924147
441.017946,-888.247130,-10955.047942,-306.438199
441.018270,-1924.535449,-10140.821405,536.266849
441.018594,-1554.432478,-9548.656652,919.314598
441.018918,518.144159,-9400.615463,1225.752797
441.019242,2738.761985,-9104.533087,1378.971896
441.019566,3478.967927,-8512.368333,1225.752797
441.019891,3404.947333,-8290.306550,229.828649
441.020215,1850.514855,-8586.388927,-1072.533697
441.020539,148.041188,-8438.347739,-1455.581446
441.020863,0.000000,-9178.553681,-1455.581446
441.021187,148.041188,-9844.739029,-1302.362347
441.021512,592.164754,-10955.047942,-1149.143247
441.021836,444.123565,-11843.295072,-1302.362347
441.022160,-296.082377,-12213.398043,-689.485948
441.022484,-2664.741391,-11843.295072,-842.705048
441.022808,-3256.906145,-10955.047942,153.219100
441.023133,-3552.988522,-9992.780217,459.657299
441.023457,-2220.617826,-9770.718434,1149.143247
441.023781,-296.082377,-9474.636058,1685.410096
441.024105,1184.329507,-9400.615463,1225.752797
441.024429,1628.453072,-9030.512492,1302.362347
441.024754,1036.288319,-8586.388927,0.000000
441.025078,0.000000,-8364.327145,-766.095498
441.025402,-1110.308913,-8438.347739,-766.095498
441.025726,-1110.308913,-8882.471304,-919.314598
441.026050,-222.061783,-9474.636058,-689.485948
441.026375,518.144159,-10436.903782,-766.095498
441.026699,814.226536,-10955.047942,0.000000
441.027023,0.000000,-10510.924376,76.609550
441.027347,-1480.411884,-9918.759623,229.828649
441.027671,-2294.638420,-9252.574275,689.485948
441.027996,-1924.535449,-8882.471304,1225.752797
441.028320,-370.102971,-8734.430116,1915.238745
441.028644,1628.453072,-8364.327145,2145.067394
441.028968,2886.803174,-8438.347739,1991.848295
441.029292,2442.679609,-8808.450710,459.657299
441.029617,1332.370696,-8734.430116,-153.219100
441.029941,74.020594,-8364.327145,-383.047749
441.030265,-962.267725,-8660.409521,-1149.143247
441.030589,-962.267725,-9696.697840,-995.924147
441.030913,0.000000,-10658.965565,-919.314598
441.031237,222.061783,-11843.295072,-383.047749
441.031562,0.000000,-12361.439231,-459.657299
441.031886,-1332.370696,-11621.233289,229.828649
441.032210,-3108.864956,-10214.842000,153.219100
441.032534,-3034.844362,-9622.677246,842.705048
441.032858,-1924.535449,-9030.512492,1072.533697
441.033183,222.061783,-8734.430116,1608.800546
441.033507,2072.576638,-8438.347739,1149.143247
441.033831,2368.659014,-7994.224174,76.609550
441.034155,2072.576638,-7698.141797,-459.657299
441.034479,666.185348,-7698.141797,-995.924147
441.034804,-518.144159,-8068.244768,-1685.410096
441.035128,-444.123565,-9252.574275,-1762.019645
441.035452,444.123565,-9992.780217,-1225.752797
441.035776,1850.514855,-11251.130318,-919.314598
441.036100,1924.535449,-12065.356855,-536.266849
441.036425,740.205942,-12287.418637,-689.485948
441.036749,-888.247130,-11843.295072,-306.438199
441.037073,-2590.720797,-10288.862594,0.000000
441.037397,-2368.659014,-10140.821405,536.266849
441.037721,-888.247130,-10066.800811,1072.533697
441.038046,1110.308913,-9696.697840,1149.143247
441.038370,2368.659014,-9474.636058,459.657299
441.038694,2220.617826,-9770.718434,-536.266849
441.039018,666.185348,-9252.574275,-1455.581446
441.039342,222.061783,-9474.636058,-1762.019645
441.039667,-370.102971,-9326.594869,-1991.848295
441.039991,518.144159,-9770.718434,-1378.971896
441.040315,1184.329507,-10510.924376,-919.314598
441.040639,1184.329507,-11843.295072,-689.485948
441.040963,222.061783,-12213.398043,-383.047749
441.041287,-1258.350101,-11251.130318,-536.266849
441.041612,-2812.782580,-9696.697840,0.000000
441.041936,-2960.823768,-8882.471304,766.095498
441.042260,-2146.597232,-7920.203579,1225.752797
441.042584,0.000000,-7994.224174,1762.019645
441.042908,1406.391290,-7698.141797,1685.410096
441.043233,2072.576638,-7550.100608,306.438199
441.043557,1332.370696,-7402.059420,-153.219100
441.043881,296.082377,-7402.059420,-995.924147
