#time,accel_x,accel_y,accel_z
827.020022,-9918.759623,-11843.295072,0.000000
827.020346,-6143.709319,-10140.821405,-689.485948
827.020670,-5699.585753,-8512.368333,3370.820191
827.020994,-2960.823768,-8068.244768,1685.410096
827.021318,592.164754,-7402.059420,229.828649
827.021642,2812.782580,-8290.306550,2451.505594
827.021966,6217.729913,-8586.388927,3600.648841
827.022291,9030.512492,-9474.636058,5592.497135
827.022615,7994.224174,-11029.068536,4443.353888
827.022939,2516.700203,-9548.656652,1762.019645
827.023263,-2590.720797,-9770.718434,-612.876398
827.023587,-4959.379811,-13471.748144,-1608.800546
827.023911,-4737.318029,-16506.592507,-2145.067394
827.024235,-4885.359217,-14434.015869,-2145.067394
827.024559,-5255.462188,-9400.615463,-919.314598
827.024884,-5403.503377,-7179.997637,-229.828649
827.025208,-5107.421000,-9400.615463,-1225.752797
827.025532,-5033.400406,-8364.327145,-1072.533697
827.025856,-3404.947333,-8364.327145,76.609550
827.026180,-1850.514855,-9548.656652,1532.190996
827.026504,444.123565,-11843.295072,3907.087040
827.026828,2294.638420,-11769.274478,4213.525239
827.027152,1924.535449,-9770.718434,4366.744339
827.027477,-296.082377,-10066.800811,2145.067394
827.027801,-2368.659014,-12657.521608,1225.752797
827.028125,-1850.514855,-11843.295072,1302.362347
827.028449,222.061783,-10881.027347,2451.505594
827.028773,-296.082377,-10658.965565,2374.896044
827.029097,-2368.659014,-10807.006753,1072.533697
827.029421,-3923.091493,-10658.965565,0.000000
827.029745,-5033.400406,-8808.450710,-229.828649
827.030070,-5033.400406,-7920.203579,153.219100
827.030394,-4293.194464,-7846.182985,1455.581446
827.030718,-3034.844362,-7920.203579,2298.286494
827.031042,-2442.679609,-7994.224174,3064.381992
827.031366,-2960.823768,-7846.182985,3753.867940
827.031690,-4367.215058,-8142.265362,3217.601092
827.032014,-5181.441594,-9622.677246,3447.429741
827.032339,-4959.379811,-10436.903782,3907.087040
827.032663,-3182.885551,-10362.883188,4136.915689
827.032987,-1998.556043,-9696.697840,4903.011187
827.033311,-592.164754,-9474.636058,5286.058936
827.033635,-296.082377,-10436.903782,4366.744339
827.033959,666.185348,-9252.574275,4749.792088
827.034283,1406.391290,-8438.347739,4903.011187
827.034607,1480.411884,-7920.203579,4903.011187
827.034932,1036.288319,-7402.059420,4213.525239
827.035256,-1480.411884,-7254.018232,3600.648841
827.035580,-3552.988522,-7105.977043,2298.286494
827.035904,-6809.894666,-6365.771101,1915.238745
827.036228,-8808.450710,-6957.935855,1378.971896
827.036552,-9178.553681,-8216.285956,459.657299
827.036876,-9474.636058,-8660.409521,229.828649
827.037200,-7920.203579,-10436.903782,1838.629195
827.037525,-3478.967927,-12435.459826,3677.258390
827.037849,1258.350101,-12509.480420,4596.572988
827.038173,4145.153275,-11547.212695,5209.449386
827.038497,4885.359217,-10584.944971,6435.202183
827.038821,4441.235652,-10510.924376,5132.839837
827.039145,2960.823768,-11547.212695,4366.744339
827.039469,1776.494261,-10288.862594,3830.477490
827.039793,888.247130,-9400.615463,2145.067394
827.040118,-666.185348,-9474.636058,383.047749
827.040442,-2960.823768,-9400.615463,-306.438199
827.040766,-3701.029710,-9326.594869,-1838.629195
827.041090,-4811.338623,-8512.368333,-2681.334243
827.041414,-6957.935855,-8364.327145,-2451.505594
827.041738,-7624.121203,-8290.306550,-2221.676944
827.042062,-5921.647536,-7920.203579,-1608.800546
827.042386,-3256.906145,-8586.388927,153.219100
827.042711,296.082377,-9548.656652,1991.848295
827.043035,3404.947333,-10584.944971,2298.286494
827.043359,5107.421000,-11769.274478,3600.648841
827.043683,4589.276840,-12879.583391,4060.306139
827.044007,3182.885551,-12361.439231,3600.648841
827.044331,1702.473667,-12287.418637,2911.162892
827.044655,1036.288319,-11769.274478,2068.457845
827.044979,1332.370696,-10066.800811,153.219100
827.045304,1628.453072,-8956.491898,-2528.115143
827.045628,1184.329507,-9918.759623,-2987.772442
827.045952,-370.102971,-10807.006753,-3447.429741
827.046276,-2368.659014,-10362.883188,-5286.058936
827.046600,-5847.626942,-8438.347739,-4443.353888
827.046924,-7254.018232,-7105.977043,-4519.963438
827.047248,-6069.688724,-7698.141797,-3677.258390
827.047572,-3552.988522,-8734.430116,-1762.019645
827.047897,0.000000,-8956.491898,76.609550
827.048221,2664.741391,-7994.224174,229.828649
827.048545,3552.988522,-8586.388927,383.047749
827.048869,1776.494261,-9770.718434,2145.067394
827.049193,2220.617826,-10881.027347,2221.676944
827.049517,3627.009116,-11325.150913,2681.334243
827.049841,3923.091493,-10658.965565,2451.505594
827.050166,4663.297435,-9252.574275,2145.067394
827.050490,3849.070898,-7994.224174,-689.485948
827.050814,370.102971,-5329.482782,-5822.325785
827.051138,-5255.462188,-8512.368333,-6358.592633
827.051462,-8216.285956,-14285.974681,-4290.134789
827.051786,-4737.318029,-14063.912898,-6052.154434
827.052111,-4515.256246,-10732.986159,-2987.772442
827.052435,-6069.688724,-8808.450710,689.485948
827.052759,-3034.844362,-9474.636058,-2451.505594
827.053083,-2590.720797,-11621.233289,-3447.429741
827.053407,-1554.432478,-8586.388927,-612.876398
827.053731,4293.194464,-6143.709319,1455.581446
827.054055,7994.224174,-9770.718434,2987.772442
827.054380,6883.915261,-12139.377449,5132.839837
827.054704,4885.359217,-10955.047942,4979.620737
827.055028,2294.638420,-10066.800811,3370.820191
827.055352,-1628.453072,-8882.471304,-1991.848295
827.055676,-4885.359217,-8586.388927,-5056.230287
827.056000,-4663.297435,-10140.821405,-3140.991542
827.056324,888.247130,-11917.315666,-995.924147
827.056649,3256.906145,-12361.439231,-1608.800546
827.056973,-1702.473667,-10436.903782,1149.143247
827.057297,-3849.070898,-8882.471304,0.000000
827.057621,-4441.235652,-7920.203579,-2298.286494
827.057945,-3627.009116,-8290.306550,-306.438199
827.058269,222.061783,-8438.347739,2987.772442
827.058593,5551.544565,-9770.718434,4136.915689
827.058918,6069.688724,-11325.150913,4136.915689
827.059242,2368.659014,-10214.842000,4596.572988
827.059566,-370.102971,-8586.388927,2911.162892
827.059890,-2590.720797,-9992.780217,383.047749
827.060214,-3256.906145,-12435.459826,995.924147
827.060538,-2072.576638,-10436.903782,536.266849
827.060862,1110.308913,-8734.430116,383.047749
827.061187,1554.432478,-9030.512492,1225.752797
827.061511,74.020594,-10066.800811,1225.752797
827.061835,0.000000,-8512.368333,1149.143247
827.062159,740.205942,-6957.935855,766.095498
827.062483,1184.329507,-7105.977043,1991.848295
827.062807,1702.473667,-7698.141797,2221.676944
827.063131,2072.576638,-8734.430116,2298.286494
827.063456,444.123565,-9104.533087,1991.848295
827.063780,-1184.329507,-9104.533087,1225.752797
827.064104,-1110.308913,-8438.347739,459.657299
827.064428,148.041188,-7920.203579,995.924147
827.064752,592.164754,-8956.491898,1455.581446
827.065076,74.020594,-10362.883188,229.828649
827.065400,-888.247130,-10066.800811,-383.047749
827.065725,-1554.432478,-9844.739029,306.438199
827.066049,-1628.453072,-9252.574275,536.266849
827.066373,592.164754,-9178.553681,229.828649
827.066697,2368.659014,-9030.512492,842.705048
827.067021,2516.700203,-10214.842000,1532.190996
827.067345,1776.494261,-11547.212695,383.047749
827.067670,-518.144159,-11251.130318,229.828649
827.067994,-2960.823768,-10214.842000,-1225.752797
827.068318,-2960.823768,-9548.656652,-1378.971896
827.068642,-1998.556043,-10214.842000,-1532.190996
827.068966,-444.123565,-10584.944971,-1608.800546
827.069290,-148.041188,-10214.842000,-2068.457845
827.069614,-962.267725,-10436.903782,-1685.410096
827.069939,-1776.494261,-10288.862594,-2298.286494
827.070263,-888.247130,-9252.574275,-1302.362347
827.070587,370.102971,-9326.594869,0.000000
827.070911,2294.638420,-9548.656652,-153.219100
827.071235,3552.988522,-10510.924376,-229.828649
827.071559,2886.803174,-11251.130318,0.000000
827.071883,2072.576638,-11621.233289,-536.266849
827.072208,1258.350101,-10732.986159,-1072.533697
827.072532,1110.308913,-9622.677246,-689.485948
827.072856,740.205942,-8882.471304,-1149.143247
827.073180,-888.247130,-9252.574275,-1378.971896
827.073504,-2812.782580,-10214.842000,-2451.505594
827.073828,-4515.256246,-10584.944971,-2604.724693
827.074152,-4367.215058,-9622.677246,-3140.991542
827.074477,-2442.679609,-8734.430116,-2528.115143
827.074801,0.000000,-8586.388927,-1149.143247
827.075125,2220.617826,-9030.512492,-536.266849
827.075449,2072.576638,-9696.697840,-153.219100
827.075773,0.000000,-10362.883188,-536.266849
827.076097,-1776.494261,-10140.821405,-536.266849
827.076421,-1332.370696,-9844.739029,-842.705048
827.076746,296.082377,-9696.697840,0.000000
827.077070,2664.741391,-10066.800811,536.266849
827.077394,2812.782580,-9770.718434,153.219100
827.077718,888.247130,-9770.718434,612.876398
827.078042,-1924.535449,-9400.615463,-612.876398
827.078366,-3404.947333,-8068.244768,-1685.410096
827.078690,-2516.700203,-8364.327145,-1302.362347
827.079015,-148.041188,-8660.409521,-459.657299
827.079339,2220.617826,-8882.471304,-306.438199
827.079663,2590.720797,-9252.574275,229.828649
827.079987,1110.308913,-9400.615463,-306.438199
827.080311,-592.164754,-9548.656652,-536.266849
827.080635,-1554.432478,-9622.677246,-229.828649
827.080959,-592.164754,-9474.636058,76.609550
827.081284,1036.288319,-10140.821405,766.095498
827.081608,1702.473667,-10881.027347,1455.581446
827.081932,1554.432478,-11177.109724,1455.581446
827.082256,814.226536,-10955.047942,1608.800546
827.082580,592.164754,-10732.986159,919.314598
827.082904,518.144159,-9400.615463,2221.676944
827.083229,1406.391290,-9326.594869,1149.143247
827.083553,1776.494261,-9474.636058,612.876398
827.083877,1036.288319,-10288.862594,383.047749
827.084201,-370.102971,-10510.924376,76.609550
827.084525,-1332.370696,-9548.656652,-536.266849
827.084849,-1184.329507,-8734.430116,-612.876398
827.085173,74.020594,-8438.347739,0.000000
827.085498,1332.370696,-9104.533087,689.485948
827.085822,1184.329507,-10066.800811,383.047749
827.086146,-296.082377,-10066.800811,612.876398
827.086470,-1850.514855,-9770.718434,766.095498
827.086794,-1998.556043,-9326.594869,1302.362347
827.087118,-444.123565,-9400.615463,1762.019645
827.087442,1998.556043,-9548.656652,2681.334243
827.087767,2590.720797,-9474.636058,2451.505594
827.088091,1406.391290,-9770.718434,1455.581446
827.088415,-962.267725,-9992.780217,229.828649
827.088739,-2960.823768,-9696.697840,-306.438199
827.089063,-3478.967927,-9474.636058,-459.657299
827.089387,-2220.617826,-9474.636058,0.000000
827.089711,-592.164754,-9178.553681,-229.828649
827.090036,-296.082377,-9696.697840,-536.266849
827.090360,-1702.473667,-9178.553681,-229.828649
827.090684,-2294.638420,-8882.471304,-995.924147
827.091008,-2590.720797,-8956.491898,0.000000
827.091332,-740.205942,-8512.368333,842.705048
827.091656,1258.350101,-8660.409521,1685.410096
827.091980,2664.741391,-8882.471304,1608.800546
827.092305,2220.617826,-9696.697840,1455.581446
827.092629,296.082377,-10066.800811,766.095498
827.092953,-444.123565,-9252.574275,383.047749
827.093277,-444.123565,-8438.347739,76.609550
827.093601,962.267725,-8438.347739,0.000000
827.093925,1776.494261,-9030.512492,0.000000
827.094249,888.247130,-10362.883188,0.000000
827.094574,-370.102971,-10807.006753,-689.485948
827.094898,-518.144159,-10288.862594,-1225.752797
827.095222,148.041188,-9400.615463,-306.438199
827.095546,1110.308913,-8734.430116,76.609550
827.095870,2220.617826,-9696.697840,536.266849
827.096194,1998.556043,-10584.944971,306.438199
827.096518,0.000000,-11177.109724,0.000000
827.096843,-2220.617826,-11103.089130,-1072.533697
827.097167,-2886.803174,-10140.821405,-1302.362347
827.097491,-2294.638420,-9474.636058,-612.876398
827.097815,0.000000,-9252.574275,-919.314598
827.098139,666.185348,-9992.780217,-766.095498
827.098463,148.041188,-10732.986159,-1225.752797
827.098787,-1628.453072,-10658.965565,-1685.410096
827.099112,-1998.556043,-9622.677246,-1608.800546
827.099436,-962.267725,-9178.553681,-1302.362347
827.099760,1036.288319,-9252.574275,0.000000
827.100084,2368.659014,-10066.800811,0.000000
827.100408,3552.988522,-10881.027347,-536.266849
827.100732,1998.556043,-10584.944971,-842.705048
827.101057,222.061783,-10066.800811,-1838.629195
827.101381,-1110.308913,-9326.594869,-2145.067394
827.101705,-740.205942,-9400.615463,-1532.190996
827.102029,-148.041188,-9548.656652,-1685.410096
827.102353,-444.123565,-9326.594869,-1532.190996
827.102677,-962.267725,-9918.759623,-1225.752797
827.103001,-1924.535449,-10066.800811,-1915.238745
827.103326,-1850.514855,-9622.677246,-1455.581446
827.103650,0.000000,-9326.594869,-383.047749
827.103974,1776.494261,-9252.574275,76.609550
827.104298,3478.967927,-9992.780217,536.266849
827.104622,2368.659014,-10658.965565,-842.705048
827.104946,962.267725,-10288.862594,-383.047749
827.105270,0.000000,-10881.027347,-842.705048
827.105595,-148.041188,-9844.739029,-919.314598
827.105919,888.247130,-9548.656652,-383.047749
827.106243,1776.494261,-9474.636058,-612.876398
827.106567,1406.391290,-9326.594869,-306.438199
827.106891,0.000000,-9548.656652,-766.095498
827.107215,-1998.556043,-9548.656652,-1072.533697
827.107539,-2442.679609,-8808.450710,-612.876398
827.107864,-1332.370696,-8364.327145,306.438199
827.108188,740.205942,-8586.388927,995.924147
827.108512,2442.679609,-9178.553681,1149.143247
827.108836,2220.617826,-9548.656652,1225.752797
827.109160,444.123565,-9474.636058,842.705048
827.109484,-1332.370696,-9992.780217,229.828649
827.109808,-1628.453072,-8882.471304,229.828649
827.110133,-296.082377,-8660.409521,-229.828649
827.110457,296.082377,-9252.574275,76.609550
827.110781,0.000000,-9992.780217,153.219100
827.111105,-1258.350101,-10584.944971,0.000000
827.111429,-2146.597232,-10658.965565,-459.657299
827.111753,-2368.659014,-9474.636058,229.828649
827.112077,-1258.350101,-8734.430116,1455.581446
827.112402,148.041188,-9474.636058,1608.800546
827.112726,888.247130,-9992.780217,1838.629195
827.113050,518.144159,-10362.883188,1608.800546
827.113374,-1184.329507,-10436.903782,1225.752797
827.113698,-2294.638420,-9770.718434,919.314598
827.114022,-2294.638420,-9030.512492,919.314598
827.114346,-444.123565,-8438.347739,1378.971896
827.114671,444.123565,-9104.533087,1302.362347
827.114995,0.000000,-9696.697840,842.705048
827.115319,-1036.288319,-9918.759623,0.000000
827.115643,-2442.679609,-9696.697840,0.000000
827.115967,-2294.638420,-9030.512492,306.438199
827.116291,-518.144159,-8956.491898,995.924147
827.116616,1998.556043,-9252.574275,1455.581446
827.116940,3034.844362,-9696.697840,1838.629195
827.117264,2442.679609,-10436.903782,1762.019645
827.117588,0.000000,-10214.842000,1149.143247
827.117912,-1258.350101,-9918.759623,0.000000
827.118236,-1184.329507,-9474.636058,153.219100
827.118560,-296.082377,-9696.697840,306.438199
827.118885,222.061783,-10510.924376,229.828649
827.119209,0.000000,-10807.006753,153.219100
827.119533,-1036.288319,-10362.883188,-766.095498
827.119857,-1628.453072,-10066.800811,-153.219100
827.120181,-1332.370696,-9474.636058,-229.828649
827.120505,148.041188,-9178.553681,842.705048
827.120829,2146.597232,-9474.636058,995.924147
827.121154,2590.720797,-9992.780217,536.266849
827.121478,1184.329507,-10066.800811,0.000000
827.121802,-444.123565,-9474.636058,-383.047749
827.122126,-1406.391290,-8882.471304,-612.876398
827.122450,-296.082377,-8882.471304,-383.047749
827.122774,592.164754,-8660.409521,-383.047749
827.123098,1036.288319,-9104.533087,-689.485948
827.123423,296.082377,-9474.636058,-459.657299
827.123747,-444.123565,-9474.636058,-995.924147
827.124071,-888.247130,-9474.636058,-383.047749
827.124395,-740.205942,-8660.409521,-536.266849
827.124719,1036.288319,-8216.285956,0.000000
827.125043,2442.679609,-8586.388927,306.438199
827.125367,2442.679609,-9326.594869,76.609550
827.125692,1258.350101,-9622.677246,0.000000
827.126016,-296.082377,-10066.800811,-612.876398
827.126340,-740.205942,-9844.739029,-842.705048
827.126664,-444.123565,-8438.347739,-1225.752797
827.126988,888.247130,-8734.430116,-1302.362347
827.127312,962.267725,-9400.615463,-1455.581446
827.127636,-444.123565,-10436.903782,-1685.410096
827.127961,-1776.494261,-10658.965565,-1838.629195
827.128285,-2146.597232,-9770.718434,-1685.410096
827.128609,-814.226536,-9622.677246,-1072.533697
827.128933,1554.432478,-9770.718434,-306.438199
827.129257,3182.885551,-9992.780217,383.047749
827.129581,2220.617826,-10955.047942,0.000000
827.129905,296.082377,-11251.130318,-612.876398
827.130230,-1628.453072,-10881.027347,-1149.143247
827.130554,-1776.494261,-10214.842000,-1302.362347
827.130878,-148.041188,-9918.759623,-1225.752797
827.131202,1702.473667,-10140.821405,-1608.800546
827.131526,1702.473667,-10510.924376,-1378.971896
827.131850,74.020594,-10658.965565,-2145.067394
827.132175,-1628.453072,-10955.047942,-2451.505594
827.132499,-2294.638420,-10140.821405,-1838.629195
827.132823,-1184.329507,-9474.636058,-1378.971896
827.133147,1110.308913,-9844.739029,-536.266849
827.133471,2886.803174,-10584.944971,0.000000
827.133795,2738.761985,-10584.944971,-153.219100
827.134119,1332.370696,-10807.006753,-153.219100
827.134444,-740.205942,-10584.944971,-612.876398
827.134768,-1554.432478,-9622.677246,-536.266849
827.135092,-666.185348,-9326.594869,-536.266849
827.135416,0.000000,-9696.697840,-229.828649
827.135740,-296.082377,-10214.842000,-306.438199
827.136064,-814.226536,-10436.903782,-536.266849
827.136388,-1924.535449,-9548.656652,-536.266849
827.136713,-1776.494261,-8734.430116,383.047749
827.137037,-444.123565,-7994.224174,689.485948
827.137361,1184.329507,-8364.327145,1378.971896
827.137685,1554.432478,-8660.409521,995.924147
827.138009,518.144159,-9030.512492,995.924147
827.138333,-1258.350101,-9474.636058,689.485948
827.138657,-2220.617826,-9178.553681,306.438199
827.138982,-1850.514855,-7846.182985,1072.533697
827.139306,0.000000,-8068.244768,459.657299
827.139630,740.205942,-8512.368333,1378.971896
827.139954,444.123565,-9622.677246,919.314598
827.140278,-962.267725,-9696.697840,612.876398
827.140602,-2072.576638,-8808.450710,459.657299
827.140926,-1850.514855,-8068.244768,1149.143247
827.141251,-222.061783,-8216.285956,2221.676944
827.141575,1924.535449,-8882.471304,1915.238745
827.141899,2960.823768,-9252.574275,1915.238745
827.142223,2146.597232,-9770.718434,1378.971896
827.142547,0.000000,-9770.718434,612.876398
827.142871,-1480.411884,-9622.677246,153.219100
827.143195,-1554.432478,-8882.471304,0.000000
827.143520,-370.102971,-9474.636058,306.438199
827.143844,148.041188,-10066.800811,-229.828649
827.144168,148.041188,-10436.903782,76.609550
827.144492,-888.247130,-10214.842000,-153.219100
827.144816,-1480.411884,-9992.780217,-153.219100
827.145140,-1036.288319,-9474.636058,383.047749
827.145464,444.123565,-9548.656652,919.314598
827.145789,2072.576638,-9770.718434,1455.581446
827.146113,2442.679609,-10362.883188,1302.362347
827.146437,1480.411884,-11103.089130,1762.019645
827.146761,-666.185348,-10807.006753,919.314598
827.147085,-1036.288319,-10510.924376,229.828649
827.147409,148.041188,-9992.780217,459.657299
827.147733,1480.411884,-9622.677246,-153.219100
827.148058,1480.411884,-9844.739029,-459.657299
827.148382,148.041188,-9844.739029,-536.266849
827.148706,-1184.329507,-10066.800811,-153.219100
827.149030,-2072.576638,-9548.656652,-1149.143247
827.149354,-1776.494261,-8808.450710,-689.485948
827.149678,222.061783,-8660.409521,0.000000
827.150002,2516.700203,-9252.574275,383.047749
827.150326,3108.864956,-9474.636058,306.438199
827.150650,1480.411884,-9844.739029,229.828649
827.150974,-888.247130,-9770.718434,0.000000
827.151298,-1924.535449,-9252.574275,-459.657299
827.151622,-1036.288319,-8586.388927,-995.924147
827.151946,0.000000,-8660.409521,-919.314598
827.152270,814.226536,-9474.636058,-1225.752797
827.152594,0.000000,-10066.800811,-995.924147
827.152918,-1184.329507,-10066.800811,-1378.971896
827.153242,-1554.432478,-9548.656652,-1532.190996
827.153566,-444.123565,-9178.553681,-459.657299
827.153890,444.123565,-9104.533087,-1302.362347
827.154214,1332.370696,-9548.656652,-689.485948
827.154538,1332.370696,-10066.800811,-689.485948
827.154862,0.000000,-10584.944971,-919.314598
827.155186,-1480.411884,-10436.903782,-1532.190996
827.155511,-1332.370696,-9918.759623,-1608.800546
827.155835,-592.164754,-9030.512492,-995.924147
827.156159,962.267725,-9992.780217,-536.266849
827.156483,740.205942,-10510.924376,-1072.533697
827.156807,-740.205942,-11103.089130,-1532.190996
827.157131,-1924.535449,-10881.027347,-1762.019645
827.157455,-1998.556043,-10362.883188,-1532.190996
827.157779,-296.082377,-9400.615463,-919.314598
827.158103,2368.659014,-9474.636058,-306.438199
827.158427,3478.967927,-10214.842000,-76.609550
827.158751,2664.741391,-11029.068536,-689.485948
827.159075,148.041188,-9918.759623,-612.876398
827.159399,-1702.473667,-9770.718434,-1225.752797
827.159723,-1628.453072,-9326.594869,-1378.971896
827.160047,-592.164754,-9474.636058,-1302.362347
827.160371,296.082377,-9696.697840,-536.266849
827.160695,740.205942,-10140.821405,-229.828649
827.161019,0.000000,-10362.883188,-306.438199
827.161343,-1406.391290,-10140.821405,-459.657299
827.161667,-2220.617826,-9770.718434,229.828649
827.161991,-1480.411884,-9326.594869,1072.533697
827.162315,814.226536,-9548.656652,1455.581446
827.162639,2072.576638,-9992.780217,1608.800546
827.162963,1110.308913,-10140.821405,1762.019645
827.163288,0.000000,-10288.862594,1532.190996
827.163612,-1184.329507,-9474.636058,1225.752797
827.163936,-666.185348,-8734.430116,919.314598
827.164260,222.061783,-8438.347739,612.876398
827.164584,666.185348,-8808.450710,766.095498
827.164908,370.102971,-9474.636058,842.705048
827.165232,0.000000,-9622.677246,459.657299
827.165556,-1184.329507,-8956.491898,536.266849
827.165880,-1480.411884,-7772.162391,1149.143247
827.166204,222.061783,-8142.265362,1532.190996
827.166528,1924.535449,-8882.471304,2374.896044
827.166852,2960.823768,-9474.636058,2528.115143
827.167176,2146.597232,-9770.718434,2374.896044
827.167500,0.000000,-9548.656652,1225.752797
827.167824,-1110.308913,-8882.471304,1378.971896
827.168148,-1480.411884,-8290.306550,766.095498
827.168472,0.000000,-8586.388927,919.314598
827.168796,74.020594,-9104.533087,459.657299
827.169120,0.000000,-9696.697840,229.828649
827.169444,-814.226536,-9474.636058,0.000000
827.169768,-1406.391290,-9474.636058,0.000000
827.170092,-1332.370696,-9252.574275,153.219100
827.170416,-222.061783,-8734.430116,1225.752797
827.170740,1332.370696,-9548.656652,995.924147
827.171065,1110.308913,-10066.800811,1225.752797
827.171389,74.020594,-10436.903782,842.705048
827.171713,-1110.308913,-10807.006753,459.657299
827.172037,-1776.494261,-10066.800811,-306.438199
827.172361,-1184.329507,-9474.636058,0.000000
827.172685,148.041188,-9770.718434,-229.828649
827.173009,518.144159,-9696.697840,-76.609550
827.173333,0.000000,-10658.965565,-306.438199
827.173657,-1628.453072,-10807.006753,-1378.971896
827.173981,-2368.659014,-10436.903782,-1378.971896
827.174305,-1702.473667,-9622.677246,-766.095498
827.174629,222.061783,-9696.697840,-459.657299
827.174953,2442.679609,-10214.842000,306.438199
827.175277,2664.741391,-10807.006753,0.000000
827.175601,1184.329507,-10732.986159,-383.047749
827.175925,-444.123565,-10436.903782,-689.485948
827.176249,-1258.350101,-9770.718434,-1072.533697
827.176573,-888.247130,-9178.553681,-1149.143247
827.176897,-148.041188,-9548.656652,-842.705048
827.177221,444.123565,-10214.842000,-919.314598
827.177545,0.000000,-10214.842000,-1072.533697
827.177869,-1184.329507,-9252.574275,-1302.362347
827.178193,-1628.453072,-8734.430116,-1072.533697
827.178518,-592.164754,-8512.368333,-383.047749
827.178842,814.226536,-8882.471304,-229.828649
827.179166,1776.494261,-9326.594869,-153.219100
827.179490,1258.350101,-9696.697840,0.000000
827.179814,-296.082377,-9770.718434,0.000000
827.180138,-888.247130,-9474.636058,-229.828649
827.180462,-1184.329507,-9178.553681,0.000000
827.180786,148.041188,-9178.553681,-536.266849
827.181110,1406.391290,-9474.636058,-689.485948
827.181434,1406.391290,-9844.739029,-919.314598
827.181758,-296.082377,-10140.821405,-1378.971896
827.182082,-2072.576638,-10140.821405,-1378.971896
827.182406,-2442.679609,-9326.594869,-1608.800546
827.182730,-1110.308913,-8956.491898,-995.924147
827.183054,1332.370696,-9770.718434,-306.438199
827.183378,3256.906145,-10510.924376,0.000000
827.183702,2738.761985,-10584.944971,76.609550
827.184026,814.226536,-10510.924376,-612.876398
827.184350,-888.247130,-10066.800811,-1302.362347
827.184674,-1406.391290,-9104.533087,-842.705048
827.184998,-444.123565,-8882.471304,-1225.752797
827.185322,518.144159,-9400.615463,-153.219100
827.185646,1110.308913,-10510.924376,-536.266849
827.185970,74.020594,-10510.924376,-766.095498
827.186295,-444.123565,-10066.800811,-689.485948
827.186619,-518.144159,-9696.697840,-536.266849
827.186943,370.102971,-9252.574275,0.000000
827.187267,1702.473667,-9844.739029,153.219100
827.187591,2368.659014,-10584.944971,919.314598
827.187915,1628.453072,-10955.047942,76.609550
827.188239,-296.082377,-10658.965565,0.000000
827.188563,-1332.370696,-10362.883188,-536.266849
827.188887,-1184.329507,-9548.656652,-612.876398
827.189211,-444.123565,-9252.574275,-229.828649
827.189535,370.102971,-9918.759623,229.828649
827.189859,-444.123565,-9918.759623,0.000000
827.190183,-1776.494261,-10140.821405,-536.266849
827.190507,-2664.741391,-9696.697840,-153.219100
827.190831,-2072.576638,-9474.636058,459.657299
827.191155,0.000000,-9252.574275,1225.752797
827.191479,2072.576638,-9474.636058,1455.581446
827.191803,2664.741391,-9696.697840,1991.848295
827.192127,1702.473667,-10214.842000,1378.971896
827.192451,0.000000,-10362.883188,612.876398
827.192775,-1480.411884,-9252.574275,612.876398
827.193099,-1850.514855,-8586.388927,0.000000
827.193423,-740.205942,-8512.368333,0.000000
827.193747,296.082377,-9030.512492,306.438199
827.194072,222.061783,-9400.615463,-153.219100
827.194396,-888.247130,-9548.656652,-229.828649
827.194720,-1998.556043,-8808.450710,-383.047749
827.195044,-1850.514855,-7920.203579,689.485948
827.195368,-222.061783,-8586.388927,1455.581446
827.195692,1110.308913,-9252.574275,1685.410096
827.196016,1406.391290,-9622.677246,1838.629195
827.196340,296.082377,-9992.780217,1685.410096
827.196664,-888.247130,-10066.800811,612.876398
827.196988,-1702.473667,-8808.450710,76.609550
827.197312,-1480.411884,-8364.327145,153.219100
827.197636,-370.102971,-8586.388927,383.047749
827.197960,0.000000,-9474.636058,0.000000
827.198284,-740.205942,-10140.821405,0.000000
827.198608,-2146.597232,-10214.842000,-766.095498
827.198932,-2294.638420,-9918.759623,-689.485948
827.199256,-1776.494261,-9696.697840,383.047749
827.199580,740.205942,-9326.594869,842.705048
827.199904,2664.741391,-9992.780217,1378.971896
827.200228,2590.720797,-10584.944971,1378.971896
827.200552,1332.370696,-11029.068536,459.657299
827.200876,-518.144159,-10658.965565,-229.828649
827.201200,-1258.350101,-9844.739029,-383.047749
827.201524,-592.164754,-9400.615463,-536.266849
827.201849,518.144159,-9622.677246,-612.876398
827.202173,1258.350101,-10066.800811,-766.095498
827.202497,740.205942,-10214.842000,-612.876398
827.202821,-222.061783,-10214.842000,-1225.752797
827.203145,-1184.329507,-9844.739029,-995.924147
827.203469,-370.102971,-9326.594869,-459.657299
827.203793,1184.329507,-9104.533087,153.219100
827.204117,2294.638420,-9992.780217,766.095498
827.204441,2072.576638,-10584.944971,459.657299
827.204765,666.185348,-11029.068536,0.000000
827.205089,-1332.370696,-9770.718434,0.000000
827.205413,-1480.411884,-9474.636058,-459.657299
827.205737,-592.164754,-8808.450710,-306.438199
827.206061,-148.041188,-9400.615463,-229.828649
827.206385,-222.061783,-9918.759623,-766.095498
827.206709,-1480.411884,-10362.883188,-995.924147
827.207033,-2072.576638,-10362.883188,-1378.971896
827.207357,-2146.597232,-9104.533087,-459.657299
827.207681,-518.144159,-8586.388927,-459.657299
827.208005,2072.576638,-9104.533087,383.047749
827.208329,3478.967927,-9918.759623,459.657299
827.208653,2590.720797,-10066.800811,153.219100
827.208977,962.267725,-9696.697840,-612.876398
827.209302,-296.082377,-9178.553681,-995.924147
827.209626,0.000000,-8512.368333,-919.314598
827.209950,148.041188,-8216.285956,-689.485948
827.210274,962.267725,-8956.491898,-995.924147
827.210598,814.226536,-9548.656652,-306.438199
827.210922,0.000000,-9474.636058,-842.705048
827.211246,-1184.329507,-9104.533087,-995.924147
827.211570,-1258.350101,-8808.450710,-612.876398
827.211894,148.041188,-8660.409521,0.000000
827.212218,1998.556043,-9104.533087,383.047749
827.212542,3182.885551,-9770.718434,612.876398
827.212866,1406.391290,-9992.780217,153.219100
827.213190,-518.144159,-10584.944971,-153.219100
827.213514,-1554.432478,-10584.944971,-689.485948
827.213838,-1406.391290,-10140.821405,-919.314598
827.214162,-814.226536,-9696.697840,-842.705048
827.214486,-148.041188,-9770.718434,-766.095498
827.214810,-888.247130,-10584.944971,-842.705048
827.215134,-1702.473667,-11103.089130,-766.095498
827.215458,-2590.720797,-10881.027347,-1225.752797
827.215782,-2664.741391,-9844.739029,-536.266849
827.216106,-148.041188,-9622.677246,153.219100
827.216430,2072.576638,-9844.739029,612.876398
827.216754,2516.700203,-9992.780217,766.095498
827.217079,1554.432478,-10807.006753,689.485948
827.217403,0.000000,-11177.109724,-306.438199
827.217727,-1332.370696,-10066.800811,-612.876398
827.218051,-1184.329507,-9030.512492,0.000000
827.218375,0.000000,-9326.594869,-383.047749
827.218699,518.144159,-9844.739029,-536.266849
827.219023,222.061783,-10288.862594,-383.047749
827.219347,-1184.329507,-9844.739029,-1149.143247
827.219671,-2368.659014,-9770.718434,-612.876398
827.219995,-1110.308913,-9030.512492,153.219100
827.220319,592.164754,-8956.491898,689.485948
827.220643,2072.576638,-9326.594869,1072.533697
827.220967,1850.514855,-9992.780217,1072.533697
827.221291,444.123565,-10288.862594,842.705048
827.221615,-1036.288319,-10066.800811,459.657299
827.221939,-1998.556043,-9326.594869,536.266849
827.222263,-1480.411884,-8364.327145,-306.438199
827.222587,296.082377,-8290.306550,229.828649
827.222911,222.061783,-8808.450710,459.657299
827.223235,-444.123565,-9252.574275,0.000000
827.223559,-1924.535449,-9326.594869,0.000000
827.223883,-2590.720797,-8882.471304,-76.609550
827.224207,-1406.391290,-7846.182985,766.095498
827.224531,666.185348,-7476.080014,1149.143247
827.224856,2738.761985,-8586.388927,1762.019645
827.225180,3034.844362,-9548.656652,1302.362347
827.225504,1332.370696,-9844.739029,842.705048
827.225828,-666.185348,-9622.677246,229.828649
827.226152,-1184.329507,-9326.594869,0.000000
827.226476,-592.164754,-8734.430116,0.000000
827.226800,222.061783,-9104.533087,-153.219100
827.227124,814.226536,-9770.718434,0.000000
827.227448,666.185348,-10955.047942,-459.657299
827.227772,-666.185348,-10732.986159,0.000000
827.228096,-592.164754,-10140.821405,153.219100
827.228420,0.000000,-9326.594869,612.876398
827.228744,1406.391290,-9400.615463,1072.533697
827.229068,2368.659014,-10214.842000,1532.190996
827.229392,1702.473667,-10584.944971,919.314598
827.229716,0.000000,-10658.965565,-306.438199
827.230040,-1258.350101,-9844.739029,-536.266849
827.230364,-1702.473667,-9326.594869,-612.876398
827.230688,-148.041188,-9252.574275,-842.705048
827.231012,518.144159,-9622.677246,-766.095498
827.231336,296.082377,-10362.883188,-536.266849
827.231660,-888.247130,-10510.924376,0.000000
827.231984,-2220.617826,-10807.006753,-383.047749
827.232308,-2294.638420,-9918.759623,-383.047749
827.232633,-740.205942,-9548.656652,0.000000
827.232957,1480.411884,-9622.677246,153.219100
827.233281,2960.823768,-9992.780217,459.657299
827.233605,2442.679609,-10732.986159,153.219100
827.233929,444.123565,-10510.924376,-612.876398
827.234253,-1184.329507,-10288.862594,-1149.143247
827.234577,-1628.453072,-9178.553681,-612.876398
827.234901,-592.164754,-9104.533087,-1532.190996
827.235225,0.000000,-9844.739029,-1762.019645
827.235549,0.000000,-9622.677246,-1762.019645
827.235873,-444.123565,-9918.759623,-1302.362347
827.236197,-1110.308913,-9992.780217,-1455.581446
827.236521,-1332.370696,-9252.574275,-1608.800546
827.236845,-296.082377,-8956.491898,-306.438199
827.237169,1332.370696,-8586.388927,76.609550
827.237493,2442.679609,-9696.697840,689.485948
827.237817,1850.514855,-10288.862594,0.000000
827.238141,0.000000,-10288.862594,0.000000
827.238465,-814.226536,-10140.821405,-306.438199
827.238789,-74.020594,-9474.636058,-306.438199
827.239113,740.205942,-8882.471304,-229.828649
827.239437,518.144159,-8882.471304,-536.266849
827.239761,0.000000,-9770.718434,-1302.362347
827.240086,-1554.432478,-9770.718434,-1532.190996
827.240410,-2442.679609,-9474.636058,-1532.190996
827.240734,-2368.659014,-8956.491898,-1149.143247
827.241058,-814.226536,-8956.491898,-229.828649
827.241382,1776.494261,-9178.553681,536.266849
827.241706,2368.659014,-9400.615463,383.047749
827.242030,740.205942,-9918.759623,76.609550
827.242354,-1332.370696,-10066.800811,-383.047749
827.242678,-1924.535449,-9326.594869,-383.047749
827.243002,-1332.370696,-9178.553681,-536.266849
827.243326,-296.082377,-9030.512492,0.000000
827.243650,370.102971,-9474.636058,0.000000
827.243974,444.123565,-10436.903782,-383.047749
827.244298,-666.185348,-10584.944971,-383.047749
827.244622,-1850.514855,-10140.821405,-612.876398
827.244946,-2220.617826,-9400.615463,153.219100
827.245270,-592.164754,-9104.533087,1225.752797
827.245594,1406.391290,-9770.718434,1072.533697
827.245918,2072.576638,-10584.944971,1302.362347
827.246242,814.226536,-10732.986159,919.314598
827.246566,-666.185348,-10732.986159,306.438199
827.246890,-1554.432478,-9770.718434,76.609550
827.247214,-666.185348,-8512.368333,689.485948
827.247538,222.061783,-8808.450710,153.219100
827.247863,370.102971,-9400.615463,0.000000
827.248187,0.000000,-9622.677246,459.657299
827.248511,-1776.494261,-9474.636058,-306.438199
827.248835,-1776.494261,-9178.553681,0.000000
827.249159,-740.205942,-8808.450710,689.485948
827.249483,1406.391290,-9104.533087,1455.581446
827.249808,2812.782580,-9178.553681,1838.629195
827.250132,2886.803174,-9992.780217,1608.800546
827.250456,1184.329507,-9992.780217,1225.752797
827.250780,296.082377,-10807.006753,1072.533697
827.251105,-296.082377,-9178.553681,689.485948
827.251429,592.164754,-9030.512492,383.047749
827.251753,1480.411884,-9326.594869,229.828649
827.252077,1554.432478,-9844.739029,0.000000
827.252401,592.164754,-9918.759623,-229.828649
827.252726,-814.226536,-9696.697840,-459.657299
827.253050,-1628.453072,-8956.491898,-306.438199
827.253374,-888.247130,-8438.347739,689.485948
827.253698,296.082377,-8660.409521,612.876398
827.254023,1628.453072,-9326.594869,919.314598
827.254347,1480.411884,-10066.800811,689.485948
827.254671,148.041188,-10288.862594,76.609550
827.254995,-1258.350101,-9622.677246,-229.828649
827.255319,-1480.411884,-8956.491898,-459.657299
827.255644,-518.144159,-9178.553681,-612.876398
827.255968,222.061783,-9252.574275,-459.657299
827.256292,444.123565,-9918.759623,-612.876398
827.256616,-666.185348,-10362.883188,-766.095498
827.256941,-1628.453072,-10584.944971,-995.924147
827.257265,-1554.432478,-9770.718434,-766.095498
827.257589,0.000000,-9104.533087,-229.828649
827.257913,1702.473667,-9548.656652,0.000000
827.258237,2368.659014,-10214.842000,0.000000
827.258562,1332.370696,-10214.842000,153.219100
827.258886,-222.061783,-10510.924376,-612.876398
827.259210,-1480.411884,-10140.821405,-1225.752797
827.259534,-1480.411884,-9474.636058,-1149.143247
827.259859,-888.247130,-9548.656652,-1149.143247
827.260183,0.000000,-9696.697840,-689.485948
827.260507,-444.123565,-10214.842000,-919.314598
827.260831,-1628.453072,-9918.759623,-1302.362347
827.261155,-1702.473667,-10362.883188,-1378.971896
827.261480,-1258.350101,-9622.677246,-1072.533697
827.261804,370.102971,-9474.636058,0.000000
827.262128,2072.576638,-9548.656652,459.657299
827.262452,2960.823768,-10510.924376,383.047749
827.262777,2072.576638,-10658.965565,-459.657299
827.263101,296.082377,-10658.965565,-229.828649
827.263425,-740.205942,-9696.697840,-459.657299
827.263749,-1184.329507,-9474.636058,-1072.533697
827.264073,-518.144159,-9474.636058,-1072.533697
827.264398,0.000000,-9548.656652,-919.314598
827.264722,-148.041188,-9844.739029,-689.485948
827.265046,-962.267725,-10214.842000,-842.705048
827.265370,-2146.597232,-9696.697840,-153.219100
827.265695,-2220.617826,-8882.471304,-229.828649
827.266019,-370.102971,-8808.450710,0.000000
827.266343,1776.494261,-9326.594869,842.705048
827.266667,2590.720797,-9696.697840,1149.143247
827.266991,1850.514855,-10066.800811,536.266849
827.267316,296.082377,-9992.780217,229.828649
827.267640,-1036.288319,-9474.636058,229.828649
827.267964,-814.226536,-9252.574275,0.000000
827.268288,0.000000,-8808.450710,-689.485948
827.268613,666.185348,-9844.739029,-689.485948
827.268937,370.102971,-10066.800811,-766.095498
827.269261,0.000000,-9622.677246,-919.314598
827.269585,-444.123565,-9252.574275,-1149.143247
827.269909,0.000000,-8808.450710,306.438199
827.270234,1258.350101,-8808.450710,612.876398
827.270558,2590.720797,-9474.636058,1608.800546
827.270882,1924.535449,-9844.739029,1302.362347
827.271206,888.247130,-10140.821405,459.657299
827.271531,-222.061783,-10288.862594,76.609550
827.271855,-814.226536,-9696.697840,0.000000
827.272179,-222.061783,-9104.533087,0.000000
827.272503,814.226536,-9474.636058,-153.219100
827.272827,592.164754,-9326.594869,-383.047749
827.273152,-148.041188,-10140.821405,0.000000
827.273476,-2146.597232,-10214.842000,-1072.533697
827.273800,-2516.700203,-10066.800811,-1072.533697
827.274124,-1924.535449,-9326.594869,-153.219100
827.274449,0.000000,-9548.656652,536.266849
827.274773,1850.514855,-9844.739029,1378.971896
827.275097,2072.576638,-9992.780217,306.438199
827.275421,592.164754,-10584.944971,919.314598
827.275745,-1036.288319,-10658.965565,0.000000
827.276070,-1776.494261,-10362.883188,0.000000
827.276394,-1332.370696,-9770.718434,0.000000
827.276718,-370.102971,-9844.739029,0.000000
827.277042,0.000000,-10066.800811,0.000000
827.277367,-148.041188,-10140.821405,-459.657299
827.277691,-592.164754,-10140.821405,-995.924147
827.278015,-1480.411884,-8956.491898,-383.047749
827.278339,-888.247130,-8660.409521,0.000000
827.278663,740.205942,-8808.450710,919.314598
827.278988,1850.514855,-9474.636058,1072.533697
827.279312,1480.411884,-9622.677246,919.314598
827.279636,296.082377,-9548.656652,689.485948
827.279960,-444.123565,-9474.636058,153.219100
827.280285,-1036.288319,-8216.285956,0.000000
827.280609,-444.123565,-8142.265362,306.438199
827.280933,-148.041188,-8660.409521,306.438199
827.281257,-222.061783,-9400.615463,229.828649
827.281581,-1258.350101,-9400.615463,0.000000
827.281906,-2294.638420,-8956.491898,-306.438199
827.282230,-2146.597232,-8808.450710,-842.705048
827.282554,-962.267725,-8956.491898,306.438199
827.282878,1332.370696,-8438.347739,1302.362347
827.283203,2220.617826,-9400.615463,1149.143247
827.283527,1480.411884,-10288.862594,612.876398
827.283851,-444.123565,-10584.944971,76.609550
827.284175,-1924.535449,-10140.821405,-383.047749
827.284499,-1998.556043,-9252.574275,0.000000
827.284824,-666.185348,-9548.656652,-153.219100
827.285148,444.123565,-9622.677246,0.000000
827.285472,666.185348,-10362.883188,-383.047749
827.285796,222.061783,-10362.883188,-306.438199
827.286121,-296.082377,-10214.842000,-919.314598
827.286445,-814.226536,-9474.636058,-842.705048
827.286769,-148.041188,-9178.553681,76.609550
827.287093,1332.370696,-9696.697840,459.657299
827.287417,2442.679609,-10066.800811,229.828649
827.287742,1702.473667,-10658.965565,153.219100
827.288066,518.144159,-10732.986159,0.000000
827.288390,-962.267725,-10362.883188,0.000000
827.288714,-888.247130,-9622.677246,-612.876398
827.289039,-296.082377,-9252.574275,-459.657299
827.289363,148.041188,-9918.759623,-766.095498
827.289687,-444.123565,-10288.862594,-612.876398
827.290011,-962.267725,-10510.924376,-766.095498
827.290335,-1480.411884,-10066.800811,-1685.410096
827.290660,-962.267725,-8956.491898,-842.705048
827.290984,518.144159,-9030.512492,306.438199
827.291308,2368.659014,-9326.594869,153.219100
827.291632,2664.741391,-9918.759623,459.657299
827.291957,1776.494261,-10658.965565,229.828649
827.292281,0.000000,-10881.027347,0.000000
827.292605,-1036.288319,-10066.800811,0.000000
827.292929,-666.185348,-8808.450710,-459.657299
827.293254,592.164754,-8586.388927,-383.047749
827.293578,1110.308913,-9400.615463,-383.047749
827.293902,814.226536,-9622.677246,-536.266849
827.294226,-592.164754,-9622.677246,-766.095498
827.294550,-1406.391290,-8882.471304,-842.705048
827.294875,-1110.308913,-8660.409521,-306.438199
827.295199,444.123565,-8660.409521,229.828649
827.295523,1628.453072,-8586.388927,1149.143247
827.295847,2368.659014,-9178.553681,919.314598
827.296172,1480.411884,-10214.842000,383.047749
827.296496,-148.041188,-10362.883188,-153.219100
827.296820,-1184.329507,-9548.656652,-383.047749
827.297144,-1036.288319,-8808.450710,-229.828649
827.297468,296.082377,-9252.574275,-306.438199
827.297793,740.205942,-9918.759623,0.000000
827.298117,222.061783,-10658.965565,76.609550
827.298441,-1184.329507,-10510.924376,-689.485948
827.298765,-2220.617826,-9474.636058,-1225.752797
827.299090,-1332.370696,-9030.512492,-459.657299
827.299414,148.041188,-9474.636058,153.219100
827.299738,1480.411884,-10362.883188,229.828649
827.300062,2146.597232,-10658.965565,306.438199
827.300386,0.000000,-10214.842000,0.000000
827.300711,-1776.494261,-10362.883188,-842.705048
827.301035,-2072.576638,-9696.697840,-1072.533697
827.301359,-1184.329507,-9326.594869,-689.485948
827.301683,0.000000,-9400.615463,-306.438199
827.302008,222.061783,-9992.780217,-306.438199
827.302332,-814.226536,-10288.862594,-689.485948
827.302656,-1258.350101,-10214.842000,-766.095498
827.302980,-2072.576638,-9696.697840,-1378.971896
827.303304,-1110.308913,-9400.615463,0.000000
827.303629,666.185348,-9622.677246,459.657299
827.303953,2368.659014,-10288.862594,1149.143247
827.304277,2442.679609,-10584.944971,1378.971896
827.304601,888.247130,-10732.986159,689.485948
827.304926,-962.267725,-10140.821405,-229.828649
827.305250,-1480.411884,-9844.739029,0.000000
827.305574,-666.185348,-9474.636058,0.000000
827.305898,0.000000,-9474.636058,0.000000
827.306222,296.082377,-9696.697840,-229.828649
827.306547,-592.164754,-10066.800811,0.000000
827.306871,-1406.391290,-9474.636058,-229.828649
827.307195,-1554.432478,-9030.512492,0.000000
827.307519,-296.082377,-8734.430116,766.095498
827.307844,1628.453072,-8956.491898,1378.971896
827.308168,3108.864956,-9252.574275,1685.410096
827.308492,3034.844362,-9474.636058,1685.410096
827.308816,1332.370696,-9474.636058,919.314598
827.309140,-222.061783,-9622.677246,459.657299
827.309465,-740.205942,-8734.430116,459.657299
827.309789,-370.102971,-8586.388927,536.266849
827.310113,74.020594,-8882.471304,306.438199
827.310437,0.000000,-9622.677246,76.609550
827.310762,-814.226536,-9622.677246,-229.828649
827.311086,-1554.432478,-9252.574275,-229.828649
827.311410,-1332.370696,-8586.388927,0.000000
827.311734,0.000000,-8142.265362,383.047749
827.312058,1776.494261,-8734.430116,1149.143247
827.312383,2442.679609,-9474.636058,766.095498
827.312707,1110.308913,-9770.718434,766.095498
827.313031,-592.164754,-10362.883188,76.609550
827.313355,-1480.411884,-10140.821405,-306.438199
827.313680,-962.267725,-9252.574275,-383.047749
827.314004,444.123565,-8956.491898,0.000000
827.314328,1110.308913,-9696.697840,0.000000
827.314652,592.164754,-10362.883188,-766.095498
827.314976,-888.247130,-10436.903782,-459.657299
827.315301,-1850.514855,-10066.800811,-689.485948
827.315625,-2072.576638,-9474.636058,-919.314598
827.315949,-592.164754,-9474.636058,0.000000
827.316273,1628.453072,-9770.718434,459.657299
827.316598,2590.720797,-10362.883188,153.219100
827.316922,1850.514855,-10436.903782,153.219100
827.317246,-592.164754,-10362.883188,-1225.752797
827.317570,-1998.556043,-9474.636058,-1225.752797
827.317894,-2146.597232,-9622.677246,-1302.362347
827.318219,-814.226536,-9992.780217,-919.314598
827.318543,-222.061783,-10732.986159,-919.314598
827.318867,-222.061783,-10436.903782,-766.095498
827.319191,-666.185348,-10807.006753,-689.485948
827.319516,-888.247130,-10362.883188,-1225.752797
827.319840,-518.144159,-9696.697840,-459.657299
827.320164,296.082377,-9326.594869,153.219100
827.320488,1776.494261,-9844.739029,919.314598
827.320812,2072.576638,-10436.903782,383.047749
827.321137,518.144159,-10288.862594,-153.219100
827.321461,-740.205942,-9474.636058,-766.095498
827.321785,-1258.350101,-9400.615463,-1685.410096
827.322109,-296.082377,-9030.512492,-1072.533697
827.322434,222.061783,-8956.491898,-536.266849
827.322758,0.000000,-9400.615463,-919.314598
827.323082,-592.164754,-9622.677246,-919.314598
827.323406,-1702.473667,-9548.656652,-995.924147
827.323730,-2368.659014,-9326.594869,-919.314598
827.324055,-1110.308913,-8586.388927,0.000000
827.324379,962.267725,-9030.512492,766.095498
827.324703,2368.659014,-9400.615463,1532.190996
827.325027,2812.782580,-9918.759623,1378.971896
827.325352,888.247130,-10288.862594,919.314598
827.325676,-1036.288319,-10140.821405,0.000000
827.326000,-1998.556043,-9696.697840,-383.047749
827.326324,-1554.432478,-8808.450710,-689.485948
827.326648,-296.082377,-9400.615463,-306.438199
827.326973,222.061783,-9696.697840,-229.828649
827.327297,148.041188,-9992.780217,-612.876398
827.327621,-1036.288319,-9696.697840,-459.657299
827.327945,-1850.514855,-9030.512492,-383.047749
827.328270,-1184.329507,-9252.574275,459.657299
827.328594,296.082377,-9252.574275,1072.533697
827.328918,1998.556043,-9548.656652,1302.362347
827.329242,2072.576638,-9696.697840,1991.848295
827.329566,1036.288319,-10214.842000,1378.971896
827.329891,-296.082377,-10140.821405,536.266849
827.330215,-1184.329507,-9474.636058,229.828649
827.330539,-444.123565,-8956.491898,229.828649
827.330863,148.041188,-9252.574275,306.438199
827.331188,518.144159,-9696.697840,306.438199
827.331512,0.000000,-9992.780217,306.438199
827.331836,-1184.329507,-9844.739029,0.000000
827.332160,-740.205942,-9770.718434,76.609550
827.332484,0.000000,-9252.574275,612.876398
827.332809,1628.453072,-9326.594869,1532.190996
827.333133,2812.782580,-9918.759623,1762.019645
827.333457,2368.659014,-9992.780217,1608.800546
827.333781,592.164754,-10362.883188,919.314598
827.334106,-888.247130,-10214.842000,306.438199
827.334430,-1258.350101,-9178.553681,153.219100
827.334754,-296.082377,-8808.450710,0.000000
827.335078,222.061783,-9030.512492,0.000000
827.335402,148.041188,-9548.656652,-229.828649
827.335727,-666.185348,-9696.697840,-766.095498
827.336051,-1406.391290,-9030.512492,-1072.533697
827.336375,-1776.494261,-8512.368333,0.000000
827.336699,-444.123565,-8216.285956,306.438199
827.337024,1480.411884,-8438.347739,766.095498
827.337348,2590.720797,-9770.718434,919.314598
827.337672,2294.638420,-10362.883188,766.095498
827.337996,740.205942,-10584.944971,0.000000
827.338320,-444.123565,-10066.800811,-612.876398
827.338645,-222.061783,-9622.677246,-153.219100
827.338969,296.082377,-9030.512492,0.000000
827.339293,888.247130,-9622.677246,-383.047749
827.339617,0.000000,-10362.883188,-1072.533697
827.339942,-1702.473667,-10881.027347,-1302.362347
827.340266,-2146.597232,-10584.944971,-1532.190996
827.340590,-2072.576638,-9844.739029,-1072.533697
827.340914,0.000000,-9252.574275,-306.438199
827.341238,1628.453072,-9696.697840,0.000000
827.341563,2812.782580,-10658.965565,0.000000
827.341887,1850.514855,-10732.986159,0.000000
827.342211,0.000000,-10732.986159,-689.485948
827.342535,-814.226536,-9844.739029,-1225.752797
827.342860,-222.061783,-9178.553681,-766.095498
827.343184,222.061783,-8660.409521,-459.657299
827.343508,814.226536,-10066.800811,-1302.362347
827.343832,222.061783,-10066.800811,-995.924147
827.344156,-1332.370696,-10066.800811,-995.924147
827.344481,-2146.597232,-9696.697840,-1762.019645
827.344805,-1628.453072,-8734.430116,-919.314598
827.345129,-296.082377,-8734.430116,-383.047749
827.345453,1406.391290,-9474.636058,0.000000
827.345778,1850.514855,-9992.780217,536.266849
827.346102,666.185348,-10066.800811,229.828649
827.346426,-740.205942,-10288.862594,-536.266849
827.346750,-1776.494261,-9104.533087,-536.266849
827.347074,-1406.391290,-9400.615463,-536.266849
827.347399,-444.123565,-9548.656652,0.000000
827.347723,148.041188,-9844.739029,0.000000
827.348047,-666.185348,-10584.944971,-383.047749
827.348371,-2368.659014,-9696.697840,-229.828649
827.348696,-2886.803174,-8956.491898,-842.705048
827.349020,-2072.576638,-8586.388927,0.000000
827.349344,0.000000,-9030.512492,229.828649
827.349668,2368.659014,-9400.615463,842.705048
827.349992,2886.803174,-9696.697840,1072.533697
827.350316,1924.535449,-9622.677246,612.876398
827.350640,296.082377,-9474.636058,0.000000
827.350964,-740.205942,-9178.553681,-689.485948
827.351288,-148.041188,-9548.656652,-229.828649
827.351613,1110.308913,-9474.636058,-995.924147
827.351937,1258.350101,-9622.677246,153.219100
827.352261,740.205942,-9918.759623,153.219100
827.352585,0.000000,-10140.821405,0.000000
827.352909,-740.205942,-9474.636058,229.828649
827.353233,0.000000,-8512.368333,842.705048
827.353557,666.185348,-9252.574275,842.705048
827.353881,1998.556043,-9770.718434,1532.190996
827.354205,1702.473667,-10214.842000,1149.143247
827.354530,296.082377,-10732.986159,612.876398
827.354854,-1110.308913,-10214.842000,-306.438199
827.355178,-1554.432478,-9770.718434,-306.438199
827.355502,-518.144159,-9178.553681,0.000000
827.355826,444.123565,-9474.636058,76.609550
827.356150,592.164754,-10214.842000,0.000000
827.356474,-370.102971,-10214.842000,383.047749
827.356798,-1776.494261,-10140.821405,-536.266849
827.357122,-2072.576638,-9474.636058,-459.657299
827.357447,-962.267725,-8808.450710,76.609550
827.357771,1628.453072,-9326.594869,612.876398
827.358095,2738.761985,-9770.718434,1378.971896
827.358419,2368.659014,-10288.862594,1608.800546
827.358743,814.226536,-9918.759623,306.438199
827.359067,-1036.288319,-9400.615463,-689.485948
827.359391,-2294.638420,-8882.471304,-536.266849
827.359715,-1332.370696,-9252.574275,-689.485948
827.360039,0.000000,-9622.677246,-383.047749
827.360364,296.082377,-9622.677246,-306.438199
827.360688,-296.082377,-9918.759623,-1302.362347
827.361012,-1332.370696,-9400.615463,-459.657299
827.361336,-1036.288319,-9326.594869,0.000000
827.361660,-592.164754,-9400.615463,536.266849
827.361984,592.164754,-9548.656652,1302.362347
827.362308,1258.350101,-10140.821405,1455.581446
827.362632,666.185348,-10436.903782,612.876398
827.362956,-444.123565,-10732.986159,0.000000
827.363281,-1702.473667,-10066.800811,-459.657299
827.363605,-1406.391290,-9252.574275,76.609550
827.363929,-962.267725,-8734.430116,-229.828649
827.364253,0.000000,-8808.450710,0.000000
827.364577,-518.144159,-9548.656652,-383.047749
827.364901,-1554.432478,-10288.862594,-536.266849
827.365225,-2368.659014,-9696.697840,-689.485948
827.365549,-1480.411884,-8734.430116,-306.438199
827.365873,518.144159,-8808.450710,383.047749
827.366198,2738.761985,-9474.636058,842.705048
827.366522,3256.906145,-10362.883188,1302.362347
827.366846,1998.556043,-10658.965565,1072.533697
827.367170,-444.123565,-10584.944971,-153.219100
827.367494,-1850.514855,-9474.636058,-842.705048
827.367818,-1554.432478,-8882.471304,-612.876398
827.368142,0.000000,-9178.553681,-766.095498
827.368466,1258.350101,-9918.759623,0.000000
827.368790,518.144159,-10140.821405,-459.657299
827.369115,-740.205942,-10066.800811,-766.095498
827.369439,-1702.473667,-9474.636058,-919.314598
827.369763,-1480.411884,-9326.594869,-383.047749
827.370087,-148.041188,-9252.574275,0.000000
827.370411,1554.432478,-9696.697840,612.876398
827.370735,2294.638420,-10436.903782,919.314598
827.371059,1480.411884,-9992.780217,536.266849
827.371383,148.041188,-9992.780217,-459.657299
827.371707,-888.247130,-9474.636058,-766.095498
827.372032,-740.205942,-9252.574275,-383.047749
827.372356,296.082377,-9326.594869,-536.266849
827.372680,444.123565,-9548.656652,-612.876398
827.373004,-444.123565,-9770.718434,-383.047749
827.373328,-1480.411884,-10066.800811,-1072.533697
827.373652,-1480.411884,-10214.842000,-919.314598
827.373976,-444.123565,-9252.574275,-612.876398
827.374300,814.226536,-9178.553681,229.828649
827.374624,3108.864956,-9622.677246,689.485948
827.374949,3404.947333,-9844.739029,612.876398
827.375273,1924.535449,-10140.821405,76.609550
827.375597,296.082377,-10436.903782,0.000000
827.375921,-740.205942,-9474.636058,-153.219100
827.376245,-148.041188,-9326.594869,-612.876398
827.376569,888.247130,-9326.594869,-995.924147
827.376893,814.226536,-9474.636058,-306.438199
827.377217,0.000000,-10288.862594,-1225.752797
827.377541,-666.185348,-9992.780217,-612.876398
827.377866,-1554.432478,-9474.636058,-536.266849
827.378190,-1258.350101,-8956.491898,-383.047749
827.378514,74.020594,-9030.512492,459.657299
827.378838,1628.453072,-9474.636058,842.705048
827.379162,1998.556043,-9844.739029,919.314598
827.379486,888.247130,-9844.739029,-229.828649
827.379810,-666.185348,-10140.821405,-536.266849
827.380134,-1554.432478,-9252.574275,-459.657299
827.380459,-592.164754,-8956.491898,-383.047749
827.380783,0.000000,-9030.512492,-383.047749
827.381107,222.061783,-9844.739029,-459.657299
827.381431,-814.226536,-10066.800811,-306.438199
827.381755,-1702.473667,-10140.821405,-612.876398
827.382079,-1554.432478,-9252.574275,-306.438199
827.382403,-740.205942,-9030.512492,-306.438199
827.382727,888.247130,-9326.594869,459.657299
827.383051,2294.638420,-9844.739029,995.924147
827.383376,1850.514855,-10510.924376,995.924147
827.383700,74.020594,-10436.903782,612.876398
827.384024,-1628.453072,-9992.780217,-612.876398
827.384348,-1924.535449,-9104.533087,-229.828649
827.384672,-1036.288319,-8956.491898,-766.095498
827.384996,0.000000,-9622.677246,0.000000
827.385320,222.061783,-10066.800811,-229.828649
827.385644,-740.205942,-9696.697840,-459.657299
827.385968,-2146.597232,-9252.574275,-612.876398
827.386293,-2146.597232,-8882.471304,-536.266849
827.386617,-1184.329507,-8586.388927,-306.438199
827.386941,444.123565,-9474.636058,766.095498
827.387265,2072.576638,-9992.780217,1225.752797
827.387589,1406.391290,-10362.883188,919.314598
827.387913,0.000000,-10807.006753,459.657299
827.388237,-1036.288319,-10955.047942,0.000000
827.388561,-1110.308913,-9474.636058,0.000000
827.388885,-296.082377,-9474.636058,306.438199
827.389210,1036.288319,-9844.739029,842.705048
827.389534,296.082377,-9992.780217,0.000000
827.389858,-740.205942,-10436.903782,0.000000
827.390182,-1850.514855,-9548.656652,-306.438199
827.390506,-1628.453072,-9104.533087,-153.219100
827.390830,-222.061783,-9030.512492,383.047749
827.391154,1924.535449,-9400.615463,1455.581446
827.391478,2886.803174,-9992.780217,1302.362347
827.391802,2294.638420,-10584.944971,766.095498
827.392127,74.020594,-10436.903782,-229.828649
827.392451,-1258.350101,-9918.759623,0.000000
827.392775,-1110.308913,-9326.594869,153.219100
827.393099,74.020594,-8882.471304,229.828649
827.393423,1554.432478,-8882.471304,459.657299
827.393747,1924.535449,-9548.656652,995.924147
827.394071,814.226536,-9474.636058,153.219100
827.394395,0.000000,-8364.327145,-306.438199
827.394719,-518.144159,-7994.224174,76.609550
827.395044,296.082377,-8290.306550,459.657299
827.395368,1554.432478,-9252.574275,995.924147
827.395692,1480.411884,-9178.553681,689.485948
827.396016,814.226536,-9622.677246,0.000000
827.396340,-1406.391290,-9474.636058,-919.314598
827.396664,-1184.329507,-9992.780217,-842.705048
827.396988,-592.164754,-9622.677246,-689.485948
827.397312,592.164754,-9326.594869,-689.485948
827.397636,1036.288319,-9992.780217,-306.438199
827.397961,370.102971,-10436.903782,-766.095498
827.398285,-370.102971,-10732.986159,-689.485948
827.398609,-962.267725,-10732.986159,-612.876398
827.398933,-814.226536,-9548.656652,-1149.143247
827.399257,1332.370696,-9548.656652,229.828649
827.399581,2590.720797,-10140.821405,306.438199
827.399905,2516.700203,-10436.903782,0.000000
827.400229,592.164754,-10732.986159,-536.266849
827.400553,-1628.453072,-10436.903782,-1302.362347
827.400878,-2960.823768,-9622.677246,-1991.848295
827.401202,-2590.720797,-8808.450710,-2068.457845
827.401526,-222.061783,-9104.533087,-1302.362347
827.401850,592.164754,-9918.759623,-1302.362347
827.402174,370.102971,-10584.944971,-1225.752797
827.402498,-592.164754,-10288.862594,-1225.752797
827.402822,-1184.329507,-9400.615463,-1149.143247
827.403146,-888.247130,-8586.388927,-842.705048
827.403470,888.247130,-9252.574275,-153.219100
827.403795,2072.576638,-10362.883188,689.485948
827.404119,2072.576638,-10955.047942,229.828649
827.404443,666.185348,-10807.006753,0.000000
827.404767,-888.247130,-10214.842000,-612.876398
827.405091,-1702.473667,-9622.677246,-1072.533697
827.405415,-1850.514855,-9030.512492,-1225.752797
827.405739,-962.267725,-9474.636058,-536.266849
827.406063,-962.267725,-9844.739029,-306.438199
827.406387,-2368.659014,-9474.636058,-766.095498
827.406712,-2442.679609,-9474.636058,-995.924147
827.407036,-2368.659014,-9326.594869,-842.705048
827.407360,-592.164754,-8734.430116,-229.828649
827.407684,1036.288319,-8956.491898,689.485948
827.408008,2220.617826,-9178.553681,919.314598
827.408332,2146.597232,-10066.800811,842.705048
827.408656,666.185348,-10140.821405,383.047749
827.408980,-592.164754,-10214.842000,0.000000
827.409304,-1036.288319,-9696.697840,0.000000
827.409629,222.061783,-9696.697840,0.000000
827.409953,888.247130,-9326.594869,153.219100
827.410277,1258.350101,-9918.759623,153.219100
827.410601,370.102971,-9622.677246,-383.047749
827.410925,-592.164754,-9178.553681,229.828649
827.411249,-1184.329507,-8956.491898,0.000000
827.411573,-444.123565,-8660.409521,536.266849
827.411897,1628.453072,-9178.553681,1149.143247
827.412221,2368.659014,-9622.677246,1685.410096
827.412546,1850.514855,-10362.883188,1838.629195
827.412870,518.144159,-10362.883188,1225.752797
827.413194,-666.185348,-10510.924376,229.828649
827.413518,-1184.329507,-9474.636058,766.095498
827.413842,-888.247130,-9252.574275,229.828649
827.414166,74.020594,-9918.759623,536.266849
827.414490,222.061783,-10658.965565,383.047749
827.414814,-444.123565,-10658.965565,459.657299
827.415138,-740.205942,-9770.718434,459.657299
827.415463,-370.102971,-8956.491898,536.266849
827.415787,666.185348,-8734.430116,383.047749
827.416111,1776.494261,-9030.512492,1302.362347
827.416435,2072.576638,-9770.718434,1302.362347
827.416759,888.247130,-10066.800811,1149.143247
827.417083,-814.226536,-10066.800811,306.438199
827.417407,-1628.453072,-9104.533087,-76.609550
827.417731,-962.267725,-8660.409521,0.000000
827.418055,74.020594,-8808.450710,76.609550
827.418380,1110.308913,-9400.615463,-306.438199
827.418704,222.061783,-9400.615463,153.219100
827.419028,-1184.329507,-9548.656652,-536.266849
827.419352,-2368.659014,-9030.512492,-995.924147
827.419676,-2072.576638,-8882.471304,-229.828649
827.420000,-148.041188,-9104.533087,766.095498
827.420324,1850.514855,-9622.677246,1149.143247
827.420648,2812.782580,-10658.965565,919.314598
827.420972,1332.370696,-10214.842000,766.095498
827.421297,-296.082377,-10140.821405,229.828649
827.421621,-1480.411884,-9474.636058,-229.828649
827.421945,-2146.597232,-8956.491898,-689.485948
827.422269,-1258.350101,-8882.471304,-842.705048
827.422593,-592.164754,-9770.718434,-919.314598
827.422917,-962.267725,-10362.883188,-919.314598
827.423241,-1554.432478,-10658.965565,-842.705048
827.423565,-1850.514855,-9844.739029,-1225.752797
827.423889,-962.267725,-9326.594869,-383.047749
827.424214,888.247130,-9548.656652,306.438199
827.424538,2442.679609,-10140.821405,689.485948
827.424862,2738.761985,-10881.027347,536.266849
827.425186,1554.432478,-11473.192101,76.609550
827.425510,-74.020594,-11177.109724,-995.924147
827.425834,-888.247130,-9918.759623,-689.485948
827.426158,148.041188,-9252.574275,-1378.971896
827.426482,1406.391290,-9474.636058,-842.705048
827.426806,1184.329507,-9992.780217,-1225.752797
827.427131,444.123565,-10436.903782,-1225.752797
827.427455,-444.123565,-10658.965565,-1149.143247
827.427779,-1184.329507,-9918.759623,-1302.362347
827.428103,-814.226536,-9178.553681,-919.314598
827.428427,740.205942,-9400.615463,-919.314598
827.428751,1998.556043,-10362.883188,76.609550
827.429075,1998.556043,-10214.842000,153.219100
827.429399,444.123565,-10510.924376,76.609550
827.429723,-962.267725,-10288.862594,-383.047749
827.430048,-1406.391290,-9474.636058,-766.095498
827.430372,-962.267725,-8808.450710,-459.657299
827.430696,74.020594,-9400.615463,-612.876398
827.431020,-148.041188,-10066.800811,-689.485948
827.431344,-1258.350101,-10140.821405,-612.876398
827.431668,-2072.576638,-9252.574275,-536.266849
827.431992,-2294.638420,-8882.471304,-459.657299
827.432316,-962.267725,-8808.450710,-459.657299
827.432640,888.247130,-8808.450710,306.438199
827.432965,2516.700203,-8882.471304,919.314598
827.433289,2220.617826,-9696.697840,459.657299
827.433613,148.041188,-9696.697840,-153.219100
827.433937,-1110.308913,-9548.656652,0.000000
827.434261,-1554.432478,-8586.388927,0.000000
827.434585,-518.144159,-8660.409521,-229.828649
827.434909,296.082377,-9252.574275,-459.657299
827.435233,666.185348,-9696.697840,-383.047749
827.435557,296.082377,-9696.697840,0.000000
827.435882,-814.226536,-9178.553681,-689.485948
827.436206,-666.185348,-8660.409521,-383.047749
827.436530,0.000000,-8660.409521,0.000000
827.436854,1554.432478,-9400.615463,536.266849
827.437178,2442.679609,-9844.739029,689.485948
827.437502,1850.514855,-10066.800811,229.828649
827.437826,0.000000,-10807.006753,0.000000
827.438150,-1184.329507,-9992.780217,0.000000
827.438474,-1258.350101,-9548.656652,-229.828649
827.438799,-296.082377,-9252.574275,-842.705048
827.439123,518.144159,-10140.821405,-306.438199
827.439447,148.041188,-10955.047942,0.000000
827.439771,-1110.308913,-10955.047942,-153.219100
827.440095,-2146.597232,-10214.842000,-306.438199
827.440419,-1998.556043,-9400.615463,-229.828649
827.440743,-444.123565,-9844.739029,153.219100
827.441067,1702.473667,-9844.739029,612.876398
827.441391,2368.659014,-10436.903782,1149.143247
827.441716,1628.453072,-10955.047942,1072.533697
827.442040,-296.082377,-11029.068536,0.000000
827.442364,-1776.494261,-9696.697840,-459.657299
827.442688,-1924.535449,-9326.594869,-459.657299
827.443012,-444.123565,-8882.471304,0.000000
827.443336,518.144159,-9474.636058,0.000000
827.443660,740.205942,-9918.759623,459.657299
827.443984,-444.123565,-9474.636058,-229.828649
827.444308,-1628.453072,-9178.553681,-229.828649
827.444633,-1850.514855,-8512.368333,0.000000
827.444957,-370.102971,-8586.388927,536.266849
827.445281,1554.432478,-9104.533087,1762.019645
827.445605,1850.514855,-9474.636058,1532.190996
827.445929,592.164754,-9844.739029,1072.533697
827.446253,-592.164754,-9992.780217,383.047749
827.446577,-1554.432478,-9326.594869,0.000000
827.446901,-1480.411884,-8808.450710,-306.438199
827.447225,-444.123565,-8808.450710,153.219100
827.447550,148.041188,-9474.636058,-306.438199
827.447874,-592.164754,-9992.780217,0.000000
827.448198,-1924.535449,-9770.718434,-153.219100
827.448522,-2072.576638,-9548.656652,-842.705048
827.448846,-1184.329507,-9326.594869,0.000000
827.449170,666.185348,-9178.553681,612.876398
827.449494,2590.720797,-9770.718434,1149.143247
827.449818,2812.782580,-10658.965565,1532.190996
827.450143,814.226536,-10362.883188,306.438199
827.450467,-962.267725,-10584.944971,-612.876398
827.450791,-1850.514855,-9400.615463,-842.705048
827.451115,-814.226536,-9178.553681,-842.705048
827.451439,888.247130,-9178.553681,-842.705048
827.451763,1702.473667,-9696.697840,-766.095498
827.452088,1258.350101,-10140.821405,-689.485948
827.452412,-518.144159,-9622.677246,-995.924147
827.452736,-962.267725,-9400.615463,-995.924147
827.453060,0.000000,-8734.430116,-459.657299
827.453384,1036.288319,-8882.471304,536.266849
827.453708,2738.761985,-9770.718434,766.095498
827.454033,2516.700203,-10807.006753,459.657299
827.454357,1258.350101,-10732.986159,459.657299
827.454681,-518.144159,-10214.842000,-306.438199
827.455005,-1480.411884,-9326.594869,-766.095498
827.455329,-814.226536,-9474.636058,-689.485948
827.455653,296.082377,-9918.759623,-229.828649
827.455978,0.000000,-9622.677246,-766.095498
827.456302,-1036.288319,-10510.924376,-842.705048
827.456626,-2146.597232,-10288.862594,-919.314598
827.456950,-1850.514855,-9252.574275,-995.924147
827.457274,0.000000,-9104.533087,0.000000
827.457598,2146.597232,-9400.615463,536.266849
827.457923,2812.782580,-9992.780217,536.266849
827.458247,1850.514855,-10362.883188,995.924147
827.458571,0.000000,-10436.903782,0.000000
827.458895,-1110.308913,-10288.862594,-306.438199
827.459219,-1110.308913,-9474.636058,-536.266849
827.459543,0.000000,-8808.450710,-383.047749
827.459868,962.267725,-9252.574275,-383.047749
827.460192,962.267725,-9622.677246,-612.876398
827.460516,-518.144159,-9770.718434,-612.876398
827.460840,-1998.556043,-9770.718434,-612.876398
827.461164,-2146.597232,-9104.533087,-766.095498
827.461488,-592.164754,-8882.471304,0.000000
827.461813,1258.350101,-9104.533087,0.000000
827.462137,2516.700203,-9918.759623,306.438199
827.462461,1776.494261,-10510.924376,459.657299
827.462785,148.041188,-10881.027347,229.828649
827.463109,-1258.350101,-9770.718434,-689.485948
827.463433,-1184.329507,-9178.553681,0.000000
827.463758,-222.061783,-9178.553681,0.000000
827.464082,222.061783,-9548.656652,-612.876398
827.464406,0.000000,-10140.821405,-459.657299
827.464730,-1110.308913,-10288.862594,-612.876398
827.465054,-1998.556043,-9844.739029,-229.828649
827.465378,-1850.514855,-8512.368333,-383.047749
827.465703,-518.144159,-8364.327145,0.000000
827.466027,1110.308913,-8734.430116,459.657299
827.466351,1628.453072,-9770.718434,306.438199
827.466675,592.164754,-10362.883188,689.485948
827.466999,-148.041188,-10510.924376,0.000000
827.467323,-1406.391290,-9474.636058,-306.438199
827.467648,-370.102971,-8734.430116,-383.047749
827.467972,148.041188,-8956.491898,-383.047749
827.468296,962.267725,-9474.636058,-383.047749
827.468620,0.000000,-9770.718434,-612.876398
827.468944,-1406.391290,-10140.821405,-459.657299
827.469268,-1998.556043,-9622.677246,-766.095498
827.469593,-962.267725,-9326.594869,-153.219100
827.469917,888.247130,-9252.574275,919.314598
827.470241,2664.741391,-9844.739029,1149.143247
827.470565,2590.720797,-10584.944971,1378.971896
827.470889,1406.391290,-10510.924376,766.095498
827.471213,-666.185348,-10510.924376,536.266849
827.471538,-1480.411884,-10140.821405,0.000000
827.471862,-1258.350101,-9474.636058,0.000000
827.472186,-148.041188,-9548.656652,-306.438199
827.472510,444.123565,-9844.739029,-76.609550
827.472834,0.000000,-9918.759623,-306.438199
827.473158,-1258.350101,-10140.821405,-459.657299
827.473483,-2294.638420,-9548.656652,0.000000
827.473807,-1702.473667,-8808.450710,229.828649
827.474131,0.000000,-8808.450710,229.828649
827.474455,1776.494261,-9400.615463,766.095498
827.474779,2368.659014,-9770.718434,995.924147
827.475103,1110.308913,-9992.780217,1072.533697
827.475428,74.020594,-10066.800811,842.705048
827.475752,-592.164754,-9474.636058,919.314598
827.476076,-370.102971,-8956.491898,383.047749
827.476400,370.102971,-8808.450710,76.609550
827.476724,444.123565,-9104.533087,-383.047749
827.477048,-370.102971,-9474.636058,-383.047749
827.477373,-1406.391290,-9696.697840,-383.047749
827.477697,-1554.432478,-9030.512492,-306.438199
827.478021,-666.185348,-8586.388927,229.828649
827.478345,666.185348,-8586.388927,383.047749
827.478669,2072.576638,-9474.636058,0.000000
827.478993,1776.494261,-9844.739029,153.219100
827.479317,592.164754,-10436.903782,0.000000
827.479642,-814.226536,-10288.862594,153.219100
827.479966,-888.247130,-9918.759623,0.000000
827.480290,0.000000,-9178.553681,0.000000
827.480614,888.247130,-9326.594869,0.000000
827.480938,888.247130,-10584.944971,-383.047749
827.481262,-518.144159,-10807.006753,-612.876398
827.481587,-1554.432478,-10288.862594,-612.876398
827.481911,-1850.514855,-9770.718434,-689.485948
827.482235,-592.164754,-9474.636058,0.000000
827.482559,1036.288319,-8808.450710,459.657299
827.482883,2146.597232,-9474.636058,-153.219100
827.483207,1776.494261,-10214.842000,-306.438199
827.483532,0.000000,-10288.862594,-612.876398
827.483856,-1554.432478,-10140.821405,-1072.533697
827.484180,-1628.453072,-9548.656652,-1225.752797
827.484504,-444.123565,-9252.574275,-459.657299
827.484828,1184.329507,-9918.759623,-842.705048
827.485152,1480.411884,-10140.821405,-689.485948
827.485477,74.020594,-10436.903782,-919.314598
827.485801,-1480.411884,-10510.924376,-766.095498
827.486125,-1776.494261,-9918.759623,-689.485948
827.486449,-814.226536,-9326.594869,-306.438199
827.486773,1184.329507,-9474.636058,153.219100
827.487097,2812.782580,-9992.780217,383.047749
827.487422,2516.700203,-10436.903782,76.609550
827.487746,592.164754,-10658.965565,-153.219100
827.488070,-962.267725,-10436.903782,-612.876398
827.488394,-1480.411884,-9030.512492,-995.924147
827.488718,-740.205942,-8586.388927,-1149.143247
827.489042,0.000000,-9104.533087,-766.095498
827.489367,-296.082377,-9696.697840,-612.876398
827.489691,-1628.453072,-10362.883188,-536.266849
827.490015,-2368.659014,-9548.656652,0.000000
827.490339,-2516.700203,-8586.388927,306.438199
827.490663,-814.226536,-8882.471304,612.876398
827.490987,962.267725,-9030.512492,842.705048
827.491312,2146.597232,-9622.677246,1072.533697
827.491636,1184.329507,-10288.862594,766.095498
827.491960,-296.082377,-10436.903782,306.438199
827.492284,-1110.308913,-9548.656652,0.000000
827.492608,-888.247130,-8882.471304,0.000000
827.492932,518.144159,-9548.656652,-153.219100
827.493257,888.247130,-9918.759623,-536.266849
827.493581,296.082377,-10658.965565,-229.828649
827.493905,-740.205942,-10362.883188,-229.828649
827.494229,-1628.453072,-9474.636058,-383.047749
827.494553,-2072.576638,-9030.512492,0.000000
827.494877,-296.082377,-8364.327145,1378.971896
827.495202,1480.411884,-9104.533087,1378.971896
827.495526,2072.576638,-9844.739029,1532.190996
827.495850,1184.329507,-9918.759623,1302.362347
827.496174,-740.205942,-9844.739029,1072.533697
827.496498,-1776.494261,-9326.594869,153.219100
827.496822,-1554.432478,-8660.409521,459.657299
827.497147,-444.123565,-9400.615463,0.000000
827.497471,0.000000,-9474.636058,-153.219100
827.497795,74.020594,-9992.780217,-229.828649
827.498119,-222.061783,-9918.759623,76.609550
827.498443,-370.102971,-9474.636058,383.047749
827.498767,0.000000,-9104.533087,459.657299
827.499092,1110.308913,-9030.512492,766.095498
827.499416,2368.659014,-9696.697840,1072.533697
827.499740,2516.700203,-9844.739029,1149.143247
827.500064,1850.514855,-10436.903782,1149.143247
827.500388,444.123565,-10658.965565,306.438199
827.500712,-592.164754,-9252.574275,689.485948
827.501037,-148.041188,-8586.388927,76.609550
827.501361,370.102971,-8808.450710,0.000000
827.501685,296.082377,-9622.677246,-689.485948
827.502009,-592.164754,-10066.800811,-842.705048
827.502333,-1924.535449,-9844.739029,-1225.752797
827.502657,-2294.638420,-9104.533087,-919.314598
827.502982,-1406.391290,-8142.265362,-459.657299
827.503306,740.205942,-8734.430116,0.000000
827.503630,2442.679609,-9696.697840,842.705048
827.503954,2886.803174,-10732.986159,229.828649
827.504278,888.247130,-11103.089130,0.000000
827.504602,-1110.308913,-10658.965565,-383.047749
827.504927,-1924.535449,-9918.759623,-459.657299
827.505251,-1036.288319,-9696.697840,-766.095498
827.505575,518.144159,-9918.759623,-459.657299
827.505899,296.082377,-10955.047942,-229.828649
827.506223,-444.123565,-10881.027347,-459.657299
827.506547,-1628.453072,-9844.739029,-689.485948
827.506872,-2368.659014,-9252.574275,-766.095498
827.507196,-1332.370696,-8956.491898,-689.485948
827.507520,222.061783,-9474.636058,-229.828649
827.507844,1554.432478,-10066.800811,306.438199
827.508168,1776.494261,-10584.944971,76.609550
827.508492,444.123565,-10288.862594,-306.438199
827.508816,-666.185348,-9696.697840,-306.438199
827.509141,-814.226536,-8956.491898,-919.314598
827.509465,-148.041188,-8808.450710,-689.485948
827.509789,518.144159,-9030.512492,-612.876398
827.510113,666.185348,-9844.739029,-689.485948
827.510437,74.020594,-10140.821405,-612.876398
827.510761,-888.247130,-9548.656652,-459.657299
827.511086,-1184.329507,-8956.491898,-306.438199
827.511410,74.020594,-9104.533087,76.609550
827.511734,1628.453072,-9326.594869,689.485948
827.512058,2072.576638,-10066.800811,842.705048
827.512382,888.247130,-10362.883188,153.219100
827.512706,-740.205942,-9992.780217,-153.219100
827.513031,-1702.473667,-9622.677246,-306.438199
827.513355,-888.247130,-9474.636058,-1072.533697
827.513679,74.020594,-9178.553681,-459.657299
827.514003,888.247130,-9326.594869,-383.047749
827.514327,296.082377,-9548.656652,-612.876398
827.514651,-888.247130,-10066.800811,-766.095498
827.514976,-1924.535449,-9474.636058,-1072.533697
827.515300,-1850.514855,-9104.533087,-1149.143247
827.515624,-148.041188,-8956.491898,306.438199
827.515948,1850.514855,-9326.594869,383.047749
827.516272,3182.885551,-9918.759623,1072.533697
827.516596,2442.679609,-10732.986159,919.314598
827.516921,444.123565,-10436.903782,0.000000
827.517245,-740.205942,-9844.739029,-459.657299
827.517569,-740.205942,-9400.615463,-306.438199
827.517893,-222.061783,-9622.677246,-459.657299
827.518217,74.020594,-10066.800811,-536.266849
827.518541,-222.061783,-10214.842000,-612.876398
827.518866,0.000000,-10732.986159,-995.924147
827.519190,-666.185348,-10066.800811,-919.314598
827.519514,-370.102971,-9474.636058,-306.438199
827.519838,592.164754,-9474.636058,76.609550
827.520162,1924.535449,-9918.759623,229.828649
827.520486,2072.576638,-10510.924376,689.485948
827.520811,444.123565,-10584.944971,383.047749
827.521135,-814.226536,-10807.006753,-306.438199
827.521459,-1184.329507,-9844.739029,-153.219100
827.521783,-370.102971,-9030.512492,-229.828649
827.522107,888.247130,-9104.533087,-306.438199
827.522431,1406.391290,-9400.615463,0.000000
827.522756,370.102971,-9992.780217,0.000000
827.523080,-296.082377,-10362.883188,-229.828649
827.523404,-1850.514855,-8956.491898,-995.924147
827.523728,-962.267725,-8586.388927,-306.438199
827.524052,444.123565,-8956.491898,153.219100
827.524376,2368.659014,-9400.615463,306.438199
827.524701,2664.741391,-9696.697840,536.266849
827.525025,1406.391290,-10214.842000,459.657299
827.525349,-296.082377,-9844.739029,-306.438199
827.525673,-962.267725,-9770.718434,-612.876398
827.525997,-888.247130,-9178.553681,-383.047749
827.526321,-666.185348,-9326.594869,-383.047749
827.526646,-518.144159,-9770.718434,0.000000
827.526970,-962.267725,-10214.842000,-459.657299
827.527294,-1554.432478,-9992.780217,-383.047749
827.527618,-1628.453072,-8956.491898,306.438199
827.527942,-444.123565,-8956.491898,919.314598
827.528266,888.247130,-8956.491898,842.705048
827.528591,1776.494261,-9548.656652,995.924147
827.528915,1332.370696,-10066.800811,842.705048
827.529239,-222.061783,-10584.944971,536.266849
827.529563,-1628.453072,-10214.842000,0.000000
827.529887,-1184.329507,-9622.677246,229.828649
827.530211,-296.082377,-8808.450710,-229.828649
827.530536,222.061783,-9178.553681,-306.438199
827.530860,74.020594,-9400.615463,-536.266849
827.531184,-444.123565,-10288.862594,0.000000
827.531508,-1628.453072,-9844.739029,0.000000
827.531832,-2072.576638,-9252.574275,-153.219100
827.532156,-962.267725,-8808.450710,612.876398
827.532481,740.205942,-8660.409521,766.095498
827.532805,2220.617826,-10140.821405,1455.581446
827.533129,1628.453072,-10658.965565,1072.533697
827.533453,0.000000,-10881.027347,612.876398
827.533777,-1406.391290,-10510.924376,153.219100
827.534101,-1998.556043,-9548.656652,-229.828649
827.534426,-1554.432478,-8882.471304,-536.266849
827.534750,-888.247130,-9474.636058,-689.485948
827.535074,0.000000,-10362.883188,-766.095498
827.535398,0.000000,-10584.944971,-153.219100
827.535722,-518.144159,-9918.759623,153.219100
827.536046,-888.247130,-8956.491898,76.609550
827.536371,-148.041188,-8956.491898,229.828649
827.536695,1258.350101,-9326.594869,536.266849
827.537019,2368.659014,-10066.800811,689.485948
827.537343,1998.556043,-10436.903782,689.485948
827.537667,888.247130,-10658.965565,612.876398
827.537991,-888.247130,-9474.636058,-536.266849
827.538315,-1258.350101,-9178.553681,-306.438199
827.538640,-814.226536,-8956.491898,-1072.533697
827.538964,-222.061783,-9326.594869,-1378.971896
827.539288,-444.123565,-10066.800811,-842.705048
827.539612,-1036.288319,-10140.821405,-689.485948
827.539936,-1036.288319,-9770.718434,-612.876398
827.540260,-444.123565,-8438.347739,-919.314598
827.540585,814.226536,-9030.512492,0.000000
827.540909,2368.659014,-9622.677246,459.657299
827.541233,3256.906145,-10510.924376,459.657299
827.541557,2590.720797,-11103.089130,383.047749
827.541881,518.144159,-10732.986159,-229.828649
827.542205,-74.020594,-10140.821405,-612.876398
827.542530,-148.041188,-10288.862594,-766.095498
827.542854,222.061783,-9400.615463,-1072.533697
827.543178,888.247130,-9844.739029,-1149.143247
827.543502,666.185348,-10288.862594,-766.095498
827.543826,0.000000,-10658.965565,-536.266849
827.544150,-888.247130,-9696.697840,-612.876398
827.544475,-518.144159,-8586.388927,-229.828649
827.544799,740.205942,-8808.450710,76.609550
827.545123,2442.679609,-9474.636058,842.705048
827.545447,2886.803174,-10214.842000,612.876398
827.545771,1332.370696,-9844.739029,383.047749
827.546095,-740.205942,-10288.862594,-306.438199
827.546420,-1998.556043,-9178.553681,-842.705048
827.546744,-2072.576638,-8438.347739,-1149.143247
827.547068,-1036.288319,-8808.450710,-1455.581446
827.547392,0.000000,-9770.718434,-1072.533697
827.547716,-962.267725,-10214.842000,-689.485948
827.548040,-1776.494261,-10436.903782,-689.485948
827.548365,-2220.617826,-9474.636058,-459.657299
827.548689,-1554.432478,-8734.430116,153.219100
827.549013,444.123565,-9474.636058,153.219100
827.549337,1998.556043,-10362.883188,919.314598
827.549661,2368.659014,-10066.800811,1378.971896
827.549985,1184.329507,-10658.965565,536.266849
827.550309,-370.102971,-10732.986159,229.828649
827.550634,-1406.391290,-9178.553681,-153.219100
827.550958,-1184.329507,-8882.471304,-1149.143247
827.551282,-962.267725,-9104.533087,-995.924147
827.551606,-740.205942,-9770.718434,-995.924147
827.551930,-1258.350101,-9992.780217,-689.485948
827.552254,-1702.473667,-9326.594869,-536.266849
827.552578,-1850.514855,-8364.327145,0.000000
827.552902,-888.247130,-8216.285956,0.000000
827.553226,888.247130,-8808.450710,842.705048
827.553550,2738.761985,-9474.636058,1455.581446
827.553874,2812.782580,-10066.800811,1838.629195
827.554198,888.247130,-10436.903782,919.314598
827.554523,-1036.288319,-10214.842000,229.828649
827.554847,-1702.473667,-9696.697840,0.000000
827.555171,-740.205942,-9622.677246,0.000000
827.555495,222.061783,-9844.739029,0.000000
827.555819,888.247130,-10436.903782,0.000000
827.556143,0.000000,-10881.027347,-306.438199
827.556467,-814.226536,-10658.965565,-76.609550
827.556791,-1554.432478,-9696.697840,0.000000
827.557115,-1110.308913,-9252.574275,306.438199
827.557439,518.144159,-9474.636058,919.314598
827.557763,2368.659014,-9770.718434,1302.362347
827.558088,2368.659014,-9548.656652,1685.410096
827.558412,1776.494261,-9770.718434,995.924147
827.558736,370.102971,-9326.594869,229.828649
827.559060,-962.267725,-8438.347739,0.000000
827.559384,-740.205942,-7920.203579,0.000000
827.559708,0.000000,-8512.368333,0.000000
827.560032,74.020594,-9326.594869,-153.219100
827.560356,-518.144159,-9474.636058,0.000000
827.560680,-296.082377,-9252.574275,76.609550
827.561004,-370.102971,-8586.388927,153.219100
827.561328,296.082377,-8216.285956,766.095498
827.561653,1776.494261,-8956.491898,1072.533697
827.561977,2072.576638,-9992.780217,1225.752797
827.562301,1110.308913,-10807.006753,919.314598
827.562625,-888.247130,-11029.068536,229.828649
827.562949,-2146.597232,-9548.656652,0.000000
827.563273,-1776.494261,-9474.636058,-612.876398
827.563597,-444.123565,-9622.677246,-306.438199
827.563921,296.082377,-10288.862594,-842.705048
827.564245,0.000000,-10658.965565,-766.095498
827.564569,-1702.473667,-10807.006753,-1225.752797
827.564893,-2664.741391,-9918.759623,-1455.581446
827.565217,-2220.617826,-8956.491898,-1225.752797
827.565542,-296.082377,-9474.636058,-383.047749
827.565866,2368.659014,-9918.759623,76.609550
827.566190,3404.947333,-10362.883188,536.266849
827.566514,3108.864956,-10807.006753,76.609550
827.566838,1480.411884,-10658.965565,-229.828649
827.567162,0.000000,-9548.656652,-842.705048
827.567486,-518.144159,-8808.450710,-995.924147
827.567810,-222.061783,-9252.574275,-1302.362347
827.568134,666.185348,-10140.821405,-1608.800546
827.568458,518.144159,-10436.903782,-1225.752797
827.568782,-296.082377,-10436.903782,-1225.752797
827.569107,-1110.308913,-10140.821405,-1608.800546
827.569431,-1110.308913,-9474.636058,-842.705048
827.569755,-370.102971,-8956.491898,-689.485948
827.570079,666.185348,-9696.697840,153.219100
827.570403,1110.308913,-11325.150913,76.609550
827.570727,296.082377,-10955.047942,76.609550
827.571051,-518.144159,-11029.068536,0.000000
827.571375,-1184.329507,-9992.780217,-153.219100
827.571699,-1110.308913,-9030.512492,-383.047749
827.572023,-222.061783,-9104.533087,-459.657299
827.572347,444.123565,-9622.677246,-919.314598
827.572672,-222.061783,-9992.780217,0.000000
827.572996,-1702.473667,-9770.718434,-383.047749
827.573320,-2368.659014,-8882.471304,-612.876398
827.573644,-1850.514855,-8216.285956,-306.438199
827.573968,0.000000,-8364.327145,0.000000
827.574292,1776.494261,-8882.471304,153.219100
827.574616,1998.556043,-9326.594869,842.705048
827.574940,1628.453072,-10362.883188,612.876398
827.575264,0.000000,-9252.574275,0.000000
827.575588,-1110.308913,-8438.347739,-459.657299
827.575912,-1036.288319,-8734.430116,0.000000
827.576236,0.000000,-9252.574275,-153.219100
827.576561,814.226536,-10140.821405,0.000000
827.576885,740.205942,-10140.821405,0.000000
827.577209,74.020594,-10066.800811,0.000000
827.577533,-962.267725,-9770.718434,229.828649
827.577857,-592.164754,-9622.677246,306.438199
827.578181,-222.061783,-9622.677246,536.266849
827.578505,74.020594,-10362.883188,689.485948
827.578829,0.000000,-10584.944971,536.266849
827.579153,-740.205942,-10807.006753,229.828649
827.579477,-1258.350101,-10140.821405,0.000000
827.579801,-1332.370696,-9474.636058,-229.828649
827.580126,-962.267725,-9104.533087,-1685.410096
827.580450,74.020594,-9030.512492,-536.266849
827.580774,740.205942,-9696.697840,-612.876398
827.581098,592.164754,-10288.862594,-229.828649
827.581422,296.082377,-10584.944971,0.000000
827.581746,296.082377,-9992.780217,153.219100
827.582070,1036.288319,-9622.677246,919.314598
827.582394,2812.782580,-9252.574275,1685.410096
827.582718,3627.009116,-10066.800811,1685.410096
827.583042,3108.864956,-11325.150913,1838.629195
827.583366,1480.411884,-11547.212695,1072.533697
827.583691,0.000000,-10510.924376,612.876398
827.584015,-1332.370696,-9178.553681,459.657299
827.584339,-888.247130,-8364.327145,-306.438199
827.584663,-296.082377,-8512.368333,-383.047749
827.584987,-148.041188,-9252.574275,-229.828649
827.585311,-518.144159,-9622.677246,-383.047749
827.585635,-1480.411884,-9030.512492,-306.438199
827.585959,-1702.473667,-7698.141797,306.438199
827.586283,-1332.370696,-7846.182985,689.485948
827.586607,518.144159,-8586.388927,1532.190996
827.586931,1258.350101,-9400.615463,1608.800546
827.587255,740.205942,-10066.800811,1378.971896
827.587580,-592.164754,-9474.636058,1302.362347
827.587904,-1480.411884,-8882.471304,689.485948
827.588228,-1998.556043,-8068.244768,536.266849
827.588552,-1036.288319,-8364.327145,76.609550
827.588876,-222.061783,-8956.491898,0.000000
827.589200,0.000000,-9474.636058,0.000000
827.589524,-1332.370696,-9474.636058,-229.828649
827.589848,-2516.700203,-9400.615463,-1225.752797
827.590172,-2368.659014,-8882.471304,-766.095498
827.590496,-1258.350101,-8882.471304,-306.438199
827.590820,518.144159,-9474.636058,0.000000
827.591145,1480.411884,-10510.924376,153.219100
827.591469,1258.350101,-11029.068536,76.609550
827.591793,222.061783,-10732.986159,76.609550
827.592117,-666.185348,-10732.986159,-229.828649
827.592441,-962.267725,-10066.800811,-1072.533697
827.592765,-518.144159,-9696.697840,-1302.362347
827.593089,444.123565,-10362.883188,-842.705048
827.593413,962.267725,-11029.068536,-612.876398
827.593737,888.247130,-11547.212695,-612.876398
827.594061,222.061783,-10658.965565,-229.828649
827.594385,370.102971,-10214.842000,-229.828649
827.594710,1850.514855,-9844.739029,0.000000
827.595034,2590.720797,-10362.883188,536.266849
827.595358,2664.741391,-11325.150913,459.657299
827.595682,1332.370696,-11473.192101,76.609550
827.596006,0.000000,-10955.047942,-153.219100
827.596330,-1184.329507,-9770.718434,-612.876398
827.596654,-1110.308913,-9400.615463,-995.924147
827.596978,-1258.350101,-8882.471304,-1378.971896
827.597302,-222.061783,-9622.677246,-1225.752797
827.597626,-814.226536,-9770.718434,-1225.752797
827.597950,-1850.514855,-10288.862594,-919.314598
827.598274,-2368.659014,-9548.656652,-995.924147
827.598599,-1776.494261,-8290.306550,-612.876398
827.598923,370.102971,-8512.368333,0.000000
827.599247,2368.659014,-9548.656652,612.876398
827.599571,3034.844362,-9992.780217,306.438199
827.599895,2368.659014,-9844.739029,459.657299
827.600219,444.123565,-9474.636058,-306.438199
827.600543,-518.144159,-8586.388927,-919.314598
827.600867,-814.226536,-8142.265362,-689.485948
827.601191,-370.102971,-8142.265362,-1455.581446
827.601515,-222.061783,-9326.594869,-995.924147
827.601839,-518.144159,-9474.636058,-1378.971896
827.602164,-888.247130,-8882.471304,-1532.190996
827.602488,-1480.411884,-8660.409521,-536.266849
827.602812,-592.164754,-8586.388927,0.000000
827.603136,740.205942,-8586.388927,76.609550
827.603460,1110.308913,-8882.471304,536.266849
827.603784,1110.308913,-10140.821405,842.705048
827.604108,1036.288319,-11177.109724,689.485948
827.604432,74.020594,-10288.862594,0.000000
827.604756,-444.123565,-9252.574275,-153.219100
827.605080,74.020594,-9474.636058,-306.438199
827.605404,1036.288319,-9844.739029,-766.095498
827.605729,888.247130,-10584.944971,-766.095498
827.606053,-814.226536,-10732.986159,-612.876398
827.606377,-1776.494261,-10362.883188,-1302.362347
827.606701,-2146.597232,-9770.718434,-766.095498
827.607025,-888.247130,-9326.594869,-306.438199
827.607349,1480.411884,-9622.677246,229.828649
827.607673,3108.864956,-10510.924376,995.924147
827.607997,2738.761985,-11029.068536,1072.533697
827.608321,1110.308913,-11103.089130,689.485948
827.608645,0.000000,-10732.986159,383.047749
827.608969,-1258.350101,-9992.780217,0.000000
827.609293,-1184.329507,-9474.636058,-153.219100
827.609618,-370.102971,-9770.718434,0.000000
827.609942,0.000000,-10362.883188,0.000000
827.610266,-592.164754,-10732.986159,-459.657299
827.610590,-1332.370696,-10436.903782,-383.047749
827.610914,-1036.288319,-9474.636058,0.000000
827.611238,-296.082377,-8438.347739,612.876398
827.611562,444.123565,-8364.327145,1149.143247
827.611886,1036.288319,-9104.533087,1149.143247
827.612210,518.144159,-9918.759623,1378.971896
827.612534,-296.082377,-10362.883188,1302.362347
827.612858,-1332.370696,-9474.636058,1149.143247
827.613183,-1480.411884,-8290.306550,1302.362347
827.613507,-1036.288319,-8068.244768,1225.752797
827.613831,-962.267725,-8660.409521,689.485948
827.614155,-1406.391290,-9252.574275,612.876398
827.614479,-2442.679609,-9696.697840,229.828649
827.614803,-2738.761985,-9474.636058,306.438199
827.615127,-2220.617826,-8438.347739,919.314598
827.615451,-222.061783,-7920.203579,1378.971896
827.615775,1702.473667,-8290.306550,1991.848295
827.616099,2516.700203,-9474.636058,1302.362347
827.616423,1702.473667,-10288.862594,1149.143247
827.616747,518.144159,-10066.800811,919.314598
827.617072,-740.205942,-9474.636058,229.828649
827.617396,-962.267725,-8956.491898,76.609550
827.617720,-444.123565,-9252.574275,-459.657299
827.618044,222.061783,-9844.739029,-995.924147
827.618368,0.000000,-10288.862594,-689.485948
827.618692,-666.185348,-10362.883188,-689.485948
827.619016,-444.123565,-9992.780217,-229.828649
827.619340,0.000000,-9400.615463,-306.438199
827.619664,296.082377,-8882.471304,76.609550
827.619988,1184.329507,-9326.594869,0.000000
827.620312,1850.514855,-10510.924376,76.609550
827.620637,1628.453072,-11029.068536,0.000000
827.620961,444.123565,-10510.924376,306.438199
827.621285,-592.164754,-9622.677246,-689.485948
827.621609,-370.102971,-8882.471304,-689.485948
827.621933,0.000000,-9400.615463,-1149.143247
827.622257,0.000000,-10436.903782,-1608.800546
827.622581,-888.247130,-10955.047942,-1685.410096
827.622905,-1480.411884,-10510.924376,-1225.752797
827.623229,-1554.432478,-10140.821405,-1532.190996
827.623553,-296.082377,-9474.636058,0.000000
827.623877,1406.391290,-9474.636058,76.609550
827.624202,2812.782580,-9918.759623,76.609550
827.624526,2738.761985,-10658.965565,229.828649
827.624850,1480.411884,-10362.883188,689.485948
827.625174,0.000000,-10066.800811,306.438199
827.625498,-444.123565,-9474.636058,-536.266849
827.625822,-296.082377,-9030.512492,-1072.533697
827.626146,0.000000,-9030.512492,-995.924147
827.626470,370.102971,-9844.739029,-1302.362347
827.626794,-296.082377,-9770.718434,-919.314598
827.627118,-1406.391290,-9178.553681,-842.705048
827.627442,-1480.411884,-8438.347739,-383.047749
827.627766,-666.185348,-8216.285956,-153.219100
827.628091,814.226536,-8808.450710,842.705048
827.628415,2294.638420,-9548.656652,1072.533697
827.628739,2368.659014,-9696.697840,1072.533697
827.629063,1184.329507,-9326.594869,612.876398
827.629387,-518.144159,-9548.656652,229.828649
827.629711,-1110.308913,-9252.574275,-536.266849
827.630035,-1258.350101,-8956.491898,0.000000
827.630359,-518.144159,-9474.636058,-229.828649
827.630683,-888.247130,-10288.862594,-689.485948
827.631007,-1554.432478,-10658.965565,-842.705048
827.631331,-2294.638420,-10066.800811,-995.924147
827.631656,-2072.576638,-9400.615463,-842.705048
827.631980,-666.185348,-9474.636058,-153.219100
827.632304,888.247130,-9104.533087,383.047749
827.632628,2368.659014,-9844.739029,612.876398
827.632952,2368.659014,-10807.006753,612.876398
827.633276,1110.308913,-11251.130318,306.438199
827.633600,0.000000,-10288.862594,76.609550
827.633924,-962.267725,-9178.553681,-153.219100
827.634248,-666.185348,-9474.636058,-306.438199
827.634572,0.000000,-10214.842000,-842.705048
827.634896,0.000000,-10658.965565,-689.485948
827.635221,-444.123565,-10732.986159,-612.876398
827.635545,-1036.288319,-10140.821405,-459.657299
827.635869,-740.205942,-9326.594869,0.000000
827.636193,370.102971,-8808.450710,536.266849
827.636517,1480.411884,-8660.409521,1149.143247
827.636841,2072.576638,-9696.697840,1149.143247
827.637165,1036.288319,-10732.986159,1072.533697
827.637489,-518.144159,-10510.924376,383.047749
827.637813,-1480.411884,-9770.718434,229.828649
827.638137,-1406.391290,-9400.615463,229.828649
827.638461,-666.185348,-8808.450710,0.000000
827.638785,74.020594,-9622.677246,76.609550
827.639110,-592.164754,-10288.862594,0.000000
827.639434,-1776.494261,-9696.697840,-306.438199
827.639758,-2294.638420,-9548.656652,0.000000
827.640082,-2072.576638,-8586.388927,306.438199
827.640406,-148.041188,-8364.327145,919.314598
827.640730,1776.494261,-8956.491898,1378.971896
827.641054,2812.782580,-9548.656652,1608.800546
827.641378,2294.638420,-10066.800811,1608.800546
827.641702,814.226536,-10214.842000,766.095498
827.642026,-814.226536,-8808.450710,689.485948
827.642350,-888.247130,-8660.409521,76.609550
827.642675,-740.205942,-8438.347739,-153.219100
827.642999,-148.041188,-9474.636058,-229.828649
827.643323,148.041188,-9992.780217,306.438199
827.643647,222.061783,-9770.718434,0.000000
827.643971,0.000000,-8734.430116,76.609550
827.644295,0.000000,-7994.224174,153.219100
827.644619,814.226536,-8660.409521,919.314598
827.644943,1776.494261,-9548.656652,995.924147
827.645267,1776.494261,-10436.903782,842.705048
827.645591,518.144159,-10732.986159,459.657299
827.645915,-592.164754,-10288.862594,76.609550
827.646240,-814.226536,-9844.739029,-76.609550
827.646564,-518.144159,-9474.636058,0.000000
827.646888,148.041188,-9844.739029,-306.438199
827.647212,296.082377,-10140.821405,-766.095498
827.647536,0.000000,-10214.842000,-459.657299
827.647860,-1406.391290,-10288.862594,-842.705048
827.648184,-2294.638420,-9844.739029,-1302.362347
827.648508,-1184.329507,-9326.594869,0.000000
827.648832,0.000000,-8956.491898,153.219100
827.649156,2590.720797,-10436.903782,689.485948
827.649480,2812.782580,-10807.006753,383.047749
827.649804,1332.370696,-11029.068536,-153.219100
827.650129,-888.247130,-10584.944971,-1225.752797
827.650454,-2220.617826,-9918.759623,-1915.238745
827.650778,-1998.556043,-8956.491898,-1991.848295
827.651102,-1184.329507,-9104.533087,-1915.238745
827.651427,-370.102971,-9992.780217,-1915.238745
827.651751,-222.061783,-10362.883188,-2068.457845
827.652075,-296.082377,-9918.759623,-1532.190996
827.652399,-740.205942,-9326.594869,-1532.190996
827.652723,-444.123565,-9178.553681,-1149.143247
827.653047,962.267725,-9252.574275,-459.657299
827.653371,2368.659014,-10288.862594,536.266849
827.653696,1850.514855,-10732.986159,-842.705048
827.654020,592.164754,-11251.130318,-153.219100
827.654344,-666.185348,-10584.944971,-1149.143247
827.654668,-518.144159,-9548.656652,-919.314598
827.654992,0.000000,-9104.533087,-536.266849
827.655316,444.123565,-9992.780217,-689.485948
827.655640,296.082377,-10214.842000,-306.438199
827.655965,-962.267725,-10362.883188,-1149.143247
827.656289,-1924.535449,-10066.800811,-842.705048
827.656613,-1998.556043,-9474.636058,-919.314598
827.656937,-814.226536,-9030.512492,0.000000
827.657261,1406.391290,-9030.512492,842.705048
827.657585,2590.720797,-9474.636058,1072.533697
827.657909,2072.576638,-9918.759623,842.705048
827.658233,0.000000,-9770.718434,689.485948
827.658558,-1924.535449,-9474.636058,229.828649
827.658882,-1480.411884,-8438.347739,0.000000
827.659206,-962.267725,-7994.224174,-306.438199
827.659530,0.000000,-8438.347739,76.609550
827.659854,592.164754,-9474.636058,0.000000
827.660178,296.082377,-10288.862594,536.266849
827.660502,-814.226536,-8882.471304,459.657299
827.660827,-1110.308913,-7994.224174,689.485948
827.661151,-740.205942,-7920.203579,1455.581446
827.661475,222.061783,-8660.409521,1455.581446
827.661799,1036.288319,-9326.594869,1685.410096
827.662123,666.185348,-10214.842000,1455.581446
827.662447,-296.082377,-10436.903782,919.314598
827.662771,-1332.370696,-9474.636058,766.095498
827.663096,-1628.453072,-8290.306550,383.047749
827.663420,-296.082377,-8586.388927,766.095498
827.663744,0.000000,-9474.636058,536.266849
827.664068,-666.185348,-10066.800811,76.609550
827.664392,-1924.535449,-10510.924376,229.828649
827.664716,-2368.659014,-10288.862594,76.609550
827.665040,-1776.494261,-9696.697840,536.266849
827.665364,222.061783,-9326.594869,1149.143247
827.665689,2146.597232,-9474.636058,1302.362347
827.666013,2738.761985,-9992.780217,1685.410096
827.666337,2072.576638,-10955.047942,1838.629195
827.666661,814.226536,-11399.171507,995.924147
827.666985,-444.123565,-10066.800811,76.609550
827.667309,-370.102971,-9474.636058,0.000000
827.667633,222.061783,-9622.677246,-306.438199
827.667958,1036.288319,-10214.842000,-612.876398
827.668282,666.185348,-10955.047942,-229.828649
827.668606,0.000000,-10658.965565,-459.657299
827.668930,-962.267725,-9696.697840,-459.657299
827.669254,-740.205942,-9104.533087,-536.266849
827.669578,666.185348,-9178.553681,-229.828649
827.669902,2072.576638,-9696.697840,536.266849
827.670227,2368.659014,-10510.924376,383.047749
827.670551,962.267725,-10732.986159,229.828649
827.670875,-592.164754,-10584.944971,0.000000
827.671199,-1184.329507,-9400.615463,-689.485948
827.671523,-1036.288319,-8660.409521,-1072.533697
827.671847,-222.061783,-8438.347739,-842.705048
827.672171,814.226536,-9030.512492,-919.314598
827.672495,0.000000,-9622.677246,-1302.362347
827.672820,-1628.453072,-9696.697840,-995.924147
827.673144,-1924.535449,-9178.553681,-995.924147
827.673468,-1036.288319,-8364.327145,-612.876398
827.673792,370.102971,-7920.203579,0.000000
827.674116,2072.576638,-8660.409521,459.657299
827.674440,2294.638420,-9622.677246,229.828649
827.674764,962.267725,-9400.615463,0.000000
827.675089,-370.102971,-10140.821405,-536.266849
827.675413,-1406.391290,-9474.636058,-995.924147
827.675737,-1110.308913,-8586.388927,-995.924147
827.676061,0.000000,-8586.388927,-1608.800546
827.676385,740.205942,-9548.656652,-1685.410096
827.676709,-296.082377,-10066.800811,-1762.019645
827.677033,-592.164754,-10510.924376,-1455.581446
827.677358,-1110.308913,-9770.718434,-1378.971896
827.677682,-296.082377,-9474.636058,-536.266849
827.678006,1036.288319,-9622.677246,-153.219100
827.678330,1850.514855,-10658.965565,229.828649
827.678654,1480.411884,-11473.192101,0.000000
827.678978,148.041188,-11843.295072,0.000000
827.679302,-740.205942,-11177.109724,-153.219100
827.679626,-1628.453072,-9918.759623,-536.266849
827.679951,-962.267725,-10288.862594,-842.705048
827.680275,222.061783,-10362.883188,-842.705048
827.680599,444.123565,-10584.944971,-766.095498
827.680923,-814.226536,-10807.006753,-689.485948
827.681247,-1480.411884,-10732.986159,-1149.143247
827.681571,-1628.453072,-9622.677246,-536.266849
827.681895,-592.164754,-9030.512492,76.609550
827.682220,1776.494261,-9326.594869,-306.438199
827.682544,2812.782580,-10066.800811,536.266849
827.682868,2516.700203,-10288.862594,612.876398
827.683192,592.164754,-10214.842000,536.266849
827.683516,-1332.370696,-9844.739029,383.047749
827.683840,-1702.473667,-8660.409521,-153.219100
827.684164,-1036.288319,-9252.574275,0.000000
827.684489,-296.082377,-8512.368333,0.000000
827.684813,296.082377,-9252.574275,229.828649
827.685137,-370.102971,-9770.718434,229.828649
827.685461,-962.267725,-9326.594869,229.828649
827.685785,-962.267725,-8216.285956,383.047749
827.686109,0.000000,-7624.121203,766.095498
827.686433,814.226536,-7846.182985,306.438199
827.686758,1702.473667,-9030.512492,766.095498
827.687082,1628.453072,-10214.842000,919.314598
827.687406,222.061783,-10214.842000,459.657299
827.687730,-814.226536,-9252.574275,229.828649
827.688054,-666.185348,-8438.347739,76.609550
827.688378,148.041188,-8364.327145,-153.219100
827.688702,814.226536,-9030.512492,76.609550
827.689026,666.185348,-9474.636058,766.095498
827.689351,-518.144159,-9696.697840,0.000000
827.689675,-1702.473667,-9400.615463,0.000000
827.689999,-1776.494261,-8660.409521,0.000000
827.690323,-666.185348,-8660.409521,229.828649
827.690647,740.205942,-9770.718434,766.095498
827.690971,2220.617826,-10362.883188,842.705048
827.691295,1702.473667,-10881.027347,383.047749
827.691620,-370.102971,-10288.862594,229.828649
827.691944,-1998.556043,-9844.739029,-306.438199
827.692268,-1628.453072,-9770.718434,-612.876398
827.692592,-518.144159,-10066.800811,-459.657299
827.692916,444.123565,-10584.944971,-153.219100
827.693240,370.102971,-10658.965565,306.438199
827.693564,0.000000,-10510.924376,-306.438199
827.693889,-1036.288319,-10214.842000,0.000000
827.694213,-1258.350101,-10066.800811,0.000000
827.694537,-222.061783,-9770.718434,153.219100
827.694861,592.164754,-10140.821405,689.485948
827.695185,1184.329507,-10510.924376,459.657299
827.695509,888.247130,-10584.944971,76.609550
827.695833,-444.123565,-9992.780217,0.000000
827.696157,-592.164754,-9696.697840,-306.438199
827.696482,-222.061783,-8882.471304,-306.438199
827.696806,370.102971,-8512.368333,-536.266849
827.697130,148.041188,-9030.512492,0.000000
827.697454,-222.061783,-9622.677246,0.000000
827.697778,-1110.308913,-9696.697840,-383.047749
827.698102,-1924.535449,-9622.677246,-536.266849
827.698426,-1332.370696,-8364.327145,383.047749
827.698751,370.102971,-7920.203579,842.705048
827.699075,1850.514855,-8734.430116,1455.581446
827.699399,1702.473667,-9622.677246,1225.752797
827.699723,592.164754,-10214.842000,1072.533697
827.700047,-1554.432478,-9992.780217,0.000000
827.700371,-2368.659014,-9104.533087,-383.047749
827.700695,-1554.432478,-8660.409521,-536.266849
827.701020,-148.041188,-8364.327145,-306.438199
827.701344,888.247130,-9548.656652,-766.095498
827.701668,592.164754,-10214.842000,-1225.752797
827.701992,-370.102971,-9918.759623,-766.095498
827.702316,-1184.329507,-9326.594869,-459.657299
827.702640,-592.164754,-8660.409521,-383.047749
827.702964,666.185348,-8586.388927,459.657299
827.703288,2368.659014,-9622.677246,153.219100
827.703613,2590.720797,-10732.986159,0.000000
827.703937,1332.370696,-11177.109724,306.438199
827.704261,-296.082377,-10732.986159,-612.876398
827.704585,-1184.329507,-9770.718434,-842.705048
827.704909,-888.247130,-9474.636058,-1149.143247
827.705233,0.000000,-10214.842000,-1608.800546
827.705557,-296.082377,-10658.965565,-1685.410096
827.705882,-518.144159,-11547.212695,-1455.581446
827.706206,-1110.308913,-10955.047942,-1455.581446
827.706530,-1110.308913,-9992.780217,-766.095498
827.706854,-148.041188,-9844.739029,-306.438199
827.707178,1628.453072,-10066.800811,153.219100
827.707502,2886.803174,-10658.965565,229.828649
827.707826,2516.700203,-11251.130318,459.657299
827.708151,814.226536,-11251.130318,0.000000
827.708475,-1110.308913,-10362.883188,-306.438199
827.708799,-1110.308913,-9252.574275,-842.705048
827.709123,-370.102971,-9104.533087,-689.485948
827.709447,666.185348,-9104.533087,-383.047749
827.709771,888.247130,-9622.677246,-919.314598
827.710095,0.000000,-9622.677246,-383.047749
827.710419,-1184.329507,-8808.450710,-536.266849
827.710744,-1702.473667,-7994.224174,-1072.533697
827.711068,-370.102971,-7550.100608,689.485948
827.711392,1258.350101,-7550.100608,919.314598
827.711716,2590.720797,-8734.430116,1149.143247
827.712040,1998.556043,-9474.636058,919.314598
827.712364,74.020594,-9622.677246,612.876398
827.712688,-1406.391290,-8882.471304,536.266849
827.713013,-1406.391290,-8142.265362,-306.438199
827.713337,-888.247130,-8364.327145,-689.485948
827.713661,-518.144159,-8956.491898,-459.657299
827.713985,-444.123565,-9844.739029,-383.047749
827.714309,-1332.370696,-10510.924376,0.000000
827.714633,-2146.597232,-9770.718434,-306.438199
827.714957,-1850.514855,-8734.430116,153.219100
827.715282,-666.185348,-8290.306550,306.438199
827.715606,1258.350101,-9622.677246,995.924147
827.715930,2442.679609,-10362.883188,1455.581446
827.716254,1776.494261,-10807.006753,1149.143247
827.716578,222.061783,-10881.027347,536.266849
827.716902,-740.205942,-10658.965565,0.000000
827.717226,-962.267725,-9918.759623,0.000000
827.717551,-296.082377,-9400.615463,-306.438199
827.717875,222.061783,-10066.800811,153.219100
827.718199,74.020594,-10436.903782,0.000000
827.718523,-592.164754,-10658.965565,-536.266849
827.718847,-1184.329507,-10066.800811,0.000000
827.719171,-962.267725,-9400.615463,0.000000
827.719495,148.041188,-9474.636058,459.657299
827.719819,1628.453072,-10214.842000,1072.533697
827.720144,1924.535449,-10658.965565,1072.533697
827.720468,814.226536,-10807.006753,1072.533697
827.720792,-370.102971,-11251.130318,919.314598
827.721116,-962.267725,-10436.903782,612.876398
827.721440,-1110.308913,-9918.759623,0.000000
827.721764,-444.123565,-9252.574275,153.219100
827.722088,0.000000,-9400.615463,0.000000
827.722413,74.020594,-10214.842000,-306.438199
827.722737,-1702.473667,-9844.739029,-153.219100
827.723061,-2368.659014,-8956.491898,-153.219100
827.723385,-1480.411884,-7846.182985,536.266849
827.723709,148.041188,-7920.203579,459.657299
827.724033,2146.597232,-8586.388927,995.924147
827.724357,2664.741391,-9104.533087,1455.581446
827.724682,1628.453072,-9622.677246,1149.143247
827.725006,-222.061783,-9326.594869,229.828649
827.725330,-1480.411884,-8364.327145,76.609550
827.725654,-1480.411884,-7846.182985,-383.047749
827.725978,-370.102971,-8364.327145,-689.485948
827.726302,0.000000,-9030.512492,-612.876398
827.726626,0.000000,-9474.636058,-459.657299
827.726950,-444.123565,-9844.739029,-689.485948
827.727275,-888.247130,-8808.450710,-766.095498
827.727599,296.082377,-8142.265362,-229.828649
827.727923,1776.494261,-8068.244768,76.609550
827.728247,2220.617826,-9474.636058,-153.219100
827.728571,2072.576638,-10584.944971,153.219100
827.728895,592.164754,-11473.192101,0.000000
827.729219,-740.205942,-10362.883188,-1072.533697
827.729544,-962.267725,-9548.656652,-1302.362347
827.729868,-296.082377,-9474.636058,-1685.410096
827.730192,814.226536,-9770.718434,-1302.362347
827.730516,0.000000,-10510.924376,-1915.238745
827.730840,-1406.391290,-10658.965565,-1915.238745
827.731164,-1998.556043,-10362.883188,-2068.457845
827.731488,-2146.597232,-9474.636058,-1685.410096
827.731813,-370.102971,-9696.697840,-1072.533697
827.732137,2442.679609,-9992.780217,0.000000
827.732461,4145.153275,-10584.944971,0.000000
827.732785,3182.885551,-11103.089130,0.000000
827.733109,1702.473667,-11547.212695,-536.266849
827.733433,-296.082377,-11177.109724,-995.924147
827.733757,-1776.494261,-10658.965565,-1608.800546
827.734081,-1554.432478,-10214.842000,-1532.190996
827.734406,-592.164754,-10658.965565,-1915.238745
827.734730,0.000000,-10881.027347,-1149.143247
827.735054,0.000000,-11177.109724,-919.314598
827.735378,-1258.350101,-10214.842000,-1532.190996
827.735702,-1924.535449,-8956.491898,-919.314598
827.736026,-1480.411884,-8734.430116,-306.438199
827.736350,0.000000,-9178.553681,0.000000
827.736675,740.205942,-9992.780217,229.828649
827.736999,370.102971,-10436.903782,536.266849
827.737323,-666.185348,-9918.759623,0.000000
827.737647,-1332.370696,-9326.594869,-459.657299
827.737971,-1184.329507,-8290.306550,0.000000
827.738295,-296.082377,-8290.306550,-306.438199
827.738619,444.123565,-8882.471304,-153.219100
827.738944,0.000000,-9474.636058,76.609550
827.739268,-1036.288319,-9622.677246,459.657299
827.739592,-1702.473667,-9104.533087,229.828649
827.739916,-1036.288319,-8734.430116,459.657299
827.740240,74.020594,-7994.224174,842.705048
827.740564,1998.556043,-8290.306550,1302.362347
827.740888,2886.803174,-9400.615463,1685.410096
827.741213,2072.576638,-10288.862594,1608.800546
827.741537,-444.123565,-9992.780217,919.314598
827.741861,-2368.659014,-8734.430116,306.438199
827.742185,-2220.617826,-8734.430116,229.828649
827.742509,-814.226536,-8808.450710,0.000000
827.742833,74.020594,-9104.533087,229.828649
827.743157,444.123565,-9548.656652,459.657299
827.743481,-296.082377,-9918.759623,612.876398
827.743806,-1036.288319,-9548.656652,459.657299
827.744130,-1110.308913,-8882.471304,919.314598
827.744454,0.000000,-8882.471304,842.705048
827.744778,1184.329507,-9326.594869,1762.019645
827.745102,1776.494261,-9918.759623,1762.019645
827.745426,1332.370696,-10510.924376,1225.752797
827.745750,444.123565,-10732.986159,766.095498
827.746075,-444.123565,-9918.759623,229.828649
827.746399,-444.123565,-9252.574275,229.828649
827.746723,148.041188,-9474.636058,0.000000
827.747047,222.061783,-9992.780217,383.047749
827.747371,0.000000,-10881.027347,306.438199
827.747695,-1184.329507,-10807.006753,306.438199
827.748019,-1480.411884,-10436.903782,306.438199
827.748344,-814.226536,-9696.697840,995.924147
827.748668,666.185348,-9400.615463,1225.752797
827.748992,1924.535449,-9326.594869,842.705048
827.749316,2368.659014,-10066.800811,919.314598
827.749640,518.144159,-10584.944971,612.876398
827.749964,-1406.391290,-10140.821405,-536.266849
827.750288,-2294.638420,-9104.533087,-536.266849
827.750612,-2072.576638,-8660.409521,-766.095498
827.750937,-444.123565,-8734.430116,-612.876398
827.751261,592.164754,-9474.636058,-383.047749
827.751585,444.123565,-9252.574275,0.000000
827.751909,-518.144159,-9474.636058,76.609550
827.752233,-888.247130,-8882.471304,-153.219100
827.752557,-592.164754,-8438.347739,0.000000
827.752881,1406.391290,-8808.450710,766.095498
827.753206,2886.803174,-9400.615463,842.705048
827.753530,2886.803174,-9770.718434,153.219100
827.753854,1036.288319,-10214.842000,0.000000
827.754178,-666.185348,-10288.862594,-306.438199
827.754502,-1480.411884,-9548.656652,-306.438199
827.754826,-666.185348,-9252.574275,-766.095498
827.755150,-296.082377,-9326.594869,-1532.190996
827.755475,-296.082377,-9918.759623,-1762.019645
827.755799,-1036.288319,-10362.883188,-1762.019645
827.756123,-1924.535449,-10584.944971,-1762.019645
827.756447,-1628.453072,-10214.842000,-1455.581446
827.756771,-296.082377,-9474.636058,-1072.533697
827.757095,1924.535449,-9548.656652,-612.876398
827.757419,3330.926739,-10214.842000,-306.438199
827.757743,2516.700203,-10436.903782,-383.047749
827.758068,814.226536,-10732.986159,-612.876398
827.758392,-814.226536,-10732.986159,-1149.143247
827.758716,-888.247130,-10140.821405,-1302.362347
827.759040,-518.144159,-9326.594869,0.000000
827.759364,1036.288319,-9474.636058,-1225.752797
827.759688,962.267725,-9844.739029,-1302.362347
827.760012,-296.082377,-10214.842000,-1685.410096
827.760337,-1406.391290,-10362.883188,-1072.533697
827.760661,-1628.453072,-9474.636058,-766.095498
827.760985,-296.082377,-9178.553681,0.000000
827.761309,1332.370696,-9326.594869,536.266849
827.761633,2294.638420,-9474.636058,229.828649
827.761957,1036.288319,-10140.821405,-153.219100
827.762281,-888.247130,-10732.986159,76.609550
827.762605,-2516.700203,-10288.862594,76.609550
827.762930,-2368.659014,-9474.636058,76.609550
827.763254,-1036.288319,-9178.553681,-229.828649
827.763578,-296.082377,-8956.491898,-229.828649
827.763902,-370.102971,-9548.656652,-229.828649
827.764226,-1258.350101,-10214.842000,-306.438199
827.764550,-2146.597232,-9326.594869,0.000000
827.764874,-2220.617826,-8364.327145,919.314598
827.765199,-296.082377,-7772.162391,1225.752797
827.765523,2072.576638,-8364.327145,1225.752797
827.765847,3256.906145,-9030.512492,1455.581446
827.766171,2590.720797,-9622.677246,1608.800546
827.766495,888.247130,-9992.780217,995.924147
827.766819,-814.226536,-9104.533087,0.000000
827.767143,-518.144159,-8216.285956,153.219100
827.767468,0.000000,-8660.409521,-459.657299
827.767792,666.185348,-9326.594869,-689.485948
827.768116,444.123565,-9770.718434,-306.438199
827.768440,-592.164754,-10362.883188,-306.438199
827.768764,-1406.391290,-9844.739029,-153.219100
827.769088,-888.247130,-9474.636058,459.657299
827.769412,370.102971,-9770.718434,612.876398
827.769736,2072.576638,-9992.780217,612.876398
827.770061,2072.576638,-10807.006753,842.705048
827.770385,1036.288319,-11769.274478,842.705048
827.770709,-370.102971,-11843.295072,383.047749
827.771033,-1258.350101,-10955.047942,-459.657299
827.771357,-444.123565,-10066.800811,-306.438199
827.771681,592.164754,-9770.718434,-919.314598
827.772005,1036.288319,-10436.903782,-1149.143247
827.772330,0.000000,-10658.965565,-689.485948
827.772654,-1258.350101,-10584.944971,-766.095498
827.772978,-1850.514855,-9844.739029,-689.485948
827.773302,-1258.350101,-8586.388927,0.000000
827.773626,814.226536,-8734.430116,76.609550
827.773950,2886.803174,-8660.409521,153.219100
827.774274,3182.885551,-9178.553681,0.000000
827.774599,1332.370696,-9844.739029,0.000000
827.774923,-962.267725,-9622.677246,-536.266849
827.775247,-2294.638420,-9178.553681,-766.095498
827.775571,-2072.576638,-8660.409521,-1149.143247
827.775895,-444.123565,-8290.306550,-1302.362347
827.776219,74.020594,-8956.491898,-1302.362347
827.776543,0.000000,-9770.718434,-1302.362347
827.776867,-1184.329507,-9844.739029,-1225.752797
827.777192,-2146.597232,-9474.636058,-612.876398
827.777516,-1554.432478,-8734.430116,-306.438199
827.777840,-518.144159,-8660.409521,153.219100
827.778164,962.267725,-9326.594869,0.000000
827.778488,666.185348,-9326.594869,229.828649
827.778812,0.000000,-10436.903782,689.485948
827.779136,-1406.391290,-10436.903782,0.000000
827.779461,-1850.514855,-9992.780217,229.828649
827.779785,-1036.288319,-9252.574275,-153.219100
827.780109,0.000000,-9252.574275,-383.047749
827.780433,222.061783,-9770.718434,-536.266849
827.780757,-222.061783,-10658.965565,-153.219100
827.781081,-1036.288319,-11029.068536,153.219100
827.781405,-1036.288319,-9474.636058,76.609550
827.781730,518.144159,-8734.430116,0.000000
827.782054,2812.782580,-9178.553681,612.876398
827.782378,3923.091493,-9696.697840,842.705048
827.782702,3478.967927,-10510.924376,919.314598
827.783026,1184.329507,-11769.274478,306.438199
827.783350,-1406.391290,-10436.903782,0.000000
827.783674,-1998.556043,-9918.759623,0.000000
827.783998,-1332.370696,-9474.636058,-229.828649
827.784323,222.061783,-9844.739029,-306.438199
827.784647,370.102971,-10436.903782,229.828649
827.784971,-740.205942,-11029.068536,153.219100
827.785295,-2220.617826,-10584.944971,229.828649
827.785619,-2368.659014,-9770.718434,612.876398
827.785943,-1480.411884,-9104.533087,306.438199
827.786267,0.000000,-9104.533087,766.095498
827.786592,1628.453072,-9474.636058,842.705048
827.786916,1258.350101,-10066.800811,1072.533697
827.787240,370.102971,-10510.924376,995.924147
827.787564,-444.123565,-9918.759623,306.438199
827.787888,-296.082377,-8438.347739,0.000000
827.788212,518.144159,-8438.347739,0.000000
827.788536,1480.411884,-8808.450710,-306.438199
827.788861,666.185348,-9030.512492,0.000000
827.789185,-888.247130,-9178.553681,76.609550
827.789509,-1850.514855,-9326.594869,0.000000
827.789833,-962.267725,-8438.347739,459.657299
827.790157,444.123565,-7624.121203,1072.533697
827.790481,2368.659014,-7920.203579,1072.533697
827.790805,3330.926739,-8438.347739,1455.581446
827.791129,2368.659014,-9178.553681,842.705048
827.791454,-296.082377,-9918.759623,612.876398
827.791778,-1628.453072,-9992.780217,0.000000
827.792102,-1480.411884,-9400.615463,-536.266849
827.792426,-444.123565,-8808.450710,-1149.143247
827.792750,370.102971,-9622.677246,-1225.752797
827.793074,-296.082377,-10510.924376,-1072.533697
827.793398,-740.205942,-11029.068536,-1532.190996
827.793723,-1332.370696,-10510.924376,-1455.581446
827.794047,-1406.391290,-9400.615463,-766.095498
827.794371,0.000000,-9326.594869,-612.876398
827.794695,1554.432478,-9992.780217,-689.485948
827.795019,2368.659014,-10881.027347,0.000000
827.795343,1406.391290,-11325.150913,536.266849
827.795667,-814.226536,-11251.130318,-995.924147
827.795991,-1406.391290,-10510.924376,0.000000
827.796316,-814.226536,-9770.718434,-919.314598
827.796640,296.082377,-9696.697840,-1302.362347
827.796964,888.247130,-9844.739029,-1302.362347
827.797288,0.000000,-10732.986159,-1225.752797
827.797612,-962.267725,-10732.986159,-1072.533697
827.797936,-1998.556043,-9770.718434,-1378.971896
827.798260,-1036.288319,-9030.512492,-1455.581446
827.798585,814.226536,-9400.615463,-306.438199
827.798909,2368.659014,-10066.800811,76.609550
827.799233,2368.659014,-10807.006753,76.609550
827.799557,1110.308913,-10955.047942,76.609550
827.799881,-296.082377,-10732.986159,0.000000
827.800205,-962.267725,-9992.780217,306.438199
827.800529,-1480.411884,-9104.533087,0.000000
827.800854,0.000000,-8882.471304,-383.047749
827.801178,592.164754,-9252.574275,0.000000
827.801502,0.000000,-9770.718434,-76.609550
827.801826,-1258.350101,-9474.636058,-153.219100
827.802150,-2072.576638,-8290.306550,76.609550
827.802474,-1776.494261,-7476.080014,689.485948
827.802798,0.000000,-7550.100608,689.485948
827.803122,740.205942,-8586.388927,536.266849
827.803447,740.205942,-8882.471304,383.047749
827.803771,-592.164754,-9400.615463,306.438199
827.804095,-2072.576638,-9030.512492,153.219100
827.804419,-2072.576638,-8364.327145,76.609550
827.804743,-666.185348,-8290.306550,0.000000
827.805067,-148.041188,-8438.347739,459.657299
827.805391,-222.061783,-9326.594869,612.876398
827.805716,-740.205942,-10140.821405,612.876398
827.806040,-1480.411884,-10881.027347,383.047749
827.806364,-1924.535449,-10140.821405,536.266849
827.806688,-518.144159,-9326.594869,919.314598
827.807012,1628.453072,-9548.656652,1149.143247
827.807336,2960.823768,-10066.800811,995.924147
827.807660,2368.659014,-10807.006753,612.876398
827.807985,592.164754,-11251.130318,-766.095498
827.808309,-740.205942,-10807.006753,-459.657299
827.808633,-1628.453072,-9844.739029,-766.095498
827.808957,-666.185348,-9400.615463,-995.924147
827.809281,518.144159,-10066.800811,-766.095498
827.809605,1258.350101,-10584.944971,-153.219100
827.809929,592.164754,-10881.027347,-306.438199
827.810253,0.000000,-11103.089130,-153.219100
827.810578,-222.061783,-10066.800811,229.828649
827.810902,592.164754,-8882.471304,919.314598
827.811226,1924.535449,-9400.615463,306.438199
827.811550,2738.761985,-10436.903782,689.485948
827.811874,1406.391290,-10955.047942,536.266849
827.812198,-370.102971,-10807.006753,76.609550
827.812522,-1480.411884,-10214.842000,-459.657299
827.812847,-1776.494261,-8882.471304,-995.924147
827.813171,-1036.288319,-8438.347739,-1455.581446
827.813495,-222.061783,-8956.491898,-1149.143247
827.813819,-444.123565,-9622.677246,-1225.752797
827.814143,-1332.370696,-10140.821405,-689.485948
827.814467,-2368.659014,-9622.677246,-689.485948
827.814791,-1628.453072,-8808.450710,-306.438199
827.815116,-148.041188,-8216.285956,76.609550
827.815440,2220.617826,-8808.450710,612.876398
827.815764,3404.947333,-9400.615463,1149.143247
827.816088,2146.597232,-9474.636058,766.095498
827.816412,-444.123565,-9400.615463,459.657299
827.816736,-2368.659014,-8808.450710,-689.485948
827.817060,-2220.617826,-8364.327145,-1302.362347
827.817384,-444.123565,-8290.306550,-1378.971896
827.817709,666.185348,-9104.533087,-1225.752797
827.818033,592.164754,-9252.574275,-1455.581446
827.818357,-148.041188,-9474.636058,-995.924147
827.818681,-1332.370696,-9326.594869,-766.095498
827.819005,-1406.391290,-8956.491898,-842.705048
827.819329,0.000000,-9252.574275,-459.657299
827.819653,1776.494261,-10140.821405,383.047749
827.819978,2664.741391,-11103.089130,612.876398
827.820302,2072.576638,-11251.130318,612.876398
827.820626,666.185348,-10807.006753,306.438199
827.820950,-296.082377,-10510.924376,-153.219100
827.821274,-814.226536,-10214.842000,-766.095498
827.821598,-592.164754,-9918.759623,-919.314598
827.821922,-148.041188,-9918.759623,-689.485948
827.822246,-962.267725,-11029.068536,-536.266849
827.822571,-2368.659014,-11399.171507,-1225.752797
827.822895,-2738.761985,-10066.800811,-689.485948
827.823219,-1924.535449,-9400.615463,0.000000
827.823543,370.102971,-9548.656652,153.219100
827.823867,2368.659014,-9696.697840,612.876398
827.824191,2442.679609,-10362.883188,995.924147
827.824515,962.267725,-10732.986159,842.705048
827.824840,-740.205942,-10510.924376,536.266849
827.825164,-1998.556043,-9400.615463,-383.047749
827.825488,-1036.288319,-8734.430116,-383.047749
827.825812,518.144159,-8734.430116,-306.438199
827.826136,1184.329507,-9326.594869,-76.609550
827.826460,1036.288319,-9992.780217,383.047749
827.826784,-666.185348,-10066.800811,612.876398
827.827109,-1850.514855,-9326.594869,536.266849
827.827433,-1628.453072,-8808.450710,995.924147
827.827757,0.000000,-8882.471304,1302.362347
827.828081,1480.411884,-9252.574275,1532.190996
827.828405,1776.494261,-9548.656652,1532.190996
827.828729,592.164754,-9622.677246,1225.752797
827.829053,-1036.288319,-9104.533087,459.657299
827.829377,-1480.411884,-8438.347739,76.609550
827.829702,-1036.288319,-8364.327145,306.438199
827.830026,0.000000,-8438.347739,306.438199
827.830350,-148.041188,-8586.388927,0.000000
827.830674,-1332.370696,-9178.553681,306.438199
827.830998,-1924.535449,-9474.636058,383.047749
827.831322,-1184.329507,-9622.677246,306.438199
827.831646,444.123565,-8882.471304,1072.533697
827.831971,2664.741391,-8808.450710,1608.800546
827.832295,3997.112087,-9400.615463,1685.410096
827.832619,3034.844362,-9474.636058,1455.581446
827.832943,592.164754,-10362.883188,919.314598
827.833267,-962.267725,-10584.944971,-766.095498
827.833591,-1924.535449,-9474.636058,-919.314598
827.833915,-740.205942,-9104.533087,-995.924147
827.834240,444.123565,-9770.718434,-995.924147
827.834564,888.247130,-10214.842000,-842.705048
827.834888,74.020594,-10510.924376,-995.924147
827.835212,-1480.411884,-10807.006753,-536.266849
827.835536,-2072.576638,-9844.739029,-612.876398
827.835860,-1110.308913,-8956.491898,-229.828649
