#time,accel_x,accel_y,accel_z
776.348862,-296.082377,-8068.244768,3983.696590
776.349186,0.000000,-4663.297435,5056.230287
776.349510,-592.164754,-4885.359217,3370.820191
776.349834,592.164754,-8586.388927,1149.143247
776.350158,3404.947333,-9326.594869,1302.362347
776.350483,5995.668130,-7698.141797,3370.820191
776.350807,6439.791695,-7994.224174,4519.963438
776.351131,3627.009116,-9474.636058,3217.601092
776.351455,-740.205942,-10140.821405,1762.019645
776.351779,-4589.276840,-11917.315666,1225.752797
776.352103,-6513.812290,-14878.139434,-536.266849
776.352427,-6661.853478,-14211.954086,-2834.553343
776.352751,-6439.791695,-10288.862594,-2757.943793
776.353075,-4293.194464,-8512.368333,-1532.190996
776.353399,-1998.556043,-10214.842000,-1991.848295
776.353723,-2368.659014,-11769.274478,-1532.190996
776.354047,-3182.885551,-11547.212695,-689.485948
776.354371,-1554.432478,-9992.780217,-766.095498
776.354695,1480.411884,-9252.574275,536.266849
776.355020,3108.864956,-10140.821405,1149.143247
776.355344,2516.700203,-10510.924376,689.485948
776.355668,666.185348,-11177.109724,-383.047749
776.355992,-1924.535449,-12657.521608,-1685.410096
776.356316,-3627.009116,-13027.624579,-459.657299
776.356640,-2664.741391,-11547.212695,459.657299
776.356964,-1036.288319,-11621.233289,1378.971896
776.357288,-1406.391290,-11695.253884,919.314598
776.357612,-2812.782580,-10288.862594,0.000000
776.357936,-3034.844362,-8882.471304,-153.219100
776.358260,-1924.535449,-8216.285956,0.000000
776.358584,-518.144159,-7772.162391,0.000000
776.358908,-444.123565,-7920.203579,536.266849
776.359233,-1480.411884,-8660.409521,0.000000
776.359557,-3330.926739,-9400.615463,-766.095498
776.359881,-5181.441594,-10140.821405,-1455.581446
776.360205,-5551.544565,-10510.924376,-1838.629195
776.360529,-4441.235652,-10436.903782,-612.876398
776.360853,-2738.761985,-10140.821405,612.876398
776.361177,-1184.329507,-9548.656652,1378.971896
776.361501,-222.061783,-8586.388927,2681.334243
776.361825,-814.226536,-9696.697840,2987.772442
776.362149,-2072.576638,-9992.780217,2757.943793
776.362473,-2590.720797,-9474.636058,3217.601092
776.362797,-2516.700203,-8660.409521,4673.182538
776.363121,-1332.370696,-9770.718434,5669.106685
776.363445,-740.205942,-9992.780217,5286.058936
776.363770,-370.102971,-9400.615463,6052.154434
776.364094,-296.082377,-8438.347739,5056.230287
776.364418,0.000000,-8586.388927,4060.306139
776.364742,148.041188,-8068.244768,3907.087040
776.365066,-370.102971,-7402.059420,4290.134789
776.365390,-444.123565,-7698.141797,3753.867940
776.365714,-1554.432478,-8364.327145,2834.553343
776.366038,-3330.926739,-7624.121203,306.438199
776.366362,-5921.647536,-9770.718434,842.705048
776.366686,-5477.523971,-12435.459826,1838.629195
776.367010,-2368.659014,-12287.418637,2145.067394
776.367334,-962.267725,-10066.800811,4979.620737
776.367658,-222.061783,-8734.430116,6741.640382
776.367982,1628.453072,-7772.162391,5592.497135
776.368307,4071.132681,-8216.285956,6358.592633
776.368631,6957.935855,-8438.347739,7431.126331
776.368955,8956.491898,-9104.533087,8350.440928
776.369279,8438.347739,-9918.759623,7277.907231
776.369603,4811.338623,-8808.450710,6741.640382
776.369927,370.102971,-6069.688724,3524.039291
776.370251,-4219.173869,-4737.318029,-2451.505594
776.370575,-9030.512492,-8512.368333,-3907.087040
776.370899,-8290.306550,-11621.233289,-4213.525239
776.371223,-2960.823768,-9844.739029,-4749.792088
776.371547,-740.205942,-7772.162391,-1225.752797
776.371871,-740.205942,-6661.853478,383.047749
776.372195,296.082377,-7476.080014,383.047749
776.372520,1036.288319,-9030.512492,995.924147
776.372844,2442.679609,-9326.594869,1991.848295
776.373168,4811.338623,-12435.459826,4596.572988
776.373492,6809.894666,-14952.160028,4903.011187
776.373816,6513.812290,-14211.954086,4903.011187
776.374140,4663.297435,-12435.459826,3600.648841
776.374464,888.247130,-10955.047942,536.266849
776.374788,-3478.967927,-9104.533087,-4596.572988
776.375112,-6809.894666,-6587.832884,-10189.070123
776.375436,-7550.100608,-7698.141797,-9499.584175
776.375760,-4071.132681,-11029.068536,-9193.145976
776.376084,0.000000,-11251.130318,-10265.679673
776.376408,-740.205942,-9548.656652,-6128.763984
776.376732,-444.123565,-8660.409521,-4903.011187
776.377057,1332.370696,-9918.759623,-6511.811733
776.377381,1036.288319,-11399.171507,-5362.668486
776.377704,2442.679609,-12065.356855,-1762.019645
776.378028,4737.318029,-11843.295072,-995.924147
776.378352,3997.112087,-11843.295072,-2068.457845
776.378676,-1332.370696,-12435.459826,0.000000
776.379000,-2220.617826,-13545.768739,-766.095498
776.379324,0.000000,-13323.706956,-2834.553343
776.379648,0.000000,-12139.377449,-2221.676944
776.379972,888.247130,-8808.450710,-2528.115143
776.380296,2664.741391,-6513.812290,-2911.162892
776.380620,3552.988522,-7179.997637,-4290.134789
776.380944,1258.350101,-6069.688724,-6511.811733
776.381268,-1332.370696,-6957.935855,-7431.126331
776.381592,-3849.070898,-12509.480420,-5745.716235
776.381916,-4071.132681,-14656.077652,-5362.668486
776.382240,-4293.194464,-13323.706956,-4443.353888
776.382564,-5329.482782,-10436.903782,-1532.190996
776.382888,-4219.173869,-10362.883188,-3370.820191
776.383212,-3627.009116,-10881.027347,-3830.477490
776.383536,-1628.453072,-9474.636058,-1302.362347
776.383860,2960.823768,-6957.935855,2528.115143
776.384183,6143.709319,-9326.594869,3753.867940
776.384507,5699.585753,-10807.006753,4366.744339
776.384831,4737.318029,-8586.388927,3983.696590
776.385155,3256.906145,-6587.832884,2451.505594
776.385479,0.000000,-6365.771101,-1991.848295
776.385803,-3627.009116,-10214.842000,-1072.533697
776.386127,-3552.988522,-11473.192101,-536.266849
776.386451,-666.185348,-10214.842000,-1455.581446
776.386775,-1554.432478,-9252.574275,1378.971896
776.387099,-1850.514855,-7550.100608,2757.943793
776.387423,-740.205942,-7105.977043,1685.410096
776.387747,-1702.473667,-6957.935855,2834.553343
776.388071,-1480.411884,-6439.791695,4136.915689
776.388395,1776.494261,-7772.162391,5362.668486
776.388719,3108.864956,-9474.636058,4903.011187
776.389043,2368.659014,-8734.430116,5132.839837
776.389367,962.267725,-8290.306550,4519.963438
776.389691,-222.061783,-9252.574275,2911.162892
776.390015,-1776.494261,-11843.295072,2374.896044
776.390339,-962.267725,-12361.439231,2374.896044
776.390663,1628.453072,-10066.800811,2374.896044
776.390986,3108.864956,-9696.697840,2757.943793
776.391310,2960.823768,-10807.006753,3600.648841
776.391634,2738.761985,-10288.862594,3370.820191
776.391958,2516.700203,-9548.656652,2987.772442
776.392282,962.267725,-9326.594869,3447.429741
776.392606,-1258.350101,-9178.553681,3753.867940
776.392930,-2368.659014,-9104.533087,2604.724693
776.393254,-3034.844362,-8142.265362,1915.238745
776.393578,-4589.276840,-9104.533087,1072.533697
776.393902,-4885.359217,-10066.800811,0.000000
776.394226,-3701.029710,-10066.800811,612.876398
776.394550,-1554.432478,-9770.718434,1455.581446
776.394874,592.164754,-9030.512492,2451.505594
776.395198,2960.823768,-9548.656652,2451.505594
776.395522,2960.823768,-9918.759623,1838.629195
776.395846,2516.700203,-10732.986159,1685.410096
776.396170,2072.576638,-11473.192101,1149.143247
776.396494,1406.391290,-10955.047942,919.314598
776.396818,222.061783,-10066.800811,229.828649
776.397142,-1554.432478,-9696.697840,0.000000
776.397466,-2960.823768,-9918.759623,-2145.067394
776.397789,-4441.235652,-9918.759623,-2451.505594
776.398113,-4515.256246,-8808.450710,-2451.505594
776.398437,-3034.844362,-8216.285956,-2068.457845
776.398761,-1554.432478,-7624.121203,-1608.800546
776.399085,222.061783,-7624.121203,-995.924147
776.399409,1110.308913,-8734.430116,-1149.143247
776.399733,888.247130,-8808.450710,-1685.410096
776.400057,666.185348,-10140.821405,-1838.629195
776.400381,0.000000,-9474.636058,-1991.848295
776.400705,148.041188,-9696.697840,-2068.457845
776.401029,592.164754,-10214.842000,-2068.457845
776.401353,592.164754,-10288.862594,-2068.457845
776.401677,518.144159,-10362.883188,-2145.067394
776.402001,666.185348,-9918.759623,-1915.238745
776.402325,1406.391290,-8882.471304,-2068.457845
776.402649,2294.638420,-8364.327145,-1991.848295
776.402973,2442.679609,-9178.553681,-1532.190996
776.403297,1332.370696,-9770.718434,-1762.019645
776.403621,-370.102971,-9844.739029,-2834.553343
776.403945,-1480.411884,-9696.697840,-3294.210641
776.404269,-1776.494261,-9474.636058,-3907.087040
776.404592,-1406.391290,-10658.965565,-4673.182538
776.404916,-592.164754,-11103.089130,-3830.477490
776.405240,222.061783,-10955.047942,-2987.772442
776.405564,1110.308913,-11029.068536,-2451.505594
776.405888,1850.514855,-10584.944971,-2145.067394
776.406212,3034.844362,-10510.924376,-1225.752797
776.406536,4441.235652,-11103.089130,-689.485948
776.406860,4959.379811,-11769.274478,-459.657299
776.407184,4145.153275,-11473.192101,-612.876398
776.407508,2664.741391,-11251.130318,-689.485948
776.407832,296.082377,-10436.903782,-1455.581446
776.408156,-1776.494261,-10214.842000,-2221.676944
776.408480,-4071.132681,-10140.821405,-2451.505594
776.408804,-4589.276840,-10436.903782,-2681.334243
776.409128,-3552.988522,-10140.821405,-2221.676944
776.409452,-1776.494261,-9400.615463,-1302.362347
776.409776,74.020594,-9178.553681,-306.438199
776.410100,592.164754,-9104.533087,612.876398
776.410424,1036.288319,-9474.636058,919.314598
776.410748,444.123565,-9474.636058,1225.752797
776.411072,-518.144159,-9474.636058,1149.143247
776.411395,-592.164754,-9696.697840,995.924147
776.411719,-888.247130,-9622.677246,1149.143247
776.412043,-1258.350101,-9548.656652,842.705048
776.412367,-1924.535449,-9696.697840,995.924147
776.412691,-2294.638420,-10066.800811,995.924147
776.413015,-1924.535449,-8586.388927,919.314598
776.413339,-962.267725,-7846.182985,1608.800546
776.413663,222.061783,-8068.244768,2145.067394
776.413987,1184.329507,-8364.327145,2604.724693
776.414311,1184.329507,-8660.409521,2451.505594
776.414635,740.205942,-8438.347739,2528.115143
776.414959,-370.102971,-8882.471304,2374.896044
776.415283,-1776.494261,-8512.368333,1532.190996
776.415607,-2220.617826,-8438.347739,1532.190996
776.415931,-2294.638420,-8438.347739,1532.190996
776.416255,-2146.597232,-8808.450710,1838.629195
776.416579,-1628.453072,-8586.388927,2068.457845
776.416903,-740.205942,-8142.265362,2451.505594
776.417227,296.082377,-7550.100608,2987.772442
776.417551,1702.473667,-7994.224174,2911.162892
776.417875,1998.556043,-8660.409521,3140.991542
776.418198,2072.576638,-9326.594869,3677.258390
776.418522,1110.308913,-9918.759623,2681.334243
776.418846,0.000000,-10584.944971,1762.019645
776.419170,-1110.308913,-10584.944971,919.314598
776.419494,-1776.494261,-10584.944971,229.828649
776.419818,-1480.411884,-10732.986159,459.657299
776.420142,-888.247130,-10362.883188,229.828649
776.420466,-296.082377,-9622.677246,76.609550
776.420790,444.123565,-8808.450710,842.705048
776.421114,1480.411884,-8808.450710,766.095498
776.421438,2812.782580,-9252.574275,1455.581446
776.421762,3256.906145,-9548.656652,1532.190996
776.422086,2664.741391,-9696.697840,1455.581446
776.422410,1184.329507,-9770.718434,1072.533697
776.422734,0.000000,-10214.842000,153.219100
776.423058,-1406.391290,-10510.924376,-306.438199
776.423382,-2368.659014,-10140.821405,-766.095498
776.423706,-2368.659014,-10436.903782,-1225.752797
776.424030,-1628.453072,-10140.821405,-995.924147
776.424354,-370.102971,-9474.636058,-689.485948
776.424677,888.247130,-9474.636058,-995.924147
776.425001,1258.350101,-8660.409521,-766.095498
776.425325,1702.473667,-9326.594869,-689.485948
776.425649,1480.411884,-9844.739029,-689.485948
776.425973,444.123565,-10436.903782,-919.314598
776.426297,-222.061783,-10510.924376,-1532.190996
776.426621,-888.247130,-10436.903782,-2145.067394
776.426945,-1480.411884,-10066.800811,-2451.505594
776.427269,-1924.535449,-10436.903782,-2298.286494
776.427593,-1406.391290,-10214.842000,-2298.286494
776.427917,-592.164754,-9474.636058,-1762.019645
776.428241,518.144159,-8956.491898,-2068.457845
776.428565,1924.535449,-8882.471304,-1532.190996
776.428889,2516.700203,-9326.594869,-1225.752797
776.429213,2590.720797,-9696.697840,-1532.190996
776.429537,1776.494261,-9548.656652,-1455.581446
776.429861,666.185348,-9918.759623,-2221.676944
776.430185,-148.041188,-10288.862594,-2068.457845
776.430509,-888.247130,-9992.780217,-2528.115143
776.430833,-592.164754,-10288.862594,-2834.553343
776.431157,-1184.329507,-10732.986159,-2528.115143
776.431480,-1110.308913,-10288.862594,-2298.286494
776.431804,0.000000,-10288.862594,-1608.800546
776.432128,666.185348,-9252.574275,-536.266849
776.432452,2220.617826,-9252.574275,-229.828649
776.432776,1998.556043,-9548.656652,-306.438199
776.433100,814.226536,-10214.842000,-536.266849
776.433424,222.061783,-10436.903782,-766.095498
776.433748,-740.205942,-10214.842000,-1378.971896
776.434072,-1702.473667,-9844.739029,-2374.896044
776.434396,-2368.659014,-9622.677246,-2528.115143
776.434720,-2294.638420,-10140.821405,-1685.410096
776.435044,-1406.391290,-9844.739029,-1762.019645
776.435368,-740.205942,-9030.512492,-1302.362347
776.435692,592.164754,-8956.491898,-383.047749
776.436016,2146.597232,-9104.533087,383.047749
776.436340,3108.864956,-9548.656652,1072.533697
776.436664,3256.906145,-9400.615463,1915.238745
776.436988,2072.576638,-9992.780217,1378.971896
776.437312,148.041188,-9844.739029,1225.752797
776.437636,-1110.308913,-9548.656652,612.876398
776.437960,-1850.514855,-9844.739029,0.000000
776.438283,-2516.700203,-9992.780217,0.000000
776.438607,-2886.803174,-10140.821405,153.219100
776.438931,-2664.741391,-9252.574275,383.047749
776.439255,-1702.473667,-8586.388927,1532.190996
776.439579,-222.061783,-8364.327145,2145.067394
776.439903,962.267725,-8586.388927,1991.848295
776.440227,1480.411884,-8882.471304,2757.943793
776.440551,1702.473667,-9474.636058,2987.772442
776.440875,1110.308913,-9770.718434,2681.334243
776.441199,148.041188,-9770.718434,1915.238745
776.441523,-1258.350101,-9030.512492,1378.971896
776.441847,-1702.473667,-9474.636058,919.314598
776.442171,-2220.617826,-9622.677246,842.705048
776.442495,-1998.556043,-9844.739029,766.095498
776.442819,-1184.329507,-9474.636058,1302.362347
776.443143,74.020594,-8660.409521,1762.019645
776.443467,1406.391290,-8364.327145,2451.505594
776.443791,2294.638420,-8586.388927,2604.724693
776.444115,2516.700203,-9030.512492,2681.334243
776.444439,2368.659014,-9548.656652,2911.162892
776.444763,1332.370696,-9548.656652,1991.848295
776.445086,148.041188,-9474.636058,1455.581446
776.445410,-592.164754,-9474.636058,1072.533697
776.445734,-1406.391290,-9696.697840,306.438199
776.446058,-2294.638420,-9844.739029,-153.219100
776.446382,-2368.659014,-9696.697840,-536.266849
776.446706,-1776.494261,-9178.553681,0.000000
776.447030,-148.041188,-8290.306550,306.438199
776.447354,888.247130,-8734.430116,1685.410096
776.447678,962.267725,-9400.615463,1378.971896
776.448002,888.247130,-9918.759623,919.314598
776.448326,0.000000,-10510.924376,995.924147
776.448650,-518.144159,-10288.862594,383.047749
776.448974,-296.082377,-9844.739029,0.000000
776.449298,-740.205942,-9918.759623,-612.876398
776.449622,-1184.329507,-9918.759623,-1378.971896
776.449946,-888.247130,-9474.636058,-1225.752797
776.450270,-296.082377,-9474.636058,-1608.800546
776.450594,962.267725,-9178.553681,-1225.752797
776.450918,1776.494261,-9104.533087,-1455.581446
776.451242,1776.494261,-8734.430116,-919.314598
776.451566,1776.494261,-9252.574275,-1225.752797
776.451889,962.267725,-9844.739029,-1378.971896
776.452213,0.000000,-10436.903782,-1991.848295
776.452537,-1332.370696,-10584.944971,-1991.848295
776.452861,-1702.473667,-10510.924376,-1991.848295
776.453185,-1554.432478,-10658.965565,-1991.848295
776.453509,-1554.432478,-10732.986159,-1608.800546
776.453833,-1406.391290,-10584.944971,-1072.533697
776.454157,0.000000,-10658.965565,-995.924147
776.454481,962.267725,-10066.800811,0.000000
776.454805,1998.556043,-9844.739029,-536.266849
776.455129,1924.535449,-10362.883188,-842.705048
776.455453,1184.329507,-10658.965565,-1149.143247
776.455777,148.041188,-10658.965565,-2068.457845
776.456101,-814.226536,-10658.965565,-2528.115143
776.456425,-1554.432478,-10288.862594,-2911.162892
776.456749,-2368.659014,-10066.800811,-2911.162892
776.457073,-1628.453072,-10436.903782,-2374.896044
776.457397,-1184.329507,-9918.759623,-1991.848295
776.457721,-370.102971,-9548.656652,-1072.533697
776.458045,1036.288319,-8956.491898,-536.266849
776.458369,2590.720797,-8808.450710,306.438199
776.458692,3775.050304,-9030.512492,1455.581446
776.459016,3849.070898,-9326.594869,1072.533697
776.459340,2590.720797,-9622.677246,536.266849
776.459664,518.144159,-9326.594869,0.000000
776.459988,-666.185348,-9770.718434,-1225.752797
776.460312,-1776.494261,-9918.759623,-1762.019645
776.460636,-2590.720797,-9992.780217,-1991.848295
776.460960,-2738.761985,-9622.677246,-1072.533697
776.461284,-1850.514855,-9474.636058,-1072.533697
776.461608,-962.267725,-9104.533087,0.000000
776.461932,444.123565,-8290.306550,459.657299
776.462256,1702.473667,-9030.512492,1455.581446
776.462580,2072.576638,-9474.636058,1991.848295
776.462904,1776.494261,-9770.718434,2374.896044
776.463228,1110.308913,-9770.718434,2298.286494
776.463552,0.000000,-9770.718434,1072.533697
776.463876,-1554.432478,-9474.636058,153.219100
776.464200,-1258.350101,-9622.677246,0.000000
776.464524,-1776.494261,-9992.780217,-153.219100
776.464848,-1998.556043,-9844.739029,-459.657299
776.465172,-1184.329507,-9104.533087,-229.828649
776.465495,0.000000,-8586.388927,459.657299
776.465819,1554.432478,-8142.265362,766.095498
776.466143,2664.741391,-8660.409521,1302.362347
776.466467,2220.617826,-8956.491898,2145.067394
776.466791,2220.617826,-9696.697840,1915.238745
776.467115,1406.391290,-9844.739029,1685.410096
776.467439,148.041188,-10362.883188,1378.971896
776.467763,-1110.308913,-10214.842000,919.314598
776.468087,-2294.638420,-10214.842000,459.657299
776.468411,-2960.823768,-10214.842000,383.047749
776.468735,-2590.720797,-10362.883188,229.828649
776.469059,-2220.617826,-9770.718434,459.657299
776.469383,-1036.288319,-8956.491898,842.705048
776.469707,0.000000,-9104.533087,842.705048
776.470031,1110.308913,-9474.636058,919.314598
776.470355,888.247130,-9844.739029,995.924147
776.470679,0.000000,-9696.697840,689.485948
776.471003,-518.144159,-9844.739029,229.828649
776.471327,-1036.288319,-10214.842000,-306.438199
776.471651,-1554.432478,-10288.862594,0.000000
776.471974,-1850.514855,-10140.821405,-153.219100
776.472298,-1480.411884,-10066.800811,0.000000
776.472622,-518.144159,-9474.636058,383.047749
776.472946,666.185348,-8660.409521,689.485948
776.473270,2072.576638,-8734.430116,1149.143247
776.473594,2294.638420,-8438.347739,1149.143247
776.473918,2738.761985,-8734.430116,689.485948
776.474242,1924.535449,-9326.594869,229.828649
776.474566,74.020594,-9474.636058,-229.828649
776.474890,-1036.288319,-9474.636058,-995.924147
776.475214,-1480.411884,-9548.656652,-1302.362347
776.475538,-1184.329507,-9770.718434,-536.266849
776.475862,-1628.453072,-9474.636058,-612.876398
776.476186,-1332.370696,-9548.656652,-536.266849
776.476510,-296.082377,-9030.512492,0.000000
776.476834,1036.288319,-9030.512492,383.047749
776.477158,1850.514855,-9178.553681,842.705048
776.477482,2220.617826,-9548.656652,995.924147
776.477806,1406.391290,-9844.739029,689.485948
776.478130,296.082377,-9844.739029,536.266849
776.478454,-222.061783,-9548.656652,-306.438199
776.478778,-1406.391290,-9992.780217,-1455.581446
776.479102,-1480.411884,-9844.739029,-1762.019645
776.479426,-1924.535449,-9622.677246,-2298.286494
776.479750,-1258.350101,-9844.739029,-2451.505594
776.480074,-444.123565,-9696.697840,-2298.286494
776.480398,888.247130,-9400.615463,-1532.190996
776.480722,1998.556043,-8956.491898,-1072.533697
776.481046,2812.782580,-9104.533087,-689.485948
776.481371,3108.864956,-9992.780217,0.000000
776.481695,2220.617826,-10584.944971,0.000000
776.482019,1258.350101,-10881.027347,0.000000
776.482343,148.041188,-10732.986159,-536.266849
776.482667,-962.267725,-10732.986159,-1149.143247
776.482991,-1776.494261,-10955.047942,-1225.752797
776.483315,-2516.700203,-10436.903782,-1225.752797
776.483639,-2220.617826,-10140.821405,-1378.971896
776.483963,-1924.535449,-9622.677246,-1378.971896
776.484287,-592.164754,-9400.615463,-1072.533697
776.484611,296.082377,-9474.636058,-766.095498
776.484935,1110.308913,-9696.697840,-536.266849
776.485259,888.247130,-10140.821405,-306.438199
776.485583,370.102971,-10807.006753,-306.438199
776.485907,-962.267725,-10362.883188,-383.047749
776.486232,-888.247130,-10436.903782,-689.485948
776.486556,-1332.370696,-10362.883188,-612.876398
776.486880,-2146.597232,-10436.903782,-689.485948
776.487204,-1480.411884,-9918.759623,383.047749
776.487528,-518.144159,-9474.636058,306.438199
776.487852,592.164754,-8956.491898,459.657299
776.488176,1776.494261,-8734.430116,536.266849
776.488500,1998.556043,-8808.450710,1072.533697
776.488824,1702.473667,-8882.471304,919.314598
776.489148,1554.432478,-9548.656652,842.705048
776.489472,-148.041188,-9030.512492,-306.438199
776.489796,-1036.288319,-9178.553681,0.000000
776.490120,-1628.453072,-9474.636058,-153.219100
776.490444,-1776.494261,-9770.718434,0.000000
776.490768,-1628.453072,-9696.697840,229.828649
776.491093,-1554.432478,-9326.594869,1072.533697
776.491417,-740.205942,-9030.512492,1532.190996
776.491741,518.144159,-8956.491898,1915.238745
776.492065,1554.432478,-8660.409521,2987.772442
776.492389,1184.329507,-8956.491898,2681.334243
776.492713,814.226536,-9474.636058,2145.067394
776.493037,-296.082377,-9548.656652,1532.190996
776.493361,-1184.329507,-9474.636058,689.485948
776.493685,-1332.370696,-9474.636058,383.047749
776.494009,-1258.350101,-9918.759623,0.000000
776.494333,-1702.473667,-9770.718434,-536.266849
776.494657,-1332.370696,-9548.656652,0.000000
776.494981,-370.102971,-9326.594869,153.219100
776.495305,962.267725,-9030.512492,536.266849
776.495630,2294.638420,-9104.533087,1072.533697
776.495954,3182.885551,-9030.512492,1991.848295
776.496278,2886.803174,-9400.615463,1838.629195
776.496602,2072.576638,-10214.842000,1685.410096
776.496926,518.144159,-10214.842000,1225.752797
776.497250,-962.267725,-10066.800811,153.219100
776.497574,-1924.535449,-10140.821405,-459.657299
776.497898,-2516.700203,-10140.821405,-995.924147
776.498222,-2812.782580,-10214.842000,-1149.143247
776.498546,-2368.659014,-9844.739029,-612.876398
776.498870,-1406.391290,-9474.636058,-1072.533697
776.499194,0.000000,-9474.636058,-459.657299
776.499518,1332.370696,-9400.615463,76.609550
776.499842,1702.473667,-9918.759623,842.705048
776.500166,1628.453072,-10362.883188,689.485948
776.500491,1036.288319,-10658.965565,229.828649
776.500815,370.102971,-10510.924376,-76.609550
776.501139,-518.144159,-10510.924376,-153.219100
776.501463,-1036.288319,-10362.883188,76.609550
776.501787,-1998.556043,-10140.821405,-1455.581446
776.502111,-1776.494261,-9696.697840,-1378.971896
776.502435,-1332.370696,-9252.574275,-1302.362347
776.502759,0.000000,-8956.491898,-1302.362347
776.503083,1332.370696,-8586.388927,-766.095498
776.503407,2368.659014,-8660.409521,-459.657299
776.503731,2590.720797,-8734.430116,-689.485948
776.504055,1998.556043,-9548.656652,-536.266849
776.504379,888.247130,-9548.656652,-766.095498
776.504703,0.000000,-9844.739029,-919.314598
776.505028,-740.205942,-9918.759623,-995.924147
776.505352,-888.247130,-9844.739029,-1149.143247
776.505676,-962.267725,-9622.677246,-612.876398
776.506000,-666.185348,-9622.677246,-536.266849
776.506324,-814.226536,-9030.512492,-383.047749
776.506648,0.000000,-8660.409521,-306.438199
776.506972,666.185348,-9178.553681,0.000000
776.507296,592.164754,-9178.553681,0.000000
776.507620,0.000000,-9474.636058,-459.657299
776.507944,-740.205942,-9622.677246,-612.876398
776.508268,-1184.329507,-9844.739029,-1532.190996
776.508592,-1258.350101,-9844.739029,-1685.410096
776.508916,-1480.411884,-10362.883188,-1149.143247
776.509240,-1480.411884,-10140.821405,-2298.286494
776.509564,-592.164754,-10066.800811,-1608.800546
776.509889,222.061783,-9622.677246,-842.705048
776.510213,1628.453072,-9696.697840,-306.438199
776.510537,3034.844362,-9770.718434,459.657299
776.510861,3108.864956,-9400.615463,689.485948
776.511185,2960.823768,-9770.718434,919.314598
776.511509,1702.473667,-10066.800811,153.219100
776.511833,0.000000,-10214.842000,-459.657299
776.512157,-1554.432478,-10436.903782,-1072.533697
776.512481,-2368.659014,-10584.944971,-1378.971896
776.512805,-3108.864956,-10362.883188,-1378.971896
776.513129,-2738.761985,-10362.883188,-919.314598
776.513453,-2146.597232,-9992.780217,-536.266849
776.513777,-518.144159,-10066.800811,612.876398
776.514101,1036.288319,-9548.656652,536.266849
776.514425,2072.576638,-9918.759623,1455.581446
776.514750,2220.617826,-10066.800811,1378.971896
776.515074,1628.453072,-9844.739029,919.314598
776.515398,1332.370696,-10436.903782,995.924147
776.515722,222.061783,-10140.821405,0.000000
776.516046,-740.205942,-9918.759623,76.609550
776.516370,-962.267725,-9622.677246,-536.266849
776.516694,-1480.411884,-9474.636058,-1149.143247
776.517018,-1776.494261,-9474.636058,-459.657299
776.517342,-962.267725,-9178.553681,0.000000
776.517666,296.082377,-8586.388927,306.438199
776.517990,1998.556043,-8364.327145,1532.190996
776.518314,2812.782580,-8512.368333,1838.629195
776.518638,2590.720797,-8956.491898,2374.896044
776.518962,2220.617826,-9400.615463,1838.629195
776.519287,1406.391290,-9326.594869,1608.800546
776.519611,-148.041188,-9326.594869,612.876398
776.519935,-1480.411884,-9474.636058,459.657299
776.520259,-2146.597232,-9770.718434,0.000000
776.520583,-2738.761985,-9548.656652,-229.828649
776.520907,-2442.679609,-9326.594869,0.000000
776.521231,-1406.391290,-9104.533087,459.657299
776.521555,-444.123565,-9030.512492,459.657299
776.521879,444.123565,-8808.450710,1455.581446
776.522203,1184.329507,-8882.471304,1149.143247
776.522527,74.020594,-9622.677246,1149.143247
776.522851,-814.226536,-10066.800811,612.876398
776.523175,-1554.432478,-10066.800811,306.438199
776.523499,-1332.370696,-9548.656652,153.219100
776.523823,-962.267725,-9770.718434,-306.438199
776.524148,-592.164754,-9844.739029,0.000000
776.524472,-1110.308913,-9622.677246,-383.047749
776.524796,74.020594,-9326.594869,-842.705048
776.525120,888.247130,-9178.553681,-536.266849
776.525444,1702.473667,-9104.533087,-229.828649
776.525768,2220.617826,-9622.677246,0.000000
776.526092,2368.659014,-10066.800811,76.609550
776.526416,1554.432478,-10584.944971,383.047749
776.526740,888.247130,-10955.047942,306.438199
776.527064,0.000000,-10955.047942,-306.438199
776.527388,-1110.308913,-10732.986159,-459.657299
776.527712,-1776.494261,-10807.006753,-612.876398
776.528036,-1924.535449,-10732.986159,-306.438199
776.528360,-1406.391290,-10288.862594,0.000000
776.528685,-370.102971,-9622.677246,689.485948
776.529009,1184.329507,-9474.636058,689.485948
776.529333,1702.473667,-9474.636058,766.095498
776.529657,1480.411884,-9622.677246,306.438199
776.529981,666.185348,-10066.800811,-229.828649
776.530305,-296.082377,-9992.780217,-383.047749
776.530629,-1036.288319,-9992.780217,-919.314598
776.530953,-1554.432478,-9548.656652,-995.924147
776.531277,-1332.370696,-9178.553681,-612.876398
776.531601,-814.226536,-9622.677246,-612.876398
776.531925,-296.082377,-9030.512492,-306.438199
776.532249,444.123565,-8586.388927,153.219100
776.532573,1480.411884,-8364.327145,689.485948
776.532897,2368.659014,-8438.347739,1225.752797
776.533221,2812.782580,-8068.244768,1608.800546
776.533546,2220.617826,-8142.265362,1378.971896
776.533870,888.247130,-8882.471304,459.657299
776.534194,-592.164754,-8956.491898,153.219100
776.534518,-962.267725,-9474.636058,-536.266849
776.534842,-1776.494261,-9326.594869,-919.314598
776.535166,-2368.659014,-9474.636058,-1225.752797
776.535490,-3108.864956,-9474.636058,-1302.362347
776.535814,-2442.679609,-9474.636058,-919.314598
776.536138,-1110.308913,-9252.574275,-306.438199
776.536462,296.082377,-8660.409521,0.000000
776.536786,1480.411884,-9252.574275,689.485948
776.537110,1702.473667,-9622.677246,919.314598
776.537434,1332.370696,-10066.800811,919.314598
776.537758,148.041188,-10214.842000,459.657299
776.538082,-592.164754,-10140.821405,-383.047749
776.538407,-1406.391290,-9770.718434,-842.705048
776.538731,-1702.473667,-10214.842000,-1378.971896
776.539055,-1258.350101,-10066.800811,-1915.238745
776.539379,-1184.329507,-9992.780217,-1762.019645
776.539703,148.041188,-9770.718434,-1378.971896
776.540027,1406.391290,-9326.594869,-1378.971896
776.540351,2294.638420,-9178.553681,-919.314598
776.540675,2442.679609,-9844.739029,-153.219100
776.540999,2590.720797,-10288.862594,-229.828649
776.541323,2146.597232,-11177.109724,-306.438199
776.541647,666.185348,-10807.006753,-383.047749
776.541971,0.000000,-11177.109724,-689.485948
776.542295,-592.164754,-10955.047942,-766.095498
776.542619,-1258.350101,-10955.047942,-612.876398
776.542944,-962.267725,-10436.903782,-459.657299
776.543268,-814.226536,-10362.883188,-383.047749
776.543592,-370.102971,-9622.677246,0.000000
776.543916,444.123565,-9400.615463,-306.438199
776.544240,1110.308913,-9696.697840,0.000000
776.544564,1258.350101,-9992.780217,-459.657299
776.544888,592.164754,-10140.821405,-459.657299
776.545212,-222.061783,-10140.821405,-459.657299
776.545536,-592.164754,-10066.800811,-766.095498
776.545860,-962.267725,-10362.883188,-842.705048
776.546184,-1850.514855,-9770.718434,-995.924147
776.546508,-1258.350101,-9918.759623,-459.657299
776.546832,-814.226536,-9400.615463,229.828649
776.547156,370.102971,-8734.430116,689.485948
776.547480,1628.453072,-8142.265362,1149.143247
776.547805,2442.679609,-8142.265362,1685.410096
776.548129,2738.761985,-7994.224174,1685.410096
776.548453,2072.576638,-8512.368333,1302.362347
776.548777,444.123565,-8512.368333,689.485948
776.549101,-962.267725,-9252.574275,306.438199
776.549425,-2368.659014,-9252.574275,0.000000
776.549749,-2738.761985,-9104.533087,-383.047749
776.550073,-3256.906145,-9178.553681,-459.657299
776.550397,-2960.823768,-9104.533087,-306.438199
776.550721,-2442.679609,-8808.450710,306.438199
776.551045,-592.164754,-8734.430116,1608.800546
776.551369,888.247130,-8882.471304,1838.629195
776.551693,1702.473667,-8956.491898,2068.457845
776.552017,1702.473667,-9474.636058,2374.896044
776.552342,1332.370696,-10214.842000,2298.286494
776.552666,370.102971,-10510.924376,1685.410096
776.552990,-370.102971,-9918.759623,1072.533697
776.553314,-1850.514855,-9770.718434,229.828649
776.553638,-2146.597232,-10140.821405,-919.314598
776.553962,-2294.638420,-10214.842000,-1225.752797
776.554286,-1850.514855,-9992.780217,-995.924147
776.554610,-814.226536,-9622.677246,-612.876398
776.554934,740.205942,-9400.615463,-383.047749
776.555258,2220.617826,-8808.450710,536.266849
776.555582,3034.844362,-9104.533087,1455.581446
776.555906,2886.803174,-9548.656652,766.095498
776.556230,2146.597232,-10510.924376,1149.143247
776.556554,1036.288319,-10955.047942,766.095498
776.556878,0.000000,-10732.986159,459.657299
776.557203,-962.267725,-10584.944971,229.828649
776.557527,-1628.453072,-10510.924376,306.438199
776.557851,-1702.473667,-10584.944971,-612.876398
776.558175,-1554.432478,-10140.821405,-459.657299
776.558499,-740.205942,-9622.677246,-383.047749
776.558823,148.041188,-9178.553681,-229.828649
776.559147,814.226536,-9178.553681,153.219100
776.559471,888.247130,-9326.594869,229.828649
776.559795,666.185348,-9326.594869,0.000000
776.560119,74.020594,-9474.636058,-229.828649
776.560443,0.000000,-9844.739029,-536.266849
776.560767,-444.123565,-9622.677246,-383.047749
776.561091,-740.205942,-9474.636058,-1072.533697
776.561415,-1110.308913,-9400.615463,-612.876398
776.561739,-592.164754,-9252.574275,-1149.143247
776.562064,0.000000,-9030.512492,-383.047749
776.562388,888.247130,-8734.430116,0.000000
776.562712,1850.514855,-8586.388927,229.828649
776.563036,2294.638420,-8808.450710,459.657299
776.563360,2072.576638,-8956.491898,306.438199
776.563684,814.226536,-9548.656652,0.000000
776.564008,-370.102971,-10066.800811,-995.924147
776.564332,-1110.308913,-9992.780217,-1072.533697
776.564656,-1924.535449,-9844.739029,-1455.581446
776.564980,-2146.597232,-9918.759623,-1685.410096
776.565304,-1924.535449,-10288.862594,-1532.190996
776.565628,-1406.391290,-9696.697840,-842.705048
776.565952,-370.102971,-9548.656652,-306.438199
776.566276,1406.391290,-9400.615463,0.000000
776.566601,1924.535449,-9474.636058,612.876398
776.566925,1554.432478,-9918.759623,459.657299
776.567249,592.164754,-10288.862594,0.000000
776.567573,-296.082377,-10584.944971,-459.657299
776.567897,-1480.411884,-10658.965565,-1225.752797
776.568221,-1480.411884,-10140.821405,-1915.238745
776.568545,-1554.432478,-9992.780217,-2145.067394
776.568869,-1406.391290,-10140.821405,-1915.238745
776.569193,-888.247130,-9918.759623,-1838.629195
776.569517,-222.061783,-9770.718434,-995.924147
776.569841,1184.329507,-9474.636058,-536.266849
776.570165,2294.638420,-9326.594869,0.000000
776.570489,3108.864956,-9548.656652,1072.533697
776.570813,2738.761985,-9548.656652,766.095498
776.571137,1480.411884,-10362.883188,229.828649
776.571462,518.144159,-9918.759623,383.047749
776.571786,-740.205942,-10436.903782,-229.828649
776.572110,-1776.494261,-10584.944971,-689.485948
776.572434,-2590.720797,-10288.862594,-766.095498
776.572758,-2590.720797,-10066.800811,-689.485948
776.573082,-2146.597232,-9622.677246,0.000000
776.573406,-518.144159,-9030.512492,459.657299
776.573730,592.164754,-8808.450710,842.705048
776.574054,1406.391290,-8956.491898,1302.362347
776.574378,1628.453072,-9178.553681,1378.971896
776.574702,1110.308913,-9474.636058,1225.752797
776.575026,518.144159,-9622.677246,995.924147
776.575350,370.102971,-9696.697840,766.095498
776.575674,-518.144159,-9474.636058,536.266849
776.575999,-666.185348,-9474.636058,306.438199
776.576323,-962.267725,-9548.656652,-995.924147
776.576647,-666.185348,-9400.615463,0.000000
776.576971,0.000000,-8882.471304,536.266849
776.577295,888.247130,-8438.347739,842.705048
776.577619,2072.576638,-8290.306550,1225.752797
776.577943,2072.576638,-8586.388927,1685.410096
776.578262,1776.494261,-9030.512492,1532.190996
776.578587,1184.329507,-9474.636058,1302.362347
776.578911,0.000000,-9474.636058,459.657299
776.579235,-666.185348,-9844.739029,459.657299
776.579559,-1554.432478,-9918.759623,0.000000
776.579884,-1850.514855,-9992.780217,-306.438199
776.580208,-1776.494261,-9918.759623,-306.438199
776.580532,-1110.308913,-9770.718434,689.485948
776.580856,-518.144159,-9400.615463,919.314598
776.581180,592.164754,-9104.533087,612.876398
776.581505,1036.288319,-9622.677246,689.485948
776.581829,518.144159,-9548.656652,612.876398
776.582153,0.000000,-10362.883188,76.609550
776.582477,-888.247130,-10288.862594,0.000000
776.582801,-1110.308913,-9770.718434,-536.266849
776.583126,-1184.329507,-10288.862594,-919.314598
776.583450,-1184.329507,-10214.842000,-766.095498
776.583774,-888.247130,-10066.800811,-1225.752797
776.584098,-296.082377,-9548.656652,-919.314598
776.584423,296.082377,-9696.697840,-459.657299
776.584747,1406.391290,-9474.636058,-229.828649
776.585071,2368.659014,-9252.574275,153.219100
776.585395,2960.823768,-9696.697840,306.438199
776.585719,1776.494261,-9548.656652,-153.219100
776.586044,962.267725,-10140.821405,-459.657299
776.586368,-444.123565,-10362.883188,-612.876398
776.586692,-1184.329507,-10140.821405,-1072.533697
776.587016,-1332.370696,-10362.883188,-1072.533697
776.587340,-1554.432478,-10362.883188,-1149.143247
776.587665,-1184.329507,-9992.780217,-612.876398
776.587989,-1110.308913,-9696.697840,-689.485948
776.588313,0.000000,-9030.512492,229.828649
776.588637,1628.453072,-9400.615463,383.047749
776.588962,2072.576638,-9400.615463,153.219100
776.589286,2072.576638,-9696.697840,306.438199
776.589610,962.267725,-10140.821405,306.438199
776.589934,222.061783,-10362.883188,76.609550
776.590258,-814.226536,-9918.759623,-995.924147
776.590583,-1702.473667,-9992.780217,-1532.190996
776.590907,-2072.576638,-9474.636058,-1532.190996
776.591231,-1924.535449,-9474.636058,-1915.238745
776.591555,-1258.350101,-9104.533087,-1455.581446
776.591879,148.041188,-8734.430116,-689.485948
776.592204,1332.370696,-8438.347739,-612.876398
776.592528,2368.659014,-8586.388927,76.609550
776.592852,2664.741391,-9474.636058,153.219100
776.593176,2072.576638,-9992.780217,689.485948
776.593501,1110.308913,-10288.862594,153.219100
776.593825,-222.061783,-10436.903782,-536.266849
776.594149,-1258.350101,-10140.821405,-689.485948
776.594473,-1924.535449,-10066.800811,-919.314598
776.594797,-2220.617826,-10214.842000,-1225.752797
776.595122,-2294.638420,-9918.759623,-1149.143247
776.595446,-1850.514855,-9622.677246,-612.876398
776.595770,-740.205942,-9252.574275,-995.924147
776.596094,370.102971,-9400.615463,0.000000
776.596418,1406.391290,-9474.636058,153.219100
776.596743,1406.391290,-9770.718434,766.095498
776.597067,1110.308913,-10510.924376,1149.143247
776.597391,444.123565,-10658.965565,383.047749
776.597715,222.061783,-10807.006753,-229.828649
776.598040,-148.041188,-10510.924376,-306.438199
776.598364,-1184.329507,-10362.883188,-612.876398
776.598688,-1184.329507,-10362.883188,-612.876398
776.599012,-444.123565,-9696.697840,-612.876398
776.599336,444.123565,-9326.594869,-153.219100
776.599661,1628.453072,-8956.491898,153.219100
776.599985,2516.700203,-8956.491898,1225.752797
776.600309,2294.638420,-8882.471304,919.314598
776.600633,1480.411884,-9104.533087,612.876398
776.600957,370.102971,-9844.739029,459.657299
776.601282,-444.123565,-9844.739029,229.828649
776.601606,-1332.370696,-10066.800811,229.828649
776.601930,-1702.473667,-9918.759623,536.266849
776.602254,-2146.597232,-9622.677246,536.266849
776.602579,-1776.494261,-9992.780217,1149.143247
776.602903,-1776.494261,-9326.594869,1072.533697
776.603227,-222.061783,-9178.553681,1302.362347
776.603551,444.123565,-8956.491898,1685.410096
776.603875,962.267725,-8882.471304,1915.238745
776.604200,962.267725,-9104.533087,1378.971896
776.604524,370.102971,-9252.574275,1225.752797
776.604848,-962.267725,-8956.491898,995.924147
776.605172,-1702.473667,-9400.615463,0.000000
776.605496,-1480.411884,-9474.636058,-612.876398
776.605821,-1850.514855,-9326.594869,-459.657299
776.606145,-2072.576638,-9178.553681,-536.266849
776.606469,-1332.370696,-8956.491898,-229.828649
776.606793,0.000000,-8660.409521,153.219100
776.607118,1702.473667,-8586.388927,766.095498
776.607442,2368.659014,-8290.306550,1149.143247
776.607766,2886.803174,-9326.594869,1608.800546
776.608090,2590.720797,-9844.739029,1225.752797
776.608414,1036.288319,-9696.697840,536.266849
776.608739,-148.041188,-9844.739029,-383.047749
776.609063,-1628.453072,-10362.883188,-842.705048
776.609387,-2442.679609,-10658.965565,-1455.581446
776.609711,-2590.720797,-10807.006753,-1762.019645
776.610035,-1554.432478,-10732.986159,-1608.800546
776.610360,-1184.329507,-9992.780217,-1225.752797
776.610684,222.061783,-9696.697840,-306.438199
776.611008,1702.473667,-9474.636058,229.828649
776.611332,2146.597232,-9696.697840,306.438199
776.611657,2294.638420,-10140.821405,306.438199
776.611981,1554.432478,-10658.965565,76.609550
776.612305,962.267725,-10807.006753,0.000000
776.612629,814.226536,-10584.944971,-766.095498
776.612953,0.000000,-10510.924376,-1225.752797
776.613278,-1258.350101,-9992.780217,-1685.410096
776.613602,-1184.329507,-10066.800811,-1991.848295
776.613926,-1036.288319,-9770.718434,-2068.457845
776.614250,148.041188,-9178.553681,-1608.800546
776.614574,1406.391290,-8586.388927,-1225.752797
776.614899,2146.597232,-8364.327145,-842.705048
776.615223,2886.803174,-8586.388927,-383.047749
776.615547,1998.556043,-9400.615463,-689.485948
776.615871,1110.308913,-9622.677246,-153.219100
776.616196,0.000000,-10214.842000,-459.657299
776.616520,-962.267725,-10288.862594,-536.266849
776.616844,-1480.411884,-10436.903782,-612.876398
776.617168,-1924.535449,-10288.862594,-689.485948
776.617492,-2146.597232,-9992.780217,-536.266849
776.617817,-1702.473667,-9474.636058,-153.219100
776.618141,-740.205942,-8956.491898,0.000000
776.618465,666.185348,-8882.471304,-306.438199
776.618789,814.226536,-8808.450710,0.000000
776.619113,222.061783,-9178.553681,-306.438199
776.619438,-222.061783,-9474.636058,-229.828649
776.619762,-1184.329507,-9622.677246,-612.876398
776.620086,-1480.411884,-9622.677246,-766.095498
776.620410,-1628.453072,-9474.636058,-612.876398
776.620735,-888.247130,-9474.636058,-536.266849
776.621059,-592.164754,-9696.697840,-383.047749
776.621383,-222.061783,-9474.636058,0.000000
776.621707,740.205942,-9400.615463,383.047749
776.622031,1850.514855,-8808.450710,919.314598
776.622356,2664.741391,-8660.409521,766.095498
776.622680,2516.700203,-9030.512492,229.828649
776.623004,1702.473667,-9696.697840,76.609550
776.623328,296.082377,-10066.800811,-229.828649
776.623653,-1036.288319,-10288.862594,-995.924147
776.623977,-1702.473667,-10362.883188,-1302.362347
776.624301,-2368.659014,-10510.924376,-1532.190996
776.624625,-2368.659014,-10436.903782,-919.314598
776.624949,-1406.391290,-10362.883188,-459.657299
776.625274,-518.144159,-10584.944971,306.438199
776.625598,518.144159,-10066.800811,995.924147
776.625922,1776.494261,-9548.656652,1455.581446
776.626246,2146.597232,-10066.800811,2068.457845
776.626570,2146.597232,-10288.862594,1685.410096
776.626895,1036.288319,-10362.883188,919.314598
776.627219,-518.144159,-10510.924376,306.438199
776.627543,-1554.432478,-10140.821405,-306.438199
776.627867,-1998.556043,-9844.739029,-842.705048
776.628192,-1554.432478,-9474.636058,-1225.752797
776.628516,-1998.556043,-9474.636058,-1532.190996
776.628840,-1406.391290,-9030.512492,-1225.752797
776.629164,0.000000,-8512.368333,-536.266849
776.629488,1628.453072,-8216.285956,76.609550
776.629813,2146.597232,-8290.306550,1455.581446
776.630137,2886.803174,-8956.491898,1762.019645
776.630461,2368.659014,-9400.615463,2145.067394
776.630785,1628.453072,-9992.780217,1378.971896
776.631109,296.082377,-10140.821405,1302.362347
776.631434,-1110.308913,-10214.842000,689.485948
776.631758,-2442.679609,-9918.759623,229.828649
776.632082,-2812.782580,-10140.821405,-766.095498
776.632406,-2886.803174,-9474.636058,76.609550
776.632731,-2368.659014,-9696.697840,0.000000
776.633055,-1628.453072,-9030.512492,0.000000
776.633379,-222.061783,-8660.409521,229.828649
776.633703,888.247130,-8882.471304,612.876398
776.634027,814.226536,-9252.574275,612.876398
776.634352,518.144159,-10288.862594,766.095498
776.634676,-666.185348,-9844.739029,842.705048
776.635000,-370.102971,-10436.903782,766.095498
776.635324,-518.144159,-10066.800811,383.047749
776.635648,-1110.308913,-10214.842000,229.828649
776.635973,-888.247130,-9844.739029,0.000000
776.636297,-148.041188,-9400.615463,229.828649
776.636621,666.185348,-9030.512492,612.876398
776.636945,1702.473667,-8882.471304,536.266849
776.637270,2442.679609,-8808.450710,612.876398
776.637594,2072.576638,-8882.471304,766.095498
776.637918,1850.514855,-9474.636058,459.657299
776.638242,444.123565,-9992.780217,-153.219100
776.638566,-592.164754,-10066.800811,-306.438199
776.638891,-814.226536,-10510.924376,-383.047749
776.639215,-1110.308913,-9992.780217,-306.438199
776.639539,-1110.308913,-10140.821405,-229.828649
776.639863,-1702.473667,-9548.656652,0.000000
776.640187,-370.102971,-10288.862594,689.485948
776.640512,518.144159,-9474.636058,536.266849
776.640836,1258.350101,-9104.533087,842.705048
776.641160,1406.391290,-9400.615463,995.924147
776.641484,962.267725,-9622.677246,383.047749
776.641809,0.000000,-10214.842000,-153.219100
776.642133,-444.123565,-10510.924376,-995.924147
776.642457,-1184.329507,-10510.924376,-1149.143247
776.642781,-1554.432478,-10066.800811,-1302.362347
776.643105,-1850.514855,-10288.862594,-1685.410096
776.643430,-1110.308913,-9770.718434,-1608.800546
776.643754,-444.123565,-9400.615463,-1225.752797
776.644078,370.102971,-9252.574275,-766.095498
776.644402,2960.823768,-9326.594869,0.000000
776.644726,3256.906145,-8808.450710,0.000000
776.645051,3256.906145,-9178.553681,153.219100
776.645375,1850.514855,-9770.718434,0.000000
776.645699,296.082377,-10436.903782,-383.047749
776.646023,-740.205942,-10510.924376,-536.266849
776.646348,-1776.494261,-10436.903782,-1378.971896
776.646672,-2516.700203,-9992.780217,-1532.190996
776.646996,-2590.720797,-9622.677246,-1225.752797
776.647320,-2960.823768,-9474.636058,-1378.971896
776.647644,-1480.411884,-9326.594869,-1072.533697
776.647969,-370.102971,-9252.574275,-612.876398
776.648293,1332.370696,-9474.636058,0.000000
776.648617,1776.494261,-9474.636058,153.219100
776.648941,1924.535449,-10066.800811,0.000000
776.649265,1258.350101,-10214.842000,-229.828649
776.649590,370.102971,-10436.903782,-1072.533697
776.649914,-296.082377,-10066.800811,-1149.143247
776.650238,-888.247130,-10140.821405,-1378.971896
776.650562,-1332.370696,-9992.780217,-1302.362347
776.650887,-1406.391290,-9844.739029,-1608.800546
776.651211,-1406.391290,-9474.636058,-1225.752797
776.651535,-296.082377,-8512.368333,-766.095498
776.651859,814.226536,-8512.368333,-612.876398
776.652183,2072.576638,-8364.327145,383.047749
776.652508,2072.576638,-8734.430116,229.828649
776.652832,1850.514855,-9400.615463,153.219100
776.653156,740.205942,-9992.780217,153.219100
776.653480,0.000000,-10066.800811,76.609550
776.653804,-666.185348,-10066.800811,0.000000
776.654129,-814.226536,-10436.903782,0.000000
776.654453,-1702.473667,-10288.862594,76.609550
776.654777,-1480.411884,-9918.759623,0.000000
776.655101,-740.205942,-9474.636058,383.047749
776.655426,0.000000,-9474.636058,536.266849
776.655750,740.205942,-9252.574275,919.314598
776.656074,1184.329507,-9474.636058,1149.143247
776.656398,1036.288319,-9474.636058,1225.752797
776.656722,444.123565,-9474.636058,1072.533697
776.657047,-666.185348,-9548.656652,306.438199
776.657371,-1332.370696,-9474.636058,0.000000
776.657695,-1554.432478,-9844.739029,229.828649
776.658019,-1184.329507,-10066.800811,153.219100
776.658343,-666.185348,-9548.656652,306.438199
776.658668,-222.061783,-8956.491898,229.828649
776.658992,518.144159,-8290.306550,919.314598
776.659316,2146.597232,-8586.388927,1378.971896
776.659640,2516.700203,-8216.285956,1455.581446
776.659965,2368.659014,-8882.471304,1225.752797
776.660289,1036.288319,-9474.636058,1072.533697
776.660613,-148.041188,-9696.697840,536.266849
776.660937,-962.267725,-9918.759623,459.657299
776.661261,-2072.576638,-9844.739029,0.000000
776.661586,-2072.576638,-10214.842000,-459.657299
776.661910,-2368.659014,-10066.800811,-383.047749
776.662234,-2294.638420,-9696.697840,-383.047749
776.662558,-1258.350101,-9622.677246,383.047749
776.662882,0.000000,-9474.636058,689.485948
776.663207,962.267725,-9474.636058,1072.533697
776.663531,1184.329507,-9326.594869,1685.410096
776.663855,1406.391290,-9474.636058,842.705048
776.664179,444.123565,-9918.759623,0.000000
776.664504,-518.144159,-10140.821405,76.609550
776.664828,-888.247130,-10584.944971,-612.876398
776.665152,-1332.370696,-10584.944971,-995.924147
776.665476,-1776.494261,-10214.842000,-842.705048
776.665800,-1702.473667,-9844.739029,-919.314598
776.666125,-962.267725,-9400.615463,-919.314598
776.666449,370.102971,-9030.512492,-306.438199
776.666773,1406.391290,-8956.491898,-689.485948
776.667097,2442.679609,-9030.512492,383.047749
776.667421,2664.741391,-9400.615463,229.828649
776.667746,2442.679609,-9622.677246,0.000000
776.668070,1184.329507,-10066.800811,-306.438199
776.668394,-148.041188,-10066.800811,-1225.752797
776.668718,-592.164754,-10288.862594,-842.705048
776.669043,-1480.411884,-10658.965565,-1685.410096
776.669367,-1258.350101,-10732.986159,-1378.971896
776.669691,-1850.514855,-10066.800811,-1225.752797
776.670015,-1332.370696,-9622.677246,-842.705048
776.670339,74.020594,-9400.615463,-536.266849
776.670664,1554.432478,-9252.574275,153.219100
776.670988,1924.535449,-8956.491898,229.828649
776.671312,814.226536,-9548.656652,229.828649
776.671636,666.185348,-9696.697840,0.000000
776.671960,-74.020594,-9696.697840,-229.828649
776.672285,-370.102971,-10214.842000,-766.095498
776.672609,-666.185348,-10510.924376,-995.924147
776.672933,-1036.288319,-10510.924376,-1149.143247
776.673257,-1332.370696,-9844.739029,-1149.143247
776.673582,-370.102971,-9104.533087,-919.314598
776.673906,814.226536,-8586.388927,-612.876398
776.674230,1776.494261,-8956.491898,0.000000
776.674554,2368.659014,-8734.430116,383.047749
776.674878,2368.659014,-9030.512492,612.876398
776.675203,1480.411884,-9548.656652,459.657299
776.675527,0.000000,-9918.759623,153.219100
776.675851,-1110.308913,-9770.718434,383.047749
776.676175,-1332.370696,-10214.842000,306.438199
776.676499,-2294.638420,-9992.780217,-383.047749
776.676824,-2368.659014,-9844.739029,-383.047749
776.677148,-2220.617826,-10140.821405,0.000000
776.677472,-1110.308913,-9844.739029,306.438199
776.677796,-148.041188,-9104.533087,536.266849
776.678121,592.164754,-8956.491898,919.314598
776.678445,1110.308913,-9326.594869,536.266849
776.678769,444.123565,-9622.677246,689.485948
776.679093,-370.102971,-9770.718434,153.219100
776.679417,-1258.350101,-10288.862594,0.000000
776.679742,-1702.473667,-10584.944971,-383.047749
776.680066,-1850.514855,-10510.924376,-459.657299
776.680390,-1628.453072,-10066.800811,-229.828649
776.680714,-1258.350101,-9844.739029,-229.828649
776.681039,0.000000,-9622.677246,689.485948
776.681363,962.267725,-9104.533087,766.095498
776.681687,2590.720797,-8734.430116,995.924147
776.682011,3256.906145,-8808.450710,1838.629195
776.682336,2960.823768,-9400.615463,1302.362347
776.682660,1850.514855,-9622.677246,766.095498
776.682984,592.164754,-9696.697840,0.000000
776.683308,-888.247130,-9474.636058,-689.485948
776.683633,-1332.370696,-10362.883188,-995.924147
776.683957,-2294.638420,-9622.677246,-842.705048
776.684281,-2442.679609,-9696.697840,-919.314598
776.684605,-2220.617826,-9474.636058,-766.095498
776.684930,-1110.308913,-8882.471304,-306.438199
776.685254,666.185348,-8882.471304,612.876398
776.685578,1924.535449,-8956.491898,1149.143247
776.685902,2738.761985,-9326.594869,1838.629195
776.686227,2072.576638,-9548.656652,1378.971896
776.686551,1258.350101,-10288.862594,766.095498
776.686875,0.000000,-10288.862594,153.219100
776.687199,-666.185348,-10214.842000,-383.047749
776.687524,-1332.370696,-10436.903782,-1225.752797
776.687848,-1480.411884,-10140.821405,-1302.362347
776.688172,-1480.411884,-9696.697840,-1378.971896
776.688496,-666.185348,-9104.533087,-1532.190996
776.688821,888.247130,-8734.430116,-1072.533697
776.689145,1998.556043,-8660.409521,-459.657299
776.689469,2442.679609,-8882.471304,-306.438199
776.689793,2146.597232,-9030.512492,76.609550
776.690118,1628.453072,-9918.759623,153.219100
776.690442,592.164754,-10510.924376,0.000000
776.690766,-148.041188,-10732.986159,0.000000
776.691090,-1110.308913,-10658.965565,-153.219100
776.691415,-2072.576638,-10288.862594,-919.314598
776.691739,-2220.617826,-10436.903782,-919.314598
776.692063,-1702.473667,-10288.862594,-766.095498
776.692387,-666.185348,-9622.677246,-536.266849
776.692712,74.020594,-9252.574275,0.000000
776.693036,1110.308913,-9474.636058,0.000000
776.693360,1036.288319,-9622.677246,0.000000
776.693684,592.164754,-9770.718434,-536.266849
776.694009,-222.061783,-10214.842000,-612.876398
776.694333,-592.164754,-10732.986159,-919.314598
776.694657,-1332.370696,-10658.965565,-919.314598
776.694981,-1258.350101,-10807.006753,-995.924147
776.695306,-1332.370696,-10510.924376,-766.095498
776.695630,-1110.308913,-10288.862594,-383.047749
776.695954,-296.082377,-9696.697840,76.609550
776.696278,962.267725,-9474.636058,536.266849
776.696603,2442.679609,-8956.491898,1149.143247
776.696927,2368.659014,-8956.491898,459.657299
776.697251,1850.514855,-9104.533087,459.657299
776.697575,888.247130,-9548.656652,153.219100
776.697899,0.000000,-9770.718434,-459.657299
776.698224,-666.185348,-9696.697840,-842.705048
776.698548,-1258.350101,-9918.759623,-1072.533697
776.698872,-1554.432478,-10066.800811,-919.314598
776.699196,-1628.453072,-10066.800811,-995.924147
776.699521,-1110.308913,-9474.636058,153.219100
776.699845,-222.061783,-9104.533087,536.266849
776.700169,1332.370696,-9252.574275,1072.533697
776.700493,1998.556043,-8956.491898,2068.457845
776.700818,2072.576638,-8882.471304,2374.896044
776.701142,1776.494261,-9474.636058,1685.410096
776.701466,814.226536,-9770.718434,1225.752797
776.701790,-888.247130,-9622.677246,306.438199
776.702115,-1480.411884,-9770.718434,-229.828649
776.702439,-1776.494261,-9770.718434,-612.876398
776.702763,-1924.535449,-10066.800811,-1072.533697
776.703087,-1628.453072,-9696.697840,-1149.143247
776.703412,0.000000,-9252.574275,-919.314598
776.703736,888.247130,-8734.430116,383.047749
776.704060,2220.617826,-8142.265362,766.095498
776.704384,3034.844362,-9104.533087,766.095498
776.704709,2738.761985,-9474.636058,995.924147
776.705033,1776.494261,-9992.780217,1302.362347
776.705357,592.164754,-10214.842000,1225.752797
776.705681,-814.226536,-9992.780217,229.828649
776.706006,-1998.556043,-9992.780217,-383.047749
776.706330,-2664.741391,-10214.842000,-229.828649
776.706654,-2886.803174,-10288.862594,-689.485948
776.706978,-2368.659014,-9918.759623,-995.924147
776.707303,-1924.535449,-9696.697840,-383.047749
776.707627,-962.267725,-9400.615463,-153.219100
776.707951,296.082377,-9622.677246,0.000000
776.708275,962.267725,-9696.697840,0.000000
776.708600,666.185348,-10510.924376,-229.828649
776.708924,148.041188,-10955.047942,0.000000
776.709248,0.000000,-10510.924376,0.000000
776.709572,-592.164754,-10584.944971,-76.609550
776.709897,-962.267725,-10510.924376,-536.266849
776.710221,-1184.329507,-10584.944971,-536.266849
776.710545,-962.267725,-9918.759623,153.219100
776.710869,-444.123565,-9474.636058,76.609550
776.711194,962.267725,-9326.594869,0.000000
776.711518,1628.453072,-8364.327145,0.000000
776.711842,1850.514855,-8808.450710,383.047749
776.712166,1554.432478,-9104.533087,76.609550
776.712491,1036.288319,-9178.553681,-229.828649
776.712815,0.000000,-9030.512492,-612.876398
776.713139,-444.123565,-9844.739029,-1072.533697
776.713463,-592.164754,-9548.656652,-612.876398
776.713788,-962.267725,-10066.800811,-919.314598
776.714112,-1406.391290,-9474.636058,-919.314598
776.714436,-1258.350101,-9474.636058,-229.828649
776.714760,-444.123565,-9400.615463,536.266849
776.715085,962.267725,-9178.553681,995.924147
776.715409,2368.659014,-9622.677246,1455.581446
776.715733,1998.556043,-9326.594869,1302.362347
776.716057,1258.350101,-9252.574275,1072.533697
776.716381,0.000000,-9844.739029,229.828649
776.716706,-1036.288319,-10066.800811,-536.266849
776.717030,-1332.370696,-9992.780217,-1225.752797
776.717354,-1998.556043,-9844.739029,-1302.362347
776.717678,-1850.514855,-9622.677246,-1378.971896
776.718003,-1036.288319,-9474.636058,-1532.190996
776.718327,74.020594,-9474.636058,-919.314598
776.718651,1036.288319,-8882.471304,-229.828649
776.718975,2960.823768,-9030.512492,919.314598
776.719300,3627.009116,-9104.533087,1072.533697
776.719624,3256.906145,-9474.636058,1072.533697
776.719948,1628.453072,-10066.800811,612.876398
776.720272,-296.082377,-10436.903782,229.828649
776.720597,-1258.350101,-10584.944971,-383.047749
776.720921,-2442.679609,-10288.862594,-995.924147
776.721245,-2664.741391,-10362.883188,-1455.581446
776.721569,-2516.700203,-10362.883188,-1225.752797
776.721894,-2220.617826,-10288.862594,-766.095498
776.722218,-1036.288319,-10066.800811,-536.266849
776.722542,74.020594,-9548.656652,0.000000
776.722866,814.226536,-9178.553681,842.705048
776.723191,1406.391290,-9918.759623,1149.143247
776.723515,888.247130,-10510.924376,766.095498
776.723839,222.061783,-10584.944971,383.047749
776.724163,-740.205942,-10658.965565,0.000000
776.724488,-1480.411884,-10510.924376,-536.266849
776.724812,-1702.473667,-10436.903782,-842.705048
776.725136,-2146.597232,-9770.718434,-612.876398
776.725460,-1258.350101,-9474.636058,-842.705048
776.725785,-444.123565,-8808.450710,-995.924147
776.726109,592.164754,-8068.244768,-229.828649
776.726433,1850.514855,-7920.203579,76.609550
776.726757,2368.659014,-8290.306550,383.047749
776.727082,2368.659014,-9030.512492,229.828649
776.727406,1850.514855,-9474.636058,229.828649
776.727730,1258.350101,-9548.656652,0.000000
776.728054,296.082377,-10140.821405,-459.657299
776.728379,-444.123565,-9474.636058,-459.657299
776.728703,-1036.288319,-9770.718434,-306.438199
776.729027,-1776.494261,-9844.739029,-459.657299
776.729351,-1258.350101,-9622.677246,0.000000
776.729676,-592.164754,-8956.491898,153.219100
776.730000,74.020594,-8808.450710,459.657299
776.730324,1480.411884,-8956.491898,612.876398
776.730648,1110.308913,-9178.553681,766.095498
776.730973,222.061783,-9622.677246,153.219100
776.731297,-592.164754,-9844.739029,0.000000
776.731621,-962.267725,-9992.780217,-383.047749
776.731945,-1110.308913,-10140.821405,-689.485948
776.732270,-1184.329507,-10288.862594,-689.485948
776.732594,-1036.288319,-9918.759623,-842.705048
776.732918,74.020594,-9844.739029,-229.828649
776.733242,370.102971,-9326.594869,0.000000
776.733567,1850.514855,-9474.636058,383.047749
776.733891,2590.720797,-9104.533087,842.705048
776.734215,2812.782580,-9178.553681,842.705048
776.734539,2146.597232,-9622.677246,536.266849
776.734863,592.164754,-9696.697840,229.828649
776.735188,-666.185348,-10140.821405,-383.047749
776.735512,-1850.514855,-10140.821405,-612.876398
776.735836,-2442.679609,-10214.842000,-995.924147
776.736160,-3182.885551,-10288.862594,-995.924147
776.736485,-3034.844362,-10214.842000,-919.314598
776.736809,-2442.679609,-10066.800811,-459.657299
776.737133,-1258.350101,-9918.759623,153.219100
776.737457,222.061783,-9696.697840,766.095498
776.737782,1480.411884,-9918.759623,1225.752797
776.738106,1702.473667,-9992.780217,1149.143247
776.738430,1036.288319,-9770.718434,612.876398
776.738754,148.041188,-10214.842000,766.095498
776.739079,-1036.288319,-10510.924376,153.219100
776.739403,-1702.473667,-10658.965565,-689.485948
776.739727,-2072.576638,-10066.800811,-842.705048
776.740051,-1998.556043,-9474.636058,-995.924147
776.740376,-1480.411884,-9104.533087,-919.314598
776.740700,-444.123565,-8660.409521,-306.438199
776.741024,1036.288319,-8216.285956,229.828649
776.741348,2294.638420,-8216.285956,842.705048
776.741673,3330.926739,-8290.306550,1302.362347
776.741997,3256.906145,-9030.512492,1378.971896
776.742321,1850.514855,-9178.553681,842.705048
776.742645,740.205942,-9548.656652,612.876398
776.742970,0.000000,-9844.739029,0.000000
776.743294,-962.267725,-9844.739029,153.219100
776.743618,-1406.391290,-9696.697840,0.000000
776.743942,-1480.411884,-9474.636058,-766.095498
776.744267,-1480.411884,-9030.512492,0.000000
776.744591,-370.102971,-8438.347739,-459.657299
776.744915,222.061783,-8734.430116,76.609550
776.745239,1184.329507,-9030.512492,459.657299
776.745564,1258.350101,-9252.574275,536.266849
776.745888,814.226536,-9918.759623,306.438199
776.746212,222.061783,-9992.780217,0.000000
776.746536,-444.123565,-10510.924376,-229.828649
776.746861,-1184.329507,-10066.800811,-536.266849
776.747185,-1332.370696,-10066.800811,-1072.533697
776.747509,-1480.411884,-10510.924376,-1225.752797
776.747833,-740.205942,-10066.800811,-1072.533697
776.748158,222.061783,-9474.636058,-536.266849
776.748482,1258.350101,-9030.512492,-536.266849
776.748806,2146.597232,-9030.512492,0.000000
776.749130,2590.720797,-9326.594869,76.609550
776.749455,1850.514855,-9474.636058,459.657299
776.749779,518.144159,-10214.842000,-689.485948
776.750103,-592.164754,-10658.965565,-842.705048
776.750427,-1554.432478,-10658.965565,-1225.752797
776.750752,-1998.556043,-10436.903782,-1455.581446
776.751076,-2368.659014,-10436.903782,-1378.971896
776.751400,-1850.514855,-10732.986159,-1072.533697
776.751724,-1554.432478,-10510.924376,-842.705048
776.752049,-222.061783,-9696.697840,153.219100
776.752373,592.164754,-9622.677246,536.266849
776.752697,1332.370696,-9918.759623,459.657299
776.753021,1258.350101,-10140.821405,459.657299
776.753345,592.164754,-10584.944971,459.657299
776.753670,-222.061783,-10807.006753,0.000000
776.753994,-888.247130,-10510.924376,-1225.752797
776.754318,-1332.370696,-10362.883188,-689.485948
776.754642,-1998.556043,-10066.800811,-1072.533697
776.754967,-1480.411884,-9770.718434,-1225.752797
776.755291,-1036.288319,-9474.636058,-842.705048
776.755615,0.000000,-9104.533087,-383.047749
776.755939,1628.453072,-8216.285956,383.047749
776.756264,3256.906145,-8142.265362,1302.362347
776.756588,3478.967927,-8586.388927,1608.800546
776.756912,2738.761985,-9104.533087,1072.533697
776.757236,1332.370696,-9252.574275,536.266849
776.757561,0.000000,-9474.636058,153.219100
776.757885,-740.205942,-9474.636058,-306.438199
776.758209,-1184.329507,-9474.636058,76.609550
776.758533,-1850.514855,-9474.636058,0.000000
776.758858,-1776.494261,-9326.594869,-383.047749
776.759182,-1110.308913,-8956.491898,229.828649
776.759506,-222.061783,-8956.491898,612.876398
776.759830,666.185348,-8808.450710,995.924147
776.760155,1554.432478,-8808.450710,1378.971896
776.760479,1776.494261,-9326.594869,1532.190996
776.760803,1332.370696,-9400.615463,1149.143247
776.761127,444.123565,-10066.800811,612.876398
776.761452,-814.226536,-10362.883188,76.609550
776.761776,-1406.391290,-10214.842000,-306.438199
776.762100,-1554.432478,-10362.883188,-689.485948
776.762424,-1554.432478,-10140.821405,-766.095498
776.762749,-1258.350101,-9696.697840,-842.705048
776.763073,-370.102971,-9030.512492,-536.266849
776.763397,888.247130,-8808.450710,459.657299
776.763721,1924.535449,-8512.368333,306.438199
776.764046,2590.720797,-9030.512492,383.047749
776.764370,2368.659014,-9770.718434,1072.533697
776.764694,1332.370696,-10066.800811,612.876398
776.765018,0.000000,-10436.903782,153.219100
776.765343,-740.205942,-10658.965565,-229.828649
776.765667,-1628.453072,-10584.944971,-229.828649
776.765991,-2368.659014,-10732.986159,-919.314598
776.766315,-2368.659014,-10510.924376,-383.047749
776.766640,-1554.432478,-10066.800811,-689.485948
776.766964,-370.102971,-9548.656652,-536.266849
776.767288,666.185348,-9326.594869,-153.219100
776.767612,1332.370696,-9178.553681,0.000000
776.767937,1258.350101,-9474.636058,383.047749
776.768261,666.185348,-9844.739029,76.609550
776.768585,0.000000,-10214.842000,-383.047749
776.768909,-888.247130,-10288.862594,-612.876398
776.769234,-1554.432478,-10362.883188,-1072.533697
776.769558,-1258.350101,-10288.862594,-919.314598
776.769882,-1036.288319,-10436.903782,-766.095498
776.770206,-370.102971,-10066.800811,-766.095498
776.770531,888.247130,-9326.594869,0.000000
776.770855,1702.473667,-8660.409521,0.000000
776.771179,2368.659014,-8512.368333,612.876398
776.771503,2664.741391,-8882.471304,306.438199
776.771827,1258.350101,-9178.553681,-383.047749
776.772152,0.000000,-9474.636058,-766.095498
776.772476,-814.226536,-9548.656652,-1302.362347
776.772800,-1406.391290,-9844.739029,-1149.143247
776.773124,-1850.514855,-10066.800811,-1149.143247
776.773449,-2368.659014,-10140.821405,-1302.362347
776.773773,-2220.617826,-10140.821405,0.000000
776.774097,-1702.473667,-9474.636058,-229.828649
776.774421,0.000000,-9326.594869,536.266849
776.774746,1554.432478,-9474.636058,1225.752797
776.775070,2368.659014,-9770.718434,1685.410096
776.775394,2294.638420,-9178.553681,1685.410096
776.775718,1258.350101,-9548.656652,1072.533697
776.776043,-296.082377,-9696.697840,229.828649
776.776367,-1480.411884,-9548.656652,-536.266849
776.776691,-1924.535449,-9770.718434,-1532.190996
776.777015,-2294.638420,-9770.718434,-1838.629195
776.777340,-2146.597232,-9696.697840,-1455.581446
776.777664,-1702.473667,-9400.615463,-459.657299
776.777988,-222.061783,-8882.471304,229.828649
776.778312,1702.473667,-8808.450710,229.828649
776.778637,2812.782580,-8882.471304,1149.143247
776.778961,3552.988522,-9104.533087,1608.800546
776.779285,3034.844362,-9548.656652,2068.457845
776.779609,1924.535449,-10362.883188,1608.800546
776.779933,148.041188,-10362.883188,995.924147
776.780257,-1184.329507,-10584.944971,153.219100
776.780581,-2368.659014,-10658.965565,0.000000
776.780905,-2886.803174,-10584.944971,-766.095498
776.781230,-2664.741391,-10436.903782,-612.876398
776.781554,-2368.659014,-9696.697840,-229.828649
776.781878,-1480.411884,-9252.574275,76.609550
776.782202,-222.061783,-9178.553681,229.828649
776.782526,962.267725,-9252.574275,536.266849
776.782850,1258.350101,-9104.533087,1149.143247
776.783174,888.247130,-9696.697840,1072.533697
776.783498,888.247130,-10066.800811,995.924147
776.783822,444.123565,-10066.800811,229.828649
776.784146,-370.102971,-9474.636058,306.438199
776.784471,-666.185348,-10066.800811,-153.219100
776.784795,-1480.411884,-10214.842000,-76.609550
776.785119,-1036.288319,-9844.739029,-229.828649
776.785443,-148.041188,-9104.533087,0.000000
776.785767,814.226536,-8660.409521,0.000000
776.786091,1924.535449,-8290.306550,0.000000
776.786415,2220.617826,-8216.285956,459.657299
776.786739,1628.453072,-8660.409521,76.609550
776.787063,592.164754,-8956.491898,0.000000
776.787387,-222.061783,-9696.697840,-536.266849
776.787712,-962.267725,-9770.718434,-919.314598
776.788036,-1480.411884,-9918.759623,-612.876398
776.788360,-1702.473667,-10584.944971,-459.657299
776.788684,-1628.453072,-10436.903782,-306.438199
776.789008,-444.123565,-9844.739029,229.828649
776.789332,296.082377,-9770.718434,153.219100
776.789656,1036.288319,-9622.677246,919.314598
776.789980,1258.350101,-9474.636058,689.485948
776.790304,814.226536,-9622.677246,306.438199
776.790628,148.041188,-9844.739029,383.047749
776.790953,-740.205942,-9844.739029,-306.438199
776.791277,-1480.411884,-9622.677246,-1072.533697
776.791601,-1998.556043,-9474.636058,-1608.800546
776.791925,-1924.535449,-9918.759623,-1915.238745
776.792249,-1480.411884,-10214.842000,-1685.410096
776.792573,-666.185348,-10140.821405,-1149.143247
776.792897,592.164754,-9918.759623,-459.657299
776.793221,1998.556043,-9474.636058,0.000000
776.793545,3256.906145,-9400.615463,689.485948
776.793869,3330.926739,-9326.594869,1072.533697
776.794194,3404.947333,-10140.821405,612.876398
776.794518,1776.494261,-10288.862594,536.266849
776.794842,222.061783,-10140.821405,153.219100
776.795166,-1406.391290,-9992.780217,-919.314598
776.795490,-2368.659014,-9844.739029,-1378.971896
776.795814,-3108.864956,-9844.739029,-1378.971896
776.796138,-2442.679609,-10955.047942,-1378.971896
776.796462,-1628.453072,-10288.862594,-612.876398
776.796786,-1036.288319,-9252.574275,76.609550
776.797110,222.061783,-9104.533087,383.047749
776.797434,1702.473667,-9326.594869,612.876398
776.797759,2146.597232,-9696.697840,1072.533697
776.798083,1628.453072,-9844.739029,1532.190996
776.798407,666.185348,-9770.718434,919.314598
776.798731,296.082377,-9770.718434,229.828649
776.799055,-814.226536,-9696.697840,-1302.362347
776.799379,-1258.350101,-9844.739029,-766.095498
776.799703,-1406.391290,-9844.739029,-1072.533697
776.800027,-1110.308913,-9474.636058,-919.314598
776.800351,-666.185348,-8882.471304,-459.657299
776.800675,518.144159,-8956.491898,-306.438199
776.801000,1776.494261,-8512.368333,306.438199
776.801324,2516.700203,-9104.533087,0.000000
776.801648,2294.638420,-9178.553681,153.219100
776.801972,1406.391290,-9770.718434,612.876398
776.802296,222.061783,-10140.821405,76.609550
776.802620,-370.102971,-10066.800811,0.000000
776.802944,-1036.288319,-10214.842000,-383.047749
776.803268,-1554.432478,-10362.883188,-995.924147
776.803592,-1406.391290,-10584.944971,-612.876398
776.803916,-1406.391290,-10066.800811,-459.657299
776.804241,-370.102971,-9548.656652,0.000000
776.804565,592.164754,-9548.656652,229.828649
776.804889,1110.308913,-9696.697840,76.609550
776.805213,814.226536,-9844.739029,383.047749
776.805537,666.185348,-10214.842000,-153.219100
776.805861,-296.082377,-9992.780217,-229.828649
776.806185,-1036.288319,-10288.862594,-689.485948
776.806509,-888.247130,-10066.800811,-766.095498
776.806833,-1184.329507,-10066.800811,-766.095498
776.807157,-1036.288319,-9918.759623,-689.485948
776.807482,-370.102971,-9844.739029,-612.876398
776.807806,666.185348,-9474.636058,306.438199
776.808130,2072.576638,-8734.430116,766.095498
776.808454,3034.844362,-8808.450710,536.266849
776.808778,3108.864956,-8956.491898,1149.143247
776.809102,1628.453072,-9622.677246,766.095498
776.809426,296.082377,-10140.821405,153.219100
776.809750,-1110.308913,-9992.780217,-612.876398
776.810074,-2072.576638,-9918.759623,-689.485948
776.810398,-2516.700203,-9918.759623,-612.876398
776.810723,-2590.720797,-9844.739029,76.609550
776.811047,-2220.617826,-9696.697840,-153.219100
776.811371,-1258.350101,-9474.636058,536.266849
776.811695,296.082377,-9178.553681,1149.143247
776.812019,1628.453072,-9252.574275,1532.190996
776.812343,2368.659014,-9400.615463,2374.896044
776.812667,1924.535449,-9474.636058,2374.896044
776.812991,888.247130,-9992.780217,1762.019645
776.813315,-1110.308913,-9622.677246,1225.752797
776.813639,-1554.432478,-9474.636058,153.219100
776.813963,-1998.556043,-9104.533087,-459.657299
776.814288,-1924.535449,-9474.636058,-919.314598
776.814612,-1776.494261,-9252.574275,-842.705048
776.814936,-1258.350101,-8882.471304,-612.876398
776.815260,0.000000,-8438.347739,-229.828649
776.815584,962.267725,-8142.265362,306.438199
776.815908,2664.741391,-9030.512492,995.924147
776.816232,3108.864956,-9178.553681,919.314598
776.816556,2516.700203,-9770.718434,1149.143247
776.816880,1406.391290,-10066.800811,842.705048
776.817204,0.000000,-10584.944971,153.219100
776.817529,-962.267725,-10510.924376,-153.219100
776.817853,-1702.473667,-10436.903782,-536.266849
776.818177,-2368.659014,-10288.862594,-612.876398
776.818501,-2664.741391,-9844.739029,-1072.533697
776.818825,-2442.679609,-10066.800811,-995.924147
776.819149,-1110.308913,-9918.759623,-842.705048
776.819473,296.082377,-9474.636058,-383.047749
776.819797,1110.308913,-9548.656652,0.000000
776.820121,1110.308913,-9770.718434,0.000000
776.820445,444.123565,-10214.842000,-383.047749
776.820770,-148.041188,-10658.965565,-153.219100
776.821094,-370.102971,-10732.986159,-1072.533697
776.821418,-444.123565,-10732.986159,-1225.752797
776.821742,-740.205942,-10510.924376,-1149.143247
776.822066,-296.082377,-10436.903782,-1149.143247
776.822390,74.020594,-10066.800811,-995.924147
776.822714,1036.288319,-9696.697840,-689.485948
776.823038,1850.514855,-9252.574275,-229.828649
776.823362,2368.659014,-8512.368333,0.000000
776.823686,2738.761985,-9030.512492,229.828649
776.824011,1924.535449,-9104.533087,-229.828649
776.824335,518.144159,-9696.697840,-383.047749
776.824659,-592.164754,-9770.718434,-1225.752797
776.824983,-1332.370696,-9770.718434,-995.924147
776.825307,-1850.514855,-9918.759623,-1378.971896
776.825631,-2220.617826,-9696.697840,-766.095498
776.825955,-1850.514855,-9474.636058,-536.266849
776.826279,-814.226536,-9474.636058,153.219100
776.826603,370.102971,-9326.594869,459.657299
776.826927,1406.391290,-9252.574275,1149.143247
776.827252,2220.617826,-9104.533087,1532.190996
776.827576,1850.514855,-9400.615463,1302.362347
776.827900,814.226536,-9770.718434,1072.533697
776.828224,-518.144159,-9770.718434,153.219100
776.828548,-1480.411884,-9992.780217,-766.095498
776.828872,-2220.617826,-9770.718434,-995.924147
776.829196,-2146.597232,-9474.636058,-689.485948
776.829520,-2220.617826,-9178.553681,-1072.533697
776.829844,-1480.411884,-8956.491898,-306.438199
776.830168,148.041188,-8586.388927,153.219100
776.830492,1406.391290,-8586.388927,995.924147
776.830817,2738.761985,-8586.388927,1455.581446
776.831141,2368.659014,-9178.553681,1455.581446
776.831465,1258.350101,-9326.594869,1225.752797
776.831789,444.123565,-9770.718434,995.924147
776.832113,-962.267725,-9992.780217,229.828649
776.832437,-1924.535449,-10140.821405,-229.828649
776.832761,-2220.617826,-10214.842000,-383.047749
776.833085,-2886.803174,-10066.800811,-842.705048
776.833409,-2368.659014,-9770.718434,-842.705048
776.833733,-1850.514855,-9918.759623,-689.485948
776.834058,-222.061783,-9474.636058,0.000000
776.834382,1036.288319,-9622.677246,689.485948
776.834706,1702.473667,-9770.718434,995.924147
776.835030,1702.473667,-10288.862594,919.314598
776.835354,814.226536,-10732.986159,459.657299
776.835678,370.102971,-10881.027347,459.657299
776.836002,0.000000,-10510.924376,459.657299
776.836326,-740.205942,-10140.821405,0.000000
776.836650,-1332.370696,-10436.903782,-995.924147
776.836974,-1036.288319,-10140.821405,-995.924147
776.837299,-444.123565,-9548.656652,-766.095498
776.837623,666.185348,-9252.574275,-612.876398
776.837947,1332.370696,-8956.491898,-689.485948
776.838271,2368.659014,-8216.285956,612.876398
776.838595,2516.700203,-9030.512492,229.828649
776.838919,2442.679609,-10140.821405,383.047749
776.839243,1406.391290,-10288.862594,0.000000
776.839567,0.000000,-10288.862594,-383.047749
776.839891,-740.205942,-10066.800811,-229.828649
776.840215,-1110.308913,-9548.656652,-842.705048
776.840540,-1776.494261,-9622.677246,-995.924147
776.840864,-1184.329507,-9992.780217,-153.219100
776.841188,-1036.288319,-9622.677246,-306.438199
776.841512,0.000000,-9252.574275,0.000000
776.841836,666.185348,-8882.471304,229.828649
776.842160,1036.288319,-9030.512492,536.266849
776.842484,666.185348,-9474.636058,306.438199
776.842808,296.082377,-9918.759623,536.266849
776.843132,-888.247130,-9474.636058,153.219100
776.843456,-962.267725,-10066.800811,-919.314598
776.843781,-1480.411884,-9696.697840,-689.485948
776.844105,-1702.473667,-9770.718434,-536.266849
776.844429,-1332.370696,-9474.636058,-689.485948
776.844753,-962.267725,-9400.615463,-383.047749
776.845077,74.020594,-8882.471304,-229.828649
776.845401,1406.391290,-8438.347739,306.438199
776.845725,2368.659014,-8068.244768,689.485948
776.846049,2294.638420,-9030.512492,383.047749
776.846373,1850.514855,-9548.656652,612.876398
776.846697,222.061783,-9770.718434,306.438199
776.847022,-1184.329507,-9770.718434,0.000000
776.847346,-2294.638420,-9844.739029,-919.314598
776.847670,-2516.700203,-9622.677246,-689.485948
776.847994,-2368.659014,-9844.739029,-1149.143247
776.848318,-1702.473667,-9770.718434,-229.828649
776.848642,-1036.288319,-9622.677246,-229.828649
776.848966,0.000000,-9548.656652,536.266849
776.849290,1258.350101,-9474.636058,919.314598
776.849614,1998.556043,-9844.739029,1225.752797
776.849938,1702.473667,-10436.903782,1072.533697
776.850262,962.267725,-10732.986159,229.828649
776.850587,0.000000,-10362.883188,76.609550
776.850911,-444.123565,-10066.800811,-919.314598
776.851235,-1406.391290,-10510.924376,-919.314598
776.851559,-1258.350101,-10807.006753,-1225.752797
776.851883,-1332.370696,-10288.862594,-1302.362347
776.852207,-814.226536,-9696.697840,-842.705048
776.852531,296.082377,-9400.615463,-536.266849
776.852855,1702.473667,-9252.574275,536.266849
776.853179,2738.761985,-9474.636058,536.266849
776.853503,2886.803174,-9474.636058,842.705048
776.853828,2294.638420,-9844.739029,536.266849
776.854152,962.267725,-10140.821405,229.828649
776.854476,-296.082377,-10288.862594,0.000000
776.854800,-1258.350101,-10140.821405,-306.438199
776.855124,-1850.514855,-9622.677246,-383.047749
776.855448,-2072.576638,-9696.697840,-1149.143247
776.855772,-1702.473667,-9770.718434,-1302.362347
776.856096,-1258.350101,-9474.636058,-383.047749
776.856420,-222.061783,-9178.553681,0.000000
776.856744,740.205942,-8956.491898,306.438199
776.857069,1702.473667,-9252.574275,612.876398
776.857393,1628.453072,-9696.697840,919.314598
776.857717,222.061783,-9992.780217,842.705048
776.858041,-444.123565,-10436.903782,153.219100
776.858365,-1036.288319,-9992.780217,0.000000
776.858689,-1110.308913,-10140.821405,-536.266849
776.859013,-1110.308913,-9918.759623,-306.438199
776.859337,-1036.288319,-9474.636058,-459.657299
776.859661,-592.164754,-9104.533087,-383.047749
776.859985,148.041188,-8956.491898,76.609550
776.860310,666.185348,-8586.388927,306.438199
776.860634,1776.494261,-8586.388927,995.924147
776.860958,1998.556043,-9030.512492,612.876398
776.861282,1332.370696,-9400.615463,689.485948
776.861606,0.000000,-9770.718434,153.219100
776.861930,-1184.329507,-10140.821405,0.000000
776.862254,-1924.535449,-9770.718434,-306.438199
776.862578,-2368.659014,-9622.677246,-459.657299
776.862902,-2590.720797,-9770.718434,-995.924147
776.863226,-2294.638420,-9696.697840,-383.047749
776.863551,-1110.308913,-8956.491898,153.219100
776.863875,370.102971,-9030.512492,536.266849
776.864199,1554.432478,-9252.574275,919.314598
776.864523,1998.556043,-9326.594869,1225.752797
776.864847,1776.494261,-9622.677246,766.095498
776.865171,814.226536,-9844.739029,536.266849
776.865495,148.041188,-9992.780217,76.609550
776.865819,-814.226536,-10362.883188,-459.657299
776.866143,-1406.391290,-10214.842000,-536.266849
776.866467,-2368.659014,-9770.718434,-1378.971896
776.866791,-1184.329507,-9622.677246,-1225.752797
776.867116,-148.041188,-9326.594869,-536.266849
776.867440,1406.391290,-9400.615463,76.609550
776.867764,2886.803174,-9326.594869,842.705048
776.868088,3404.947333,-8808.450710,1378.971896
776.868412,2442.679609,-9400.615463,1455.581446
776.868736,1628.453072,-9622.677246,383.047749
776.869060,222.061783,-10214.842000,-459.657299
776.869384,-370.102971,-10658.965565,-459.657299
776.869708,-1258.350101,-10658.965565,-612.876398
776.870032,-2146.597232,-10214.842000,-1455.581446
776.870357,-2590.720797,-9844.739029,-1608.800546
776.870681,-2516.700203,-9770.718434,-1225.752797
776.871005,-1332.370696,-9770.718434,-689.485948
776.871329,0.000000,-9696.697840,383.047749
776.871653,1184.329507,-9548.656652,766.095498
776.871977,1628.453072,-9474.636058,1072.533697
776.872301,1406.391290,-9770.718434,766.095498
776.872625,592.164754,-10066.800811,536.266849
776.872949,-222.061783,-10140.821405,76.609550
776.873273,-962.267725,-10140.821405,-536.266849
776.873598,-1702.473667,-9992.780217,-1378.971896
776.873922,-2146.597232,-9548.656652,-1685.410096
776.874246,-1924.535449,-9548.656652,-1378.971896
776.874570,-1258.350101,-9474.636058,-1378.971896
776.874894,0.000000,-9104.533087,-689.485948
776.875218,1406.391290,-8660.409521,0.000000
776.875542,2442.679609,-8660.409521,459.657299
776.875866,2960.823768,-9104.533087,766.095498
776.876190,1776.494261,-9326.594869,1149.143247
776.876514,962.267725,-10214.842000,612.876398
776.876839,0.000000,-10214.842000,76.609550
776.877163,-1258.350101,-9992.780217,-383.047749
776.877487,-1628.453072,-9622.677246,-153.219100
776.877811,-1332.370696,-10140.821405,-842.705048
776.878135,-1480.411884,-9548.656652,-306.438199
776.878459,-1184.329507,-9030.512492,-306.438199
776.878783,-296.082377,-9252.574275,-153.219100
776.879107,444.123565,-9252.574275,153.219100
776.879431,1036.288319,-9178.553681,229.828649
776.879755,1036.288319,-9474.636058,612.876398
776.880080,666.185348,-10066.800811,689.485948
776.880404,0.000000,-9992.780217,612.876398
776.880728,-370.102971,-9992.780217,-153.219100
776.881052,-888.247130,-10066.800811,-306.438199
776.881376,-1110.308913,-9844.739029,-383.047749
776.881700,-666.185348,-9918.759623,-383.047749
776.882025,296.082377,-9474.636058,-229.828649
776.882349,1480.411884,-9326.594869,229.828649
776.882673,2072.576638,-8956.491898,-229.828649
776.882997,2590.720797,-9252.574275,536.266849
776.883321,1702.473667,-9252.574275,612.876398
776.883645,962.267725,-9992.780217,76.609550
776.883970,-296.082377,-9992.780217,-383.047749
776.884294,-1628.453072,-9770.718434,-995.924147
776.884618,-2220.617826,-9918.759623,-1072.533697
776.884942,-2220.617826,-10140.821405,-1302.362347
776.885266,-1924.535449,-10140.821405,-459.657299
776.885590,-1036.288319,-9622.677246,76.609550
776.885915,-296.082377,-9474.636058,306.438199
776.886239,740.205942,-9474.636058,1225.752797
776.886563,1480.411884,-9622.677246,1685.410096
776.886887,1628.453072,-9992.780217,1378.971896
776.887211,814.226536,-10066.800811,1608.800546
776.887535,-222.061783,-9844.739029,229.828649
776.887859,-962.267725,-10214.842000,0.000000
776.888184,-2294.638420,-9548.656652,-1532.190996
776.888508,-2664.741391,-9770.718434,-1915.238745
776.888832,-2442.679609,-9622.677246,-1991.848295
776.889156,-2146.597232,-9326.594869,-1608.800546
776.889480,-962.267725,-9104.533087,-842.705048
776.889804,888.247130,-8808.450710,-153.219100
776.890129,2220.617826,-8882.471304,919.314598
776.890453,3034.844362,-9178.553681,1149.143247
776.890777,3108.864956,-9474.636058,1378.971896
776.891101,2516.700203,-10140.821405,1838.629195
776.891425,888.247130,-10510.924376,1072.533697
776.891749,-592.164754,-10732.986159,76.609550
776.892074,-2146.597232,-10510.924376,0.000000
776.892398,-2516.700203,-10140.821405,-1302.362347
776.892722,-2738.761985,-10140.821405,-1532.190996
776.893046,-2368.659014,-9770.718434,-766.095498
776.893370,-1480.411884,-9252.574275,-766.095498
776.893694,-148.041188,-9104.533087,-536.266849
776.894019,962.267725,-9030.512492,0.000000
776.894343,1480.411884,-9030.512492,383.047749
776.894667,1702.473667,-9474.636058,919.314598
776.894991,1110.308913,-10362.883188,612.876398
776.895315,74.020594,-10214.842000,459.657299
776.895639,0.000000,-10436.903782,306.438199
776.895963,-592.164754,-10732.986159,0.000000
776.896288,-1036.288319,-10436.903782,-153.219100
776.896612,-740.205942,-9918.759623,0.000000
776.896936,0.000000,-9178.553681,0.000000
776.897260,888.247130,-8586.388927,153.219100
776.897584,814.226536,-8290.306550,229.828649
776.897908,1702.473667,-8660.409521,-383.047749
776.898233,1406.391290,-8586.388927,-383.047749
776.898557,888.247130,-9326.594869,-383.047749
776.898881,0.000000,-9548.656652,-536.266849
776.899205,-814.226536,-9918.759623,-766.095498
776.899529,-1184.329507,-10066.800811,-689.485948
776.899853,-1702.473667,-10140.821405,-689.485948
776.900178,-1554.432478,-10214.842000,-153.219100
776.900502,-1554.432478,-9770.718434,306.438199
776.900826,-444.123565,-9622.677246,766.095498
776.901150,592.164754,-9622.677246,1302.362347
776.901474,1332.370696,-9548.656652,1225.752797
776.901798,1628.453072,-9104.533087,1455.581446
776.902123,1110.308913,-9770.718434,689.485948
776.902447,-222.061783,-9844.739029,0.000000
776.902771,-1036.288319,-9770.718434,-995.924147
776.903095,-1776.494261,-9770.718434,-1532.190996
776.903419,-1998.556043,-9770.718434,-1762.019645
776.903743,-1628.453072,-9844.739029,-1915.238745
776.904067,-1110.308913,-9696.697840,-842.705048
776.904392,74.020594,-9252.574275,-459.657299
776.904716,1628.453072,-8882.471304,0.000000
776.905040,2886.803174,-9474.636058,995.924147
776.905364,3404.947333,-9548.656652,1455.581446
776.905688,3034.844362,-9622.677246,1455.581446
776.906012,1998.556043,-10140.821405,842.705048
776.906337,296.082377,-10288.862594,383.047749
776.906661,-1332.370696,-10436.903782,-459.657299
776.906985,-2368.659014,-10140.821405,-1302.362347
776.907309,-2738.761985,-10140.821405,-1685.410096
776.907633,-2442.679609,-9844.739029,-2068.457845
776.907957,-1702.473667,-9992.780217,-1838.629195
776.908282,-1036.288319,-9474.636058,-1225.752797
776.908606,222.061783,-9474.636058,-383.047749
776.908930,1554.432478,-9400.615463,612.876398
776.909254,2294.638420,-9622.677246,1072.533697
776.909578,1998.556043,-10140.821405,995.924147
776.909902,1110.308913,-10066.800811,612.876398
776.910227,296.082377,-9844.739029,612.876398
776.910551,0.000000,-9770.718434,-306.438199
776.910875,-740.205942,-10140.821405,-766.095498
776.911199,-1998.556043,-9770.718434,-842.705048
776.911523,-1850.514855,-9474.636058,-1225.752797
776.911847,-962.267725,-9030.512492,-995.924147
776.912171,296.082377,-9030.512492,-459.657299
776.912496,1628.453072,-8660.409521,-306.438199
776.912820,2294.638420,-8512.368333,919.314598
776.913144,2220.617826,-8808.450710,229.828649
776.913468,1332.370696,-8956.491898,306.438199
776.913792,370.102971,-9770.718434,153.219100
776.914116,-370.102971,-10214.842000,0.000000
776.914441,-888.247130,-10362.883188,-153.219100
776.914765,-1554.432478,-9844.739029,-306.438199
776.915089,-2072.576638,-9770.718434,0.000000
776.915413,-1406.391290,-10066.800811,153.219100
776.915737,-592.164754,-9992.780217,383.047749
776.916061,0.000000,-9474.636058,459.657299
776.916386,296.082377,-9178.553681,383.047749
776.916710,148.041188,-9400.615463,536.266849
776.917034,0.000000,-9696.697840,153.219100
776.917358,-888.247130,-9918.759623,-229.828649
776.917682,-962.267725,-10362.883188,-689.485948
776.918006,-1036.288319,-10066.800811,-766.095498
776.918331,-814.226536,-10288.862594,-919.314598
776.918655,-888.247130,-10066.800811,-919.314598
776.918979,-666.185348,-9844.739029,-306.438199
776.919303,444.123565,-9844.739029,-153.219100
776.919627,1480.411884,-9474.636058,766.095498
776.919951,2664.741391,-9252.574275,1378.971896
776.920275,2812.782580,-9030.512492,1608.800546
776.920600,2516.700203,-9252.574275,842.705048
776.920924,1480.411884,-9548.656652,459.657299
776.921248,0.000000,-9992.780217,0.000000
776.921572,-1406.391290,-9622.677246,-842.705048
776.921896,-2220.617826,-9548.656652,-1225.752797
776.922220,-2590.720797,-9548.656652,-1149.143247
776.922545,-2368.659014,-9178.553681,-1378.971896
776.922869,-1184.329507,-9770.718434,0.000000
776.923193,-740.205942,-9178.553681,306.438199
776.923517,962.267725,-9326.594869,766.095498
776.923841,2368.659014,-9252.574275,1608.800546
776.924165,2368.659014,-9474.636058,1915.238745
776.924490,1776.494261,-9770.718434,1991.848295
776.924814,444.123565,-9844.739029,995.924147
776.925138,-296.082377,-10214.842000,383.047749
776.925462,-1406.391290,-9770.718434,-612.876398
776.925786,-2368.659014,-9474.636058,-1302.362347
776.926110,-2886.803174,-9548.656652,-1685.410096
776.926435,-2516.700203,-9474.636058,-1838.629195
776.926759,-1184.329507,-9326.594869,-919.314598
776.927083,222.061783,-9030.512492,-459.657299
776.927407,1480.411884,-8734.430116,0.000000
776.927731,2960.823768,-9104.533087,536.266849
776.928055,2590.720797,-9770.718434,536.266849
776.928379,2072.576638,-10288.862594,612.876398
776.928704,1258.350101,-10658.965565,306.438199
776.929028,0.000000,-10658.965565,153.219100
776.929352,-1110.308913,-10066.800811,-153.219100
776.929676,-1924.535449,-10436.903782,-536.266849
776.930000,-2812.782580,-9992.780217,-766.095498
776.930324,-2664.741391,-9918.759623,-842.705048
776.930649,-1554.432478,-9770.718434,-153.219100
776.930973,-444.123565,-9400.615463,229.828649
776.931297,370.102971,-9178.553681,0.000000
776.931621,592.164754,-9474.636058,153.219100
776.931945,592.164754,-9474.636058,76.609550
776.932269,148.041188,-9770.718434,0.000000
776.932594,-148.041188,-10214.842000,-383.047749
776.932918,-592.164754,-9918.759623,-536.266849
776.933242,-962.267725,-10140.821405,-842.705048
776.933566,-740.205942,-9992.780217,-995.924147
776.933890,-370.102971,-9770.718434,-842.705048
776.934214,222.061783,-9548.656652,-383.047749
776.934539,1258.350101,-8956.491898,536.266849
776.934863,2368.659014,-8512.368333,995.924147
776.935187,2664.741391,-9178.553681,1225.752797
776.935511,1998.556043,-9104.533087,612.876398
776.935835,444.123565,-9548.656652,612.876398
776.936159,-1036.288319,-9844.739029,0.000000
776.936483,-1850.514855,-9696.697840,-689.485948
776.936808,-2368.659014,-9696.697840,-612.876398
776.937132,-2886.803174,-9696.697840,-1072.533697
776.937456,-2220.617826,-9992.780217,-536.266849
776.937780,-1258.350101,-9770.718434,-383.047749
776.938104,-370.102971,-9400.615463,0.000000
776.938428,888.247130,-9326.594869,536.266849
776.938753,1702.473667,-9400.615463,995.924147
776.939077,2146.597232,-9844.739029,1302.362347
776.939401,1628.453072,-9770.718434,1378.971896
776.939725,592.164754,-9992.780217,536.266849
776.940049,-592.164754,-9622.677246,383.047749
776.940373,-1258.350101,-9992.780217,-229.828649
776.940698,-1628.453072,-9918.759623,-536.266849
776.941022,-1480.411884,-9918.759623,-612.876398
776.941346,-1036.288319,-9474.636058,-383.047749
776.941670,518.144159,-9252.574275,0.000000
776.941994,1924.535449,-8956.491898,459.657299
776.942318,2442.679609,-8586.388927,383.047749
776.942643,2960.823768,-9252.574275,536.266849
776.942967,2368.659014,-9548.656652,689.485948
776.943291,1036.288319,-9992.780217,383.047749
776.943615,-222.061783,-10140.821405,0.000000
776.943939,-1184.329507,-9770.718434,-612.876398
776.944263,-1406.391290,-10288.862594,-383.047749
776.944587,-1924.535449,-10584.944971,-536.266849
776.944912,-2146.597232,-10362.883188,-612.876398
776.945236,-2368.659014,-9844.739029,0.000000
776.945560,-1258.350101,-9770.718434,536.266849
776.945884,0.000000,-9400.615463,766.095498
776.946208,1332.370696,-9104.533087,1302.362347
776.946532,1480.411884,-9622.677246,1455.581446
776.946857,814.226536,-9844.739029,919.314598
776.947181,-296.082377,-10066.800811,0.000000
776.947505,-1110.308913,-9474.636058,-766.095498
776.947829,-1776.494261,-9622.677246,-1532.190996
776.948153,-2220.617826,-9696.697840,-2068.457845
776.948477,-1924.535449,-9770.718434,-1762.019645
776.948802,-1110.308913,-9474.636058,-1532.190996
776.949126,0.000000,-8956.491898,-536.266849
776.949450,1406.391290,-8438.347739,-536.266849
776.949774,2516.700203,-8364.327145,995.924147
776.950098,3256.906145,-9326.594869,1838.629195
776.950422,2960.823768,-9770.718434,1762.019645
776.950747,1850.514855,-9992.780217,995.924147
776.951071,74.020594,-10140.821405,76.609550
776.951395,-962.267725,-10214.842000,-536.266849
776.951719,-1776.494261,-9992.780217,-1149.143247
776.952043,-2590.720797,-9622.677246,-1455.581446
776.952367,-2368.659014,-9622.677246,-1685.410096
776.952691,-1702.473667,-9548.656652,-1532.190996
776.953016,-222.061783,-9400.615463,-459.657299
776.953340,1036.288319,-9178.553681,-536.266849
776.953664,1628.453072,-9252.574275,0.000000
776.953988,1850.514855,-9770.718434,153.219100
776.954312,1332.370696,-9992.780217,383.047749
776.954636,666.185348,-10214.842000,76.609550
776.954961,370.102971,-10732.986159,0.000000
776.955285,-222.061783,-10362.883188,76.609550
776.955609,-1110.308913,-9844.739029,-306.438199
776.955933,-1036.288319,-9992.780217,-536.266849
776.956257,-592.164754,-9770.718434,-766.095498
776.956581,518.144159,-9326.594869,-612.876398
776.956906,1628.453072,-8660.409521,0.000000
776.957230,2590.720797,-8882.471304,383.047749
776.957554,2220.617826,-8438.347739,0.000000
776.957878,1332.370696,-9178.553681,-995.924147
776.958202,222.061783,-9696.697840,-919.314598
776.958526,-962.267725,-9844.739029,-995.924147
776.958851,-1702.473667,-10214.842000,-995.924147
776.959175,-1776.494261,-10584.944971,-919.314598
776.959499,-2072.576638,-10140.821405,0.000000
776.959823,-2146.597232,-9992.780217,229.828649
776.960147,-1628.453072,-10362.883188,766.095498
776.960471,-444.123565,-9696.697840,1302.362347
776.960795,666.185348,-9696.697840,1532.190996
776.961120,1184.329507,-9548.656652,1455.581446
776.961444,888.247130,-9696.697840,1302.362347
776.961768,-222.061783,-9474.636058,536.266849
776.962092,-518.144159,-9548.656652,-229.828649
776.962416,-1406.391290,-9548.656652,-1225.752797
776.962740,-1776.494261,-9474.636058,-1072.533697
776.963065,-1924.535449,-9992.780217,-1915.238745
776.963389,-1702.473667,-9696.697840,-1762.019645
776.963713,-888.247130,-9400.615463,-842.705048
776.964037,370.102971,-9104.533087,0.000000
776.964361,2368.659014,-8808.450710,229.828649
776.964685,3330.926739,-8882.471304,2145.067394
776.965010,4219.173869,-9326.594869,2145.067394
776.965334,3775.050304,-9992.780217,2374.896044
776.965658,2368.659014,-10362.883188,2145.067394
776.965982,444.123565,-10288.862594,1378.971896
776.966306,-1110.308913,-10288.862594,306.438199
776.966630,-2368.659014,-9992.780217,-766.095498
776.966954,-3182.885551,-10066.800811,-1302.362347
776.967279,-3256.906145,-9770.718434,-1608.800546
776.967603,-2294.638420,-9474.636058,-919.314598
776.967927,-888.247130,-9104.533087,-612.876398
776.968251,518.144159,-8808.450710,0.000000
776.968575,1850.514855,-8956.491898,689.485948
776.968899,1332.370696,-9622.677246,1225.752797
776.969224,1406.391290,-10214.842000,1378.971896
776.969548,1184.329507,-11029.068536,766.095498
776.969872,0.000000,-10807.006753,1762.019645
776.970196,-444.123565,-10362.883188,995.924147
776.970520,-1184.329507,-10066.800811,229.828649
776.970844,-1924.535449,-9622.677246,-229.828649
776.971169,-1924.535449,-9474.636058,-536.266849
776.971493,-1184.329507,-8882.471304,-536.266849
776.971817,370.102971,-8068.244768,-306.438199
776.972141,962.267725,-7698.141797,-612.876398
776.972465,1850.514855,-8216.285956,0.000000
776.972789,1406.391290,-8586.388927,-459.657299
776.973114,740.205942,-9474.636058,-306.438199
776.973438,-296.082377,-9844.739029,-766.095498
776.973762,-1036.288319,-9770.718434,-383.047749
776.974086,-962.267725,-10436.903782,-306.438199
776.974410,-1554.432478,-10436.903782,-306.438199
776.974734,-2146.597232,-10658.965565,0.000000
776.975058,-1406.391290,-10658.965565,689.485948
776.975383,-444.123565,-10362.883188,919.314598
776.975707,222.061783,-9992.780217,1225.752797
776.976031,1036.288319,-9770.718434,995.924147
776.976355,518.144159,-9622.677246,919.314598
776.976679,-148.041188,-9622.677246,-383.047749
776.977003,-962.267725,-9844.739029,-995.924147
776.977328,-1332.370696,-10214.842000,-2145.067394
776.977652,-1480.411884,-9918.759623,-2298.286494
776.977976,-1258.350101,-9696.697840,-2221.676944
776.978300,-666.185348,-9992.780217,-1762.019645
776.978624,148.041188,-10066.800811,-1072.533697
776.978948,1480.411884,-9844.739029,-229.828649
776.979273,2812.782580,-9326.594869,383.047749
776.979597,4145.153275,-9178.553681,1455.581446
776.979921,4589.276840,-9770.718434,1072.533697
776.980245,3330.926739,-10066.800811,1225.752797
776.980569,1776.494261,-10140.821405,383.047749
776.980893,0.000000,-9992.780217,-536.266849
776.981218,-1480.411884,-9770.718434,-1378.971896
776.981542,-2368.659014,-9622.677246,-2145.067394
776.981866,-3034.844362,-9770.718434,-2145.067394
776.982190,-2220.617826,-9622.677246,-1915.238745
776.982514,-1554.432478,-9622.677246,-1608.800546
776.982838,0.000000,-8956.491898,-689.485948
776.983163,1332.370696,-8956.491898,0.000000
776.983487,2590.720797,-9252.574275,842.705048
776.983811,3108.864956,-9770.718434,1072.533697
776.984135,2368.659014,-10436.903782,1455.581446
776.984459,370.102971,-10436.903782,919.314598
776.984783,-296.082377,-10362.883188,76.609550
776.985108,-1332.370696,-10214.842000,-306.438199
776.985432,-2220.617826,-10066.800811,-919.314598
776.985756,-2960.823768,-9844.739029,-1072.533697
776.986080,-2368.659014,-9326.594869,-383.047749
776.986404,-1332.370696,-8364.327145,-842.705048
776.986728,592.164754,-8068.244768,0.000000
776.987053,1850.514855,-7772.162391,153.219100
776.987377,2220.617826,-8290.306550,76.609550
776.987701,1776.494261,-9104.533087,229.828649
776.988025,962.267725,-9770.718434,459.657299
776.988349,148.041188,-10066.800811,766.095498
776.988673,-592.164754,-10140.821405,229.828649
776.988998,-1480.411884,-9918.759623,-229.828649
776.989322,-2220.617826,-10584.944971,0.000000
776.989646,-2368.659014,-10658.965565,306.438199
776.989970,-2442.679609,-9770.718434,459.657299
776.990294,-1554.432478,-9696.697840,995.924147
776.990618,-296.082377,-9474.636058,995.924147
776.990943,370.102971,-9178.553681,995.924147
776.991267,296.082377,-9178.553681,689.485948
776.991591,0.000000,-9770.718434,229.828649
776.991915,-592.164754,-9844.739029,0.000000
776.992239,-888.247130,-10436.903782,-229.828649
776.992563,-1110.308913,-9548.656652,-536.266849
776.992888,-888.247130,-9992.780217,-766.095498
776.993212,-370.102971,-10362.883188,-459.657299
776.993536,296.082377,-10214.842000,0.000000
776.993860,1258.350101,-9918.759623,536.266849
776.994184,2516.700203,-9400.615463,1302.362347
776.994508,3256.906145,-9252.574275,1608.800546
776.994833,3478.967927,-9178.553681,1149.143247
776.995157,2294.638420,-9030.512492,1072.533697
776.995481,962.267725,-9474.636058,1072.533697
776.995805,-222.061783,-9326.594869,-229.828649
776.996129,-1702.473667,-9622.677246,-919.314598
776.996453,-2368.659014,-9770.718434,-1532.190996
776.996778,-2738.761985,-9770.718434,-1762.019645
776.997102,-2368.659014,-9918.759623,-1072.533697
776.997426,-1480.411884,-9400.615463,-612.876398
776.997750,0.000000,-9178.553681,153.219100
776.998074,1110.308913,-9178.553681,842.705048
776.998398,2368.659014,-8734.430116,1532.190996
776.998723,2664.741391,-9622.677246,1608.800546
776.999047,1702.473667,-10066.800811,1302.362347
776.999371,296.082377,-10362.883188,842.705048
776.999695,-888.247130,-10214.842000,306.438199
777.000019,-1776.494261,-9548.656652,-536.266849
777.000343,-2664.741391,-9326.594869,-1762.019645
777.000668,-2886.803174,-9474.636058,-1991.848295
777.000992,-2368.659014,-9178.553681,-1762.019645
777.001316,-962.267725,-9030.512492,-995.924147
777.001640,666.185348,-8512.368333,-766.095498
777.001964,2294.638420,-8586.388927,-306.438199
777.002288,2664.741391,-9030.512492,76.609550
777.002613,2516.700203,-9918.759623,459.657299
777.002937,1628.453072,-9992.780217,306.438199
777.003261,1036.288319,-10881.027347,0.000000
777.003585,-296.082377,-10658.965565,0.000000
777.003909,-1776.494261,-10510.924376,-536.266849
777.004233,-2442.679609,-10584.944971,-766.095498
777.004558,-2442.679609,-10584.944971,-536.266849
777.004882,-2220.617826,-10214.842000,-536.266849
777.005206,-1702.473667,-9548.656652,-536.266849
777.005530,-370.102971,-9696.697840,-306.438199
777.005854,222.061783,-9770.718434,0.000000
777.006178,518.144159,-9844.739029,-153.219100
777.006503,0.000000,-10362.883188,-306.438199
777.006827,-296.082377,-10510.924376,-612.876398
777.007151,-148.041188,-10140.821405,-995.924147
777.007475,-370.102971,-10436.903782,-766.095498
777.007799,-444.123565,-9918.759623,-1225.752797
777.008123,-148.041188,-10288.862594,-612.876398
777.008448,370.102971,-9696.697840,0.000000
777.008772,888.247130,-9252.574275,229.828649
777.009096,1998.556043,-9030.512492,536.266849
777.009420,2442.679609,-8808.450710,919.314598
777.009744,2442.679609,-9104.533087,919.314598
777.010068,1332.370696,-8808.450710,229.828649
777.010393,296.082377,-9030.512492,-229.828649
777.010717,-1406.391290,-9326.594869,-766.095498
777.011041,-2072.576638,-9252.574275,-1072.533697
777.011365,-2220.617826,-9178.553681,-1072.533697
777.011689,-2072.576638,-9326.594869,-1302.362347
777.012013,-1628.453072,-9252.574275,-766.095498
777.012338,-814.226536,-9252.574275,-76.609550
777.012662,296.082377,-9400.615463,1072.533697
777.012986,2146.597232,-9474.636058,1302.362347
777.013310,2442.679609,-9474.636058,1838.629195
777.013634,2368.659014,-9844.739029,1608.800546
777.013958,1258.350101,-10288.862594,1072.533697
777.014283,0.000000,-10436.903782,383.047749
777.014607,-1258.350101,-10436.903782,-153.219100
777.014931,-2664.741391,-9844.739029,-1302.362347
777.015255,-2516.700203,-9918.759623,-1455.581446
777.015579,-2960.823768,-9770.718434,-1685.410096
777.015903,-1480.411884,-9474.636058,-1225.752797
777.016228,0.000000,-9104.533087,-612.876398
777.016552,1480.411884,-9474.636058,0.000000
777.016876,2738.761985,-9178.553681,459.657299
777.017200,3256.906145,-9548.656652,1072.533697
777.017524,2516.700203,-10066.800811,459.657299
777.017848,1702.473667,-10436.903782,1072.533697
777.018173,296.082377,-11251.130318,306.438199
777.018497,-962.267725,-10732.986159,0.000000
777.018821,-1998.556043,-10436.903782,-612.876398
777.019145,-2664.741391,-10658.965565,-842.705048
777.019469,-3034.844362,-10288.862594,-459.657299
777.019793,-2368.659014,-9104.533087,-536.266849
777.020118,-740.205942,-9104.533087,153.219100
777.020442,444.123565,-8956.491898,383.047749
777.020766,740.205942,-9252.574275,919.314598
777.021090,888.247130,-9474.636058,766.095498
777.021414,444.123565,-9770.718434,766.095498
777.021738,148.041188,-9622.677246,306.438199
777.022063,-444.123565,-9696.697840,0.000000
777.022387,-666.185348,-10140.821405,0.000000
777.022711,-1036.288319,-9844.739029,-536.266849
777.023035,-1036.288319,-9474.636058,-612.876398
777.023359,-296.082377,-9326.594869,-306.438199
777.023683,592.164754,-9030.512492,153.219100
777.024008,2072.576638,-8586.388927,842.705048
777.024332,2442.679609,-8586.388927,1378.971896
777.024656,2220.617826,-8068.244768,1072.533697
777.024980,1850.514855,-8956.491898,0.000000
777.025304,222.061783,-9400.615463,153.219100
777.025628,-592.164754,-9474.636058,-536.266849
777.025953,-1184.329507,-9326.594869,-766.095498
777.026277,-1702.473667,-9474.636058,-1072.533697
777.026601,-1924.535449,-9992.780217,-1072.533697
777.026925,-1554.432478,-9696.697840,-536.266849
777.027249,-1036.288319,-8734.430116,-689.485948
777.027573,222.061783,-8956.491898,0.000000
777.027898,1628.453072,-9252.574275,536.266849
777.028222,2294.638420,-9622.677246,842.705048
777.028546,1998.556043,-9918.759623,766.095498
777.028870,1036.288319,-10658.965565,229.828649
777.029194,-592.164754,-10140.821405,0.000000
777.029518,-1406.391290,-10510.924376,-689.485948
777.029843,-2072.576638,-10658.965565,-1149.143247
777.030167,-1850.514855,-10658.965565,-1762.019645
777.030491,-1480.411884,-10436.903782,-1225.752797
777.030815,-370.102971,-9770.718434,-995.924147
777.031139,444.123565,-9548.656652,-689.485948
777.031463,1480.411884,-9252.574275,-536.266849
777.031788,2368.659014,-9178.553681,536.266849
777.032112,2442.679609,-9696.697840,0.000000
777.032436,1776.494261,-10584.944971,0.000000
777.032760,518.144159,-10658.965565,-229.828649
777.033084,-592.164754,-10510.924376,-612.876398
777.033408,-1924.535449,-10510.924376,-1302.362347
777.033733,-2738.761985,-10288.862594,-1302.362347
777.034057,-2294.638420,-10288.862594,-842.705048
777.034381,-1924.535449,-10140.821405,0.000000
777.034705,-888.247130,-9548.656652,0.000000
777.035029,296.082377,-9400.615463,459.657299
777.035353,1036.288319,-9178.553681,842.705048
777.035678,1776.494261,-9400.615463,612.876398
777.036002,1332.370696,-9400.615463,459.657299
777.036326,370.102971,-9400.615463,0.000000
777.036650,-296.082377,-9622.677246,-229.828649
777.036974,-1110.308913,-9474.636058,-995.924147
777.037298,-2072.576638,-9178.553681,-1225.752797
777.037623,-2146.597232,-9548.656652,-1685.410096
777.037947,-1924.535449,-9474.636058,-1378.971896
777.038271,-740.205942,-9400.615463,-766.095498
777.038595,518.144159,-8586.388927,0.000000
777.038919,2220.617826,-8216.285956,919.314598
777.039243,2960.823768,-8290.306550,1608.800546
777.039568,3256.906145,-9252.574275,2298.286494
777.039892,1924.535449,-9400.615463,1455.581446
777.040216,962.267725,-9770.718434,919.314598
777.040540,0.000000,-9770.718434,383.047749
777.040864,-1036.288319,-9696.697840,-536.266849
777.041188,-1702.473667,-9696.697840,-612.876398
777.041513,-2442.679609,-9622.677246,-1225.752797
777.041837,-2220.617826,-9474.636058,-1302.362347
777.042161,-1480.411884,-9326.594869,-612.876398
777.042485,0.000000,-8956.491898,153.219100
777.042809,1554.432478,-8734.430116,689.485948
777.043133,2368.659014,-9326.594869,1455.581446
777.043458,2368.659014,-10066.800811,1685.410096
777.043782,1332.370696,-10140.821405,2221.676944
777.044106,74.020594,-10584.944971,2298.286494
777.044430,-814.226536,-10658.965565,1225.752797
777.044754,-1480.411884,-10510.924376,0.000000
777.045078,-2294.638420,-10362.883188,-536.266849
777.045403,-2442.679609,-10214.842000,-612.876398
777.045727,-1628.453072,-9844.739029,-919.314598
777.046051,-444.123565,-9178.553681,-306.438199
777.046375,740.205942,-8660.409521,0.000000
777.046699,1702.473667,-8882.471304,0.000000
777.047024,2442.679609,-9326.594869,76.609550
777.047348,1702.473667,-9844.739029,229.828649
777.047672,370.102971,-10140.821405,229.828649
777.047996,-814.226536,-10436.903782,0.000000
777.048320,-1702.473667,-10584.944971,76.609550
777.048644,-2146.597232,-10436.903782,0.000000
777.048969,-1850.514855,-10362.883188,1072.533697
777.049293,-1998.556043,-10140.821405,153.219100
777.049617,-888.247130,-9474.636058,842.705048
777.049941,0.000000,-9400.615463,1149.143247
777.050265,1036.288319,-8956.491898,1072.533697
777.050589,1332.370696,-9104.533087,919.314598
777.050914,888.247130,-8808.450710,383.047749
777.051238,-148.041188,-9030.512492,-689.485948
777.051562,-666.185348,-9326.594869,-612.876398
777.051886,-1480.411884,-9474.636058,-1532.190996
777.052210,-2146.597232,-9992.780217,-1915.238745
777.052534,-1998.556043,-9844.739029,-1608.800546
777.052859,-1110.308913,-9474.636058,-766.095498
777.053183,592.164754,-9400.615463,0.000000
777.053507,2294.638420,-9252.574275,383.047749
777.053831,3627.009116,-8882.471304,1608.800546
777.054155,4293.194464,-8882.471304,2298.286494
777.054479,4367.215058,-9548.656652,1685.410096
777.054804,2590.720797,-9844.739029,1302.362347
777.055128,1110.308913,-10066.800811,229.828649
777.055452,-518.144159,-9992.780217,-995.924147
777.055776,-1998.556043,-9696.697840,-1991.848295
777.056100,-2812.782580,-9770.718434,-2528.115143
777.056424,-2960.823768,-9474.636058,-2834.553343
777.056749,-2516.700203,-9400.615463,-1915.238745
777.057073,-962.267725,-9178.553681,-1378.971896
777.057397,518.144159,-9104.533087,-612.876398
777.057721,1998.556043,-9178.553681,0.000000
777.058045,2664.741391,-9474.636058,766.095498
777.058369,2812.782580,-10214.842000,1685.410096
777.058694,2294.638420,-10732.986159,1225.752797
777.059018,888.247130,-10955.047942,612.876398
777.059342,-592.164754,-10807.006753,-153.219100
777.059666,-1702.473667,-10658.965565,-1378.971896
777.059990,-2516.700203,-10584.944971,-2145.067394
777.060314,-2812.782580,-10584.944971,-2681.334243
777.060639,-2220.617826,-9844.739029,-2145.067394
777.060963,-666.185348,-8956.491898,-1838.629195
777.061287,888.247130,-8734.430116,-1378.971896
777.061611,2368.659014,-8586.388927,-842.705048
777.061935,2516.700203,-9400.615463,-229.828649
777.062259,2442.679609,-9844.739029,0.000000
777.062584,1628.453072,-10214.842000,153.219100
777.062908,592.164754,-10732.986159,229.828649
777.063232,-222.061783,-11029.068536,306.438199
777.063556,-1184.329507,-11177.109724,383.047749
777.063880,-1776.494261,-10584.944971,-306.438199
777.064204,-1702.473667,-10584.944971,-153.219100
777.064529,-1332.370696,-10066.800811,-153.219100
777.064853,-222.061783,-9400.615463,76.609550
777.065177,444.123565,-9104.533087,0.000000
777.065501,1036.288319,-9104.533087,153.219100
777.065825,666.185348,-9104.533087,0.000000
777.066149,0.000000,-9178.553681,-536.266849
777.066474,-666.185348,-9696.697840,-306.438199
777.066798,-1110.308913,-9696.697840,-766.095498
777.067122,-1036.288319,-9770.718434,-536.266849
777.067446,-740.205942,-9770.718434,0.000000
777.067770,-592.164754,-9992.780217,536.266849
777.068094,0.000000,-9474.636058,919.314598
777.068419,1036.288319,-9252.574275,1838.629195
777.068743,2072.576638,-9178.553681,1455.581446
777.069067,2516.700203,-9104.533087,1838.629195
777.069391,2146.597232,-9326.594869,1378.971896
777.069715,1110.308913,-9400.615463,1225.752797
777.070039,-222.061783,-9326.594869,0.000000
777.070364,-1702.473667,-9252.574275,-1149.143247
777.070688,-2664.741391,-9178.553681,-1455.581446
777.071012,-2960.823768,-9252.574275,-1685.410096
777.071336,-2516.700203,-9474.636058,-1378.971896
777.071660,-1924.535449,-9252.574275,-842.705048
777.071984,-740.205942,-9326.594869,76.609550
777.072309,666.185348,-9400.615463,1149.143247
777.072633,2220.617826,-8808.450710,1685.410096
777.072957,2886.803174,-9474.636058,2528.115143
777.073281,2960.823768,-10362.883188,2451.505594
777.073605,1258.350101,-10436.903782,1838.629195
777.073929,-740.205942,-10362.883188,842.705048
777.074254,-1480.411884,-9918.759623,-383.047749
777.074578,-2442.679609,-9992.780217,-995.924147
777.074902,-3034.844362,-9918.759623,-1685.410096
777.075226,-2590.720797,-9696.697840,-2221.676944
777.075550,-1258.350101,-9474.636058,-1685.410096
777.075874,666.185348,-8882.471304,-1225.752797
777.076199,2368.659014,-8734.430116,0.000000
777.076523,2886.803174,-8512.368333,0.000000
777.076847,3923.091493,-9178.553681,842.705048
777.077171,3627.009116,-10066.800811,1302.362347
777.077495,2812.782580,-10584.944971,1302.362347
777.077819,1110.308913,-10807.006753,1302.362347
777.078144,-296.082377,-10658.965565,689.485948
777.078468,-1628.453072,-10066.800811,0.000000
777.078792,-2664.741391,-9918.759623,-229.828649
777.079116,-3182.885551,-9474.636058,-459.657299
777.079440,-2590.720797,-9474.636058,-536.266849
777.079764,-1776.494261,-8956.491898,-229.828649
777.080089,-370.102971,-8882.471304,0.000000
777.080413,518.144159,-9178.553681,-229.828649
777.080737,518.144159,-9400.615463,153.219100
777.081061,444.123565,-9918.759623,153.219100
777.081385,0.000000,-9474.636058,0.000000
777.081709,-814.226536,-10436.903782,-153.219100
777.082034,-1110.308913,-10288.862594,-383.047749
777.082358,-1184.329507,-10658.965565,-229.828649
777.082682,-1036.288319,-10436.903782,0.000000
777.083006,-370.102971,-9844.739029,76.609550
777.083330,0.000000,-9474.636058,612.876398
777.083655,1332.370696,-8586.388927,1072.533697
777.083979,2590.720797,-9104.533087,1149.143247
777.084303,1850.514855,-8734.430116,689.485948
777.084627,740.205942,-8882.471304,76.609550
777.084951,-518.144159,-8956.491898,-766.095498
777.085276,-1554.432478,-9030.512492,-2068.457845
777.085600,-1702.473667,-9326.594869,-1608.800546
777.085924,-1776.494261,-9770.718434,-1532.190996
777.086248,-1628.453072,-10140.821405,-1149.143247
777.086572,-1110.308913,-9918.759623,-459.657299
777.086897,-222.061783,-9474.636058,612.876398
777.087221,1110.308913,-9548.656652,842.705048
777.087545,2590.720797,-9622.677246,1302.362347
777.087869,2664.741391,-10066.800811,1608.800546
777.088193,2146.597232,-10140.821405,1608.800546
777.088518,740.205942,-10066.800811,536.266849
777.088842,-740.205942,-10584.944971,-153.219100
777.089166,-1924.535449,-10658.965565,-1991.848295
777.089490,-2220.617826,-10066.800811,-1302.362347
777.089814,-2516.700203,-10214.842000,-2374.896044
777.090139,-2146.597232,-10362.883188,-2374.896044
777.090463,-814.226536,-9696.697840,-1532.190996
777.090787,814.226536,-9400.615463,-766.095498
777.091111,2516.700203,-9326.594869,0.000000
777.091435,3775.050304,-9474.636058,459.657299
777.091760,4071.132681,-9474.636058,919.314598
777.092084,3034.844362,-9474.636058,1072.533697
777.092408,1628.453072,-10066.800811,689.485948
777.092732,0.000000,-9918.759623,229.828649
777.093056,-1406.391290,-10066.800811,-306.438199
777.093381,-2368.659014,-10214.842000,-919.314598
777.093705,-2960.823768,-10214.842000,-842.705048
777.094029,-2812.782580,-9548.656652,-919.314598
777.094353,-1924.535449,-9400.615463,153.219100
777.094677,-740.205942,-9104.533087,0.000000
777.095001,444.123565,-8660.409521,536.266849
777.095326,1258.350101,-9252.574275,612.876398
777.095650,1480.411884,-9400.615463,842.705048
777.095974,592.164754,-9474.636058,383.047749
777.096298,74.020594,-9622.677246,76.609550
777.096622,-518.144159,-9548.656652,-229.828649
777.096947,-1184.329507,-9696.697840,-383.047749
777.097271,-1406.391290,-9696.697840,-919.314598
777.097595,-1628.453072,-9474.636058,-536.266849
777.097919,-888.247130,-9252.574275,-459.657299
777.098243,444.123565,-8882.471304,229.828649
777.098568,1480.411884,-8808.450710,919.314598
777.098892,1850.514855,-9178.553681,842.705048
777.099216,1924.535449,-9104.533087,1149.143247
777.099540,1110.308913,-9178.553681,1225.752797
777.099864,222.061783,-9548.656652,-153.219100
777.100189,-814.226536,-9918.759623,-383.047749
777.100513,-1554.432478,-9770.718434,-995.924147
777.100837,-1628.453072,-9844.739029,-1302.362347
777.101161,-1924.535449,-9622.677246,-995.924147
777.101485,-1554.432478,-10214.842000,-766.095498
777.101810,-962.267725,-9918.759623,0.000000
777.102134,370.102971,-9844.739029,766.095498
777.102458,1110.308913,-9770.718434,1072.533697
777.102782,1554.432478,-9992.780217,1149.143247
777.103106,1036.288319,-10214.842000,1149.143247
777.103431,148.041188,-10436.903782,536.266849
777.103755,-518.144159,-10140.821405,306.438199
777.104079,-962.267725,-10140.821405,-229.828649
777.104403,-1480.411884,-9770.718434,-1378.971896
777.104727,-1628.453072,-10288.862594,-1302.362347
777.105052,-1184.329507,-9770.718434,-1455.581446
777.105376,-222.061783,-9548.656652,-1225.752797
777.105700,962.267725,-9252.574275,-689.485948
777.106024,2146.597232,-8882.471304,-459.657299
777.106348,3552.988522,-9030.512492,536.266849
777.106672,3627.009116,-9400.615463,536.266849
777.106997,2886.803174,-9844.739029,766.095498
777.107321,1258.350101,-10140.821405,0.000000
777.107645,0.000000,-10066.800811,-229.828649
777.107969,-1258.350101,-9918.759623,-536.266849
777.108293,-1850.514855,-9622.677246,-306.438199
777.108618,-2294.638420,-9918.759623,-1072.533697
777.108942,-1776.494261,-9992.780217,-383.047749
777.109266,-1480.411884,-9918.759623,0.000000
777.109590,-518.144159,-9252.574275,306.438199
777.109914,814.226536,-9400.615463,536.266849
777.110239,1184.329507,-9622.677246,536.266849
777.110563,666.185348,-9696.697840,229.828649
777.110887,222.061783,-9474.636058,0.000000
777.111211,-370.102971,-9474.636058,0.000000
777.111535,-1258.350101,-9252.574275,-536.266849
777.111860,-1332.370696,-9252.574275,-1072.533697
777.112184,-1554.432478,-9474.636058,-995.924147
777.112508,-1258.350101,-9400.615463,-689.485948
777.112832,-296.082377,-9326.594869,-459.657299
777.113156,962.267725,-9030.512492,76.609550
777.113481,1924.535449,-8956.491898,1072.533697
777.113805,2442.679609,-9696.697840,919.314598
777.114129,2812.782580,-9770.718434,612.876398
777.114453,1110.308913,-9622.677246,0.000000
777.114777,-296.082377,-10140.821405,0.000000
777.115102,-1554.432478,-10362.883188,-842.705048
777.115426,-2072.576638,-9992.780217,-1378.971896
777.115750,-2442.679609,-9622.677246,-1685.410096
777.116074,-2738.761985,-10288.862594,-919.314598
777.116398,-1776.494261,-10732.986159,-1072.533697
777.116723,-814.226536,-9770.718434,0.000000
777.117047,370.102971,-9918.759623,689.485948
777.117371,1184.329507,-9844.739029,842.705048
777.117695,1776.494261,-10066.800811,1225.752797
777.118019,1554.432478,-10584.944971,1532.190996
777.118343,666.185348,-10510.924376,842.705048
777.118668,74.020594,-10362.883188,612.876398
777.118992,-1036.288319,-9696.697840,-459.657299
777.119316,-1924.535449,-9474.636058,-1072.533697
777.119640,-2220.617826,-9474.636058,-1302.362347
777.119964,-1406.391290,-9400.615463,-1378.971896
777.120289,-296.082377,-8882.471304,-766.095498
777.120613,1036.288319,-8364.327145,-153.219100
777.120937,2516.700203,-8142.265362,-383.047749
777.121261,3775.050304,-8438.347739,919.314598
777.121585,3330.926739,-9030.512492,689.485948
777.121910,2220.617826,-9770.718434,919.314598
777.122234,1332.370696,-10066.800811,995.924147
777.122558,-296.082377,-10436.903782,612.876398
777.122882,-1332.370696,-10288.862594,229.828649
777.123206,-2516.700203,-10214.842000,0.000000
777.123531,-2960.823768,-10140.821405,-153.219100
777.123855,-2442.679609,-9844.739029,0.000000
777.124179,-1702.473667,-9548.656652,306.438199
777.124503,-370.102971,-9474.636058,383.047749
777.124827,518.144159,-8882.471304,536.266849
777.125152,592.164754,-9252.574275,536.266849
777.125476,518.144159,-9474.636058,306.438199
777.125800,-222.061783,-9770.718434,0.000000
777.126124,-592.164754,-9992.780217,-383.047749
777.126448,-666.185348,-9770.718434,-612.876398
777.126773,-962.267725,-9844.739029,-536.266849
777.127097,-1110.308913,-10140.821405,-536.266849
777.127421,-814.226536,-9696.697840,-536.266849
777.127745,-148.041188,-9474.636058,842.705048
777.128069,1480.411884,-8660.409521,1378.971896
777.128394,2146.597232,-8956.491898,1149.143247
777.128718,2368.659014,-9326.594869,1149.143247
777.129042,2072.576638,-9252.574275,842.705048
777.129366,1110.308913,-9400.615463,842.705048
777.129690,-370.102971,-9474.636058,0.000000
777.130014,-1850.514855,-9622.677246,-919.314598
777.130339,-2368.659014,-9326.594869,-1532.190996
777.130663,-2368.659014,-9992.780217,-1608.800546
777.130987,-2220.617826,-10288.862594,-1149.143247
777.131311,-1332.370696,-10288.862594,-766.095498
777.131635,-666.185348,-9844.739029,0.000000
777.131960,1036.288319,-9474.636058,536.266849
777.132284,2146.597232,-9474.636058,1455.581446
777.132608,2368.659014,-9548.656652,1762.019645
777.132932,2442.679609,-10584.944971,1685.410096
777.133256,1110.308913,-10140.821405,1302.362347
777.133581,222.061783,-10066.800811,229.828649
777.133905,-592.164754,-9474.636058,-995.924147
777.134229,-1628.453072,-9178.553681,-1302.362347
777.134553,-2738.761985,-9326.594869,-2298.286494
777.134877,-2220.617826,-9474.636058,-2068.457845
777.135202,-740.205942,-8734.430116,-1991.848295
777.135526,740.205942,-8438.347739,-1072.533697
777.135850,2294.638420,-8586.388927,-459.657299
777.136174,3182.885551,-8882.471304,0.000000
777.136498,3256.906145,-9252.574275,536.266849
777.136823,3034.844362,-9770.718434,536.266849
777.137147,1702.473667,-10881.027347,306.438199
777.137471,-222.061783,-10066.800811,153.219100
777.137795,-1332.370696,-9992.780217,153.219100
777.138119,-2368.659014,-10436.903782,-536.266849
777.138444,-3108.864956,-10436.903782,-766.095498
777.138768,-2738.761985,-10140.821405,-842.705048
777.139092,-1924.535449,-9622.677246,-536.266849
777.139416,-740.205942,-9326.594869,0.000000
777.139740,74.020594,-8734.430116,0.000000
777.140065,518.144159,-9326.594869,153.219100
777.140389,518.144159,-9474.636058,-229.828649
777.140713,-370.102971,-9844.739029,-536.266849
777.141037,-740.205942,-10288.862594,-766.095498
777.141361,-740.205942,-10436.903782,-842.705048
777.141685,-296.082377,-10288.862594,-459.657299
777.142010,0.000000,-10140.821405,383.047749
777.142334,0.000000,-9918.759623,0.000000
777.142658,222.061783,-9474.636058,0.000000
777.142982,1110.308913,-9474.636058,459.657299
777.143306,2146.597232,-9400.615463,766.095498
777.143631,2294.638420,-9104.533087,612.876398
777.143955,1850.514855,-9178.553681,229.828649
777.144279,444.123565,-9474.636058,0.000000
777.144603,-666.185348,-10214.842000,-612.876398
777.144927,-1776.494261,-9400.615463,-1378.971896
777.145252,-2368.659014,-9992.780217,-1991.848295
777.145576,-2368.659014,-10140.821405,-1455.581446
777.145900,-1850.514855,-10140.821405,-1225.752797
777.146224,-1036.288319,-9844.739029,-306.438199
777.146548,74.020594,-9622.677246,229.828649
777.146873,1850.514855,-10140.821405,1072.533697
777.147197,2294.638420,-9474.636058,1838.629195
777.147521,2886.803174,-10066.800811,1915.238745
777.147845,1850.514855,-9992.780217,1762.019645
777.148169,666.185348,-9992.780217,842.705048
777.148494,-740.205942,-10140.821405,0.000000
777.148818,-1850.514855,-9622.677246,-612.876398
777.149142,-2442.679609,-9178.553681,-1838.629195
777.149466,-2368.659014,-8956.491898,-1915.238745
777.149790,-1776.494261,-9178.553681,-1532.190996
777.150115,-518.144159,-8512.368333,-689.485948
777.150439,740.205942,-8364.327145,-153.219100
777.150763,2516.700203,-8438.347739,383.047749
777.151087,3478.967927,-8956.491898,1302.362347
777.151411,3330.926739,-9622.677246,1915.238745
777.151736,2886.803174,-9696.697840,1762.019645
777.152060,1184.329507,-10288.862594,1378.971896
777.152384,-444.123565,-10066.800811,689.485948
777.152708,-1776.494261,-10140.821405,229.828649
777.153032,-3182.885551,-10214.842000,-229.828649
777.153356,-3849.070898,-10214.842000,-536.266849
777.153681,-3108.864956,-9844.739029,-612.876398
777.154005,-1554.432478,-9252.574275,229.828649
777.154329,-444.123565,-8882.471304,1378.971896
777.154653,666.185348,-8808.450710,536.266849
777.154977,592.164754,-8586.388927,306.438199
777.155302,370.102971,-9548.656652,459.657299
777.155626,0.000000,-10066.800811,306.438199
777.155950,-296.082377,-10288.862594,76.609550
777.156274,-222.061783,-9918.759623,536.266849
777.156598,0.000000,-10214.842000,229.828649
777.156923,-962.267725,-9770.718434,229.828649
777.157247,-1110.308913,-9548.656652,-229.828649
777.157571,0.000000,-9548.656652,306.438199
777.157895,888.247130,-9178.553681,459.657299
777.158219,1406.391290,-8956.491898,689.485948
777.158544,1702.473667,-9326.594869,383.047749
777.158868,1480.411884,-9326.594869,0.000000
777.159192,222.061783,-9474.636058,-459.657299
