#time,accel_x,accel_y,accel_z
520.479647,0.000000,-9622.677246,0.000000
520.479971,0.000000,-9622.677246,0.000000
520.480295,296.082377,-9474.636058,153.219100
520.480619,-148.041188,-9770.718434,0.000000
520.480943,0.000000,-9548.656652,306.438199
520.481267,148.041188,-9622.677246,0.000000
520.481590,0.000000,-9548.656652,-229.828649
520.481914,0.000000,-9696.697840,-153.219100
520.482238,-222.061783,-9696.697840,0.000000
520.482562,0.000000,-9696.697840,153.219100
520.482886,222.061783,-9622.677246,76.609550
520.483210,0.000000,-9178.553681,76.609550
520.483534,296.082377,-9548.656652,383.047749
520.483858,-518.144159,-9474.636058,153.219100
520.484182,0.000000,-9474.636058,0.000000
520.484506,0.000000,-9474.636058,0.000000
520.484830,-370.102971,-9548.656652,-153.219100
520.485154,-148.041188,-9622.677246,153.219100
520.485478,-148.041188,-9474.636058,229.828649
520.485802,-148.041188,-9474.636058,0.000000
520.486125,74.020594,-9696.697840,306.438199
520.486449,0.000000,-9622.677246,229.828649
520.486773,0.000000,-9696.697840,0.000000
520.487097,74.020594,-9548.656652,0.000000
520.487421,222.061783,-9474.636058,0.000000
520.487745,666.185348,-9844.739029,0.000000
520.488069,592.164754,-9770.718434,-459.657299
520.488393,370.102971,-9992.780217,-229.828649
520.488717,-370.102971,-10510.924376,0.000000
520.489041,-1554.432478,-10140.821405,-459.657299
520.489365,-1776.494261,-9696.697840,-229.828649
520.489689,-1184.329507,-9548.656652,229.828649
520.490013,148.041188,-9400.615463,995.924147
520.490337,1554.432478,-9622.677246,612.876398
520.490660,2072.576638,-9474.636058,689.485948
520.490984,1406.391290,-8956.491898,842.705048
520.491308,1184.329507,-9622.677246,229.828649
520.491632,814.226536,-9622.677246,0.000000
520.491956,-148.041188,-9770.718434,-229.828649
520.492280,-1110.308913,-10066.800811,-459.657299
520.492604,-1332.370696,-10214.842000,-306.438199
520.492928,-1110.308913,-9992.780217,306.438199
520.493252,-296.082377,-9622.677246,919.314598
520.493576,1110.308913,-9770.718434,612.876398
520.493900,2368.659014,-9548.656652,1608.800546
520.494224,3182.885551,-9548.656652,1685.410096
520.494548,3256.906145,-9622.677246,1915.238745
520.494872,2960.823768,-9400.615463,1378.971896
520.495195,2368.659014,-8956.491898,1072.533697
520.495519,1184.329507,-9178.553681,0.000000
520.495843,518.144159,-9696.697840,-153.219100
520.496167,-296.082377,-9844.739029,-459.657299
520.496491,-740.205942,-9918.759623,-459.657299
520.496815,-148.041188,-9474.636058,76.609550
520.497139,1332.370696,-9696.697840,842.705048
520.497463,3256.906145,-9474.636058,1991.848295
520.497787,5033.400406,-9474.636058,2604.724693
520.498111,5033.400406,-9770.718434,2987.772442
520.498435,5033.400406,-10066.800811,2757.943793
520.498759,4589.276840,-9918.759623,2451.505594
520.499083,3701.029710,-10066.800811,1991.848295
520.499407,2664.741391,-10214.842000,1762.019645
520.499731,1554.432478,-10436.903782,536.266849
520.500054,740.205942,-10214.842000,612.876398
520.500378,1036.288319,-9918.759623,1762.019645
520.500702,1998.556043,-9992.780217,2451.505594
520.501026,3256.906145,-9844.739029,2528.115143
520.501350,4367.215058,-9400.615463,3447.429741
520.501674,4663.297435,-9844.739029,4596.572988
520.501998,4515.256246,-10140.821405,4443.353888
520.502322,3404.947333,-10288.862594,4443.353888
520.502646,1924.535449,-9770.718434,4060.306139
520.502970,666.185348,-9178.553681,3370.820191
520.503294,-888.247130,-8364.327145,2834.553343
520.503618,-1406.391290,-8734.430116,2145.067394
520.503942,-1184.329507,-7624.121203,2374.896044
520.504266,-592.164754,-7328.038826,1762.019645
520.504589,0.000000,-6661.853478,1532.190996
520.504913,888.247130,-6735.874072,2298.286494
520.505237,2368.659014,-7105.977043,2911.162892
520.505561,3478.967927,-7402.059420,2911.162892
520.505885,3849.070898,-8512.368333,3370.820191
520.506209,4663.297435,-10362.883188,4213.525239
520.506533,3923.091493,-11251.130318,4443.353888
520.506857,2442.679609,-12139.377449,4136.915689
520.507181,444.123565,-12509.480420,2911.162892
520.507505,-1480.411884,-12657.521608,1991.848295
520.507829,-2072.576638,-11695.253884,1762.019645
520.508153,-962.267725,-10732.986159,1072.533697
520.508477,592.164754,-8734.430116,1225.752797
520.508801,2664.741391,-7994.224174,1302.362347
520.509124,4071.132681,-7476.080014,1378.971896
520.509448,4737.318029,-7698.141797,1378.971896
520.509772,4811.338623,-8142.265362,1685.410096
520.510096,4293.194464,-9474.636058,1915.238745
520.510420,2590.720797,-10436.903782,2145.067394
520.510744,592.164754,-11769.274478,2374.896044
520.511068,-740.205942,-11621.233289,1685.410096
520.511392,-1480.411884,-10807.006753,1838.629195
520.511716,-296.082377,-11103.089130,1225.752797
520.512040,1110.308913,-10436.903782,689.485948
520.512364,2146.597232,-9474.636058,612.876398
520.512688,2590.720797,-8068.244768,1302.362347
520.513012,2590.720797,-8290.306550,689.485948
520.513336,2590.720797,-8660.409521,383.047749
520.513659,1998.556043,-8290.306550,-383.047749
520.513983,2146.597232,-8364.327145,0.000000
520.514307,3478.967927,-8882.471304,153.219100
520.514631,5625.565159,-10214.842000,1149.143247
520.514955,7105.977043,-12361.439231,2374.896044
520.515279,6957.935855,-12879.583391,2451.505594
520.515603,5033.400406,-12657.521608,2451.505594
520.515927,1850.514855,-11917.315666,1302.362347
520.516251,-1406.391290,-10807.006753,842.705048
520.516575,-1702.473667,-10510.924376,536.266849
520.516899,-296.082377,-9400.615463,1149.143247
520.517223,1776.494261,-8808.450710,1685.410096
520.517547,2442.679609,-7550.100608,2221.676944
520.517871,1554.432478,-6587.832884,1225.752797
520.518194,444.123565,-5181.441594,153.219100
520.518518,518.144159,-5625.565159,76.609550
520.518842,1628.453072,-7179.997637,0.000000
520.519166,3108.864956,-8808.450710,919.314598
520.519490,3849.070898,-10584.944971,2451.505594
520.519814,3552.988522,-11547.212695,2604.724693
520.520138,2146.597232,-10584.944971,2145.067394
520.520462,1110.308913,-9474.636058,2528.115143
520.520786,814.226536,-10436.903782,2298.286494
520.521110,1036.288319,-11177.109724,2451.505594
520.521434,1554.432478,-11473.192101,2757.943793
520.521758,962.267725,-10584.944971,2604.724693
520.522082,888.247130,-8956.491898,1838.629195
520.522406,2146.597232,-7772.162391,1991.848295
520.522730,2220.617826,-7550.100608,1302.362347
520.523053,2220.617826,-9030.512492,612.876398
520.523377,444.123565,-9770.718434,459.657299
520.523701,-1554.432478,-9992.780217,229.828649
520.524025,-1924.535449,-10214.842000,766.095498
520.524349,222.061783,-11177.109724,1532.190996
520.524673,2590.720797,-11991.336260,2298.286494
520.524997,4219.173869,-11547.212695,2987.772442
520.525321,3849.070898,-10807.006753,3140.991542
520.525645,4071.132681,-10807.006753,3370.820191
520.525969,3552.988522,-11251.130318,3830.477490
520.526293,2294.638420,-11177.109724,3600.648841
520.526617,222.061783,-9918.759623,2451.505594
520.526941,-592.164754,-8364.327145,1072.533697
520.527265,0.000000,-7402.059420,689.485948
520.527588,2294.638420,-8956.491898,1225.752797
520.527912,3404.947333,-8586.388927,1378.971896
520.528236,2590.720797,-7772.162391,842.705048
520.528560,1702.473667,-6883.915261,459.657299
520.528884,1184.329507,-7624.121203,1072.533697
520.529208,1850.514855,-9992.780217,1532.190996
520.529532,2442.679609,-10881.027347,1991.848295
520.529856,2368.659014,-9844.739029,2528.115143
520.530180,2590.720797,-9696.697840,3294.210641
520.530504,3627.009116,-10362.883188,4366.744339
520.530828,4589.276840,-11325.150913,4366.744339
520.531152,4663.297435,-10732.986159,3294.210641
520.531476,3034.844362,-9252.574275,2451.505594
520.531800,444.123565,-9252.574275,1608.800546
520.532123,-1702.473667,-9696.697840,842.705048
520.532447,-2442.679609,-9030.512492,-459.657299
520.532771,-2812.782580,-7550.100608,-995.924147
520.533095,-1480.411884,-7624.121203,-306.438199
520.533419,-148.041188,-8586.388927,-459.657299
520.533743,1332.370696,-8660.409521,919.314598
520.534067,2812.782580,-7698.141797,1762.019645
520.534391,3404.947333,-7254.018232,2374.896044
520.534715,3330.926739,-9104.533087,3140.991542
520.535039,2886.803174,-10584.944971,3217.601092
520.535363,2072.576638,-10584.944971,3064.381992
520.535687,1184.329507,-10140.821405,1991.848295
520.536011,-592.164754,-9178.553681,306.438199
520.536335,-2738.761985,-9474.636058,-842.705048
520.536658,-3923.091493,-10658.965565,-1455.581446
520.536982,-4293.194464,-9918.759623,-2221.676944
520.537306,-4367.215058,-8808.450710,-2451.505594
520.537630,-4959.379811,-8512.368333,-3217.601092
520.537954,-4145.153275,-9622.677246,-2221.676944
520.538278,-148.041188,-10362.883188,-689.485948
520.538602,3404.947333,-9844.739029,229.828649
520.538926,3849.070898,-9770.718434,536.266849
520.539250,3552.988522,-10658.965565,1225.752797
520.539574,3552.988522,-11843.295072,1532.190996
520.539898,2664.741391,-11473.192101,995.924147
520.540222,-148.041188,-10881.027347,-612.876398
520.540546,-3701.029710,-11029.068536,-2834.553343
520.540870,-5107.421000,-11547.212695,-3447.429741
520.541194,-3849.070898,-10732.986159,-3677.258390
520.541518,-2516.700203,-9918.759623,-3294.210641
520.541842,-1702.473667,-10658.965565,-2911.162892
520.542166,-814.226536,-11177.109724,-2221.676944
520.542490,296.082377,-9104.533087,-2145.067394
520.542814,1110.308913,-8290.306550,-919.314598
520.543138,2146.597232,-9918.759623,-383.047749
520.543462,3108.864956,-10881.027347,-766.095498
520.543786,3775.050304,-9400.615463,-229.828649
520.544110,3034.844362,-8586.388927,306.438199
520.544434,2368.659014,-9622.677246,0.000000
520.544758,1628.453072,-11103.089130,-536.266849
520.545082,-518.144159,-10288.862594,-919.314598
520.545406,-2146.597232,-8808.450710,-1762.019645
520.545730,-3701.029710,-9474.636058,-1991.848295
520.546054,-3552.988522,-10732.986159,-1838.629195
520.546378,-2220.617826,-9992.780217,-1149.143247
520.546702,-962.267725,-8882.471304,-383.047749
520.547026,-222.061783,-9918.759623,-153.219100
520.547350,0.000000,-10288.862594,-459.657299
520.547674,-1036.288319,-7920.203579,-766.095498
520.547998,-1702.473667,-7105.977043,-995.924147
520.548321,-1332.370696,-8438.347739,-612.876398
520.548645,-296.082377,-9326.594869,-612.876398
520.548969,148.041188,-7994.224174,-229.828649
520.549293,1258.350101,-7105.977043,766.095498
520.549617,3478.967927,-7402.059420,1378.971896
520.549941,4515.256246,-8216.285956,995.924147
520.550265,2886.803174,-8438.347739,1685.410096
520.550589,1036.288319,-8438.347739,1915.238745
520.550913,592.164754,-9844.739029,1762.019645
520.551237,148.041188,-10436.903782,919.314598
520.551561,-1258.350101,-10140.821405,842.705048
520.551885,-1702.473667,-10881.027347,459.657299
520.552209,-1110.308913,-11695.253884,-536.266849
520.552533,-1628.453072,-10732.986159,-689.485948
520.552857,-3775.050304,-9622.677246,-1072.533697
520.553181,-4959.379811,-10288.862594,-919.314598
520.553505,-3701.029710,-11399.171507,-459.657299
520.553829,-1184.329507,-9548.656652,-383.047749
520.554153,518.144159,-8364.327145,229.828649
520.554477,2368.659014,-8882.471304,306.438199
520.554801,5403.503377,-9992.780217,1225.752797
520.555125,7105.977043,-10066.800811,2298.286494
520.555449,5625.565159,-9622.677246,3524.039291
520.555773,2368.659014,-11325.150913,2681.334243
520.556097,148.041188,-11695.253884,1532.190996
520.556421,-666.185348,-10584.944971,153.219100
520.556745,-1776.494261,-10732.986159,689.485948
520.557069,-2590.720797,-11917.315666,0.000000
520.557393,-2664.741391,-11843.295072,0.000000
520.557717,-2886.803174,-9770.718434,229.828649
520.558041,-4071.132681,-7624.121203,-383.047749
520.558365,-4219.173869,-8660.409521,-766.095498
520.558689,-2368.659014,-9178.553681,-995.924147
520.559013,0.000000,-7698.141797,-459.657299
520.559337,1850.514855,-7031.956449,229.828649
520.559661,3182.885551,-7920.203579,1455.581446
520.559985,4811.338623,-8808.450710,2145.067394
520.560309,4737.318029,-8882.471304,2451.505594
520.560633,2812.782580,-9030.512492,2451.505594
520.560957,888.247130,-9622.677246,1762.019645
520.561281,-148.041188,-10881.027347,1149.143247
520.561605,-1110.308913,-10510.924376,1762.019645
520.561929,-2294.638420,-9992.780217,1685.410096
520.562253,-3108.864956,-10214.842000,766.095498
520.562577,-3404.947333,-10214.842000,0.000000
520.562901,-4293.194464,-9030.512492,-689.485948
520.563225,-4071.132681,-8734.430116,-995.924147
520.563549,-2960.823768,-8438.347739,-1532.190996
520.563873,-1258.350101,-7920.203579,-1225.752797
520.564197,222.061783,-6883.915261,-1762.019645
520.564521,1406.391290,-6883.915261,-1532.190996
520.564845,3627.009116,-8438.347739,-536.266849
520.565169,5403.503377,-9548.656652,76.609550
520.565493,4737.318029,-8882.471304,383.047749
520.565817,2960.823768,-9474.636058,689.485948
520.566141,1998.556043,-11325.150913,1378.971896
520.566465,1480.411884,-11621.233289,612.876398
520.566789,74.020594,-11177.109724,689.485948
520.567113,-1628.453072,-11991.336260,153.219100
520.567436,-2368.659014,-12657.521608,-612.876398
520.567760,-2886.803174,-11399.171507,-1685.410096
520.568084,-4441.235652,-10214.842000,-1608.800546
520.568408,-5033.400406,-10214.842000,-2451.505594
520.568732,-4219.173869,-10436.903782,-3983.696590
520.569056,-2960.823768,-9104.533087,-3753.867940
520.569380,-1406.391290,-8438.347739,-3830.477490
520.569704,962.267725,-9252.574275,-2757.943793
520.570028,3849.070898,-10214.842000,-1608.800546
520.570352,6365.771101,-10362.883188,0.000000
520.570676,5625.565159,-10362.883188,459.657299
520.571000,5181.441594,-11325.150913,612.876398
520.571324,4293.194464,-11399.171507,1532.190996
520.571648,2590.720797,-10658.965565,1455.581446
520.571972,74.020594,-11029.068536,1532.190996
520.572296,-1480.411884,-11769.274478,1072.533697
520.572620,-2294.638420,-11547.212695,-536.266849
520.572944,-3701.029710,-8808.450710,-1149.143247
520.573268,-4737.318029,-7698.141797,-1915.238745
520.573592,-4589.276840,-8512.368333,-2374.896044
520.573916,-3701.029710,-8586.388927,-3447.429741
520.574240,-2516.700203,-6291.750507,-3524.039291
520.574564,-1702.473667,-5921.647536,-2757.943793
520.574888,1036.288319,-8512.368333,-1685.410096
520.575212,2812.782580,-9548.656652,-229.828649
520.575536,4219.173869,-8956.491898,1455.581446
520.575860,4071.132681,-8438.347739,2298.286494
520.576184,3775.050304,-11251.130318,2374.896044
520.576508,3108.864956,-11917.315666,2451.505594
520.576832,1850.514855,-10658.965565,2451.505594
520.577156,-148.041188,-11325.150913,1915.238745
520.577480,-1998.556043,-12213.398043,1302.362347
520.577804,-2960.823768,-10732.986159,-842.705048
520.578128,-5255.462188,-8068.244768,-1225.752797
520.578452,-6069.688724,-8290.306550,-1915.238745
520.578776,-4663.297435,-9770.718434,-2604.724693
520.579100,-2960.823768,-9104.533087,-2834.553343
520.579424,-1480.411884,-7031.956449,-2374.896044
520.579748,-296.082377,-6735.874072,-1991.848295
520.580072,2442.679609,-8364.327145,-995.924147
520.580396,3256.906145,-8956.491898,0.000000
520.580720,3404.947333,-9622.677246,1532.190996
520.581044,3330.926739,-10436.903782,2604.724693
520.581368,4071.132681,-11547.212695,2911.162892
520.581692,3552.988522,-11325.150913,3294.210641
520.582016,2146.597232,-11103.089130,3677.258390
520.582340,814.226536,-11843.295072,3370.820191
520.582664,-296.082377,-12065.356855,1762.019645
520.582988,-2368.659014,-10658.965565,383.047749
520.583312,-5329.482782,-9474.636058,-536.266849
520.583636,-6291.750507,-10436.903782,-1072.533697
520.583960,-5033.400406,-10362.883188,-2451.505594
520.584284,-3849.070898,-8660.409521,-2068.457845
520.584608,-2368.659014,-7179.997637,-1838.629195
520.584932,296.082377,-8438.347739,-995.924147
520.585256,3034.844362,-8882.471304,-153.219100
520.585580,3849.070898,-7994.224174,1532.190996
520.585904,3775.050304,-7846.182985,2451.505594
520.586227,4145.153275,-9918.759623,2834.553343
520.586551,4219.173869,-10436.903782,3294.210641
520.586875,4441.235652,-9474.636058,4060.306139
520.587199,3404.947333,-9326.594869,3830.477490
520.587523,2220.617826,-10658.965565,2604.724693
520.587847,0.000000,-10362.883188,1225.752797
520.588171,-2294.638420,-8808.450710,76.609550
520.588495,-4293.194464,-8956.491898,-766.095498
520.588819,-4515.256246,-9992.780217,-1991.848295
520.589143,-4441.235652,-9400.615463,-2528.115143
520.589467,-4145.153275,-7698.141797,-2757.943793
520.589791,-2664.741391,-8660.409521,-2145.067394
520.590115,-222.061783,-10510.924376,-1149.143247
520.590439,2368.659014,-9770.718434,-1149.143247
520.590763,2368.659014,-7994.224174,306.438199
520.591087,2442.679609,-8882.471304,1532.190996
520.591411,3034.844362,-10584.944971,995.924147
520.591735,3775.050304,-10362.883188,1685.410096
520.592059,3552.988522,-9770.718434,2528.115143
520.592383,2960.823768,-10732.986159,2221.676944
520.592707,2368.659014,-11547.212695,919.314598
520.593031,370.102971,-9918.759623,0.000000
520.593355,-2368.659014,-9030.512492,-1149.143247
520.593679,-4293.194464,-9992.780217,-1762.019645
520.594003,-5181.441594,-10881.027347,-2834.553343
520.594327,-4663.297435,-9326.594869,-2987.772442
520.594651,-3627.009116,-8364.327145,-2451.505594
520.594975,-1332.370696,-8512.368333,-2145.067394
520.595299,1480.411884,-9178.553681,-1072.533697
520.595623,2442.679609,-8438.347739,-1302.362347
520.595947,1924.535449,-7254.018232,-153.219100
520.596271,2220.617826,-9252.574275,229.828649
520.596595,3108.864956,-9548.656652,612.876398
520.596919,4367.215058,-8734.430116,995.924147
520.597243,3478.967927,-9696.697840,2068.457845
520.597567,2368.659014,-12361.439231,2604.724693
520.597891,2220.617826,-12657.521608,689.485948
520.598215,-444.123565,-10214.842000,-459.657299
520.598539,-4663.297435,-10436.903782,-1532.190996
520.598863,-7254.018232,-12139.377449,-2604.724693
520.599187,-6735.874072,-11991.336260,-3677.258390
520.599511,-5551.544565,-10066.800811,-2451.505594
520.599835,-4071.132681,-9326.594869,-2221.676944
520.600159,-1184.329507,-9326.594869,-2451.505594
520.600483,296.082377,-8660.409521,-2145.067394
520.600807,1406.391290,-7772.162391,-1378.971896
520.601131,2294.638420,-7994.224174,-229.828649
520.601455,3404.947333,-9400.615463,842.705048
520.601779,4441.235652,-9326.594869,1455.581446
520.602103,4737.318029,-8438.347739,2604.724693
520.602427,5033.400406,-9474.636058,2604.724693
520.602751,4367.215058,-10658.965565,612.876398
520.603075,2072.576638,-11029.068536,153.219100
520.603399,-1258.350101,-10732.986159,-306.438199
520.603723,-3478.967927,-11177.109724,-1072.533697
520.604047,-4367.215058,-11177.109724,-1915.238745
520.604371,-4811.338623,-9696.697840,-1225.752797
520.604695,-3849.070898,-9104.533087,-1455.581446
520.605019,-2368.659014,-10066.800811,-1532.190996
520.605342,-666.185348,-9474.636058,-1302.362347
520.605666,1110.308913,-7698.141797,-842.705048
520.605990,1702.473667,-7624.121203,-689.485948
520.606314,1184.329507,-9252.574275,383.047749
520.606638,2072.576638,-10510.924376,842.705048
520.606962,2664.741391,-10066.800811,1915.238745
520.607286,2516.700203,-9918.759623,2451.505594
520.607610,2442.679609,-10955.047942,1762.019645
520.607934,2368.659014,-11399.171507,1685.410096
520.608258,740.205942,-9770.718434,842.705048
520.608582,-1924.535449,-9696.697840,612.876398
520.608906,-3997.112087,-10510.924376,536.266849
520.609230,-4737.318029,-9844.739029,0.000000
520.609554,-4293.194464,-8216.285956,229.828649
520.609878,-3627.009116,-7254.018232,0.000000
520.610202,-1702.473667,-7772.162391,-229.828649
520.610526,1184.329507,-7179.997637,-153.219100
520.610850,2072.576638,-6587.832884,0.000000
520.611174,1332.370696,-6809.894666,153.219100
520.611498,1628.453072,-8216.285956,842.705048
520.611822,3034.844362,-9474.636058,1455.581446
520.612146,3775.050304,-9918.759623,1762.019645
520.612470,2590.720797,-9992.780217,1762.019645
520.612794,2664.741391,-10807.006753,1685.410096
520.613118,1480.411884,-11103.089130,1455.581446
520.613442,-1036.288319,-10732.986159,1455.581446
520.613766,-3256.906145,-11029.068536,689.485948
520.614090,-4071.132681,-11621.233289,-229.828649
520.614414,-3627.009116,-10955.047942,-1225.752797
520.614738,-3330.926739,-9326.594869,-1225.752797
520.615062,-2590.720797,-9844.739029,-842.705048
520.615386,-518.144159,-11103.089130,0.000000
520.615710,0.000000,-10288.862594,-842.705048
520.616034,-222.061783,-8438.347739,-536.266849
520.616358,0.000000,-8808.450710,-383.047749
520.616682,1554.432478,-10140.821405,-612.876398
520.617006,2442.679609,-9622.677246,-229.828649
520.617330,2812.782580,-8956.491898,689.485948
520.617654,3627.009116,-9474.636058,1225.752797
520.617978,3404.947333,-11103.089130,1302.362347
520.618302,2294.638420,-10807.006753,536.266849
520.618626,296.082377,-9770.718434,459.657299
520.618950,-518.144159,-10807.006753,76.609550
520.619274,-1480.411884,-11251.130318,-766.095498
520.619598,-2146.597232,-9474.636058,-1455.581446
520.619922,-2442.679609,-8512.368333,-995.924147
520.620246,-1406.391290,-9844.739029,-536.266849
520.620570,444.123565,-11029.068536,-1378.971896
520.620894,222.061783,-9030.512492,-1149.143247
520.621218,-814.226536,-8068.244768,-1149.143247
520.621542,-888.247130,-9030.512492,-1378.971896
520.621866,74.020594,-9696.697840,-919.314598
520.622190,296.082377,-8364.327145,689.485948
520.622514,814.226536,-8956.491898,689.485948
520.622838,1776.494261,-9844.739029,0.000000
520.623162,1702.473667,-9548.656652,76.609550
520.623486,518.144159,-8142.265362,306.438199
520.623810,-1480.411884,-8364.327145,153.219100
520.624134,-2368.659014,-10362.883188,-536.266849
520.624457,-2294.638420,-10140.821405,-229.828649
520.624781,-2294.638420,-8956.491898,-459.657299
520.625105,-2072.576638,-9178.553681,-766.095498
520.625429,-1332.370696,-10066.800811,-2298.286494
520.625753,0.000000,-9474.636058,-1685.410096
520.626077,666.185348,-8882.471304,-1225.752797
520.626401,962.267725,-9474.636058,-1149.143247
520.626725,1850.514855,-10066.800811,-383.047749
520.627049,2590.720797,-9178.553681,-612.876398
520.627373,2886.803174,-9252.574275,383.047749
520.627697,2738.761985,-10436.903782,689.485948
520.628021,2738.761985,-11547.212695,306.438199
520.628345,2368.659014,-10510.924376,536.266849
520.628669,888.247130,-9992.780217,536.266849
520.628993,-1036.288319,-10584.944971,76.609550
520.629317,-1924.535449,-11103.089130,-153.219100
520.629641,-2368.659014,-10584.944971,306.438199
520.629965,-2368.659014,-9844.739029,0.000000
520.630289,-2146.597232,-10140.821405,-766.095498
520.630613,-1110.308913,-9992.780217,-1225.752797
520.630937,-666.185348,-9030.512492,-995.924147
520.631261,-962.267725,-8660.409521,-766.095498
520.631585,-444.123565,-9474.636058,-919.314598
520.631909,444.123565,-9918.759623,-459.657299
520.632233,1850.514855,-9548.656652,76.609550
520.632557,2368.659014,-9474.636058,766.095498
520.632881,3182.885551,-10584.944971,1838.629195
520.633205,3552.988522,-11103.089130,1838.629195
520.633529,1628.453072,-10584.944971,1915.238745
520.633853,-666.185348,-9622.677246,1608.800546
520.634177,-1480.411884,-10510.924376,1302.362347
520.634501,-1480.411884,-10288.862594,612.876398
520.634825,-1850.514855,-8882.471304,1225.752797
520.635149,-2368.659014,-8956.491898,383.047749
520.635473,-1924.535449,-9622.677246,76.609550
520.635797,-1332.370696,-9474.636058,536.266849
520.636121,-1184.329507,-7920.203579,306.438199
520.636445,-1924.535449,-7994.224174,0.000000
520.636769,-1924.535449,-8734.430116,153.219100
520.637093,-888.247130,-8660.409521,-153.219100
520.637417,-666.185348,-7994.224174,306.438199
520.637741,444.123565,-9400.615463,1378.971896
520.638065,1480.411884,-10288.862594,1685.410096
520.638389,1776.494261,-9030.512492,1378.971896
520.638713,888.247130,-7920.203579,995.924147
520.639037,0.000000,-8512.368333,995.924147
520.639361,518.144159,-10362.883188,842.705048
520.639685,740.205942,-9474.636058,1072.533697
520.640009,222.061783,-8734.430116,995.924147
520.640333,-222.061783,-9030.512492,0.000000
520.640657,74.020594,-9844.739029,-995.924147
520.640981,0.000000,-9622.677246,-1378.971896
520.641305,-740.205942,-9104.533087,-1072.533697
520.641629,-1184.329507,-11029.068536,-1302.362347
520.641953,-1110.308913,-11177.109724,-1302.362347
520.642277,-1406.391290,-10584.944971,-1608.800546
520.642601,-1036.288319,-9696.697840,-766.095498
520.642925,370.102971,-11325.150913,-612.876398
520.643249,1924.535449,-12213.398043,-383.047749
520.643573,1480.411884,-10658.965565,-229.828649
520.643897,0.000000,-9178.553681,459.657299
520.644221,814.226536,-10066.800811,0.000000
520.644545,1998.556043,-10510.924376,-612.876398
520.644869,2442.679609,-9992.780217,76.609550
520.645193,1332.370696,-9030.512492,-229.828649
520.645517,1036.288319,-10140.821405,-383.047749
520.645841,1924.535449,-11177.109724,-459.657299
520.646165,1110.308913,-9622.677246,-459.657299
520.646489,-296.082377,-9326.594869,-766.095498
520.646813,-1554.432478,-10436.903782,-1149.143247
520.647137,-1480.411884,-10288.862594,-1685.410096
520.647461,-888.247130,-9030.512492,-612.876398
520.647785,-740.205942,-9326.594869,-383.047749
520.648109,-370.102971,-10214.842000,-153.219100
520.648433,-222.061783,-9548.656652,-919.314598
520.648757,-962.267725,-7698.141797,-1072.533697
520.649081,-888.247130,-7476.080014,-689.485948
520.649405,0.000000,-9252.574275,-689.485948
520.649729,1110.308913,-9104.533087,0.000000
520.650053,518.144159,-7624.121203,612.876398
520.650377,148.041188,-8068.244768,76.609550
520.650701,814.226536,-9918.759623,-306.438199
520.651025,962.267725,-9844.739029,-459.657299
520.651349,-296.082377,-9252.574275,0.000000
520.651673,-2442.679609,-9622.677246,-919.314598
520.651997,-2590.720797,-11177.109724,-766.095498
520.652321,-2886.803174,-10732.986159,-689.485948
520.652645,-2812.782580,-9992.780217,-766.095498
520.652969,-1850.514855,-10288.862594,-766.095498
520.653293,-444.123565,-10658.965565,-1225.752797
520.653617,592.164754,-9326.594869,-612.876398
520.653941,222.061783,-8660.409521,-153.219100
520.654265,1036.288319,-9770.718434,-383.047749
520.654589,1850.514855,-9474.636058,0.000000
520.654913,2220.617826,-9252.574275,0.000000
520.655237,2442.679609,-9326.594869,0.000000
520.655561,2368.659014,-10140.821405,459.657299
520.655885,3182.885551,-11251.130318,766.095498
520.656209,1776.494261,-10658.965565,842.705048
520.656533,-444.123565,-10436.903782,229.828649
520.656857,-2146.597232,-11769.274478,153.219100
520.657181,-2812.782580,-11843.295072,0.000000
520.657505,-2368.659014,-10436.903782,536.266849
520.657829,-1480.411884,-10288.862594,995.924147
520.658153,-1110.308913,-10510.924376,612.876398
520.658477,-444.123565,-9400.615463,0.000000
520.658802,-1036.288319,-8068.244768,0.000000
520.659126,-1258.350101,-8438.347739,76.609550
520.659450,592.164754,-9178.553681,536.266849
520.659774,2294.638420,-8438.347739,1072.533697
520.660098,2886.803174,-7698.141797,1608.800546
520.660422,2516.700203,-7994.224174,1838.629195
520.660746,3256.906145,-9548.656652,1455.581446
520.661070,3478.967927,-10288.862594,2068.457845
520.661394,1776.494261,-9622.677246,2451.505594
520.661718,0.000000,-9696.697840,2374.896044
520.662042,-2220.617826,-9992.780217,1532.190996
520.662366,-3108.864956,-9770.718434,1762.019645
520.662690,-3330.926739,-8512.368333,842.705048
520.663014,-3256.906145,-9474.636058,536.266849
520.663338,-3108.864956,-10140.821405,536.266849
520.663662,-2368.659014,-8734.430116,0.000000
520.663986,-2368.659014,-6883.915261,-1149.143247
520.664310,-1998.556043,-7328.038826,-766.095498
520.664634,-444.123565,-8364.327145,-1072.533697
520.664958,1924.535449,-8660.409521,76.609550
520.665282,2812.782580,-8216.285956,689.485948
520.665606,3775.050304,-9474.636058,1225.752797
520.665930,4737.318029,-10732.986159,842.705048
520.666254,3849.070898,-10955.047942,766.095498
520.666578,1110.308913,-10658.965565,306.438199
520.666902,-1332.370696,-12213.398043,0.000000
520.667226,-2664.741391,-12583.501014,383.047749
520.667550,-2812.782580,-12065.356855,459.657299
520.667874,-2442.679609,-10955.047942,383.047749
520.668198,-2368.659014,-11103.089130,-459.657299
520.668522,-1776.494261,-10732.986159,-2298.286494
520.668846,-1480.411884,-9252.574275,-3140.991542
520.669170,-666.185348,-7846.182985,-2987.772442
520.669494,1628.453072,-9326.594869,-1991.848295
520.669818,3330.926739,-9622.677246,-1532.190996
520.670142,3478.967927,-8660.409521,-1302.362347
520.670466,4145.153275,-8586.388927,-536.266849
520.670790,4811.338623,-10288.862594,-153.219100
520.671114,4885.359217,-11029.068536,-153.219100
520.671438,2886.803174,-9992.780217,459.657299
520.671762,-888.247130,-9622.677246,306.438199
520.672086,-3256.906145,-10881.027347,-229.828649
520.672410,-4441.235652,-11103.089130,-383.047749
520.672734,-5551.544565,-9622.677246,-2145.067394
520.673058,-6513.812290,-8956.491898,-2068.457845
520.673382,-5403.503377,-9178.553681,-2757.943793
520.673706,-3849.070898,-8438.347739,-2604.724693
520.674030,-2812.782580,-7624.121203,-1991.848295
520.674354,-2220.617826,-7994.224174,-2451.505594
520.674678,-592.164754,-9030.512492,-1915.238745
520.675002,1110.308913,-8290.306550,-1608.800546
520.675326,3627.009116,-8734.430116,0.000000
520.675650,5033.400406,-9104.533087,536.266849
520.675974,6069.688724,-10066.800811,1455.581446
520.676298,5921.647536,-10066.800811,2221.676944
520.676622,3923.091493,-9844.739029,2451.505594
520.676946,1258.350101,-10510.924376,2221.676944
520.677270,-296.082377,-10732.986159,1532.190996
520.677594,-1480.411884,-10066.800811,1455.581446
520.677918,-2368.659014,-9548.656652,1149.143247
520.678242,-3182.885551,-9622.677246,-459.657299
520.678566,-2960.823768,-9474.636058,-1455.581446
520.678890,-2960.823768,-8882.471304,-1685.410096
520.679214,-2590.720797,-8142.265362,-1838.629195
520.679538,-1776.494261,-8364.327145,-1378.971896
520.679862,0.000000,-9400.615463,-1072.533697
520.680186,1776.494261,-8956.491898,229.828649
520.680510,2886.803174,-8734.430116,0.000000
520.680834,3849.070898,-9992.780217,383.047749
520.681158,5329.482782,-10732.986159,1378.971896
520.681482,4885.359217,-10881.027347,2451.505594
520.681806,2294.638420,-11103.089130,2451.505594
520.682130,222.061783,-12065.356855,2298.286494
520.682454,-1110.308913,-12139.377449,1608.800546
520.682778,-2516.700203,-11621.233289,1608.800546
520.683102,-2738.761985,-11029.068536,1149.143247
520.683427,-2738.761985,-11103.089130,229.828649
520.683751,-1924.535449,-10362.883188,-153.219100
520.684075,-2294.638420,-9178.553681,-459.657299
520.684399,-3330.926739,-8882.471304,-1225.752797
520.684723,-1924.535449,-9104.533087,-1608.800546
520.685047,-444.123565,-8290.306550,-1072.533697
520.685371,370.102971,-7105.977043,-919.314598
520.685695,1258.350101,-7624.121203,0.000000
520.686019,3627.009116,-8660.409521,842.705048
520.686343,5181.441594,-9030.512492,1838.629195
520.686667,3849.070898,-8808.450710,2451.505594
520.686991,1036.288319,-8512.368333,1685.410096
520.687315,-1332.370696,-9622.677246,1685.410096
520.687639,-2072.576638,-10955.047942,2451.505594
520.687963,-2368.659014,-11029.068536,1225.752797
520.688287,-3701.029710,-10066.800811,612.876398
520.688611,-3701.029710,-9474.636058,-229.828649
520.688935,-3330.926739,-9622.677246,-919.314598
520.689259,-3404.947333,-9400.615463,-995.924147
520.689583,-2664.741391,-9252.574275,-995.924147
520.689907,-1036.288319,-8216.285956,-1455.581446
520.690231,592.164754,-7772.162391,-919.314598
520.690555,1776.494261,-7624.121203,-842.705048
520.690879,3849.070898,-8290.306550,-383.047749
520.691203,4885.359217,-9400.615463,689.485948
520.691527,4663.297435,-9696.697840,1302.362347
520.691851,3256.906145,-9696.697840,1532.190996
520.692175,962.267725,-9992.780217,1838.629195
520.692499,-296.082377,-11251.130318,842.705048
520.692823,-1332.370696,-10214.842000,153.219100
520.693147,-2442.679609,-10436.903782,229.828649
520.693471,-2664.741391,-11621.233289,612.876398
520.693795,-2220.617826,-11695.253884,0.000000
520.694119,-2590.720797,-10066.800811,-919.314598
520.694443,-2590.720797,-8734.430116,-1608.800546
520.694767,-2442.679609,-9400.615463,-2451.505594
520.695091,-222.061783,-10066.800811,-2298.286494
520.695415,888.247130,-9252.574275,-1608.800546
520.695739,1924.535449,-8364.327145,-1072.533697
520.696063,3849.070898,-9252.574275,-459.657299
520.696387,5329.482782,-10066.800811,-229.828649
520.696711,4885.359217,-9918.759623,383.047749
520.697035,2960.823768,-9696.697840,995.924147
520.697359,1332.370696,-10066.800811,229.828649
520.697683,0.000000,-10214.842000,229.828649
520.698007,-1332.370696,-10140.821405,383.047749
520.698331,-2368.659014,-11325.150913,842.705048
520.698655,-2146.597232,-11769.274478,306.438199
520.698979,-2220.617826,-10140.821405,-229.828649
520.699303,-2960.823768,-8956.491898,-1149.143247
520.699627,-3330.926739,-9030.512492,-1915.238745
520.699951,-2146.597232,-10140.821405,-2145.067394
520.700275,-888.247130,-9400.615463,-2145.067394
520.700599,444.123565,-8586.388927,-1915.238745
520.700923,1332.370696,-8734.430116,-1378.971896
520.701247,2886.803174,-9326.594869,-995.924147
520.701571,3849.070898,-9030.512492,-153.219100
520.701895,3034.844362,-8734.430116,536.266849
520.702219,1850.514855,-9178.553681,536.266849
520.702543,1406.391290,-10066.800811,-153.219100
520.702867,888.247130,-9844.739029,1302.362347
520.703191,-74.020594,-9992.780217,1685.410096
520.703515,-1628.453072,-11473.192101,689.485948
520.703839,-3849.070898,-12065.356855,-153.219100
520.704163,-4811.338623,-9770.718434,-1838.629195
520.704487,-5403.503377,-8660.409521,-2221.676944
520.704811,-4737.318029,-9474.636058,-2374.896044
520.705135,-2738.761985,-10066.800811,-2298.286494
520.705459,-592.164754,-9030.512492,-1608.800546
520.705783,1406.391290,-9030.512492,-1532.190996
520.706107,3404.947333,-9992.780217,-536.266849
520.706431,5403.503377,-9548.656652,306.438199
520.706755,5477.523971,-9030.512492,536.266849
520.707079,2812.782580,-9252.574275,1072.533697
520.707403,2146.597232,-9548.656652,1762.019645
520.707728,2072.576638,-9844.739029,1608.800546
520.708052,814.226536,-10066.800811,2145.067394
520.708376,-592.164754,-10140.821405,1762.019645
520.708700,-1184.329507,-10658.965565,995.924147
520.709024,-1924.535449,-9696.697840,1149.143247
520.709348,-3997.112087,-8956.491898,0.000000
520.709672,-5403.503377,-9474.636058,-153.219100
520.709996,-5181.441594,-9622.677246,-1225.752797
520.710320,-3404.947333,-9030.512492,-1072.533697
520.710644,-1702.473667,-8660.409521,-919.314598
520.710968,296.082377,-9030.512492,-612.876398
520.711292,2368.659014,-9400.615463,306.438199
520.711616,3256.906145,-8956.491898,612.876398
520.711940,2368.659014,-8068.244768,1072.533697
520.712264,1998.556043,-8808.450710,1302.362347
520.712588,2664.741391,-9992.780217,1762.019645
520.712912,2886.803174,-9400.615463,2451.505594
520.713236,1258.350101,-9252.574275,2145.067394
520.713560,296.082377,-9844.739029,1838.629195
520.713884,-296.082377,-10955.047942,2068.457845
520.714208,-1406.391290,-10584.944971,1225.752797
520.714532,-3478.967927,-9400.615463,229.828649
520.714856,-4737.318029,-9326.594869,-1072.533697
520.715180,-4441.235652,-9474.636058,-2221.676944
520.715504,-2516.700203,-9474.636058,-1608.800546
520.715828,-1036.288319,-9104.533087,-1915.238745
520.716152,888.247130,-9104.533087,-1762.019645
520.716476,2886.803174,-9400.615463,-1302.362347
520.716800,3478.967927,-8660.409521,-1225.752797
520.717124,3108.864956,-8882.471304,-536.266849
520.717448,3552.988522,-9992.780217,383.047749
520.717772,3997.112087,-10658.965565,153.219100
520.718096,3404.947333,-10436.903782,612.876398
520.718420,2590.720797,-10510.924376,919.314598
520.718744,1998.556043,-11917.315666,1302.362347
520.719068,814.226536,-13101.645173,995.924147
520.719392,-1332.370696,-11769.274478,306.438199
520.719716,-3182.885551,-10732.986159,-306.438199
520.720040,-4663.297435,-11399.171507,-2221.676944
520.720364,-4737.318029,-11177.109724,-2374.896044
520.720688,-3997.112087,-10214.842000,-2451.505594
520.721012,-2146.597232,-9548.656652,-2145.067394
520.721336,592.164754,-9992.780217,-2145.067394
520.721660,2294.638420,-8512.368333,-1685.410096
520.721984,2368.659014,-7772.162391,-995.924147
520.722308,1258.350101,-7920.203579,-689.485948
520.722632,2442.679609,-8956.491898,76.609550
520.722956,2886.803174,-8956.491898,383.047749
520.723280,1998.556043,-8068.244768,842.705048
520.723604,1258.350101,-8142.265362,1302.362347
520.723928,1554.432478,-9474.636058,1608.800546
520.724252,592.164754,-9770.718434,1608.800546
520.724576,-2590.720797,-8956.491898,919.314598
520.724900,-5329.482782,-9252.574275,0.000000
520.725224,-6513.812290,-9548.656652,-536.266849
520.725548,-5625.565159,-8438.347739,-1608.800546
520.725872,-5255.462188,-7772.162391,-1838.629195
520.726196,-3627.009116,-8216.285956,-1302.362347
520.726520,0.000000,-8734.430116,-919.314598
520.726844,1998.556043,-8290.306550,-1455.581446
520.727168,2368.659014,-7402.059420,0.000000
520.727492,2294.638420,-8142.265362,-1149.143247
520.727816,2886.803174,-9918.759623,-612.876398
520.728140,3182.885551,-10214.842000,0.000000
520.728464,2812.782580,-9918.759623,766.095498
520.728788,2516.700203,-11177.109724,2221.676944
520.729112,2072.576638,-12213.398043,1915.238745
520.729436,592.164754,-11325.150913,1072.533697
520.729760,-1702.473667,-10362.883188,1225.752797
520.730084,-2886.803174,-11843.295072,1072.533697
520.730408,-2590.720797,-11769.274478,76.609550
520.730732,-2812.782580,-9992.780217,-536.266849
520.731056,-2960.823768,-8438.347739,-766.095498
520.731380,-1480.411884,-9474.636058,-1685.410096
520.731704,1036.288319,-10510.924376,-2298.286494
520.732028,1776.494261,-9178.553681,-2221.676944
520.732353,1628.453072,-8438.347739,-1532.190996
520.732677,2220.617826,-9770.718434,-1455.581446
520.733001,3256.906145,-11103.089130,-229.828649
520.733325,3997.112087,-11177.109724,1149.143247
520.733649,3552.988522,-11325.150913,1685.410096
520.733973,3552.988522,-11843.295072,1915.238745
520.734297,2516.700203,-11621.233289,2298.286494
520.734621,592.164754,-10807.006753,2528.115143
520.734945,-1702.473667,-10436.903782,2374.896044
520.735269,-3330.926739,-11325.150913,1302.362347
520.735593,-3775.050304,-9622.677246,306.438199
520.735917,-3923.091493,-7994.224174,-383.047749
520.736241,-3627.009116,-7994.224174,-383.047749
520.736565,-1998.556043,-8142.265362,-1455.581446
520.736889,-296.082377,-7698.141797,-1455.581446
520.737213,-592.164754,-6735.874072,-995.924147
520.737537,-444.123565,-7920.203579,-1072.533697
520.737861,592.164754,-8364.327145,-842.705048
520.738185,1850.514855,-8438.347739,919.314598
520.738509,2738.761985,-8364.327145,1762.019645
520.738833,3256.906145,-9696.697840,2374.896044
520.739157,2886.803174,-10362.883188,2911.162892
520.739481,2220.617826,-9622.677246,2987.772442
520.739805,-444.123565,-9474.636058,2681.334243
520.740129,-2294.638420,-9696.697840,1915.238745
520.740453,-2664.741391,-10066.800811,1608.800546
520.740778,-2664.741391,-9252.574275,842.705048
520.741102,-3256.906145,-8290.306550,0.000000
520.741426,-3108.864956,-7920.203579,-1072.533697
520.741750,-2220.617826,-8734.430116,-2528.115143
520.742075,-1850.514855,-8364.327145,-2145.067394
520.742399,-1184.329507,-8660.409521,-1532.190996
520.742723,-518.144159,-9548.656652,-1302.362347
520.743047,1036.288319,-9548.656652,-1225.752797
520.743372,2368.659014,-8734.430116,-229.828649
520.743696,3404.947333,-9770.718434,536.266849
520.744020,4737.318029,-11769.274478,1532.190996
520.744344,5033.400406,-11769.274478,1225.752797
520.744669,3034.844362,-10214.842000,1838.629195
520.744993,592.164754,-10732.986159,1455.581446
520.745317,-740.205942,-12139.377449,689.485948
520.745641,-1554.432478,-11843.295072,-229.828649
520.745966,-2664.741391,-10436.903782,-1149.143247
520.746290,-3701.029710,-10066.800811,-2298.286494
520.746614,-2960.823768,-10881.027347,-2604.724693
520.746938,-1850.514855,-10807.006753,-2604.724693
520.747263,-2220.617826,-9474.636058,-2528.115143
520.747587,-1998.556043,-9400.615463,-2834.553343
520.747911,-740.205942,-10066.800811,-3064.381992
520.748235,518.144159,-9844.739029,-1762.019645
520.748559,1998.556043,-9178.553681,-1072.533697
520.748884,3404.947333,-10140.821405,306.438199
520.749208,4959.379811,-11103.089130,919.314598
520.749532,4293.194464,-10436.903782,1149.143247
520.749856,2146.597232,-9474.636058,1455.581446
520.750181,-148.041188,-9918.759623,536.266849
520.750505,-1036.288319,-10658.965565,153.219100
520.750829,-1554.432478,-10214.842000,0.000000
520.751153,-2072.576638,-8808.450710,-306.438199
520.751478,-2368.659014,-8956.491898,-612.876398
520.751802,-2220.617826,-8216.285956,-1225.752797
520.752126,-2294.638420,-7328.038826,-1762.019645
520.752450,-3108.864956,-6735.874072,-2757.943793
520.752775,-3182.885551,-7402.059420,-2757.943793
520.753099,-1258.350101,-8142.265362,-1838.629195
520.753423,962.267725,-7624.121203,-689.485948
520.753747,2590.720797,-7846.182985,0.000000
520.754072,3627.009116,-9474.636058,536.266849
520.754396,4589.276840,-10288.862594,459.657299
520.754720,2664.741391,-10066.800811,689.485948
520.755044,444.123565,-10584.944971,1225.752797
520.755369,-444.123565,-11547.212695,766.095498
520.755693,-962.267725,-11843.295072,689.485948
520.756017,-1554.432478,-11843.295072,766.095498
520.756341,-2368.659014,-10436.903782,0.000000
520.756666,-1850.514855,-10436.903782,-1455.581446
520.756990,-1480.411884,-9918.759623,-1225.752797
520.757314,-1776.494261,-9548.656652,-1302.362347
520.757638,-2368.659014,-9400.615463,-1378.971896
520.757963,-1850.514855,-9474.636058,-1762.019645
520.758287,-592.164754,-9030.512492,-919.314598
520.758611,444.123565,-8808.450710,-612.876398
520.758935,2442.679609,-10362.883188,919.314598
520.759260,3404.947333,-10955.047942,1149.143247
520.759584,3478.967927,-10584.944971,1532.190996
520.759908,1628.453072,-9696.697840,1302.362347
520.760232,0.000000,-10140.821405,1072.533697
520.760557,-296.082377,-10362.883188,995.924147
520.760881,-740.205942,-10066.800811,689.485948
520.761205,-1184.329507,-9252.574275,689.485948
520.761529,-1036.288319,-9474.636058,383.047749
520.761854,-296.082377,-9474.636058,153.219100
520.762178,-666.185348,-9178.553681,153.219100
520.762502,-2146.597232,-8512.368333,-842.705048
520.762826,-2960.823768,-9474.636058,-995.924147
520.763151,-2294.638420,-9696.697840,-1149.143247
520.763475,-888.247130,-9252.574275,-153.219100
520.763799,296.082377,-8734.430116,0.000000
520.764123,1776.494261,-10288.862594,1072.533697
520.764448,3108.864956,-10288.862594,919.314598
520.764772,2590.720797,-9178.553681,1072.533697
520.765096,444.123565,-8512.368333,766.095498
520.765420,0.000000,-9326.594869,766.095498
520.765745,592.164754,-10140.821405,1532.190996
520.766069,518.144159,-9326.594869,1149.143247
520.766393,-296.082377,-8290.306550,383.047749
520.766717,-666.185348,-8660.409521,-536.266849
520.767042,-296.082377,-9474.636058,-766.095498
520.767366,222.061783,-8586.388927,-612.876398
520.767690,-222.061783,-9030.512492,306.438199
520.768014,-444.123565,-10362.883188,0.000000
520.768339,888.247130,-10288.862594,-612.876398
520.768663,518.144159,-9622.677246,383.047749
520.768987,1554.432478,-10658.965565,919.314598
520.769311,2220.617826,-11399.171507,76.609550
520.769636,2220.617826,-10732.986159,229.828649
520.769960,888.247130,-9474.636058,229.828649
520.770284,0.000000,-10066.800811,612.876398
520.770608,592.164754,-11251.130318,383.047749
520.770933,1110.308913,-10066.800811,383.047749
520.771257,0.000000,-9400.615463,383.047749
520.771581,-296.082377,-9030.512492,0.000000
520.771905,296.082377,-9696.697840,-459.657299
520.772230,740.205942,-8956.491898,-306.438199
520.772554,-592.164754,-8364.327145,0.000000
520.772878,-2368.659014,-9178.553681,-229.828649
520.773202,-2886.803174,-10140.821405,-766.095498
520.773527,-2072.576638,-9474.636058,-383.047749
520.773851,-1332.370696,-9030.512492,0.000000
520.774175,-592.164754,-9844.739029,-153.219100
520.774499,666.185348,-10140.821405,-306.438199
520.774824,148.041188,-9252.574275,0.000000
520.775148,-296.082377,-8586.388927,0.000000
520.775472,-962.267725,-8808.450710,-689.485948
520.775796,-592.164754,-9252.574275,-1149.143247
520.776121,-592.164754,-8142.265362,-1225.752797
520.776445,-370.102971,-8586.388927,-536.266849
520.776769,740.205942,-9770.718434,-995.924147
520.777093,1036.288319,-10214.842000,-1149.143247
520.777418,148.041188,-9696.697840,-689.485948
520.777742,-1554.432478,-9918.759623,-612.876398
520.778066,-2516.700203,-10658.965565,-1455.581446
520.778390,-2220.617826,-11399.171507,-995.924147
520.778715,-1628.453072,-10881.027347,-459.657299
520.779039,-1554.432478,-10881.027347,-919.314598
520.779363,-370.102971,-11103.089130,-1378.971896
520.779687,0.000000,-10362.883188,-689.485948
520.780011,-740.205942,-8956.491898,-1915.238745
520.780336,-888.247130,-8882.471304,-1991.848295
520.780660,0.000000,-9622.677246,-2145.067394
520.780984,1406.391290,-9548.656652,-1378.971896
520.781308,2812.782580,-9252.574275,-995.924147
520.781633,3478.967927,-9252.574275,-766.095498
520.781957,4071.132681,-10362.883188,0.000000
520.782281,4441.235652,-11177.109724,0.000000
520.782605,2812.782580,-11473.192101,536.266849
520.782930,-444.123565,-11547.212695,612.876398
520.783254,-1554.432478,-11843.295072,229.828649
520.783578,-740.205942,-11695.253884,306.438199
520.783902,-666.185348,-10584.944971,383.047749
520.784227,-740.205942,-9770.718434,153.219100
520.784551,-296.082377,-9622.677246,-459.657299
520.784875,-666.185348,-8956.491898,-689.485948
520.785199,-1554.432478,-7994.224174,-766.095498
520.785524,-1258.350101,-8142.265362,-842.705048
520.785848,0.000000,-8068.244768,-919.314598
520.786172,740.205942,-7846.182985,-153.219100
520.786496,962.267725,-7994.224174,306.438199
520.786821,1036.288319,-8882.471304,689.485948
520.787145,592.164754,-9030.512492,536.266849
520.787469,-444.123565,-9178.553681,1378.971896
520.787793,-1850.514855,-9030.512492,919.314598
520.788118,-2664.741391,-10066.800811,919.314598
520.788442,-2960.823768,-10436.903782,1455.581446
520.788766,-3330.926739,-9696.697840,1302.362347
520.789090,-3775.050304,-8956.491898,842.705048
520.789415,-2664.741391,-9474.636058,306.438199
520.789739,-1110.308913,-10140.821405,0.000000
520.790063,-222.061783,-9252.574275,-306.438199
520.790387,148.041188,-8364.327145,-536.266849
520.790712,1332.370696,-9252.574275,-383.047749
520.791036,3330.926739,-9770.718434,0.000000
520.791360,4589.276840,-9252.574275,842.705048
520.791684,5033.400406,-9548.656652,1225.752797
520.792009,5255.462188,-10288.862594,1532.190996
520.792333,4589.276840,-10881.027347,1762.019645
520.792657,2442.679609,-10584.944971,1608.800546
520.792981,-148.041188,-10510.924376,1225.752797
520.793306,-2220.617826,-11029.068536,766.095498
520.793630,-2738.761985,-11029.068536,842.705048
520.793954,-3627.009116,-10362.883188,612.876398
520.794278,-3256.906145,-9918.759623,229.828649
520.794603,-2516.700203,-9918.759623,0.000000
520.794927,-1702.473667,-9992.780217,-459.657299
520.795251,-1628.453072,-9178.553681,-919.314598
520.795575,-1702.473667,-8956.491898,-1225.752797
520.795900,-296.082377,-9474.636058,-1378.971896
520.796224,1406.391290,-9474.636058,-536.266849
520.796548,2590.720797,-9326.594869,-689.485948
520.796872,3034.844362,-9178.553681,0.000000
520.797197,4441.235652,-10066.800811,459.657299
520.797521,3923.091493,-10362.883188,1225.752797
520.797845,1924.535449,-9992.780217,995.924147
520.798169,-962.267725,-9696.697840,766.095498
520.798494,-2294.638420,-10288.862594,766.095498
520.798818,-2516.700203,-9622.677246,306.438199
520.799142,-2664.741391,-9030.512492,383.047749
520.799466,-2664.741391,-8512.368333,76.609550
520.799791,-1998.556043,-8734.430116,-919.314598
520.800115,-1776.494261,-7698.141797,-1378.971896
520.800439,-1924.535449,-7105.977043,-1991.848295
520.800763,-1850.514855,-8290.306550,-2145.067394
520.801088,-370.102971,-8512.368333,-2145.067394
520.801412,1480.411884,-8586.388927,-1455.581446
520.801736,1554.432478,-7994.224174,-1378.971896
520.802060,3404.947333,-9918.759623,-612.876398
520.802385,4145.153275,-10584.944971,0.000000
520.802709,3404.947333,-11029.068536,766.095498
520.803033,1332.370696,-10732.986159,919.314598
520.803357,-444.123565,-11251.130318,689.485948
520.803682,-1332.370696,-11621.233289,306.438199
520.804006,-1628.453072,-11029.068536,536.266849
520.804330,-1110.308913,-10362.883188,-536.266849
520.804654,-1332.370696,-10510.924376,-766.095498
520.804979,-1776.494261,-10362.883188,-1762.019645
520.805303,-2590.720797,-9474.636058,-2298.286494
520.805627,-2812.782580,-9104.533087,-2681.334243
520.805951,-1480.411884,-9178.553681,-2757.943793
520.806276,296.082377,-9178.553681,-2221.676944
520.806600,1258.350101,-8512.368333,-2451.505594
520.806924,2220.617826,-9400.615463,-1149.143247
520.807248,3627.009116,-10140.821405,-536.266849
520.807573,3923.091493,-10510.924376,0.000000
520.807897,2442.679609,-10362.883188,76.609550
520.808221,518.144159,-10658.965565,229.828649
520.808545,-592.164754,-11917.315666,1072.533697
520.808870,-740.205942,-12065.356855,1225.752797
520.809194,-1702.473667,-11695.253884,995.924147
520.809518,-2516.700203,-10955.047942,0.000000
520.809842,-2368.659014,-11251.130318,-229.828649
520.810167,-2368.659014,-10510.924376,-612.876398
520.810491,-3256.906145,-9474.636058,-995.924147
520.810815,-3034.844362,-9252.574275,-1455.581446
520.811139,-1850.514855,-8512.368333,-1915.238745
520.811463,-296.082377,-6735.874072,-2451.505594
520.811788,296.082377,-6439.791695,-919.314598
520.812112,2368.659014,-7624.121203,-229.828649
520.812436,4145.153275,-8364.327145,536.266849
520.812760,3923.091493,-7328.038826,1225.752797
520.813085,2072.576638,-7476.080014,1608.800546
520.813409,518.144159,-9252.574275,1532.190996
520.813733,296.082377,-9770.718434,2374.896044
520.814057,-1110.308913,-9326.594869,3064.381992
520.814382,-2146.597232,-9770.718434,2374.896044
520.814706,-2960.823768,-10807.006753,1378.971896
520.815030,-3108.864956,-10362.883188,153.219100
520.815354,-3034.844362,-9178.553681,-229.828649
520.815679,-2960.823768,-9326.594869,-1072.533697
520.816003,-2516.700203,-9918.759623,-1302.362347
520.816327,-666.185348,-9030.512492,-1762.019645
520.816651,0.000000,-8068.244768,-1149.143247
520.816976,1850.514855,-8438.347739,-1455.581446
520.817300,3923.091493,-9918.759623,-689.485948
520.817624,5107.421000,-10214.842000,536.266849
520.817948,4367.215058,-9918.759623,1225.752797
520.818273,2738.761985,-10510.924376,1072.533697
520.818597,666.185348,-11177.109724,1608.800546
520.818921,-222.061783,-11547.212695,2145.067394
520.819245,-1036.288319,-11621.233289,2145.067394
520.819570,-1628.453072,-11991.336260,1532.190996
520.819894,-1184.329507,-11473.192101,995.924147
520.820218,-1332.370696,-10214.842000,76.609550
520.820542,-2146.597232,-9696.697840,-1072.533697
520.820867,-2738.761985,-9918.759623,-1225.752797
520.821191,-1554.432478,-9992.780217,-1455.581446
520.821515,0.000000,-8882.471304,-2298.286494
520.821839,1036.288319,-7994.224174,-1378.971896
520.822164,2812.782580,-8734.430116,-995.924147
520.822488,5255.462188,-9770.718434,0.000000
520.822812,5329.482782,-10362.883188,1225.752797
520.823136,3108.864956,-9622.677246,2068.457845
520.823461,1036.288319,-9992.780217,1991.848295
520.823785,-740.205942,-10362.883188,2145.067394
520.824109,-1110.308913,-10658.965565,2221.676944
520.824433,-2368.659014,-9918.759623,1685.410096
520.824758,-2886.803174,-10066.800811,1225.752797
520.825082,-2960.823768,-9696.697840,536.266849
520.825406,-2886.803174,-8586.388927,0.000000
520.825730,-3404.947333,-7698.141797,-1455.581446
520.826055,-2738.761985,-7624.121203,-536.266849
520.826379,-1184.329507,-8216.285956,-1991.848295
520.826703,-370.102971,-7402.059420,-1991.848295
520.827027,222.061783,-7476.080014,-1302.362347
520.827352,1924.535449,-8290.306550,-995.924147
520.827676,4145.153275,-8660.409521,-229.828649
520.828000,4367.215058,-8808.450710,689.485948
520.828324,2368.659014,-9030.512492,689.485948
520.828649,740.205942,-9400.615463,76.609550
520.828973,0.000000,-9622.677246,919.314598
520.829297,-444.123565,-10362.883188,1762.019645
520.829621,-962.267725,-11177.109724,766.095498
520.829946,-1924.535449,-11177.109724,459.657299
520.830270,-2812.782580,-10288.862594,-689.485948
520.830594,-3330.926739,-9622.677246,-1455.581446
520.830918,-3701.029710,-10436.903782,-2298.286494
520.831243,-3034.844362,-11103.089130,-2757.943793
520.831567,-2072.576638,-10436.903782,-3294.210641
520.831891,-148.041188,-9770.718434,-3294.210641
520.832215,1702.473667,-10140.821405,-3140.991542
520.832540,3627.009116,-10732.986159,-2757.943793
520.832864,4145.153275,-10807.006753,-689.485948
520.833188,2812.782580,-11029.068536,-153.219100
520.833512,2368.659014,-10955.047942,536.266849
520.833837,2368.659014,-11695.253884,842.705048
520.834161,1776.494261,-11251.130318,1608.800546
520.834485,0.000000,-11029.068536,1608.800546
520.834809,-962.267725,-10732.986159,1072.533697
520.835134,-740.205942,-10436.903782,459.657299
520.835458,-1924.535449,-9474.636058,-229.828649
520.835782,-3182.885551,-8216.285956,-995.924147
520.836106,-4145.153275,-9326.594869,-1455.581446
520.836431,-3775.050304,-9326.594869,-2145.067394
520.836755,-2516.700203,-8512.368333,-1915.238745
520.837079,-1554.432478,-8216.285956,-1838.629195
520.837403,74.020594,-9326.594869,-995.924147
520.837728,2294.638420,-9770.718434,153.219100
520.838052,3552.988522,-9326.594869,1302.362347
520.838376,2738.761985,-8882.471304,1762.019645
520.838700,2072.576638,-8808.450710,689.485948
520.839025,1332.370696,-8660.409521,1378.971896
520.839349,888.247130,-8438.347739,2451.505594
520.839673,518.144159,-9178.553681,3140.991542
520.839997,74.020594,-9548.656652,3217.601092
520.840322,-592.164754,-9696.697840,2451.505594
520.840646,-1850.514855,-8660.409521,689.485948
520.840970,-2738.761985,-7994.224174,306.438199
520.841294,-2738.761985,-9252.574275,229.828649
520.841619,-2812.782580,-9992.780217,-306.438199
520.841943,-2368.659014,-9104.533087,-383.047749
520.842267,-1628.453072,-8364.327145,-1072.533697
520.842592,370.102971,-9474.636058,-459.657299
520.842916,1702.473667,-9400.615463,-306.438199
520.843240,2072.576638,-8438.347739,-536.266849
520.843565,592.164754,-8586.388927,-76.609550
520.843889,1406.391290,-9548.656652,0.000000
520.844213,1850.514855,-9992.780217,536.266849
520.844537,1998.556043,-9918.759623,1455.581446
520.844862,1924.535449,-10807.006753,1762.019645
520.845186,2294.638420,-11917.315666,1608.800546
520.845510,1628.453072,-12213.398043,1915.238745
520.845835,-888.247130,-11325.150913,1685.410096
520.846159,-2590.720797,-11695.253884,383.047749
520.846483,-3404.947333,-12287.418637,-995.924147
520.846808,-2960.823768,-11695.253884,-1838.629195
520.847132,-2368.659014,-10362.883188,-2451.505594
520.847456,-740.205942,-10288.862594,-2757.943793
520.847780,1480.411884,-9770.718434,-2374.896044
520.848105,2442.679609,-8882.471304,-2298.286494
520.848429,1332.370696,-7846.182985,-995.924147
520.848753,1184.329507,-8216.285956,-1685.410096
520.849078,1924.535449,-8438.347739,-612.876398
520.849402,2294.638420,-8290.306550,459.657299
520.849726,2220.617826,-8808.450710,1225.752797
520.850051,2146.597232,-9474.636058,1991.848295
520.850375,1554.432478,-10214.842000,1915.238745
520.850699,0.000000,-9696.697840,2221.676944
520.851024,-2442.679609,-9400.615463,1149.143247
520.851348,-4071.132681,-9992.780217,153.219100
520.851672,-3997.112087,-10288.862594,-536.266849
520.851996,-3330.926739,-8882.471304,-995.924147
520.852321,-2442.679609,-7772.162391,-1685.410096
520.852645,-592.164754,-8808.450710,-1991.848295
520.852969,1332.370696,-8808.450710,-1378.971896
520.853294,1776.494261,-7179.997637,-766.095498
520.853618,1406.391290,-7179.997637,-1072.533697
520.853942,1480.411884,-8660.409521,-689.485948
520.854267,2220.617826,-9104.533087,-153.219100
520.854591,1850.514855,-9030.512492,76.609550
520.854915,962.267725,-9252.574275,689.485948
520.855239,814.226536,-11029.068536,1378.971896
520.855564,740.205942,-11399.171507,2221.676944
520.855888,-962.267725,-10436.903782,1608.800546
520.856212,-3256.906145,-10362.883188,153.219100
520.856537,-4219.173869,-10732.986159,-306.438199
520.856861,-3552.988522,-10732.986159,-995.924147
520.857185,-2812.782580,-9696.697840,-1225.752797
520.857510,-1332.370696,-9696.697840,-1072.533697
520.857834,1036.288319,-9696.697840,-2451.505594
520.858158,2368.659014,-9030.512492,-2221.676944
520.858482,2294.638420,-8438.347739,-1608.800546
520.858807,2220.617826,-10288.862594,-1685.410096
520.859131,2960.823768,-11473.192101,-1149.143247
520.859455,2664.741391,-10732.986159,-306.438199
520.859780,1850.514855,-9844.739029,536.266849
520.860104,1776.494261,-11251.130318,919.314598
520.860428,1554.432478,-12583.501014,995.924147
520.860753,148.041188,-11769.274478,2068.457845
520.861077,-2072.576638,-10807.006753,919.314598
520.861401,-3182.885551,-11325.150913,919.314598
520.861726,-3108.864956,-10732.986159,536.266849
520.862050,-2960.823768,-9326.594869,-229.828649
520.862374,-2738.761985,-8586.388927,-1225.752797
520.862698,-1332.370696,-9252.574275,-1915.238745
520.863023,740.205942,-9104.533087,-2145.067394
520.863347,2368.659014,-8142.265362,-1455.581446
520.863671,1776.494261,-8068.244768,-995.924147
520.863996,1628.453072,-9104.533087,-766.095498
520.864320,1776.494261,-9252.574275,-459.657299
520.864644,1258.350101,-8882.471304,153.219100
520.864969,222.061783,-8808.450710,689.485948
520.865293,740.205942,-9770.718434,1762.019645
520.865617,666.185348,-9918.759623,2374.896044
520.865941,-740.205942,-8956.491898,2834.553343
520.866266,-2590.720797,-9326.594869,1838.629195
520.866590,-3849.070898,-9696.697840,1532.190996
520.866914,-3108.864956,-9178.553681,689.485948
520.867239,-2442.679609,-8216.285956,383.047749
520.867563,-2590.720797,-8216.285956,153.219100
520.867887,-814.226536,-9474.636058,-1532.190996
520.868212,888.247130,-9918.759623,-995.924147
520.868536,1702.473667,-9400.615463,-612.876398
520.868860,2072.576638,-9548.656652,-229.828649
520.869184,2368.659014,-10362.883188,-612.876398
520.869509,2146.597232,-10510.924376,383.047749
520.869833,962.267725,-10140.821405,0.000000
520.870157,740.205942,-9844.739029,1225.752797
520.870482,888.247130,-10362.883188,995.924147
520.870806,592.164754,-9992.780217,1608.800546
520.871130,-1406.391290,-9030.512492,1532.190996
520.871455,-2072.576638,-9400.615463,1072.533697
520.871779,-2442.679609,-10140.821405,536.266849
520.872103,-2664.741391,-9400.615463,612.876398
520.872427,-2368.659014,-8660.409521,-689.485948
520.872752,-814.226536,-9400.615463,-1302.362347
520.873076,1554.432478,-10288.862594,-1532.190996
520.873400,2368.659014,-10214.842000,-689.485948
520.873725,1924.535449,-9696.697840,-612.876398
520.874049,1406.391290,-10436.903782,-919.314598
520.874373,2146.597232,-11029.068536,-689.485948
520.874698,2368.659014,-10140.821405,-153.219100
520.875022,2146.597232,-9548.656652,229.828649
520.875346,2146.597232,-9770.718434,0.000000
520.875671,1702.473667,-10214.842000,383.047749
520.875995,296.082377,-9474.636058,612.876398
520.876319,-1554.432478,-9622.677246,689.485948
520.876643,-2516.700203,-10584.944971,536.266849
520.876968,-1998.556043,-10214.842000,153.219100
520.877292,-2072.576638,-8364.327145,0.000000
520.877616,-2368.659014,-8364.327145,-995.924147
520.877941,-1554.432478,-9844.739029,-1378.971896
520.878265,296.082377,-10362.883188,-1532.190996
520.878589,740.205942,-9622.677246,-1608.800546
520.878914,518.144159,-9326.594869,-1302.362347
520.879238,1554.432478,-9400.615463,-1225.752797
520.879562,2664.741391,-9178.553681,-995.924147
520.879886,3034.844362,-9252.574275,76.609550
520.880211,2812.782580,-9400.615463,306.438199
520.880535,2220.617826,-10732.986159,153.219100
520.880859,962.267725,-9844.739029,76.609550
520.881184,-1184.329507,-7846.182985,0.000000
520.881508,-3256.906145,-8586.388927,-383.047749
520.881832,-3404.947333,-10288.862594,0.000000
520.882157,-2812.782580,-10510.924376,-153.219100
520.882481,-2294.638420,-8586.388927,0.000000
520.882805,-1184.329507,-9030.512492,-383.047749
520.883129,296.082377,-10288.862594,-1072.533697
520.883454,888.247130,-10510.924376,-995.924147
520.883778,74.020594,-10214.842000,-1072.533697
520.884102,-222.061783,-10584.944971,-1149.143247
520.884427,592.164754,-10732.986159,-689.485948
520.884751,1628.453072,-10436.903782,229.828649
520.885075,1850.514855,-9992.780217,536.266849
520.885400,2220.617826,-9770.718434,306.438199
520.885724,2072.576638,-10288.862594,383.047749
520.886048,592.164754,-9992.780217,766.095498
520.886373,-1850.514855,-9030.512492,689.485948
520.886697,-2960.823768,-8808.450710,1302.362347
520.887021,-2812.782580,-8956.491898,383.047749
520.887345,-2516.700203,-8660.409521,229.828649
520.887670,-2590.720797,-8882.471304,459.657299
520.887994,-1184.329507,-9326.594869,-153.219100
520.888318,-222.061783,-9474.636058,0.000000
520.888643,-148.041188,-9178.553681,689.485948
520.888967,-666.185348,-9844.739029,229.828649
520.889291,-222.061783,-10658.965565,0.000000
520.889616,444.123565,-10436.903782,1149.143247
520.889940,1332.370696,-10140.821405,459.657299
520.890264,1702.473667,-10066.800811,919.314598
520.890588,1628.453072,-10584.944971,1302.362347
520.890913,1554.432478,-9474.636058,995.924147
520.891237,0.000000,-8142.265362,766.095498
520.891561,-1776.494261,-8068.244768,76.609550
520.891886,-2146.597232,-8660.409521,842.705048
520.892210,-1332.370696,-8290.306550,1302.362347
520.892534,-666.185348,-8512.368333,1302.362347
520.892859,-814.226536,-9030.512492,919.314598
520.893183,-370.102971,-9326.594869,229.828649
520.893507,74.020594,-8808.450710,0.000000
520.893831,0.000000,-9548.656652,229.828649
520.894156,-444.123565,-10732.986159,76.609550
520.894480,666.185348,-11029.068536,0.000000
520.894804,444.123565,-10362.883188,-153.219100
520.895129,1110.308913,-10362.883188,153.219100
520.895453,2738.761985,-11547.212695,-153.219100
520.895777,3478.967927,-11695.253884,0.000000
520.896102,2220.617826,-10214.842000,0.000000
520.896426,-148.041188,-9474.636058,612.876398
520.896750,-444.123565,-9992.780217,-536.266849
520.897075,74.020594,-10807.006753,689.485948
520.897399,-296.082377,-9400.615463,153.219100
520.897723,-666.185348,-8882.471304,229.828649
520.898047,-370.102971,-9622.677246,-383.047749
520.898372,444.123565,-10436.903782,0.000000
520.898696,740.205942,-9696.697840,459.657299
520.899020,-222.061783,-9474.636058,229.828649
520.899345,-592.164754,-10510.924376,-612.876398
520.899669,0.000000,-10362.883188,0.000000
520.899993,740.205942,-9622.677246,-153.219100
520.900318,1332.370696,-10066.800811,-306.438199
520.900642,1776.494261,-10510.924376,0.000000
520.900966,2294.638420,-9844.739029,0.000000
520.901290,1258.350101,-8808.450710,306.438199
520.901615,-666.185348,-7624.121203,76.609550
520.901939,-1110.308913,-8364.327145,-459.657299
520.902263,-1036.288319,-8068.244768,-229.828649
520.902588,-962.267725,-7846.182985,0.000000
520.902912,-1184.329507,-7994.224174,229.828649
520.903236,-592.164754,-8364.327145,76.609550
520.903561,-148.041188,-8438.347739,383.047749
520.903885,-666.185348,-8734.430116,0.000000
520.904209,-1406.391290,-9696.697840,-536.266849
520.904533,-1998.556043,-9474.636058,-459.657299
520.904858,-1702.473667,-9474.636058,-536.266849
520.905182,-370.102971,-10140.821405,-459.657299
520.905506,370.102971,-11621.233289,-229.828649
520.905831,1036.288319,-11621.233289,-766.095498
520.906155,1110.308913,-9992.780217,-689.485948
520.906479,0.000000,-8734.430116,-1149.143247
520.906804,0.000000,-9104.533087,-1225.752797
520.907128,740.205942,-10066.800811,-1149.143247
520.907452,592.164754,-9770.718434,-766.095498
520.907777,0.000000,-9030.512492,-459.657299
520.908101,148.041188,-9474.636058,-1072.533697
520.908425,592.164754,-10140.821405,-1072.533697
520.908749,222.061783,-10436.903782,-153.219100
520.909074,-962.267725,-10510.924376,0.000000
520.909398,-2072.576638,-11325.150913,-766.095498
520.909722,-1998.556043,-11695.253884,-459.657299
520.910047,-1406.391290,-11547.212695,153.219100
520.910371,-370.102971,-11621.233289,229.828649
520.910695,888.247130,-11769.274478,153.219100
520.911020,1480.411884,-11325.150913,0.000000
520.911344,740.205942,-9400.615463,-842.705048
520.911668,0.000000,-8438.347739,-842.705048
520.911992,-222.061783,-9400.615463,-995.924147
520.912317,1110.308913,-9474.636058,-919.314598
520.912641,1184.329507,-8438.347739,-153.219100
520.912965,1110.308913,-8290.306550,689.485948
520.913290,1332.370696,-8882.471304,306.438199
520.913614,1406.391290,-9400.615463,842.705048
520.913938,-444.123565,-8882.471304,1072.533697
520.914263,-2368.659014,-9548.656652,1072.533697
520.914587,-2812.782580,-10658.965565,1149.143247
520.914911,-2442.679609,-10066.800811,1378.971896
520.915235,-1702.473667,-8882.471304,1225.752797
520.915560,-962.267725,-9400.615463,766.095498
520.915884,0.000000,-9696.697840,689.485948
520.916208,888.247130,-8882.471304,536.266849
520.916533,444.123565,-7994.224174,0.000000
520.916857,-296.082377,-7698.141797,153.219100
520.917181,222.061783,-8438.347739,-612.876398
520.917506,888.247130,-7920.203579,0.000000
520.917830,962.267725,-7550.100608,153.219100
520.918154,1184.329507,-8586.388927,536.266849
520.918479,1776.494261,-9326.594869,842.705048
520.918803,1554.432478,-9696.697840,1532.190996
520.919127,-444.123565,-9474.636058,1762.019645
520.919451,-2294.638420,-10140.821405,1149.143247
520.919776,-2960.823768,-10955.047942,612.876398
520.920100,-2516.700203,-10214.842000,689.485948
520.920424,-1702.473667,-9992.780217,459.657299
520.920749,-222.061783,-11325.150913,919.314598
520.921073,1628.453072,-11547.212695,153.219100
520.921397,1998.556043,-10214.842000,-459.657299
520.921722,666.185348,-8882.471304,-1072.533697
520.922046,1036.288319,-9696.697840,-1225.752797
520.922370,2220.617826,-10955.047942,-1532.190996
520.922694,2738.761985,-10214.842000,0.000000
520.923019,2738.761985,-9474.636058,0.000000
520.923343,2960.823768,-9918.759623,229.828649
520.923667,2590.720797,-10362.883188,76.609550
520.923992,888.247130,-10066.800811,383.047749
520.924316,-1776.494261,-9474.636058,306.438199
520.924640,-2738.761985,-10881.027347,919.314598
520.924965,-2590.720797,-10658.965565,1149.143247
520.925289,-2442.679609,-10140.821405,1072.533697
520.925613,-2146.597232,-9844.739029,689.485948
520.925937,-962.267725,-9992.780217,0.000000
520.926262,148.041188,-10362.883188,-689.485948
520.926586,0.000000,-9400.615463,-1302.362347
520.926910,74.020594,-8142.265362,-1532.190996
520.927235,1036.288319,-8956.491898,-1532.190996
520.927559,1850.514855,-8808.450710,-1455.581446
520.927883,1258.350101,-8364.327145,-1378.971896
520.928208,1258.350101,-8660.409521,-1378.971896
520.928532,1776.494261,-9400.615463,-153.219100
520.928856,2442.679609,-9622.677246,919.314598
520.929181,1184.329507,-8364.327145,1149.143247
520.929505,-1998.556043,-8734.430116,1072.533697
520.929829,-2960.823768,-9770.718434,842.705048
520.930153,-3330.926739,-9770.718434,689.485948
520.930478,-2664.741391,-9622.677246,766.095498
520.930802,-1702.473667,-10066.800811,689.485948
520.931126,-592.164754,-9770.718434,-153.219100
520.931451,0.000000,-8734.430116,-1378.971896
520.931775,-1110.308913,-8734.430116,-1838.629195
520.932099,-962.267725,-9622.677246,-2528.115143
520.932424,888.247130,-10436.903782,-2451.505594
520.932748,1702.473667,-9474.636058,-1838.629195
520.933072,1924.535449,-8586.388927,-1608.800546
520.933396,2590.720797,-9400.615463,-1532.190996
520.933721,3627.009116,-10584.944971,-995.924147
520.934045,3404.947333,-10436.903782,612.876398
520.934369,740.205942,-9844.739029,842.705048
520.934694,-1258.350101,-10510.924376,842.705048
520.935018,-2220.617826,-10584.944971,842.705048
520.935342,-1924.535449,-10807.006753,842.705048
520.935667,-2368.659014,-11177.109724,919.314598
520.935991,-2146.597232,-11843.295072,383.047749
520.936315,-1036.288319,-10955.047942,-459.657299
520.936639,-962.267725,-9474.636058,-995.924147
520.936964,-740.205942,-9770.718434,-1302.362347
520.937288,74.020594,-10807.006753,-2068.457845
520.937612,1258.350101,-10584.944971,-1455.581446
520.937937,1110.308913,-9178.553681,-1072.533697
520.938261,1332.370696,-8512.368333,-919.314598
520.938585,2812.782580,-8808.450710,-612.876398
520.938910,3182.885551,-9326.594869,919.314598
520.939234,1702.473667,-9030.512492,459.657299
520.939558,-592.164754,-9104.533087,766.095498
520.939883,-2220.617826,-9696.697840,1532.190996
520.940207,-2442.679609,-10214.842000,2298.286494
520.940531,-2738.761985,-10140.821405,2451.505594
520.940855,-3108.864956,-9992.780217,2451.505594
520.941180,-2516.700203,-9696.697840,1149.143247
520.941504,-2146.597232,-9252.574275,766.095498
520.941828,-1850.514855,-7994.224174,229.828649
520.942152,-1406.391290,-8586.388927,0.000000
520.942476,-148.041188,-9252.574275,-766.095498
520.942801,666.185348,-8068.244768,-766.095498
520.943125,888.247130,-7105.977043,-995.924147
520.943449,1628.453072,-7476.080014,-689.485948
520.943773,2812.782580,-8882.471304,459.657299
520.944097,2738.761985,-8956.491898,1302.362347
520.944422,1184.329507,-8068.244768,689.485948
520.944746,-1036.288319,-8734.430116,842.705048
520.945070,-1998.556043,-9400.615463,689.485948
520.945394,-2146.597232,-9548.656652,1455.581446
520.945718,-1628.453072,-10658.965565,1991.848295
520.946043,-1332.370696,-11325.150913,2374.896044
520.946367,-148.041188,-10881.027347,2298.286494
520.946691,74.020594,-9770.718434,1302.362347
520.947015,-814.226536,-9548.656652,-306.438199
520.947339,-1110.308913,-10584.944971,-2145.067394
520.947664,-148.041188,-10140.821405,-2604.724693
520.947988,888.247130,-9622.677246,-2068.457845
520.948312,1480.411884,-10140.821405,-2145.067394
520.948636,2516.700203,-10510.924376,-1302.362347
520.948960,4145.153275,-11177.109724,-1072.533697
520.949285,3404.947333,-10066.800811,-536.266849
520.949609,1480.411884,-9770.718434,-919.314598
520.949933,0.000000,-10362.883188,-689.485948
520.950257,-296.082377,-9992.780217,612.876398
520.950581,0.000000,-10436.903782,2068.457845
520.950906,74.020594,-11251.130318,2451.505594
520.951230,296.082377,-11029.068536,2068.457845
520.951554,74.020594,-10140.821405,1302.362347
520.951878,-740.205942,-9474.636058,459.657299
520.952203,-1554.432478,-9770.718434,-536.266849
520.952527,-1702.473667,-10288.862594,-1072.533697
520.952851,-962.267725,-9474.636058,-1608.800546
520.953175,-370.102971,-8808.450710,-2068.457845
520.953499,740.205942,-9400.615463,-2068.457845
520.953824,2072.576638,-9400.615463,-2068.457845
520.954148,2294.638420,-8586.388927,-1302.362347
520.954472,666.185348,-8142.265362,-842.705048
520.954796,-296.082377,-8364.327145,-919.314598
520.955120,-222.061783,-9104.533087,0.000000
520.955445,148.041188,-8882.471304,1455.581446
520.955769,0.000000,-8956.491898,2374.896044
520.956093,444.123565,-10214.842000,2528.115143
520.956417,74.020594,-10658.965565,2451.505594
520.956741,-1184.329507,-9548.656652,1838.629195
520.957066,-2664.741391,-9326.594869,1455.581446
520.957390,-3256.906145,-9696.697840,-306.438199
520.957714,-3108.864956,-9992.780217,-1838.629195
520.958038,-1998.556043,-8956.491898,-1991.848295
520.958362,-666.185348,-7994.224174,-2451.505594
520.958687,1406.391290,-9252.574275,-2451.505594
520.959011,2442.679609,-9622.677246,-2298.286494
520.959335,1628.453072,-8734.430116,-1302.362347
520.959659,370.102971,-9030.512492,-1378.971896
520.959983,148.041188,-9474.636058,-1302.362347
520.960308,888.247130,-9992.780217,0.000000
520.960632,1554.432478,-10362.883188,766.095498
520.960956,1998.556043,-11251.130318,2451.505594
520.961280,1184.329507,-11843.295072,2911.162892
520.961604,962.267725,-11547.212695,1608.800546
520.961929,-1184.329507,-9918.759623,1455.581446
520.962253,-2960.823768,-10584.944971,919.314598
520.962577,-3034.844362,-11843.295072,-383.047749
520.962901,-1702.473667,-10658.965565,-1149.143247
520.963225,-444.123565,-9104.533087,-842.705048
520.963550,-296.082377,-8660.409521,-1762.019645
520.963874,148.041188,-9474.636058,-2451.505594
520.964198,740.205942,-8808.450710,-1991.848295
520.964522,444.123565,-8438.347739,-1225.752797
520.964846,0.000000,-8512.368333,-1225.752797
520.965171,370.102971,-8734.430116,-842.705048
520.965495,296.082377,-8290.306550,536.266849
520.965819,148.041188,-8364.327145,1378.971896
520.966143,-74.020594,-9696.697840,1838.629195
520.966467,0.000000,-10436.903782,1991.848295
520.966792,-296.082377,-9548.656652,2604.724693
520.967116,-1628.453072,-9474.636058,1991.848295
520.967440,-2220.617826,-10066.800811,842.705048
520.967764,-2294.638420,-10732.986159,0.000000
520.968088,-1110.308913,-9918.759623,-383.047749
520.968413,0.000000,-9622.677246,-459.657299
520.968737,444.123565,-9992.780217,-2834.553343
520.969061,1332.370696,-9400.615463,-2145.067394
520.969385,1850.514855,-9104.533087,-1532.190996
520.969709,962.267725,-9178.553681,-1608.800546
520.970034,148.041188,-10066.800811,-1225.752797
520.970358,148.041188,-9844.739029,-766.095498
520.970682,666.185348,-8586.388927,153.219100
520.971006,740.205942,-8808.450710,995.924147
520.971330,1258.350101,-10362.883188,1072.533697
520.971655,1406.391290,-10807.006753,1915.238745
520.971979,370.102971,-10362.883188,2298.286494
520.972303,-1554.432478,-10732.986159,2221.676944
520.972627,-2368.659014,-11843.295072,1302.362347
520.972951,-1628.453072,-11621.233289,306.438199
520.973276,-1406.391290,-9252.574275,-766.095498
520.973600,-666.185348,-9622.677246,-1685.410096
520.973924,888.247130,-8956.491898,-2145.067394
520.974248,2886.803174,-9326.594869,-1685.410096
520.974572,2664.741391,-8364.327145,-919.314598
520.974897,1628.453072,-8216.285956,-995.924147
520.975221,1184.329507,-8438.347739,-919.314598
520.975545,1036.288319,-8438.347739,-306.438199
520.975869,0.000000,-7920.203579,-153.219100
520.976193,-148.041188,-9030.512492,612.876398
520.976518,0.000000,-10066.800811,1225.752797
520.976842,74.020594,-10955.047942,2374.896044
520.977166,-1258.350101,-10807.006753,2604.724693
520.977490,-2664.741391,-10658.965565,2221.676944
520.977814,-3108.864956,-11029.068536,1455.581446
520.978139,-2442.679609,-10066.800811,-459.657299
520.978463,-1628.453072,-9252.574275,-612.876398
520.978787,-518.144159,-8956.491898,-995.924147
520.979111,2072.576638,-9622.677246,-1378.971896
520.979436,2960.823768,-9104.533087,-1149.143247
520.979760,2072.576638,-8734.430116,-1072.533697
520.980084,1110.308913,-9474.636058,-919.314598
520.980408,1036.288319,-9918.759623,-1378.971896
520.980732,592.164754,-9474.636058,-612.876398
520.981057,-222.061783,-8364.327145,-306.438199
520.981381,0.000000,-9474.636058,-306.438199
520.981705,592.164754,-10510.924376,766.095498
520.982029,-444.123565,-9326.594869,1302.362347
520.982353,-1850.514855,-9252.574275,1455.581446
520.982678,-2442.679609,-10436.903782,1072.533697
520.983002,-1924.535449,-10955.047942,536.266849
520.983326,-1258.350101,-9548.656652,995.924147
520.983650,-370.102971,-9326.594869,76.609550
520.983974,740.205942,-10066.800811,-1302.362347
520.984299,2220.617826,-10214.842000,-766.095498
520.984623,2664.741391,-9992.780217,-1149.143247
520.984947,2220.617826,-10362.883188,-1378.971896
520.985271,1628.453072,-10732.986159,-1915.238745
520.985595,888.247130,-9696.697840,-1838.629195
520.985920,0.000000,-8586.388927,-1455.581446
520.986244,-740.205942,-9178.553681,-2298.286494
520.986568,-518.144159,-10658.965565,306.438199
520.986892,74.020594,-10584.944971,1302.362347
520.987216,-222.061783,-9696.697840,2068.457845
520.987541,-1702.473667,-9992.780217,1838.629195
520.987865,-2516.700203,-10288.862594,995.924147
520.988189,-2294.638420,-9104.533087,459.657299
520.988513,-2368.659014,-8364.327145,229.828649
520.988837,-962.267725,-10140.821405,612.876398
520.989162,1184.329507,-10362.883188,0.000000
520.989486,2886.803174,-8660.409521,-612.876398
520.989810,2072.576638,-7476.080014,-995.924147
520.990134,222.061783,-8882.471304,-1915.238745
520.990458,-444.123565,-9844.739029,-2221.676944
520.990783,-444.123565,-8660.409521,-1762.019645
520.991107,-740.205942,-8512.368333,-459.657299
520.991431,148.041188,-9252.574275,153.219100
520.991755,0.000000,-9992.780217,536.266849
520.992079,-296.082377,-9474.636058,919.314598
520.992404,-1702.473667,-9400.615463,1225.752797
520.992728,-2516.700203,-10362.883188,1302.362347
520.993052,-2220.617826,-10436.903782,1225.752797
520.993376,-1776.494261,-8660.409521,1225.752797
520.993700,-444.123565,-8142.265362,459.657299
520.994025,370.102971,-9178.553681,-919.314598
520.994349,888.247130,-9770.718434,-1225.752797
520.994673,1332.370696,-10288.862594,-1378.971896
520.994997,1332.370696,-10140.821405,-1532.190996
520.995321,1110.308913,-10288.862594,-1991.848295
520.995646,518.144159,-10362.883188,-1685.410096
520.995970,148.041188,-10288.862594,-1149.143247
520.996294,296.082377,-10955.047942,-766.095498
520.996618,740.205942,-11251.130318,-612.876398
520.996942,1258.350101,-10658.965565,536.266849
520.997267,814.226536,-9992.780217,995.924147
520.997591,-518.144159,-9844.739029,1532.190996
520.997915,-888.247130,-10881.027347,1378.971896
520.998239,-592.164754,-10510.924376,1225.752797
520.998563,-888.247130,-9770.718434,1302.362347
520.998888,-296.082377,-9178.553681,536.266849
520.999212,1110.308913,-10436.903782,-153.219100
520.999536,1776.494261,-10362.883188,-306.438199
520.999860,962.267725,-9696.697840,-229.828649
521.000184,-296.082377,-10362.883188,-766.095498
521.000509,-592.164754,-10436.903782,-919.314598
521.000833,-666.185348,-8216.285956,-1302.362347
521.001157,-518.144159,-7179.997637,-306.438199
521.001481,444.123565,-8512.368333,842.705048
521.001805,2072.576638,-9326.594869,612.876398
521.002130,1332.370696,-7994.224174,1455.581446
521.002454,-1036.288319,-6957.935855,1532.190996
521.002778,-2294.638420,-8142.265362,459.657299
521.003102,-2146.597232,-8808.450710,689.485948
521.003426,-1554.432478,-8216.285956,842.705048
521.003751,-1406.391290,-9326.594869,1302.362347
521.004075,0.000000,-10436.903782,689.485948
521.004399,1110.308913,-10436.903782,0.000000
521.004723,1036.288319,-9252.574275,0.000000
521.005048,518.144159,-9548.656652,-689.485948
521.005372,-222.061783,-11251.130318,-1455.581446
521.005696,74.020594,-11103.089130,-1532.190996
521.006020,518.144159,-9178.553681,-1149.143247
521.006344,740.205942,-9252.574275,-459.657299
521.006669,1332.370696,-10732.986159,-1378.971896
521.006993,1406.391290,-9844.739029,-1072.533697
521.007317,148.041188,-8364.327145,-153.219100
521.007641,-1184.329507,-9104.533087,-229.828649
521.007965,-1702.473667,-10658.965565,-229.828649
521.008290,-1332.370696,-10214.842000,229.828649
521.008614,-814.226536,-8882.471304,383.047749
521.008938,-296.082377,-9992.780217,689.485948
521.009262,-296.082377,-11399.171507,-689.485948
521.009586,444.123565,-11325.150913,-459.657299
521.009911,1110.308913,-10658.965565,-153.219100
521.010235,962.267725,-11325.150913,-842.705048
521.010559,518.144159,-11399.171507,-1149.143247
521.010883,518.144159,-10214.842000,-1072.533697
521.011207,370.102971,-9326.594869,-1302.362347
521.011532,814.226536,-10362.883188,-689.485948
521.011856,2072.576638,-11325.150913,-76.609550
521.012180,1850.514855,-9770.718434,-153.219100
521.012504,0.000000,-7994.224174,306.438199
521.012828,-1628.453072,-8734.430116,229.828649
521.013153,-2368.659014,-9474.636058,0.000000
521.013477,-2664.741391,-8734.430116,0.000000
521.013801,-3182.885551,-7772.162391,536.266849
521.014125,-2368.659014,-9178.553681,689.485948
521.014449,-222.061783,-9474.636058,459.657299
521.014774,74.020594,-8734.430116,1072.533697
521.015098,-962.267725,-8734.430116,1302.362347
521.015422,-888.247130,-9918.759623,0.000000
521.015746,0.000000,-10066.800811,-383.047749
521.016070,370.102971,-8734.430116,229.828649
521.016395,888.247130,-8734.430116,612.876398
521.016719,1036.288319,-10066.800811,-306.438199
521.017043,1406.391290,-10140.821405,-1072.533697
521.017367,222.061783,-8660.409521,-229.828649
521.017691,-888.247130,-8364.327145,0.000000
521.018016,-1480.411884,-9030.512492,-766.095498
521.018340,-1480.411884,-8808.450710,0.000000
521.018664,-888.247130,-8586.388927,1149.143247
521.018988,0.000000,-9992.780217,995.924147
521.019312,74.020594,-10436.903782,919.314598
521.019637,222.061783,-9104.533087,536.266849
521.019961,444.123565,-8586.388927,766.095498
521.020285,666.185348,-10584.944971,459.657299
521.020609,814.226536,-11843.295072,0.000000
521.020933,740.205942,-10955.047942,0.000000
521.021258,1110.308913,-9770.718434,-383.047749
521.021582,1702.473667,-10214.842000,-766.095498
521.021906,2220.617826,-10955.047942,-919.314598
521.022230,2590.720797,-10288.862594,-306.438199
521.022554,1406.391290,-9252.574275,-919.314598
521.022879,-296.082377,-9474.636058,-1225.752797
521.023203,-1184.329507,-10362.883188,-1225.752797
521.023527,-518.144159,-9844.739029,-689.485948
521.023851,-444.123565,-9548.656652,76.609550
521.024175,-444.123565,-9178.553681,-306.438199
521.024500,518.144159,-9770.718434,-383.047749
521.024824,1480.411884,-9844.739029,536.266849
521.025148,1110.308913,-10584.944971,919.314598
521.025472,0.000000,-11621.233289,612.876398
521.025796,-370.102971,-11473.192101,0.000000
521.026121,-962.267725,-9548.656652,-229.828649
521.026445,-962.267725,-9178.553681,-842.705048
521.026769,-518.144159,-10510.924376,-1532.190996
521.027093,666.185348,-10881.027347,-612.876398
521.027417,148.041188,-10066.800811,-383.047749
521.027742,-1258.350101,-9030.512492,-229.828649
521.028066,-1332.370696,-8734.430116,-536.266849
521.028390,-962.267725,-8586.388927,-842.705048
521.028714,-962.267725,-7476.080014,0.000000
521.029038,-814.226536,-7920.203579,-306.438199
521.029363,-444.123565,-8734.430116,1225.752797
521.029687,888.247130,-9252.574275,0.000000
521.030011,370.102971,-8216.285956,995.924147
521.030335,-814.226536,-8586.388927,383.047749
521.030659,-1036.288319,-10140.821405,-153.219100
521.030984,-1110.308913,-10214.842000,0.000000
521.031308,-814.226536,-9622.677246,0.000000
521.031632,-148.041188,-9770.718434,76.609550
521.031956,962.267725,-10732.986159,0.000000
521.032281,1332.370696,-10584.944971,0.000000
521.032605,518.144159,-9400.615463,0.000000
521.032929,-518.144159,-9104.533087,-919.314598
521.033253,-740.205942,-9474.636058,-1225.752797
521.033577,0.000000,-8734.430116,-1608.800546
521.033902,0.000000,-8734.430116,-995.924147
521.034226,592.164754,-8956.491898,-229.828649
521.034550,666.185348,-10214.842000,-612.876398
521.034874,740.205942,-10214.842000,-383.047749
521.035198,-148.041188,-9474.636058,0.000000
521.035523,-1258.350101,-10510.924376,-153.219100
521.035847,-1702.473667,-11843.295072,153.219100
521.036171,-666.185348,-11695.253884,459.657299
521.036495,0.000000,-11177.109724,842.705048
521.036819,1036.288319,-11621.233289,536.266849
521.037144,1406.391290,-11177.109724,153.219100
521.037468,1332.370696,-9918.759623,306.438199
521.037792,740.205942,-9104.533087,-612.876398
521.038116,0.000000,-9326.594869,-1072.533697
521.038440,148.041188,-9104.533087,-1149.143247
521.038765,148.041188,-8512.368333,-919.314598
521.039089,-222.061783,-8364.327145,-766.095498
521.039413,0.000000,-9030.512492,-306.438199
521.039737,888.247130,-9474.636058,0.000000
521.040061,148.041188,-9104.533087,306.438199
521.040386,-1850.514855,-9178.553681,383.047749
521.040710,-2886.803174,-10140.821405,536.266849
521.041034,-1776.494261,-10881.027347,1225.752797
521.041358,-444.123565,-10140.821405,1838.629195
521.041682,296.082377,-10584.944971,2528.115143
521.042007,666.185348,-10362.883188,1532.190996
521.042331,592.164754,-9030.512492,306.438199
521.042655,0.000000,-8068.244768,153.219100
521.042979,-814.226536,-7920.203579,-383.047749
521.043303,-148.041188,-9104.533087,-689.485948
521.043628,148.041188,-8660.409521,-689.485948
521.043952,-296.082377,-6587.832884,-536.266849
521.044276,-444.123565,-7031.956449,-1149.143247
521.044600,222.061783,-9178.553681,-1072.533697
521.044925,370.102971,-10066.800811,-612.876398
521.045249,-592.164754,-9474.636058,76.609550
521.045573,-1036.288319,-9326.594869,383.047749
521.045897,-1036.288319,-10436.903782,383.047749
521.046221,-444.123565,-11029.068536,919.314598
521.046546,-222.061783,-10510.924376,766.095498
521.046870,0.000000,-11547.212695,995.924147
521.047194,1628.453072,-12287.418637,459.657299
521.047518,2664.741391,-11103.089130,76.609550
521.047842,1998.556043,-9770.718434,-383.047749
521.048167,1406.391290,-9770.718434,-766.095498
521.048491,1702.473667,-11399.171507,-1991.848295
521.048815,888.247130,-10288.862594,-2451.505594
521.049139,0.000000,-8808.450710,-1532.190996
521.049464,444.123565,-9400.615463,-1838.629195
521.049788,1184.329507,-10362.883188,-1838.629195
521.050112,592.164754,-9474.636058,-766.095498
521.050436,-1036.288319,-9252.574275,-459.657299
521.050760,-2072.576638,-10436.903782,0.000000
521.051085,-2368.659014,-10140.821405,153.219100
521.051409,-1850.514855,-9770.718434,1225.752797
521.051733,-444.123565,-10066.800811,1532.190996
521.052057,1036.288319,-10881.027347,1685.410096
521.052381,2072.576638,-10807.006753,766.095498
521.052706,1406.391290,-8956.491898,306.438199
521.053030,592.164754,-8512.368333,-383.047749
521.053354,0.000000,-9548.656652,-842.705048
521.053678,1110.308913,-9844.739029,-1378.971896
521.054003,740.205942,-8068.244768,-1072.533697
521.054327,0.000000,-7846.182985,-1455.581446
521.054651,296.082377,-8956.491898,-1762.019645
521.054975,740.205942,-9326.594869,-1225.752797
521.055299,-222.061783,-7994.224174,-383.047749
521.055624,-2072.576638,-8068.244768,0.000000
521.055948,-2738.761985,-10214.842000,-153.219100
521.056272,-3552.988522,-9918.759623,536.266849
521.056596,-2812.782580,-9104.533087,995.924147
521.056920,-2072.576638,-9992.780217,1225.752797
521.057245,-1110.308913,-11621.233289,919.314598
521.057569,-222.061783,-10510.924376,229.828649
521.057893,-148.041188,-8882.471304,229.828649
521.058217,-222.061783,-9178.553681,-536.266849
521.058542,0.000000,-10732.986159,-1685.410096
521.058866,592.164754,-10362.883188,-1991.848295
521.059190,1332.370696,-9400.615463,-1225.752797
521.059514,2294.638420,-9992.780217,-1378.971896
521.059838,3404.947333,-10881.027347,-1149.143247
521.060163,3404.947333,-10214.842000,-536.266849
521.060487,1850.514855,-9696.697840,383.047749
521.060811,-592.164754,-10436.903782,0.000000
521.061135,-1258.350101,-11547.212695,0.000000
521.061459,-2146.597232,-10214.842000,1302.362347
521.061784,-2072.576638,-9770.718434,1685.410096
521.062108,-1554.432478,-10881.027347,1455.581446
521.062432,-1110.308913,-10436.903782,842.705048
521.062756,-1036.288319,-9030.512492,-383.047749
521.063081,-1702.473667,-8438.347739,-76.609550
521.063405,-1258.350101,-9474.636058,306.438199
521.063729,148.041188,-9400.615463,-306.438199
521.064053,1702.473667,-8586.388927,76.609550
521.064377,1998.556043,-8438.347739,-536.266849
521.064702,2294.638420,-9030.512492,-842.705048
521.065026,2368.659014,-9400.615463,-612.876398
521.065350,1924.535449,-9252.574275,-306.438199
521.065674,74.020594,-9622.677246,1378.971896
521.065998,-962.267725,-9696.697840,612.876398
521.066323,-1258.350101,-9474.636058,1685.410096
521.066647,-1924.535449,-8882.471304,1608.800546
521.066971,-1924.535449,-9992.780217,2451.505594
521.067295,-1036.288319,-11843.295072,2451.505594
521.067620,-814.226536,-10732.986159,1838.629195
521.067944,-1332.370696,-7994.224174,2145.067394
521.068268,-1332.370696,-7402.059420,1455.581446
521.068592,-444.123565,-9104.533087,-383.047749
521.068916,-444.123565,-8290.306550,-1225.752797
521.069241,0.000000,-6513.812290,-995.924147
521.069565,740.205942,-7402.059420,-766.095498
521.069889,2442.679609,-9252.574275,-1225.752797
521.070213,2664.741391,-8660.409521,-1149.143247
521.070537,1702.473667,-7105.977043,0.000000
521.070862,-148.041188,-8956.491898,-766.095498
521.071186,-740.205942,-11325.150913,-383.047749
521.071510,-1480.411884,-11103.089130,1149.143247
521.071834,-1480.411884,-10288.862594,2145.067394
521.072158,-518.144159,-11843.295072,2068.457845
521.072483,370.102971,-12287.418637,1685.410096
521.072807,296.082377,-10807.006753,536.266849
521.073131,-666.185348,-9992.780217,995.924147
521.073455,-1036.288319,-11103.089130,-842.705048
521.073780,0.000000,-11473.192101,-1302.362347
521.074104,1110.308913,-10288.862594,-1838.629195
521.074428,1036.288319,-9104.533087,-2068.457845
521.074752,1184.329507,-9474.636058,-2834.553343
521.075076,1628.453072,-10066.800811,-3140.991542
521.075401,1480.411884,-9696.697840,-2604.724693
521.075725,370.102971,-9696.697840,-842.705048
521.076049,0.000000,-11621.233289,0.000000
521.076373,-296.082377,-11325.150913,0.000000
521.076697,-814.226536,-9474.636058,995.924147
521.077022,-888.247130,-10362.883188,1532.190996
521.077346,-222.061783,-11917.315666,1225.752797
521.077670,222.061783,-10881.027347,766.095498
521.077994,-148.041188,-8512.368333,1608.800546
521.078319,0.000000,-8586.388927,1838.629195
521.078643,740.205942,-10288.862594,383.047749
521.078967,1480.411884,-9474.636058,-995.924147
521.079291,888.247130,-6661.853478,-1685.410096
521.079615,518.144159,-7328.038826,-2068.457845
521.079940,1406.391290,-10066.800811,-2451.505594
521.080264,1628.453072,-9622.677246,-1762.019645
521.080588,888.247130,-8142.265362,-383.047749
521.080912,-518.144159,-8216.285956,-459.657299
521.081236,-1406.391290,-10362.883188,-1302.362347
521.081561,-2294.638420,-9474.636058,-459.657299
521.081885,-2368.659014,-8290.306550,1608.800546
521.082209,-1406.391290,-10214.842000,2145.067394
521.082533,0.000000,-11917.315666,2145.067394
521.082858,-518.144159,-9918.759623,2834.553343
521.083182,-1332.370696,-7550.100608,2221.676944
521.083506,-1776.494261,-8290.306550,995.924147
521.083830,-1628.453072,-10288.862594,-383.047749
521.084154,-1258.350101,-9030.512492,-919.314598
521.084479,0.000000,-7476.080014,-689.485948
521.084803,1924.535449,-8142.265362,-1532.190996
521.085127,3034.844362,-8660.409521,-2757.943793
521.085451,1628.453072,-6883.915261,-2987.772442
521.085775,-296.082377,-7698.141797,-1532.190996
521.086100,-666.185348,-10066.800811,-2068.457845
521.086424,-296.082377,-11103.089130,-1072.533697
521.086748,0.000000,-9474.636058,383.047749
521.087072,-222.061783,-10066.800811,1225.752797
521.087397,148.041188,-12361.439231,1302.362347
521.087721,1110.308913,-13027.624579,1302.362347
521.088045,296.082377,-11473.192101,1838.629195
521.088369,-814.226536,-11103.089130,1838.629195
521.088693,-1110.308913,-12509.480420,383.047749
521.089018,-740.205942,-12213.398043,-612.876398
521.089342,0.000000,-10658.965565,-1685.410096
521.089666,0.000000,-10510.924376,-2374.896044
521.089990,1184.329507,-11769.274478,-2451.505594
521.090314,1406.391290,-11399.171507,-2604.724693
521.090639,518.144159,-9696.697840,-1149.143247
521.090963,-518.144159,-9770.718434,-919.314598
521.091287,-1332.370696,-11029.068536,-1302.362347
521.091611,-1406.391290,-10214.842000,-766.095498
521.091936,-1184.329507,-8660.409521,1225.752797
521.092260,148.041188,-9622.677246,2145.067394
521.092584,1332.370696,-10584.944971,2911.162892
521.092908,1332.370696,-8734.430116,3600.648841
521.093232,0.000000,-7402.059420,3064.381992
521.093557,-592.164754,-8438.347739,1685.410096
521.093881,-888.247130,-8734.430116,612.876398
521.094205,-296.082377,-7994.224174,689.485948
521.094529,74.020594,-6957.935855,459.657299
521.094853,740.205942,-8512.368333,-306.438199
521.095178,1554.432478,-9252.574275,-536.266849
521.095502,1776.494261,-8142.265362,-536.266849
521.095826,296.082377,-6735.874072,-383.047749
521.096150,-1406.391290,-7624.121203,-1072.533697
521.096475,-1184.329507,-8660.409521,-1072.533697
521.096799,-962.267725,-7920.203579,612.876398
521.097123,-740.205942,-8142.265362,1838.629195
521.097447,-222.061783,-10140.821405,1915.238745
521.097771,0.000000,-11029.068536,2145.067394
521.098096,-518.144159,-9622.677246,2068.457845
521.098420,-1702.473667,-9548.656652,2911.162892
521.098744,-2072.576638,-11325.150913,1302.362347
521.099068,-1776.494261,-11695.253884,766.095498
521.099392,-518.144159,-10214.842000,459.657299
521.099717,666.185348,-9918.759623,-306.438199
521.100041,1998.556043,-10732.986159,-1532.190996
521.100365,2664.741391,-9770.718434,-2451.505594
521.100689,2664.741391,-8956.491898,-1685.410096
521.101014,1406.391290,-8956.491898,-1685.410096
521.101338,1184.329507,-9770.718434,-1532.190996
521.101662,1184.329507,-9252.574275,-1532.190996
521.101986,666.185348,-8216.285956,-689.485948
521.102310,296.082377,-9326.594869,0.000000
521.102635,296.082377,-11325.150913,383.047749
521.102959,888.247130,-11325.150913,689.485948
521.103283,0.000000,-10214.842000,919.314598
521.103607,-2072.576638,-10436.903782,0.000000
521.103931,-2886.803174,-11843.295072,0.000000
521.104256,-2368.659014,-11695.253884,-995.924147
521.104580,-1850.514855,-10510.924376,-1225.752797
521.104904,-1258.350101,-9992.780217,-2068.457845
521.105228,740.205942,-10362.883188,-2528.115143
521.105553,1998.556043,-10288.862594,-3753.867940
521.105877,1628.453072,-9252.574275,-2451.505594
521.106201,740.205942,-9696.697840,-2068.457845
521.106525,148.041188,-10140.821405,-2757.943793
521.106849,0.000000,-10066.800811,-1915.238745
521.107174,-370.102971,-9548.656652,-919.314598
521.107498,-592.164754,-9696.697840,-612.876398
521.107822,666.185348,-10807.006753,-229.828649
521.108146,148.041188,-10362.883188,1225.752797
521.108470,-1110.308913,-9548.656652,1378.971896
521.108795,-1998.556043,-10658.965565,1378.971896
521.109119,-2072.576638,-10807.006753,1149.143247
521.109443,-1998.556043,-8956.491898,229.828649
521.109767,-1628.453072,-7476.080014,-383.047749
521.110092,0.000000,-8512.368333,-919.314598
521.110416,2072.576638,-9696.697840,-1302.362347
521.110740,2812.782580,-8364.327145,-842.705048
521.111064,1850.514855,-7254.018232,-459.657299
521.111388,666.185348,-8956.491898,-689.485948
521.111713,888.247130,-9918.759623,-1072.533697
521.112037,222.061783,-8586.388927,-306.438199
521.112361,-296.082377,-8438.347739,1072.533697
521.112685,444.123565,-10362.883188,1149.143247
521.113009,444.123565,-11251.130318,1838.629195
521.113334,370.102971,-9844.739029,2834.553343
521.113658,-962.267725,-9622.677246,3217.601092
521.113982,-1702.473667,-11251.130318,2604.724693
521.114306,-1776.494261,-10807.006753,1608.800546
521.114631,-2368.659014,-8586.388927,1225.752797
521.114955,-1850.514855,-8438.347739,1072.533697
521.115279,1184.329507,-10140.821405,-842.705048
521.115603,2738.761985,-9622.677246,-383.047749
521.115927,1776.494261,-8068.244768,383.047749
521.116252,518.144159,-8290.306550,-459.657299
521.116576,296.082377,-10066.800811,-1302.362347
521.116900,-222.061783,-9992.780217,-459.657299
521.117224,-1184.329507,-8216.285956,-383.047749
521.117548,-888.247130,-8882.471304,459.657299
521.117873,-962.267725,-10658.965565,995.924147
521.118197,592.164754,-10732.986159,1072.533697
521.118521,-888.247130,-9104.533087,1991.848295
521.118845,-1850.514855,-9474.636058,2221.676944
521.119170,-1850.514855,-11029.068536,1225.752797
521.119494,-1406.391290,-10436.903782,919.314598
521.119818,-888.247130,-9252.574275,1532.190996
521.120142,518.144159,-10881.027347,1685.410096
521.120466,2812.782580,-12509.480420,306.438199
521.120791,2886.803174,-10066.800811,-689.485948
521.121115,1628.453072,-8364.327145,-459.657299
521.121439,888.247130,-9622.677246,-1302.362347
521.121763,814.226536,-10658.965565,-2528.115143
521.122087,0.000000,-9104.533087,-1915.238745
521.122412,-592.164754,-7105.977043,-459.657299
521.122736,518.144159,-8734.430116,-459.657299
521.123060,1702.473667,-9992.780217,76.609550
521.123384,962.267725,-8882.471304,1225.752797
521.123708,0.000000,-8068.244768,1762.019645
521.124033,-444.123565,-10288.862594,1991.848295
521.124357,0.000000,-11325.150913,1225.752797
521.124681,0.000000,-8734.430116,919.314598
521.125005,222.061783,-8364.327145,1302.362347
521.125330,1406.391290,-10807.006753,766.095498
521.125654,2220.617826,-11769.274478,-995.924147
521.125978,2072.576638,-9400.615463,-229.828649
521.126302,814.226536,-8438.347739,-1072.533697
521.126626,0.000000,-10140.821405,-1991.848295
521.126951,-518.144159,-10436.903782,-2451.505594
521.127275,-1110.308913,-9400.615463,-1762.019645
521.127599,-1628.453072,-9252.574275,-1302.362347
521.127923,-1184.329507,-9992.780217,-842.705048
521.128247,-740.205942,-10066.800811,-689.485948
521.128572,-1480.411884,-8586.388927,153.219100
521.128896,-2886.803174,-8808.450710,306.438199
521.129220,-2738.761985,-10658.965565,612.876398
521.129544,-1406.391290,-10881.027347,842.705048
521.129869,-814.226536,-8808.450710,995.924147
521.130193,-370.102971,-8660.409521,919.314598
521.130517,814.226536,-10214.842000,0.000000
521.130841,1628.453072,-10362.883188,-766.095498
521.131165,1036.288319,-9104.533087,-689.485948
521.131490,444.123565,-9622.677246,-1608.800546
521.131814,148.041188,-10066.800811,-1838.629195
521.132138,666.185348,-9178.553681,-2145.067394
521.132462,0.000000,-8512.368333,-1762.019645
521.132786,0.000000,-9326.594869,-1455.581446
521.133111,148.041188,-10288.862594,-2068.457845
521.133435,-666.185348,-9178.553681,-1149.143247
521.133759,-1554.432478,-8216.285956,-842.705048
521.134083,-1924.535449,-9548.656652,-689.485948
521.134408,-1258.350101,-10658.965565,229.828649
521.134732,-814.226536,-9844.739029,153.219100
521.135056,-962.267725,-9326.594869,842.705048
521.135380,0.000000,-11843.295072,612.876398
521.135704,1850.514855,-12139.377449,-536.266849
521.136029,1776.494261,-10732.986159,-383.047749
521.136353,1036.288319,-10436.903782,0.000000
521.136677,1184.329507,-12213.398043,-1302.362347
521.137001,1554.432478,-11769.274478,-1149.143247
521.137325,-370.102971,-9474.636058,-919.314598
521.137650,-444.123565,-9030.512492,-842.705048
521.137974,-222.061783,-10658.965565,-1991.848295
521.138298,0.000000,-10955.047942,-1455.581446
521.138622,-740.205942,-9030.512492,306.438199
521.138947,-1110.308913,-8586.388927,919.314598
521.139271,-1184.329507,-9548.656652,536.266849
521.139595,-1184.329507,-9030.512492,1072.533697
521.139919,-1332.370696,-7846.182985,1225.752797
521.140243,-518.144159,-8438.347739,1608.800546
521.140568,888.247130,-10214.842000,1302.362347
521.140892,1776.494261,-9252.574275,995.924147
521.141216,1554.432478,-8068.244768,1608.800546
521.141540,888.247130,-9178.553681,1149.143247
521.141864,740.205942,-11103.089130,76.609550
521.142189,592.164754,-9770.718434,0.000000
521.142513,-666.185348,-8364.327145,153.219100
521.142837,-666.185348,-10066.800811,306.438199
521.143161,-518.144159,-10881.027347,0.000000
521.143485,-666.185348,-9326.594869,0.000000
521.143809,-2294.638420,-7328.038826,766.095498
521.144134,-3034.844362,-8142.265362,229.828649
521.144458,-2368.659014,-9474.636058,229.828649
521.144782,-1258.350101,-8364.327145,1149.143247
521.145106,-888.247130,-7550.100608,2451.505594
521.145430,0.000000,-8438.347739,1915.238745
521.145754,814.226536,-8882.471304,842.705048
521.146078,592.164754,-8068.244768,1072.533697
521.146403,592.164754,-9104.533087,1378.971896
521.146727,296.082377,-11103.089130,229.828649
521.147051,740.205942,-11547.212695,0.000000
521.147375,1258.350101,-10288.862594,919.314598
521.147699,1554.432478,-9696.697840,1072.533697
521.148023,2072.576638,-12065.356855,0.000000
521.148347,2072.576638,-11547.212695,0.000000
521.148672,1036.288319,-9992.780217,383.047749
521.148996,0.000000,-9474.636058,153.219100
521.149320,-518.144159,-10362.883188,-153.219100
521.149644,-962.267725,-9548.656652,383.047749
521.149968,0.000000,-8808.450710,383.047749
521.150292,-370.102971,-8586.388927,536.266849
521.150616,296.082377,-10140.821405,-153.219100
521.150941,1184.329507,-9992.780217,153.219100
521.151265,666.185348,-9400.615463,689.485948
521.151589,-148.041188,-10140.821405,76.609550
521.151913,-148.041188,-11473.192101,-306.438199
521.152237,370.102971,-10510.924376,-612.876398
521.152561,888.247130,-9696.697840,153.219100
521.152886,1036.288319,-10214.842000,0.000000
521.153210,1332.370696,-11399.171507,-306.438199
521.153534,1628.453072,-10140.821405,-306.438199
521.153858,592.164754,-8808.450710,-153.219100
521.154182,-814.226536,-8734.430116,-919.314598
521.154506,-1258.350101,-8660.409521,-1072.533697
521.154830,-814.226536,-7402.059420,-1378.971896
521.155155,-1258.350101,-7328.038826,-1225.752797
521.155479,-814.226536,-8216.285956,-1378.971896
521.155803,0.000000,-9178.553681,-1608.800546
521.156127,0.000000,-8956.491898,-536.266849
521.156451,-740.205942,-8808.450710,-612.876398
521.156775,-1702.473667,-10140.821405,-995.924147
521.157099,-1850.514855,-11029.068536,-1072.533697
521.157424,-1332.370696,-10510.924376,-612.876398
521.157748,0.000000,-10140.821405,-383.047749
521.158072,1036.288319,-11177.109724,-842.705048
521.158396,1480.411884,-11621.233289,-995.924147
521.158720,1258.350101,-10510.924376,-1302.362347
521.159044,370.102971,-9474.636058,-1072.533697
521.159368,370.102971,-9474.636058,-1838.629195
521.159693,592.164754,-10140.821405,-2221.676944
521.160017,148.041188,-9252.574275,-1225.752797
521.160341,-296.082377,-9104.533087,-1072.533697
521.160665,962.267725,-9992.780217,-1149.143247
521.160989,1554.432478,-10732.986159,-612.876398
521.161313,296.082377,-9992.780217,-229.828649
521.161638,-1628.453072,-10140.821405,-229.828649
521.161962,-2886.803174,-11547.212695,0.000000
521.162286,-2812.782580,-12213.398043,0.000000
521.162610,-2368.659014,-11399.171507,0.000000
521.162934,-1776.494261,-10881.027347,459.657299
521.163258,444.123565,-10658.965565,229.828649
521.163582,2220.617826,-10288.862594,229.828649
521.163907,2294.638420,-8956.491898,766.095498
521.164231,1480.411884,-7994.224174,1072.533697
521.164555,1036.288319,-8956.491898,76.609550
521.164879,1184.329507,-8438.347739,612.876398
521.165203,296.082377,-7846.182985,1072.533697
521.165527,-666.185348,-8068.244768,612.876398
521.165851,-444.123565,-9104.533087,689.485948
521.166176,-444.123565,-8882.471304,1225.752797
521.166500,-1480.411884,-8290.306550,2451.505594
521.166824,-2812.782580,-9252.574275,1762.019645
521.167148,-3478.967927,-9474.636058,1762.019645
521.167472,-2590.720797,-8660.409521,1915.238745
521.167796,-1850.514855,-7994.224174,1762.019645
521.168121,-1036.288319,-8734.430116,1532.190996
521.168445,814.226536,-9622.677246,1685.410096
521.168769,2146.597232,-8956.491898,1302.362347
521.169093,1628.453072,-7550.100608,1225.752797
521.169417,1554.432478,-8808.450710,612.876398
521.169741,1480.411884,-9548.656652,-306.438199
521.170065,888.247130,-8956.491898,0.000000
521.170390,0.000000,-8808.450710,383.047749
521.170714,0.000000,-9474.636058,-153.219100
521.171038,592.164754,-9992.780217,-459.657299
521.171362,296.082377,-10066.800811,536.266849
521.171686,-814.226536,-10066.800811,1149.143247
521.172010,-1554.432478,-11325.150913,1455.581446
521.172334,-1480.411884,-11843.295072,1149.143247
521.172659,-592.164754,-10658.965565,1149.143247
521.172983,444.123565,-10362.883188,1302.362347
521.173307,1850.514855,-11325.150913,459.657299
521.173631,2516.700203,-11177.109724,-306.438199
521.173955,2590.720797,-9696.697840,0.000000
521.174279,2738.761985,-8882.471304,-536.266849
521.174603,2442.679609,-9992.780217,-1225.752797
521.174928,1702.473667,-10140.821405,-1991.848295
521.175252,518.144159,-9252.574275,-1838.629195
521.175576,0.000000,-9474.636058,-1225.752797
521.175900,592.164754,-11177.109724,-1072.533697
521.176224,814.226536,-10955.047942,-383.047749
521.176548,-370.102971,-8660.409521,76.609550
521.176873,-1850.514855,-8734.430116,536.266849
521.177197,-2516.700203,-10214.842000,0.000000
521.177521,-2220.617826,-10510.924376,76.609550
521.177845,-1850.514855,-9178.553681,1225.752797
521.178169,-666.185348,-10214.842000,1838.629195
521.178493,666.185348,-11177.109724,536.266849
521.178817,1480.411884,-9474.636058,0.000000
521.179142,444.123565,-7846.182985,-612.876398
521.179466,-148.041188,-9400.615463,-1762.019645
521.179790,74.020594,-10214.842000,-1991.848295
521.180114,370.102971,-8882.471304,-1072.533697
521.180438,296.082377,-8142.265362,153.219100
521.180762,74.020594,-8438.347739,-1149.143247
521.181086,74.020594,-9252.574275,-1225.752797
521.181411,-592.164754,-8660.409521,-459.657299
521.181735,-1702.473667,-7476.080014,-459.657299
521.182059,-2368.659014,-8364.327145,459.657299
521.182383,-2220.617826,-9474.636058,1072.533697
521.182707,-1332.370696,-8734.430116,1532.190996
521.183031,0.000000,-8068.244768,2374.896044
521.183355,1036.288319,-9326.594869,1608.800546
521.183680,1702.473667,-10214.842000,0.000000
521.184004,1184.329507,-8734.430116,-919.314598
521.184328,0.000000,-8512.368333,-689.485948
521.184652,370.102971,-10658.965565,-919.314598
521.184976,1406.391290,-10807.006753,-1532.190996
521.185300,962.267725,-9400.615463,-1838.629195
521.185625,222.061783,-9474.636058,-1685.410096
521.185949,888.247130,-10955.047942,-2145.067394
521.186273,1184.329507,-11547.212695,-1915.238745
521.186597,-296.082377,-10362.883188,-766.095498
521.186921,-2294.638420,-9400.615463,0.000000
521.187245,-2368.659014,-10955.047942,-383.047749
521.187569,-1924.535449,-11325.150913,0.000000
521.187894,-1628.453072,-10066.800811,383.047749
521.188218,-888.247130,-11769.274478,1915.238745
521.188542,740.205942,-13989.892304,1608.800546
521.188866,1850.514855,-13027.624579,842.705048
521.189190,1332.370696,-9622.677246,842.705048
521.189514,518.144159,-9326.594869,-459.657299
521.189838,444.123565,-11399.171507,-2298.286494
521.190163,444.123565,-10658.965565,-2604.724693
521.190487,370.102971,-8142.265362,-1378.971896
521.190811,666.185348,-8438.347739,-995.924147
521.191135,1184.329507,-9400.615463,-1302.362347
521.191459,666.185348,-8808.450710,-153.219100
521.191783,-370.102971,-7179.997637,306.438199
521.192107,-2146.597232,-7402.059420,153.219100
521.192432,-2886.803174,-8734.430116,1072.533697
521.192756,-2294.638420,-8364.327145,1762.019645
521.193080,-1924.535449,-9252.574275,2987.772442
521.193404,-1480.411884,-10584.944971,2681.334243
521.193728,-592.164754,-11029.068536,2604.724693
521.194052,0.000000,-8660.409521,1302.362347
521.194377,-518.144159,-7105.977043,229.828649
521.194701,-296.082377,-8586.388927,0.000000
521.195025,444.123565,-9622.677246,-842.705048
521.195349,2294.638420,-9104.533087,-76.609550
521.195673,2664.741391,-8216.285956,0.000000
521.195997,2220.617826,-8142.265362,-1072.533697
521.196321,1628.453072,-8808.450710,-612.876398
521.196646,444.123565,-9178.553681,153.219100
521.196970,-1110.308913,-9178.553681,459.657299
521.197294,-2220.617826,-10140.821405,842.705048
521.197618,-1998.556043,-10510.924376,229.828649
521.197942,-2368.659014,-9030.512492,689.485948
521.198266,-1924.535449,-9252.574275,2145.067394
521.198590,-370.102971,-11399.171507,2451.505594
521.198915,962.267725,-11695.253884,1455.581446
521.199239,222.061783,-9474.636058,229.828649
521.199563,148.041188,-8068.244768,536.266849
521.199887,1332.370696,-10140.821405,-1225.752797
521.200211,2886.803174,-11029.068536,-1915.238745
521.200535,2590.720797,-9696.697840,-1072.533697
521.200859,2738.761985,-9400.615463,-919.314598
521.201184,3404.947333,-11251.130318,-1915.238745
521.201508,2220.617826,-11029.068536,-1225.752797
521.201832,444.123565,-9548.656652,-153.219100
521.202156,-1036.288319,-9844.739029,0.000000
521.202480,-2072.576638,-11103.089130,-995.924147
521.202804,-2960.823768,-10066.800811,-153.219100
521.203129,-3552.988522,-8216.285956,689.485948
521.203453,-2368.659014,-9770.718434,1762.019645
521.203777,-444.123565,-12583.501014,2604.724693
521.204101,740.205942,-11843.295072,2451.505594
521.204425,814.226536,-9030.512492,1608.800546
521.204749,-148.041188,-8290.306550,-153.219100
521.205073,666.185348,-9844.739029,-1608.800546
521.205398,1332.370696,-9770.718434,-2221.676944
521.205722,1554.432478,-9178.553681,-1762.019645
521.206046,2146.597232,-9844.739029,-919.314598
521.206370,2664.741391,-10288.862594,-1149.143247
521.206694,1480.411884,-8586.388927,-689.485948
521.207018,-1628.453072,-7846.182985,-536.266849
521.207342,-3034.844362,-8660.409521,-1608.800546
521.207667,-2738.761985,-9326.594869,-1378.971896
521.207991,-1998.556043,-7772.162391,-306.438199
521.208315,-1332.370696,-7105.977043,1072.533697
521.208639,-518.144159,-9400.615463,1762.019645
521.208963,888.247130,-11399.171507,1915.238745
521.209287,888.247130,-10436.903782,1915.238745
521.209612,0.000000,-8512.368333,1225.752797
521.209936,-592.164754,-9252.574275,0.000000
521.210260,370.102971,-10140.821405,-2145.067394
521.210584,1110.308913,-9474.636058,-2221.676944
521.210908,1480.411884,-9696.697840,-1685.410096
521.211232,2960.823768,-11251.130318,-1225.752797
521.211556,3552.988522,-10510.924376,-1915.238745
521.211881,1924.535449,-9252.574275,-306.438199
521.212205,-1036.288319,-8956.491898,-919.314598
521.212529,-2886.803174,-10732.986159,-1762.019645
521.212853,-2960.823768,-10288.862594,-1532.190996
521.213177,-2590.720797,-8956.491898,0.000000
521.213501,-1628.453072,-9030.512492,1532.190996
521.213825,740.205942,-11399.171507,1915.238745
521.214150,1924.535449,-12213.398043,2451.505594
521.214474,518.144159,-9918.759623,1915.238745
521.214798,-962.267725,-9178.553681,1072.533697
521.215122,-1184.329507,-11177.109724,-306.438199
521.215446,0.000000,-11325.150913,-689.485948
521.215770,518.144159,-9696.697840,0.000000
521.216094,1258.350101,-10214.842000,76.609550
521.216419,2368.659014,-11103.089130,-689.485948
521.216743,1258.350101,-9178.553681,-766.095498
521.217067,-1776.494261,-7402.059420,-1149.143247
521.217391,-3923.091493,-8142.265362,-1225.752797
521.217715,-3627.009116,-9474.636058,-995.924147
521.218039,-3330.926739,-8586.388927,0.000000
521.218364,-3256.906145,-7550.100608,1225.752797
521.218688,-2368.659014,-8438.347739,1991.848295
521.219012,-814.226536,-9548.656652,2221.676944
521.219336,222.061783,-9474.636058,2451.505594
521.219660,-666.185348,-8956.491898,2604.724693
521.219984,-814.226536,-10066.800811,2451.505594
521.220308,222.061783,-9992.780217,1302.362347
521.220633,1628.453072,-8808.450710,306.438199
521.220957,2442.679609,-9474.636058,689.485948
521.221281,3775.050304,-11177.109724,-766.095498
521.221605,3997.112087,-11029.068536,-1302.362347
521.221929,1998.556043,-8734.430116,-536.266849
521.222253,-148.041188,-8068.244768,-1149.143247
521.222577,-1406.391290,-9474.636058,-1608.800546
521.222902,-1702.473667,-9918.759623,-1608.800546
521.223226,-1776.494261,-8068.244768,-995.924147
521.223550,-1406.391290,-7846.182985,-536.266849
521.223874,-666.185348,-9622.677246,-229.828649
521.224198,592.164754,-9844.739029,0.000000
521.224522,518.144159,-8882.471304,1378.971896
521.224846,-888.247130,-10584.944971,1608.800546
521.225171,-370.102971,-12435.459826,1149.143247
521.225495,814.226536,-12213.398043,306.438199
521.225819,1628.453072,-10288.862594,153.219100
521.226143,2294.638420,-10510.924376,-766.095498
521.226467,3330.926739,-11917.315666,-1991.848295
521.226791,3997.112087,-11325.150913,-1455.581446
521.227116,2590.720797,-9474.636058,-1685.410096
521.227440,518.144159,-9252.574275,-1455.581446
521.227764,-888.247130,-9326.594869,-1991.848295
521.228088,-1480.411884,-8956.491898,-1991.848295
521.228412,-2664.741391,-7772.162391,-1532.190996
521.228736,-3330.926739,-8660.409521,-1149.143247
521.229060,-2590.720797,-9622.677246,-459.657299
521.229385,-1480.411884,-8808.450710,306.438199
521.229709,-1924.535449,-8290.306550,1532.190996
521.230033,-1184.329507,-10288.862594,2374.896044
521.230357,0.000000,-11843.295072,1685.410096
521.230681,740.205942,-10436.903782,1302.362347
521.231005,814.226536,-8882.471304,919.314598
521.231329,1776.494261,-9178.553681,-153.219100
521.231654,2886.803174,-9918.759623,-1225.752797
521.231978,3108.864956,-9104.533087,-612.876398
521.232302,1924.535449,-8364.327145,-1072.533697
521.232626,444.123565,-9252.574275,-995.924147
521.232950,-740.205942,-9474.636058,-1455.581446
521.233274,-1998.556043,-8586.388927,-1072.533697
521.233598,-3552.988522,-8142.265362,-1225.752797
521.233923,-3701.029710,-8882.471304,-919.314598
521.234247,-3034.844362,-9326.594869,-536.266849
521.234571,-2368.659014,-8438.347739,919.314598
521.234895,-1184.329507,-9326.594869,2298.286494
521.235219,148.041188,-11325.150913,2987.772442
521.235543,1702.473667,-11843.295072,2757.943793
521.235868,2516.700203,-9400.615463,2374.896044
521.236192,3256.906145,-8512.368333,1762.019645
521.236516,4071.132681,-9918.759623,-459.657299
521.236840,4071.132681,-10214.842000,-1838.629195
521.237164,2812.782580,-8808.450710,-689.485948
521.237488,1702.473667,-9400.615463,0.000000
521.237812,1184.329507,-11695.253884,-612.876398
521.238137,-592.164754,-10436.903782,-842.705048
521.238461,-2738.761985,-7772.162391,-842.705048
521.238785,-3701.029710,-8068.244768,-1378.971896
521.239109,-3330.926739,-9622.677246,-1378.971896
521.239433,-2442.679609,-9918.759623,-306.438199
521.239757,-2294.638420,-8512.368333,1608.800546
521.240081,-1776.494261,-9696.697840,2757.943793
521.240406,0.000000,-11473.192101,2528.115143
521.240730,1036.288319,-11177.109724,2374.896044
521.241054,1258.350101,-10362.883188,2604.724693
521.241378,2220.617826,-10658.965565,1149.143247
521.241702,3478.967927,-10881.027347,0.000000
521.242026,2960.823768,-10140.821405,-153.219100
521.242351,1628.453072,-9992.780217,229.828649
521.242675,296.082377,-11621.233289,-766.095498
521.242999,-1480.411884,-11399.171507,-1991.848295
521.243323,-3404.947333,-9030.512492,-1685.410096
521.243647,-4885.359217,-7476.080014,-1915.238745
521.243971,-4737.318029,-8808.450710,-2451.505594
521.244295,-3849.070898,-9104.533087,-1608.800546
521.244619,-2960.823768,-7402.059420,0.000000
521.244943,-3034.844362,-7031.956449,383.047749
521.245267,-1998.556043,-8586.388927,995.924147
521.245592,296.082377,-10214.842000,1455.581446
521.245916,1924.535449,-9622.677246,1915.238745
521.246240,2886.803174,-9252.574275,2451.505594
521.246564,3923.091493,-11029.068536,1378.971896
521.246888,4441.235652,-10288.862594,0.000000
521.247212,4367.215058,-9696.697840,0.000000
521.247536,2812.782580,-10584.944971,0.000000
521.247860,2072.576638,-12361.439231,-1838.629195
521.248184,666.185348,-11399.171507,-2298.286494
521.248508,-1332.370696,-9178.553681,-2145.067394
521.248833,-1924.535449,-8808.450710,-1685.410096
521.249157,-1850.514855,-9770.718434,-2528.115143
521.249481,-1702.473667,-7994.224174,-2298.286494
521.249805,-2516.700203,-6143.709319,-995.924147
521.250129,-2812.782580,-6883.915261,-1072.533697
521.250453,-1702.473667,-9030.512492,-536.266849
521.250777,-222.061783,-9030.512492,1072.533697
521.251101,1184.329507,-8364.327145,1991.848295
521.251425,2664.741391,-10066.800811,2298.286494
521.251749,4367.215058,-11769.274478,1072.533697
521.252074,4885.359217,-10510.924376,536.266849
521.252398,3034.844362,-10140.821405,306.438199
521.252722,814.226536,-11325.150913,-536.266849
521.253046,222.061783,-11917.315666,-1838.629195
521.253370,296.082377,-10658.965565,-766.095498
521.253694,-370.102971,-8882.471304,-842.705048
521.254018,-740.205942,-9844.739029,-1762.019645
521.254342,-1332.370696,-9992.780217,-1762.019645
521.254666,-2664.741391,-8956.491898,-1608.800546
521.254991,-4145.153275,-7772.162391,-1149.143247
521.255315,-5033.400406,-8660.409521,-919.314598
521.255639,-3775.050304,-9696.697840,-229.828649
521.255963,-1480.411884,-9400.615463,459.657299
521.256287,-296.082377,-9474.636058,2374.896044
521.256611,1480.411884,-11029.068536,1302.362347
521.256935,2516.700203,-11399.171507,766.095498
521.257259,2886.803174,-10214.842000,612.876398
521.257583,1628.453072,-10510.924376,153.219100
521.257907,1036.288319,-11991.336260,-536.266849
521.258232,1480.411884,-11769.274478,-766.095498
521.258556,1406.391290,-9178.553681,-459.657299
521.258880,1480.411884,-8882.471304,-536.266849
521.259204,1554.432478,-9548.656652,-1149.143247
521.259528,444.123565,-9770.718434,-1378.971896
521.259852,-1628.453072,-8438.347739,-1149.143247
521.260176,-3404.947333,-8068.244768,-1149.143247
521.260500,-3552.988522,-8734.430116,-1302.362347
521.260824,-2294.638420,-8660.409521,-306.438199
521.261148,-962.267725,-8142.265362,0.000000
521.261473,0.000000,-9178.553681,919.314598
521.261797,1332.370696,-11251.130318,1072.533697
521.262121,2146.597232,-10732.986159,536.266849
521.262445,2294.638420,-9326.594869,689.485948
521.262769,1776.494261,-10214.842000,689.485948
521.263093,1998.556043,-11695.253884,0.000000
521.263417,1776.494261,-10214.842000,-383.047749
521.263741,1258.350101,-9252.574275,76.609550
521.264065,666.185348,-9918.759623,76.609550
521.264389,1554.432478,-10732.986159,-536.266849
521.264714,518.144159,-9326.594869,-306.438199
521.265038,-1850.514855,-7105.977043,0.000000
521.265362,-3330.926739,-8290.306550,-383.047749
521.265686,-3256.906145,-9622.677246,-229.828649
521.266010,-2516.700203,-9178.553681,766.095498
521.266334,-2516.700203,-7254.018232,1762.019645
521.266658,-1258.350101,-8512.368333,1838.629195
521.266982,1036.288319,-10288.862594,1149.143247
521.267306,1554.432478,-9178.553681,1762.019645
521.267631,370.102971,-8586.388927,1838.629195
521.267955,-444.123565,-10140.821405,612.876398
521.268279,0.000000,-10807.006753,153.219100
521.268603,74.020594,-9844.739029,1225.752797
521.268927,888.247130,-9918.759623,459.657299
521.269251,1480.411884,-10955.047942,306.438199
521.269575,1184.329507,-10584.944971,229.828649
521.269899,-296.082377,-8512.368333,229.828649
521.270223,-2516.700203,-8068.244768,229.828649
521.270547,-2960.823768,-8956.491898,-306.438199
521.270872,-2516.700203,-8660.409521,76.609550
521.271196,-1332.370696,-7846.182985,1378.971896
521.271520,-888.247130,-8438.347739,842.705048
521.271844,0.000000,-9326.594869,766.095498
521.272168,1110.308913,-9326.594869,919.314598
521.272492,1628.453072,-8956.491898,919.314598
521.272816,592.164754,-10214.842000,842.705048
521.273140,666.185348,-11843.295072,536.266849
521.273464,888.247130,-11325.150913,-306.438199
521.273788,1258.350101,-9918.759623,-383.047749
521.274113,1258.350101,-10436.903782,-612.876398
521.274437,2146.597232,-12139.377449,-1378.971896
521.274761,1998.556043,-11473.192101,-1302.362347
521.275085,592.164754,-9622.677246,-1532.190996
521.275409,74.020594,-9622.677246,-1072.533697
521.275733,74.020594,-10658.965565,-1149.143247
521.276057,-222.061783,-9696.697840,-1378.971896
521.276381,-1110.308913,-8882.471304,-459.657299
521.276705,-888.247130,-9104.533087,-842.705048
521.277029,666.185348,-10436.903782,-536.266849
521.277354,1628.453072,-10214.842000,-306.438199
521.277678,370.102971,-9030.512492,0.000000
521.278002,-518.144159,-9844.739029,-306.438199
521.278326,-370.102971,-11251.130318,-995.924147
521.278650,-222.061783,-10436.903782,-1455.581446
521.278974,0.000000,-9844.739029,-612.876398
521.279298,888.247130,-10510.924376,-919.314598
521.279622,1850.514855,-11029.068536,-1378.971896
521.279946,962.267725,-9326.594869,-1378.971896
521.280271,-1184.329507,-7772.162391,-995.924147
521.280595,-1628.453072,-8586.388927,-1378.971896
521.280919,-1406.391290,-9030.512492,-2374.896044
521.281243,-740.205942,-7994.224174,-1072.533697
521.281567,-1702.473667,-7031.956449,-229.828649
521.281891,-1332.370696,-8808.450710,-229.828649
521.282215,-592.164754,-9622.677246,-689.485948
521.282539,-814.226536,-8290.306550,-383.047749
521.282863,-1628.453072,-8068.244768,612.876398
521.283187,-740.205942,-11103.089130,-459.657299
521.283512,-666.185348,-11177.109724,-612.876398
521.283836,0.000000,-9696.697840,153.219100
521.284160,1110.308913,-10658.965565,612.876398
521.284484,2664.741391,-12509.480420,-306.438199
521.284808,2960.823768,-11621.233289,-689.485948
521.285132,1998.556043,-9104.533087,-383.047749
521.285456,592.164754,-9030.512492,-689.485948
521.285780,296.082377,-10584.944971,-1762.019645
521.286104,-666.185348,-9400.615463,-1685.410096
521.286428,-1480.411884,-8068.244768,-689.485948
521.286753,-1628.453072,-9252.574275,-842.705048
521.287077,-962.267725,-10288.862594,-766.095498
521.287401,-740.205942,-9474.636058,0.000000
