#time,accel_x,accel_y,accel_z
870.520451,-3404.947333,-6809.894666,3447.429741
870.520775,-2072.576638,-4071.132681,3983.696590
870.521099,1258.350101,-5921.647536,1225.752797
870.521423,1776.494261,-9252.574275,3064.381992
870.521747,3552.988522,-8734.430116,3294.210641
870.522071,6069.688724,-7476.080014,4366.744339
870.522395,5699.585753,-8438.347739,3983.696590
870.522719,3182.885551,-9474.636058,2834.553343
870.523043,444.123565,-10955.047942,1685.410096
870.523367,-1628.453072,-12805.562797,0.000000
870.523691,-4959.379811,-13915.871710,-1532.190996
870.524015,-6513.812290,-12879.583391,-1915.238745
870.524339,-6217.729913,-9474.636058,-919.314598
870.524663,-4589.276840,-7105.977043,-229.828649
870.524987,-4737.318029,-7698.141797,-536.266849
870.525311,-5181.441594,-8808.450710,-536.266849
870.525635,-3627.009116,-9992.780217,-306.438199
870.525960,-1628.453072,-10510.924376,919.314598
870.526284,1184.329507,-9918.759623,2834.553343
870.526608,1850.514855,-9770.718434,3677.258390
870.526932,1184.329507,-10732.986159,2834.553343
870.527256,-1406.391290,-12805.562797,1225.752797
870.527580,-2812.782580,-14211.954086,229.828649
870.527904,-1776.494261,-13101.645173,842.705048
870.528228,-518.144159,-12287.418637,1072.533697
870.528552,-962.267725,-12213.398043,2451.505594
870.528876,-2812.782580,-11547.212695,1225.752797
870.529200,-5033.400406,-11029.068536,612.876398
870.529524,-6365.771101,-10140.821405,76.609550
870.529848,-5699.585753,-9030.512492,0.000000
870.530172,-4219.173869,-8882.471304,1455.581446
870.530496,-1702.473667,-8438.347739,2451.505594
870.530820,-592.164754,-8290.306550,2681.334243
870.531144,-962.267725,-8586.388927,2681.334243
870.531468,-2516.700203,-8512.368333,1915.238745
870.531793,-2886.803174,-9178.553681,1455.581446
870.532117,-2368.659014,-9474.636058,1378.971896
870.532441,-1702.473667,-9474.636058,1991.848295
870.532765,-444.123565,-9474.636058,2757.943793
870.533089,-888.247130,-9770.718434,3600.648841
870.533413,-2516.700203,-9992.780217,3600.648841
870.533737,-4663.297435,-8290.306550,2757.943793
870.534061,-5181.441594,-7624.121203,3140.991542
870.534385,-5033.400406,-7846.182985,3677.258390
870.534709,-3627.009116,-8956.491898,4136.915689
870.535033,-1850.514855,-9844.739029,4903.011187
870.535357,-888.247130,-9252.574275,5286.058936
870.535681,-444.123565,-8364.327145,5132.839837
870.536005,-1258.350101,-7402.059420,4366.744339
870.536329,-1998.556043,-6809.894666,3677.258390
870.536653,-1924.535449,-7402.059420,2681.334243
870.536977,-2294.638420,-8290.306550,2528.115143
870.537301,-2072.576638,-8586.388927,2145.067394
870.537626,-2738.761985,-8734.430116,2298.286494
870.537950,-2960.823768,-9326.594869,1991.848295
870.538274,-2590.720797,-9400.615463,3217.601092
870.538598,-1702.473667,-9992.780217,3447.429741
870.538922,-296.082377,-11251.130318,4136.915689
870.539246,296.082377,-11399.171507,4519.963438
870.539570,-370.102971,-11621.233289,4443.353888
870.539894,-1702.473667,-11103.089130,4136.915689
870.540218,-2294.638420,-10140.821405,3907.087040
870.540542,-2072.576638,-9400.615463,3140.991542
870.540866,-1258.350101,-8956.491898,1608.800546
870.541190,-888.247130,-9252.574275,1608.800546
870.541514,-222.061783,-9770.718434,306.438199
870.541838,-1258.350101,-9992.780217,-612.876398
870.542162,-3182.885551,-10214.842000,-536.266849
870.542486,-5181.441594,-10510.924376,-229.828649
870.542810,-6439.791695,-10584.944971,153.219100
870.543134,-5181.441594,-11103.089130,1455.581446
870.543459,-2812.782580,-10658.965565,2681.334243
870.543783,-148.041188,-10807.006753,2911.162892
870.544107,666.185348,-11399.171507,3524.039291
870.544431,444.123565,-11769.274478,3294.210641
870.544755,-962.267725,-11621.233289,3064.381992
870.545079,-2368.659014,-11103.089130,3447.429741
870.545403,-1628.453072,-10658.965565,3677.258390
870.545727,-74.020594,-9178.553681,2681.334243
870.546051,1110.308913,-8808.450710,1532.190996
870.546375,370.102971,-8290.306550,995.924147
870.546699,-888.247130,-8438.347739,0.000000
870.547023,-2664.741391,-7772.162391,-459.657299
870.547347,-3849.070898,-6291.750507,-229.828649
870.547671,-4441.235652,-5921.647536,-383.047749
870.547995,-4737.318029,-9326.594869,76.609550
870.548320,-5477.523971,-12361.439231,919.314598
870.548644,-4737.318029,-12213.398043,536.266849
870.548968,-2886.803174,-10140.821405,1378.971896
870.549292,-888.247130,-7994.224174,2604.724693
870.549617,1110.308913,-7254.018232,2451.505594
870.549941,222.061783,-8808.450710,1685.410096
870.550265,-1776.494261,-9696.697840,1685.410096
870.550589,-1850.514855,-10214.842000,1762.019645
870.550914,962.267725,-10214.842000,2068.457845
870.551238,3404.947333,-8068.244768,1685.410096
870.551562,3182.885551,-5921.647536,-306.438199
870.551886,222.061783,-7254.018232,-1685.410096
870.552211,-3034.844362,-11843.295072,-1302.362347
870.552535,-4071.132681,-13101.645173,-1838.629195
870.552859,-3701.029710,-10214.842000,-1072.533697
870.553183,-4663.297435,-7550.100608,306.438199
870.553507,-4515.256246,-7846.182985,-229.828649
870.553832,-5403.503377,-9622.677246,-306.438199
870.554156,-4515.256246,-10584.944971,-383.047749
870.554480,-1776.494261,-10955.047942,1302.362347
870.554804,1998.556043,-10362.883188,1991.848295
870.555129,3775.050304,-9104.533087,1685.410096
870.555453,3034.844362,-8438.347739,2604.724693
870.555777,1332.370696,-9548.656652,1838.629195
870.556101,962.267725,-11547.212695,-1532.190996
870.556426,518.144159,-11991.336260,-2604.724693
870.556750,222.061783,-12657.521608,-1149.143247
870.557074,1850.514855,-12879.583391,-689.485948
870.557398,1924.535449,-13175.665768,-459.657299
870.557722,-518.144159,-12361.439231,383.047749
870.558047,-2368.659014,-10066.800811,-1455.581446
870.558371,-3775.050304,-9326.594869,-2834.553343
870.558695,-4145.153275,-8586.388927,-1378.971896
870.559019,-1332.370696,-8142.265362,1378.971896
870.559344,2368.659014,-7772.162391,2374.896044
870.559668,2220.617826,-7254.018232,1302.362347
870.559992,518.144159,-7772.162391,1685.410096
870.560316,444.123565,-9326.594869,2451.505594
870.560641,1776.494261,-11177.109724,1302.362347
870.560965,518.144159,-11473.192101,536.266849
870.561289,-518.144159,-10881.027347,229.828649
870.561613,666.185348,-10881.027347,536.266849
870.561937,2664.741391,-11547.212695,1149.143247
870.562262,2960.823768,-9696.697840,919.314598
870.562586,740.205942,-7476.080014,-153.219100
870.562910,-1110.308913,-7179.997637,-383.047749
870.563234,-1554.432478,-7328.038826,-459.657299
870.563559,0.000000,-7476.080014,995.924147
870.563883,518.144159,-7772.162391,1302.362347
870.564207,-2072.576638,-8068.244768,612.876398
870.564531,-4885.359217,-7846.182985,0.000000
870.564856,-3997.112087,-8142.265362,612.876398
870.565180,-1628.453072,-8808.450710,1608.800546
870.565504,-962.267725,-10140.821405,1608.800546
870.565828,-1332.370696,-10510.924376,536.266849
870.566153,-888.247130,-9474.636058,306.438199
870.566477,1628.453072,-9252.574275,612.876398
870.566801,3849.070898,-9770.718434,689.485948
870.567125,4145.153275,-10436.903782,0.000000
870.567449,1998.556043,-10066.800811,-153.219100
870.567774,370.102971,-9696.697840,0.000000
870.568098,296.082377,-11103.089130,-383.047749
870.568422,0.000000,-11177.109724,0.000000
870.568746,-2072.576638,-10955.047942,-383.047749
870.569071,-4293.194464,-10658.965565,-1225.752797
870.569395,-3997.112087,-10362.883188,153.219100
870.569719,-1998.556043,-10658.965565,1532.190996
870.570043,-1480.411884,-10510.924376,842.705048
870.570368,-3330.926739,-9770.718434,459.657299
870.570692,-3330.926739,-9474.636058,0.000000
870.571016,-1184.329507,-9548.656652,76.609550
870.571340,1258.350101,-9918.759623,383.047749
870.571664,1480.411884,-9844.739029,383.047749
870.571989,592.164754,-9992.780217,0.000000
870.572313,1332.370696,-10214.842000,536.266849
870.572637,4145.153275,-10658.965565,766.095498
870.572961,4737.318029,-11103.089130,306.438199
870.573286,1184.329507,-10362.883188,-153.219100
870.573610,-2146.597232,-9844.739029,-383.047749
870.573934,-2146.597232,-9770.718434,-229.828649
870.574258,-518.144159,-9104.533087,0.000000
870.574583,-962.267725,-8438.347739,-383.047749
870.574907,-2368.659014,-8660.409521,-306.438199
870.575231,-1110.308913,-8586.388927,0.000000
870.575555,1998.556043,-8586.388927,536.266849
870.575879,3404.947333,-8586.388927,536.266849
870.576204,1406.391290,-8586.388927,76.609550
870.576528,-888.247130,-8956.491898,153.219100
870.576852,370.102971,-10214.842000,0.000000
870.577176,2886.803174,-10140.821405,612.876398
870.577501,3182.885551,-9474.636058,306.438199
870.577825,1554.432478,-9474.636058,0.000000
870.578149,1258.350101,-9252.574275,-536.266849
870.578473,2146.597232,-8882.471304,-229.828649
870.578798,2072.576638,-9030.512492,0.000000
870.579122,0.000000,-9474.636058,-689.485948
870.579446,-2294.638420,-8956.491898,-1532.190996
870.579770,-1628.453072,-7920.203579,-1302.362347
870.580095,444.123565,-8142.265362,-689.485948
870.580419,296.082377,-9104.533087,-1225.752797
870.580743,-1332.370696,-9548.656652,-1149.143247
870.581067,-1406.391290,-9400.615463,-1149.143247
870.581391,740.205942,-9030.512492,-1149.143247
870.581716,1702.473667,-9770.718434,-383.047749
870.582040,148.041188,-10436.903782,-459.657299
870.582364,-1332.370696,-10881.027347,-229.828649
870.582688,-444.123565,-11103.089130,229.828649
870.583013,1332.370696,-11251.130318,229.828649
870.583337,1332.370696,-10732.986159,76.609550
870.583661,-814.226536,-10510.924376,-306.438199
870.583985,-1702.473667,-10584.944971,-842.705048
870.584310,-666.185348,-10658.965565,-1455.581446
870.584634,0.000000,-11029.068536,-1225.752797
870.584958,-2368.659014,-10510.924376,-2451.505594
870.585282,-4293.194464,-10510.924376,-2604.724693
870.585606,-3775.050304,-10807.006753,-2451.505594
870.585931,-1184.329507,-10807.006753,-1685.410096
870.586255,148.041188,-11029.068536,-689.485948
870.586579,-592.164754,-10362.883188,-612.876398
870.586903,-296.082377,-10140.821405,0.000000
870.587228,1184.329507,-10140.821405,995.924147
870.587552,2516.700203,-10288.862594,995.924147
870.587876,1406.391290,-9548.656652,1608.800546
870.588200,-592.164754,-9400.615463,1225.752797
870.588525,-148.041188,-9400.615463,995.924147
870.588849,1406.391290,-8808.450710,1225.752797
870.589173,1406.391290,-8586.388927,689.485948
870.589497,-296.082377,-8364.327145,459.657299
870.589821,-1776.494261,-8660.409521,-229.828649
870.590146,-592.164754,-8512.368333,0.000000
870.590470,814.226536,-8586.388927,0.000000
870.590794,148.041188,-8512.368333,-459.657299
870.591118,-1332.370696,-9030.512492,-766.095498
870.591443,-1702.473667,-9326.594869,229.828649
870.591767,666.185348,-9400.615463,76.609550
870.592091,2072.576638,-9400.615463,1072.533697
870.592415,1110.308913,-9400.615463,1302.362347
870.592740,518.144159,-8882.471304,1455.581446
870.593064,1406.391290,-9030.512492,1915.238745
870.593388,2368.659014,-9030.512492,2221.676944
870.593712,1924.535449,-8734.430116,1915.238745
870.594037,-740.205942,-8216.285956,1532.190996
870.594361,-1924.535449,-8438.347739,1072.533697
870.594685,-814.226536,-8808.450710,1455.581446
870.595009,-444.123565,-8808.450710,459.657299
870.595333,-1776.494261,-8512.368333,153.219100
870.595658,-2220.617826,-9030.512492,0.000000
870.595982,-296.082377,-9104.533087,0.000000
870.596306,1702.473667,-8586.388927,153.219100
870.596630,1258.350101,-9030.512492,229.828649
870.596955,-1184.329507,-9326.594869,-766.095498
870.597279,-1554.432478,-10881.027347,-766.095498
870.597603,0.000000,-10807.006753,0.000000
870.597927,1554.432478,-10732.986159,383.047749
870.598252,814.226536,-11103.089130,0.000000
870.598576,-444.123565,-11325.150913,459.657299
870.598900,-444.123565,-11547.212695,766.095498
870.599224,1036.288319,-11473.192101,919.314598
870.599548,370.102971,-11029.068536,689.485948
870.599873,-1628.453072,-10881.027347,306.438199
870.600197,-2664.741391,-10732.986159,306.438199
870.600521,-1480.411884,-10955.047942,0.000000
870.600845,0.000000,-10214.842000,229.828649
870.601170,-518.144159,-9400.615463,0.000000
870.601494,-2516.700203,-9992.780217,-306.438199
870.601818,-888.247130,-9696.697840,-1225.752797
870.602142,962.267725,-9326.594869,-842.705048
870.602467,1258.350101,-9400.615463,-766.095498
870.602791,-1110.308913,-9918.759623,-1378.971896
870.603115,-2368.659014,-9770.718434,-1762.019645
870.603439,-296.082377,-9474.636058,-842.705048
870.603763,1850.514855,-9474.636058,0.000000
870.604088,2072.576638,-9474.636058,-153.219100
870.604412,518.144159,-8734.430116,229.828649
870.604736,-148.041188,-8808.450710,919.314598
870.605060,1776.494261,-9030.512492,1149.143247
870.605385,2294.638420,-9548.656652,1149.143247
870.605709,0.000000,-9326.594869,766.095498
870.606033,-1998.556043,-8364.327145,919.314598
870.606357,0.000000,-9252.574275,229.828649
870.606682,1110.308913,-8882.471304,229.828649
870.607006,0.000000,-8364.327145,0.000000
870.607330,-2072.576638,-7994.224174,-1072.533697
870.607654,-1332.370696,-8512.368333,-1608.800546
870.607979,740.205942,-8438.347739,-1532.190996
870.608303,1628.453072,-8586.388927,-1302.362347
870.608627,222.061783,-8882.471304,-1225.752797
870.608951,-1332.370696,-9252.574275,-1762.019645
870.609275,-296.082377,-9400.615463,-919.314598
870.609600,888.247130,-9252.574275,-383.047749
870.609924,1036.288319,-9992.780217,-459.657299
870.610248,222.061783,-10436.903782,153.219100
870.610572,814.226536,-9844.739029,842.705048
870.610897,2960.823768,-9992.780217,1532.190996
870.611221,3775.050304,-10214.842000,1302.362347
870.611545,1110.308913,-10362.883188,1225.752797
870.611869,-1036.288319,-10510.924376,536.266849
870.612194,-1480.411884,-10510.924376,-459.657299
870.612518,-888.247130,-10288.862594,-1225.752797
870.612842,-1258.350101,-9992.780217,-1915.238745
870.613166,-2516.700203,-10214.842000,-2374.896044
870.613490,-2664.741391,-10140.821405,-2298.286494
870.613815,-740.205942,-10214.842000,-1915.238745
870.614139,666.185348,-10140.821405,-1608.800546
870.614463,-592.164754,-10584.944971,-1838.629195
870.614787,-2146.597232,-11177.109724,-1302.362347
870.615112,-1036.288319,-10955.047942,-612.876398
870.615436,1332.370696,-10436.903782,536.266849
870.615760,1628.453072,-10881.027347,612.876398
870.616084,592.164754,-11103.089130,306.438199
870.616409,592.164754,-10140.821405,766.095498
870.616733,1776.494261,-10066.800811,1149.143247
870.617057,2220.617826,-10288.862594,995.924147
870.617381,518.144159,-9770.718434,383.047749
870.617705,-1628.453072,-9622.677246,-612.876398
870.618030,-1924.535449,-9178.553681,-459.657299
870.618354,-222.061783,-8734.430116,-842.705048
870.618678,74.020594,-8956.491898,-842.705048
870.619002,-1998.556043,-8438.347739,-612.876398
870.619327,-1036.288319,-8068.244768,-842.705048
870.619651,666.185348,-8438.347739,153.219100
870.619975,2220.617826,-8734.430116,842.705048
870.620299,1480.411884,-8956.491898,1072.533697
870.620624,-518.144159,-8660.409521,689.485948
870.620948,-1406.391290,-8734.430116,1378.971896
870.621272,1110.308913,-9400.615463,1838.629195
870.621596,1924.535449,-9474.636058,1685.410096
870.621921,740.205942,-8956.491898,1532.190996
870.622245,-814.226536,-8956.491898,1149.143247
870.622569,0.000000,-9252.574275,612.876398
870.622893,666.185348,-8882.471304,766.095498
870.623217,0.000000,-8512.368333,0.000000
870.623542,-2442.679609,-8290.306550,-229.828649
870.623866,-2368.659014,-9400.615463,-459.657299
870.624190,-962.267725,-9400.615463,76.609550
870.624514,74.020594,-9400.615463,153.219100
870.624839,-962.267725,-9474.636058,-306.438199
870.625163,-2146.597232,-9474.636058,-383.047749
870.625487,-1110.308913,-9400.615463,612.876398
870.625811,1110.308913,-10288.862594,383.047749
870.626136,592.164754,-10436.903782,536.266849
870.626460,-1480.411884,-10732.986159,383.047749
870.626784,-1776.494261,-10362.883188,612.876398
870.627108,518.144159,-10807.006753,995.924147
870.627432,2072.576638,-10732.986159,766.095498
870.627757,888.247130,-10214.842000,306.438199
870.628081,-1258.350101,-10066.800811,-383.047749
870.628405,-962.267725,-10584.944971,-689.485948
870.628729,444.123565,-11251.130318,153.219100
870.629054,740.205942,-10955.047942,76.609550
870.629378,-1258.350101,-10288.862594,-766.095498
870.629702,-2368.659014,-9992.780217,-995.924147
870.630026,-888.247130,-9548.656652,-383.047749
870.630351,666.185348,-10140.821405,0.000000
870.630675,0.000000,-9770.718434,153.219100
870.630999,-1332.370696,-8586.388927,0.000000
870.631323,370.102971,-8808.450710,536.266849
870.631647,2442.679609,-9548.656652,689.485948
870.631972,2516.700203,-9474.636058,459.657299
870.632296,814.226536,-9548.656652,459.657299
870.632620,296.082377,-9770.718434,0.000000
870.632944,1554.432478,-9400.615463,229.828649
870.633269,2516.700203,-9548.656652,0.000000
870.633593,1554.432478,-9770.718434,0.000000
870.633917,-296.082377,-10214.842000,-689.485948
870.634241,-444.123565,-10214.842000,-842.705048
870.634566,888.247130,-9844.739029,-229.828649
870.634890,592.164754,-9770.718434,-229.828649
870.635214,-1554.432478,-9104.533087,0.000000
870.635538,-3034.844362,-9252.574275,-995.924147
870.635863,-1628.453072,-9326.594869,76.609550
870.636187,0.000000,-9400.615463,306.438199
870.636511,-148.041188,-8882.471304,459.657299
870.636835,-888.247130,-8586.388927,612.876398
870.637159,0.000000,-8882.471304,383.047749
870.637484,2220.617826,-9474.636058,919.314598
870.637808,2886.803174,-9400.615463,612.876398
870.638132,1184.329507,-9104.533087,459.657299
870.638456,-296.082377,-8512.368333,-306.438199
870.638781,740.205942,-8808.450710,-536.266849
870.639105,2072.576638,-9030.512492,-306.438199
870.639429,1110.308913,-9548.656652,-766.095498
870.639753,-592.164754,-9474.636058,-1302.362347
870.640078,-1480.411884,-9030.512492,-536.266849
870.640402,740.205942,-9474.636058,-383.047749
870.640726,666.185348,-9770.718434,-536.266849
870.641050,-1184.329507,-9992.780217,-306.438199
870.641374,-2516.700203,-10658.965565,0.000000
870.641699,-1924.535449,-11325.150913,689.485948
870.642023,-444.123565,-11399.171507,919.314598
870.642347,-370.102971,-10732.986159,995.924147
870.642671,-1776.494261,-10881.027347,612.876398
870.642996,-1110.308913,-11399.171507,306.438199
870.643320,296.082377,-11029.068536,689.485948
870.643644,962.267725,-10955.047942,76.609550
870.643968,-592.164754,-10436.903782,-1072.533697
870.644293,-2368.659014,-10510.924376,-1762.019645
870.644617,-1628.453072,-10140.821405,-1991.848295
870.644941,0.000000,-9474.636058,-2068.457845
870.645265,74.020594,-9178.553681,-1532.190996
870.645589,-1110.308913,-8660.409521,-1838.629195
870.645914,-518.144159,-9178.553681,-1072.533697
870.646238,1184.329507,-9474.636058,-536.266849
870.646562,2146.597232,-9326.594869,0.000000
870.646886,740.205942,-9178.553681,0.000000
870.647211,-370.102971,-9622.677246,689.485948
870.647535,370.102971,-10807.006753,919.314598
870.647859,1554.432478,-9992.780217,1608.800546
870.648183,1480.411884,-9548.656652,1149.143247
870.648510,296.082377,-9326.594869,383.047749
870.648834,74.020594,-9548.656652,229.828649
870.649158,1924.535449,-9844.739029,842.705048
870.649482,2590.720797,-9474.636058,-306.438199
870.649806,962.267725,-9474.636058,-1225.752797
870.650131,-1998.556043,-9030.512492,-1608.800546
870.650455,-1332.370696,-9548.656652,-1225.752797
870.650779,0.000000,-9252.574275,-1838.629195
870.651103,-148.041188,-9252.574275,-1072.533697
870.651427,-1184.329507,-9178.553681,-842.705048
870.651751,-1332.370696,-9474.636058,-612.876398
870.652075,0.000000,-8882.471304,536.266849
870.652399,1258.350101,-8808.450710,1532.190996
870.652723,370.102971,-9178.553681,1149.143247
870.653047,-1258.350101,-9548.656652,1378.971896
870.653371,-1184.329507,-9474.636058,1225.752797
870.653696,518.144159,-9474.636058,1838.629195
870.654020,1480.411884,-9548.656652,1378.971896
870.654344,370.102971,-9178.553681,766.095498
870.654668,-592.164754,-9252.574275,612.876398
870.654992,666.185348,-9326.594869,0.000000
870.655316,2072.576638,-9992.780217,0.000000
870.655640,370.102971,-10066.800811,-689.485948
870.655964,-1998.556043,-10066.800811,-1072.533697
870.656288,-2590.720797,-10362.883188,-1455.581446
870.656612,-1998.556043,-10288.862594,-689.485948
870.656936,-1332.370696,-10140.821405,0.000000
870.657261,-2220.617826,-9844.739029,-383.047749
870.657585,-3108.864956,-10066.800811,-536.266849
870.657909,-1702.473667,-9918.759623,995.924147
870.658233,222.061783,-10066.800811,1608.800546
870.658557,370.102971,-10066.800811,1532.190996
870.658881,-1036.288319,-9622.677246,1302.362347
870.659205,-1554.432478,-9696.697840,1072.533697
870.659529,0.000000,-10510.924376,689.485948
870.659853,2146.597232,-10436.903782,1072.533697
870.660177,1184.329507,-9548.656652,459.657299
870.660502,444.123565,-9400.615463,612.876398
870.660826,1332.370696,-9844.739029,-383.047749
870.661150,2368.659014,-9548.656652,-383.047749
870.661474,1110.308913,-9400.615463,-689.485948
870.661798,-1184.329507,-9400.615463,-1149.143247
870.662122,-2072.576638,-9252.574275,-1149.143247
870.662446,-666.185348,-8882.471304,0.000000
870.662770,444.123565,-8882.471304,536.266849
870.663094,0.000000,-8956.491898,76.609550
870.663418,-592.164754,-9548.656652,459.657299
870.663742,592.164754,-9696.697840,1149.143247
870.664067,2812.782580,-9548.656652,1455.581446
870.664391,2960.823768,-9622.677246,1532.190996
870.664715,1554.432478,-9548.656652,842.705048
870.665039,0.000000,-10362.883188,1302.362347
870.665363,444.123565,-10881.027347,0.000000
870.665687,1110.308913,-10288.862594,0.000000
870.666011,296.082377,-10066.800811,-306.438199
870.666335,-592.164754,-10214.842000,-689.485948
870.666659,-222.061783,-9622.677246,-459.657299
870.666983,1184.329507,-8660.409521,-612.876398
870.667307,518.144159,-8438.347739,-995.924147
870.667632,-1702.473667,-8956.491898,-1532.190996
870.667956,-2590.720797,-9030.512492,-1072.533697
870.668280,-888.247130,-8882.471304,-383.047749
870.668604,888.247130,-8660.409521,-229.828649
870.668928,296.082377,-9030.512492,-153.219100
870.669252,-814.226536,-9474.636058,-383.047749
870.669576,-296.082377,-9770.718434,153.219100
870.669900,2516.700203,-9548.656652,153.219100
870.670224,2146.597232,-9474.636058,76.609550
870.670548,222.061783,-9548.656652,-383.047749
870.670873,-1406.391290,-10732.986159,-612.876398
870.671197,-814.226536,-10510.924376,-995.924147
870.671521,-148.041188,-9844.739029,-842.705048
870.671845,-888.247130,-9622.677246,-1302.362347
870.672169,-2220.617826,-9992.780217,-1838.629195
870.672493,-1480.411884,-10288.862594,-1225.752797
870.672817,-148.041188,-9770.718434,-766.095498
870.673141,370.102971,-9770.718434,-689.485948
870.673465,-1480.411884,-10510.924376,-1149.143247
870.673789,-3108.864956,-10214.842000,-612.876398
870.674113,-1628.453072,-9844.739029,0.000000
870.674438,814.226536,-9770.718434,-229.828649
870.674762,1110.308913,-9104.533087,0.000000
870.675086,0.000000,-9622.677246,-306.438199
870.675410,296.082377,-10140.821405,-229.828649
870.675734,2072.576638,-9844.739029,-229.828649
870.676058,2220.617826,-9474.636058,-306.438199
870.676382,592.164754,-9474.636058,-383.047749
870.676706,-592.164754,-9696.697840,-842.705048
870.677030,-148.041188,-9992.780217,-766.095498
870.677354,962.267725,-9844.739029,-229.828649
870.677678,666.185348,-9844.739029,-612.876398
870.678003,-888.247130,-9770.718434,-919.314598
870.678327,-740.205942,-9844.739029,-306.438199
870.678651,962.267725,-9474.636058,0.000000
870.678975,1406.391290,-9548.656652,306.438199
870.679299,-888.247130,-9918.759623,0.000000
870.679623,-1776.494261,-10510.924376,0.000000
870.679947,-1036.288319,-10436.903782,689.485948
870.680271,740.205942,-10066.800811,229.828649
870.680595,814.226536,-9474.636058,536.266849
870.680919,-444.123565,-9548.656652,0.000000
870.681244,-1036.288319,-10140.821405,76.609550
870.681568,222.061783,-9844.739029,459.657299
870.681892,1406.391290,-8808.450710,459.657299
870.682216,666.185348,-9178.553681,-153.219100
870.682540,-1480.411884,-9474.636058,-459.657299
870.682864,-1702.473667,-9252.574275,-306.438199
870.683188,-444.123565,-9178.553681,229.828649
870.683512,0.000000,-9178.553681,-229.828649
870.683836,-1110.308913,-8882.471304,0.000000
870.684160,-2072.576638,-8512.368333,612.876398
870.684484,-296.082377,-8660.409521,1072.533697
870.684809,1332.370696,-9474.636058,919.314598
870.685133,888.247130,-9474.636058,689.485948
870.685457,-814.226536,-9696.697840,842.705048
870.685781,-1036.288319,-10066.800811,919.314598
870.686105,518.144159,-10140.821405,842.705048
870.686429,592.164754,-10066.800811,689.485948
870.686753,-740.205942,-9696.697840,0.000000
870.687077,-1850.514855,-10658.965565,229.828649
870.687401,0.000000,-10807.006753,459.657299
870.687725,1924.535449,-10066.800811,229.828649
870.688049,962.267725,-9400.615463,459.657299
870.688374,-1036.288319,-9918.759623,0.000000
870.688698,-1628.453072,-10807.006753,536.266849
870.689022,148.041188,-9992.780217,1455.581446
870.689346,1110.308913,-9474.636058,1455.581446
870.689670,0.000000,-9252.574275,842.705048
870.689994,-888.247130,-9326.594869,919.314598
870.690318,222.061783,-9696.697840,1225.752797
870.690642,2368.659014,-9770.718434,1608.800546
870.690966,2368.659014,-9178.553681,1302.362347
870.691290,370.102971,-8660.409521,383.047749
870.691615,-888.247130,-8438.347739,-383.047749
870.691939,0.000000,-8216.285956,-766.095498
870.692263,814.226536,-9030.512492,-766.095498
870.692587,-296.082377,-9474.636058,-1302.362347
870.692911,-1332.370696,-9400.615463,-995.924147
870.693235,-370.102971,-8882.471304,-459.657299
870.693559,1554.432478,-9030.512492,-229.828649
870.693883,888.247130,-9474.636058,-459.657299
870.694207,-666.185348,-10288.862594,-153.219100
870.694531,-2072.576638,-10807.006753,-306.438199
870.694855,-1110.308913,-10362.883188,-459.657299
870.695180,-222.061783,-9474.636058,0.000000
870.695504,-370.102971,-9844.739029,-459.657299
870.695828,-1036.288319,-10732.986159,-612.876398
870.696152,-370.102971,-10955.047942,-689.485948
870.696476,1258.350101,-9696.697840,-689.485948
870.696800,1406.391290,-9844.739029,-842.705048
870.697124,-148.041188,-10214.842000,-1532.190996
870.697448,-814.226536,-10362.883188,-1532.190996
870.697772,0.000000,-9992.780217,-1149.143247
870.698096,1036.288319,-9844.739029,-1302.362347
870.698420,0.000000,-9696.697840,-1378.971896
870.698745,-1554.432478,-9548.656652,-1072.533697
870.699069,0.000000,-9622.677246,-229.828649
870.699393,1628.453072,-9548.656652,-229.828649
870.699717,1554.432478,-9696.697840,0.000000
870.700041,-222.061783,-9770.718434,0.000000
870.700365,-1110.308913,-10214.842000,0.000000
870.700689,-222.061783,-9548.656652,689.485948
870.701013,1184.329507,-9252.574275,0.000000
870.701337,666.185348,-9474.636058,229.828649
870.701661,-444.123565,-9918.759623,-153.219100
870.701986,-148.041188,-10436.903782,0.000000
870.702310,1480.411884,-10066.800811,0.000000
870.702634,1628.453072,-10288.862594,-536.266849
870.702958,-370.102971,-10584.944971,-306.438199
870.703282,-2072.576638,-10584.944971,-1149.143247
870.703606,-1554.432478,-10436.903782,-766.095498
870.703930,0.000000,-9844.739029,-459.657299
870.704254,-592.164754,-10214.842000,-306.438199
870.704578,-1702.473667,-10362.883188,0.000000
870.704902,-962.267725,-9992.780217,766.095498
870.705226,1184.329507,-9696.697840,1378.971896
870.705551,1776.494261,-9474.636058,1455.581446
870.705875,296.082377,-9474.636058,459.657299
870.706199,-1036.288319,-9178.553681,995.924147
870.706523,-296.082377,-9400.615463,1149.143247
870.706847,1258.350101,-8882.471304,459.657299
870.707171,1258.350101,-8660.409521,536.266849
870.707495,-592.164754,-8808.450710,-229.828649
870.707819,-740.205942,-9104.533087,-612.876398
870.708143,962.267725,-8512.368333,-766.095498
870.708467,1258.350101,-8142.265362,-229.828649
870.708791,-592.164754,-8660.409521,-689.485948
870.709116,-2368.659014,-9030.512492,-995.924147
870.709440,-1776.494261,-8660.409521,0.000000
870.709764,-296.082377,-8956.491898,76.609550
870.710088,-222.061783,-9252.574275,0.000000
870.710412,-1110.308913,-9252.574275,153.219100
870.710736,-962.267725,-9252.574275,459.657299
870.711060,1036.288319,-9548.656652,612.876398
870.711384,1480.411884,-9548.656652,766.095498
870.711708,296.082377,-10214.842000,229.828649
870.712032,-1480.411884,-10288.862594,0.000000
870.712357,-888.247130,-9770.718434,-689.485948
870.712681,666.185348,-9844.739029,-306.438199
870.713005,814.226536,-9992.780217,-612.876398
870.713329,-296.082377,-10436.903782,-1302.362347
870.713653,-962.267725,-9992.780217,-1455.581446
870.713977,962.267725,-9770.718434,-995.924147
870.714301,1258.350101,-9474.636058,-995.924147
870.714625,-148.041188,-10140.821405,-459.657299
870.714949,-1776.494261,-10436.903782,-766.095498
870.715273,-1628.453072,-10584.944971,-536.266849
870.715597,0.000000,-10436.903782,0.000000
870.715922,666.185348,-10510.924376,612.876398
870.716246,-370.102971,-10362.883188,766.095498
870.716570,-1110.308913,-10214.842000,842.705048
870.716894,592.164754,-10288.862594,1532.190996
870.717218,1702.473667,-10510.924376,1149.143247
870.717542,370.102971,-10140.821405,766.095498
870.717866,-1332.370696,-10066.800811,536.266849
870.718190,-1332.370696,-10066.800811,536.266849
870.718514,222.061783,-9770.718434,459.657299
870.718838,740.205942,-9400.615463,76.609550
870.719162,-740.205942,-8734.430116,0.000000
870.719487,-1332.370696,-9030.512492,-612.876398
870.719811,74.020594,-9400.615463,-153.219100
870.720135,1480.411884,-8882.471304,536.266849
870.720459,518.144159,-8808.450710,383.047749
870.720783,-1776.494261,-8882.471304,459.657299
870.721107,-2442.679609,-8882.471304,766.095498
870.721431,-740.205942,-8734.430116,1532.190996
870.721755,222.061783,-9104.533087,1991.848295
870.722079,0.000000,-9252.574275,2068.457845
870.722403,0.000000,-9474.636058,1532.190996
870.722728,1184.329507,-9548.656652,1915.238745
870.723052,2738.761985,-9474.636058,1762.019645
870.723376,2368.659014,-9400.615463,1149.143247
870.723700,0.000000,-9696.697840,76.609550
870.724024,-1332.370696,-9252.574275,-306.438199
870.724348,148.041188,-9474.636058,76.609550
870.724672,814.226536,-9474.636058,-536.266849
870.724996,-370.102971,-9992.780217,-995.924147
870.725320,-1258.350101,-10066.800811,-1149.143247
870.725644,-222.061783,-9474.636058,-1072.533697
870.725968,1332.370696,-8882.471304,-536.266849
870.726293,1332.370696,-9178.553681,-995.924147
870.726617,-740.205942,-9844.739029,-459.657299
870.726941,-1776.494261,-9844.739029,-842.705048
870.727265,-444.123565,-9474.636058,-612.876398
870.727589,666.185348,-9252.574275,-919.314598
870.727913,0.000000,-9400.615463,-995.924147
870.728237,-740.205942,-9770.718434,-919.314598
870.728561,666.185348,-10362.883188,-459.657299
870.728885,2812.782580,-10214.842000,-919.314598
870.729209,1998.556043,-9622.677246,-1378.971896
870.729533,-666.185348,-10066.800811,-1838.629195
870.729858,-1406.391290,-10807.006753,-1762.019645
870.730182,0.000000,-10584.944971,-1532.190996
870.730506,740.205942,-10214.842000,-1149.143247
870.730830,-666.185348,-9844.739029,-1762.019645
870.731154,-1628.453072,-10658.965565,-995.924147
870.731478,-444.123565,-9992.780217,-306.438199
870.731802,1554.432478,-9992.780217,-459.657299
870.732126,1110.308913,-10140.821405,-766.095498
870.732450,-1332.370696,-10288.862594,-766.095498
870.732774,-2220.617826,-10584.944971,-612.876398
870.733099,-814.226536,-10214.842000,-459.657299
870.733423,1110.308913,-9992.780217,-459.657299
870.733747,0.000000,-9400.615463,-306.438199
870.734071,-740.205942,-9548.656652,-536.266849
870.734395,74.020594,-9622.677246,-383.047749
870.734719,1702.473667,-9326.594869,0.000000
870.735043,1184.329507,-9030.512492,0.000000
870.735367,-1332.370696,-9400.615463,0.000000
870.735691,-2442.679609,-9474.636058,76.609550
870.736015,-370.102971,-9326.594869,76.609550
870.736339,814.226536,-8660.409521,383.047749
870.736664,0.000000,-9104.533087,153.219100
870.736988,-1554.432478,-9326.594869,0.000000
870.737312,-666.185348,-8734.430116,459.657299
870.737636,1258.350101,-9178.553681,766.095498
870.737960,1850.514855,-9400.615463,0.000000
870.738284,0.000000,-9400.615463,0.000000
870.738608,-1480.411884,-9474.636058,0.000000
870.738932,0.000000,-9622.677246,0.000000
870.739256,1554.432478,-9326.594869,0.000000
870.739580,1110.308913,-9548.656652,153.219100
870.739904,-444.123565,-10140.821405,0.000000
870.740229,0.000000,-10140.821405,306.438199
870.740553,1110.308913,-9696.697840,459.657299
870.740877,814.226536,-8808.450710,919.314598
870.741201,-370.102971,-9548.656652,0.000000
870.741525,-1332.370696,-9696.697840,0.000000
870.741849,-222.061783,-9918.759623,536.266849
870.742173,814.226536,-9770.718434,689.485948
870.742497,518.144159,-9844.739029,536.266849
870.742821,-962.267725,-9474.636058,-612.876398
870.743145,-962.267725,-9326.594869,0.000000
870.743470,1184.329507,-9548.656652,383.047749
870.743794,2072.576638,-10436.903782,0.000000
870.744118,0.000000,-10807.006753,-536.266849
870.744442,-1702.473667,-10584.944971,-1072.533697
870.744766,-1258.350101,-10066.800811,-689.485948
870.745090,740.205942,-9844.739029,153.219100
870.745414,888.247130,-10140.821405,-383.047749
870.745738,-370.102971,-10658.965565,153.219100
870.746062,-1036.288319,-10881.027347,153.219100
870.746386,-370.102971,-10584.944971,536.266849
870.746710,518.144159,-10140.821405,766.095498
870.747035,-148.041188,-9696.697840,383.047749
870.747359,-1998.556043,-10214.842000,612.876398
870.747683,-1702.473667,-10214.842000,689.485948
870.748007,-592.164754,-9252.574275,1378.971896
870.748331,0.000000,-8438.347739,1072.533697
870.748655,-740.205942,-8438.347739,76.609550
870.748979,-1110.308913,-8734.430116,0.000000
870.749303,222.061783,-8734.430116,76.609550
870.749627,1628.453072,-8734.430116,0.000000
870.749951,888.247130,-8808.450710,-153.219100
870.750275,-1110.308913,-8438.347739,0.000000
870.750599,-1480.411884,-8586.388927,-536.266849
870.750923,222.061783,-8438.347739,76.609550
870.751248,666.185348,-9400.615463,0.000000
870.751572,-222.061783,-9474.636058,0.000000
870.751896,-1258.350101,-9474.636058,689.485948
870.752220,74.020594,-9474.636058,842.705048
870.752544,1258.350101,-8808.450710,1225.752797
870.752868,740.205942,-9326.594869,995.924147
870.753192,-1332.370696,-9622.677246,766.095498
870.753516,-1480.411884,-10288.862594,536.266849
870.753840,148.041188,-9696.697840,383.047749
870.754164,740.205942,-9104.533087,0.000000
870.754488,0.000000,-9400.615463,-459.657299
870.754812,-740.205942,-10140.821405,-919.314598
870.755136,962.267725,-9918.759623,-842.705048
870.755460,2886.803174,-9474.636058,-995.924147
870.755784,2590.720797,-9548.656652,-919.314598
870.756108,296.082377,-10807.006753,-995.924147
870.756433,-370.102971,-10732.986159,-995.924147
870.756757,740.205942,-10584.944971,-842.705048
870.757081,1184.329507,-10510.924376,-1149.143247
870.757405,296.082377,-11103.089130,-1072.533697
870.757729,-148.041188,-11547.212695,-459.657299
870.758053,962.267725,-11177.109724,-306.438199
870.758377,1850.514855,-10288.862594,459.657299
870.758701,1184.329507,-9696.697840,0.000000
870.759025,-1850.514855,-10140.821405,-612.876398
870.759349,-2368.659014,-10658.965565,-612.876398
870.759673,-888.247130,-10288.862594,-689.485948
870.759997,296.082377,-9326.594869,-919.314598
870.760321,-1332.370696,-9104.533087,-1455.581446
870.760645,-2294.638420,-9178.553681,-1608.800546
870.760969,-1110.308913,-9474.636058,-1762.019645
870.761293,1406.391290,-9622.677246,-1302.362347
870.761618,814.226536,-9400.615463,-1608.800546
870.761942,-1924.535449,-9474.636058,-2068.457845
870.762266,-2886.803174,-9844.739029,-1225.752797
870.762590,-814.226536,-10066.800811,-919.314598
870.762914,1036.288319,-9770.718434,-995.924147
870.763238,444.123565,-9474.636058,-459.657299
870.763562,-296.082377,-9770.718434,-229.828649
870.763886,1036.288319,-10584.944971,842.705048
870.764210,2516.700203,-9918.759623,1302.362347
870.764534,2368.659014,-9548.656652,995.924147
870.764858,0.000000,-9474.636058,459.657299
870.765182,-1480.411884,-10066.800811,306.438199
870.765506,-296.082377,-9844.739029,0.000000
870.765830,444.123565,-8586.388927,0.000000
870.766154,-1258.350101,-7994.224174,-1072.533697
870.766478,-2442.679609,-8882.471304,-1225.752797
870.766803,-1480.411884,-8734.430116,-919.314598
870.767127,1554.432478,-8068.244768,-459.657299
870.767451,1702.473667,-7994.224174,0.000000
870.767775,148.041188,-8586.388927,-306.438199
870.768099,-740.205942,-9474.636058,153.219100
870.768423,592.164754,-9622.677246,459.657299
870.768747,2220.617826,-9104.533087,919.314598
870.769071,1776.494261,-9992.780217,1072.533697
870.769395,0.000000,-10807.006753,766.095498
870.769719,-296.082377,-10881.027347,1149.143247
870.770043,888.247130,-10288.862594,1072.533697
870.770367,1406.391290,-9770.718434,919.314598
870.770691,-444.123565,-10510.924376,459.657299
870.771015,-2516.700203,-10584.944971,0.000000
870.771339,-1480.411884,-9622.677246,0.000000
870.771663,-296.082377,-9252.574275,0.000000
870.771988,-1110.308913,-9474.636058,-153.219100
870.772312,-2368.659014,-9770.718434,-383.047749
870.772636,-1850.514855,-9992.780217,-689.485948
870.772960,222.061783,-9178.553681,536.266849
870.773284,1332.370696,-9252.574275,229.828649
870.773608,370.102971,-10140.821405,612.876398
870.773932,-1332.370696,-10288.862594,459.657299
870.774256,-666.185348,-9992.780217,536.266849
870.774580,1332.370696,-9696.697840,766.095498
870.774904,1628.453072,-9770.718434,995.924147
870.775228,74.020594,-10066.800811,459.657299
870.775552,148.041188,-10066.800811,766.095498
870.775876,888.247130,-9030.512492,536.266849
870.776200,1258.350101,-8882.471304,383.047749
870.776524,0.000000,-9474.636058,76.609550
870.776848,-1850.514855,-10066.800811,0.000000
870.777172,-1554.432478,-9770.718434,153.219100
870.777497,0.000000,-9104.533087,536.266849
870.777821,148.041188,-8882.471304,229.828649
870.778145,-1258.350101,-9770.718434,76.609550
870.778469,-1332.370696,-9548.656652,306.438199
870.778793,-148.041188,-9400.615463,689.485948
870.779117,1480.411884,-9178.553681,536.266849
870.779441,148.041188,-9474.636058,0.000000
870.779765,-1702.473667,-9400.615463,-383.047749
870.780089,-1258.350101,-8808.450710,-383.047749
870.780413,592.164754,-9178.553681,-153.219100
870.780737,1332.370696,-9474.636058,-919.314598
870.781061,296.082377,-9474.636058,-229.828649
870.781385,148.041188,-9844.739029,-383.047749
870.781709,1480.411884,-9252.574275,-306.438199
870.782033,2590.720797,-9474.636058,153.219100
870.782357,1036.288319,-10066.800811,383.047749
870.782682,-1184.329507,-10066.800811,-612.876398
870.783006,-1480.411884,-10066.800811,-153.219100
870.783330,0.000000,-9844.739029,536.266849
870.783654,444.123565,-9992.780217,306.438199
870.783978,-888.247130,-9992.780217,-306.438199
870.784302,-1702.473667,-9622.677246,-229.828649
870.784626,74.020594,-9474.636058,-306.438199
870.784950,2072.576638,-9696.697840,-536.266849
870.785274,1406.391290,-9326.594869,-995.924147
870.785598,-444.123565,-9622.677246,-766.095498
870.785922,-666.185348,-9844.739029,-1072.533697
870.786246,518.144159,-9696.697840,-1302.362347
870.786570,962.267725,-9400.615463,-919.314598
870.786894,222.061783,-10140.821405,-1072.533697
870.787218,-222.061783,-11029.068536,-1225.752797
870.787542,888.247130,-10214.842000,0.000000
870.787867,2368.659014,-9400.615463,76.609550
870.788191,1332.370696,-9474.636058,-229.828649
870.788515,-1184.329507,-10140.821405,-153.219100
870.788839,-1776.494261,-10288.862594,0.000000
870.789163,-148.041188,-10214.842000,153.219100
870.789487,444.123565,-9252.574275,0.000000
870.789811,-740.205942,-8956.491898,0.000000
870.790135,-1480.411884,-9770.718434,0.000000
870.790459,-222.061783,-9844.739029,-536.266849
870.790783,1184.329507,-9030.512492,-536.266849
870.791107,518.144159,-8882.471304,-612.876398
870.791431,-962.267725,-9844.739029,-1149.143247
870.791755,-1776.494261,-10362.883188,-995.924147
870.792079,-740.205942,-9474.636058,-383.047749
870.792403,148.041188,-9252.574275,-766.095498
870.792727,-1184.329507,-9548.656652,-1455.581446
870.793052,-2294.638420,-9400.615463,-612.876398
870.793376,-1036.288319,-9548.656652,0.000000
870.793700,1184.329507,-9474.636058,383.047749
870.794024,888.247130,-9326.594869,76.609550
870.794348,-1332.370696,-9696.697840,0.000000
870.794672,-1776.494261,-10436.903782,76.609550
870.794996,-444.123565,-10362.883188,383.047749
870.795320,518.144159,-9548.656652,459.657299
870.795644,-740.205942,-8882.471304,-153.219100
870.795968,-1406.391290,-9474.636058,-306.438199
870.796292,222.061783,-9770.718434,153.219100
870.796616,2812.782580,-8882.471304,229.828649
870.796940,2590.720797,-8734.430116,0.000000
870.797264,-148.041188,-8734.430116,-1149.143247
870.797588,-1776.494261,-9474.636058,-919.314598
870.797912,-592.164754,-9326.594869,-995.924147
870.798237,814.226536,-9252.574275,-612.876398
870.798561,518.144159,-9548.656652,-1149.143247
870.798885,-814.226536,-10140.821405,-1302.362347
870.799209,592.164754,-9992.780217,0.000000
870.799533,2516.700203,-9918.759623,536.266849
870.799857,2812.782580,-10214.842000,766.095498
870.800181,592.164754,-11029.068536,383.047749
870.800505,-1332.370696,-11399.171507,536.266849
870.800829,-444.123565,-10658.965565,766.095498
870.801153,518.144159,-10510.924376,612.876398
870.801477,74.020594,-10140.821405,612.876398
870.801801,-1406.391290,-10436.903782,536.266849
870.802125,-370.102971,-10362.883188,383.047749
870.802449,1924.535449,-9696.697840,689.485948
870.802773,1998.556043,-8808.450710,76.609550
870.803097,-666.185348,-9326.594869,-536.266849
870.803422,-2664.741391,-9696.697840,-1149.143247
870.803746,-1110.308913,-9104.533087,-1072.533697
870.804070,814.226536,-8956.491898,-153.219100
870.804394,444.123565,-9844.739029,76.609550
870.804718,-666.185348,-9622.677246,229.828649
870.805042,-666.185348,-9696.697840,842.705048
870.805366,592.164754,-9474.636058,1685.410096
870.805690,1628.453072,-8734.430116,2145.067394
870.806014,0.000000,-9474.636058,1455.581446
870.806338,-1776.494261,-9622.677246,1685.410096
870.806662,-1110.308913,-9326.594869,1532.190996
870.806986,0.000000,-8586.388927,995.924147
870.807310,-740.205942,-8512.368333,612.876398
870.807634,-2368.659014,-8808.450710,153.219100
870.807958,-2220.617826,-9178.553681,0.000000
870.808282,148.041188,-8660.409521,0.000000
870.808607,888.247130,-8512.368333,229.828649
870.808931,-592.164754,-9178.553681,0.000000
870.809255,-2072.576638,-9252.574275,-1072.533697
870.809579,-1628.453072,-9104.533087,-689.485948
870.809903,0.000000,-8734.430116,459.657299
870.810227,1036.288319,-9474.636058,306.438199
870.810551,518.144159,-10881.027347,0.000000
870.810875,0.000000,-9622.677246,306.438199
870.811199,1998.556043,-9178.553681,1225.752797
870.811523,3108.864956,-9474.636058,612.876398
870.811847,1480.411884,-9696.697840,-153.219100
870.812171,-740.205942,-10510.924376,0.000000
870.812495,-296.082377,-10214.842000,-229.828649
870.812819,1480.411884,-10066.800811,-229.828649
870.813143,1406.391290,-9844.739029,-153.219100
870.813467,-518.144159,-9918.759623,-1685.410096
870.813792,-1184.329507,-9696.697840,-766.095498
870.814116,148.041188,-10066.800811,-1991.848295
870.814440,2072.576638,-10214.842000,-1532.190996
870.814764,962.267725,-10436.903782,-1225.752797
870.815088,-740.205942,-10807.006753,-1072.533697
870.815412,-296.082377,-10881.027347,153.219100
870.815736,1332.370696,-10584.944971,-459.657299
870.816060,1406.391290,-10584.944971,-306.438199
870.816384,74.020594,-11695.253884,-536.266849
870.816708,0.000000,-11621.233289,0.000000
870.817032,1628.453072,-10510.924376,76.609550
870.817356,2368.659014,-9696.697840,229.828649
870.817680,296.082377,-9844.739029,-612.876398
870.818004,-1702.473667,-10214.842000,-766.095498
870.818328,-1924.535449,-9918.759623,-1149.143247
870.818652,0.000000,-8660.409521,-1378.971896
870.818977,-296.082377,-8586.388927,-2068.457845
870.819301,-2146.597232,-9104.533087,-1532.190996
870.819625,-2368.659014,-9548.656652,-1378.971896
870.819949,-814.226536,-9622.677246,-612.876398
870.820273,740.205942,-9326.594869,306.438199
870.820597,148.041188,-9474.636058,1072.533697
870.820921,-1258.350101,-9696.697840,459.657299
870.821245,-1110.308913,-10066.800811,306.438199
870.821569,-148.041188,-9992.780217,306.438199
870.821893,296.082377,-9400.615463,76.609550
870.822217,-888.247130,-9400.615463,-536.266849
870.822541,-1554.432478,-9326.594869,-383.047749
870.822865,222.061783,-9400.615463,-383.047749
870.823189,1998.556043,-8438.347739,-842.705048
870.823513,1184.329507,-9178.553681,-689.485948
870.823837,-1480.411884,-9252.574275,-689.485948
870.824162,-2146.597232,-9918.759623,-1225.752797
870.824486,-888.247130,-9326.594869,-689.485948
870.824810,-148.041188,-9178.553681,0.000000
870.825134,-666.185348,-9400.615463,0.000000
870.825458,-1332.370696,-9622.677246,0.000000
870.825782,222.061783,-9474.636058,612.876398
870.826106,2294.638420,-9030.512492,1072.533697
870.826430,1998.556043,-8882.471304,766.095498
870.826754,-148.041188,-9474.636058,536.266849
870.827078,-1036.288319,-9696.697840,689.485948
870.827402,370.102971,-9548.656652,76.609550
870.827726,1924.535449,-9030.512492,306.438199
870.828050,888.247130,-9770.718434,-76.609550
870.828374,-148.041188,-10510.924376,-306.438199
870.828698,370.102971,-10658.965565,0.000000
870.829022,1850.514855,-10066.800811,0.000000
870.829347,1554.432478,-9844.739029,-153.219100
870.829671,-592.164754,-11177.109724,-153.219100
870.829995,-2072.576638,-11621.233289,0.000000
870.830319,-814.226536,-11103.089130,995.924147
870.830643,740.205942,-9918.759623,1762.019645
870.830967,-444.123565,-9844.739029,1072.533697
870.831291,-1406.391290,-10658.965565,612.876398
870.831615,-518.144159,-10288.862594,1302.362347
870.831939,1480.411884,-9622.677246,1378.971896
870.832263,1406.391290,-9474.636058,995.924147
870.832587,-814.226536,-9326.594869,1072.533697
870.832911,-1702.473667,-9622.677246,919.314598
870.833235,-740.205942,-9326.594869,459.657299
870.833559,592.164754,-9030.512492,612.876398
870.833883,-370.102971,-8808.450710,229.828649
870.834207,-1776.494261,-9474.636058,0.000000
870.834531,-1332.370696,-9326.594869,229.828649
870.834856,740.205942,-8290.306550,919.314598
870.835180,1480.411884,-8290.306550,1225.752797
870.835504,-814.226536,-9326.594869,383.047749
870.835828,-2442.679609,-9696.697840,383.047749
870.836152,-1850.514855,-9252.574275,766.095498
870.836476,0.000000,-8586.388927,919.314598
870.836800,0.000000,-9104.533087,766.095498
870.837124,-1110.308913,-9696.697840,842.705048
870.837448,-148.041188,-9622.677246,842.705048
870.837772,1554.432478,-9178.553681,1378.971896
870.838096,2442.679609,-8956.491898,919.314598
870.838420,888.247130,-9474.636058,76.609550
870.838744,-1110.308913,-9770.718434,-229.828649
870.839068,-1110.308913,-9622.677246,-536.266849
870.839392,148.041188,-9326.594869,-766.095498
870.839716,444.123565,-9474.636058,-1378.971896
870.840041,-666.185348,-9622.677246,-1302.362347
870.840365,-1110.308913,-9548.656652,-995.924147
870.840689,1332.370696,-9178.553681,-766.095498
870.841013,2368.659014,-9252.574275,-306.438199
870.841337,1332.370696,-10362.883188,-612.876398
870.841661,-518.144159,-10955.047942,-459.657299
870.841985,-592.164754,-10362.883188,-306.438199
870.842309,740.205942,-9918.759623,229.828649
870.842633,1258.350101,-9548.656652,-459.657299
870.842957,-518.144159,-9844.739029,-766.095498
870.843281,-518.144159,-10362.883188,-536.266849
870.843605,1258.350101,-10214.842000,-536.266849
870.843929,2664.741391,-9770.718434,-689.485948
870.844253,1702.473667,-9622.677246,-612.876398
870.844577,-518.144159,-9992.780217,-1378.971896
870.844901,-888.247130,-10140.821405,-1532.190996
870.845226,222.061783,-10288.862594,-1378.971896
870.845550,444.123565,-9770.718434,-1072.533697
870.845874,-1184.329507,-10066.800811,-2221.676944
870.846198,-1702.473667,-10214.842000,-1225.752797
870.846522,-370.102971,-9992.780217,-612.876398
870.846846,1110.308913,-9918.759623,-612.876398
870.847170,0.000000,-9696.697840,-689.485948
870.847494,-2146.597232,-10214.842000,-1072.533697
870.847818,-2146.597232,-10510.924376,229.828649
870.848142,-444.123565,-9696.697840,536.266849
870.848466,-370.102971,-9474.636058,229.828649
870.848790,-1258.350101,-9770.718434,76.609550
870.849114,-666.185348,-9770.718434,153.219100
870.849438,962.267725,-9030.512492,153.219100
870.849762,2812.782580,-8364.327145,0.000000
870.850087,1036.288319,-8290.306550,0.000000
870.850411,-1480.411884,-9252.574275,-612.876398
870.850735,-2072.576638,-8882.471304,-919.314598
870.851059,-370.102971,-8290.306550,-612.876398
870.851383,148.041188,-8142.265362,-383.047749
870.851707,-740.205942,-9030.512492,-229.828649
870.852031,-814.226536,-9918.759623,459.657299
870.852355,1110.308913,-9104.533087,1149.143247
870.852679,2368.659014,-9326.594869,689.485948
870.853003,962.267725,-9474.636058,1225.752797
870.853327,-1036.288319,-10214.842000,612.876398
870.853651,-444.123565,-10732.986159,919.314598
870.853975,888.247130,-9918.759623,1072.533697
870.854300,888.247130,-9030.512492,229.828649
870.854624,-888.247130,-9400.615463,-612.876398
870.854948,-1406.391290,-10140.821405,-1302.362347
870.855272,74.020594,-9844.739029,-383.047749
870.855596,1998.556043,-9844.739029,-536.266849
870.855920,740.205942,-9770.718434,-842.705048
870.856244,-1628.453072,-10510.924376,-612.876398
870.856568,-1998.556043,-10658.965565,-306.438199
870.856892,74.020594,-9844.739029,459.657299
870.857216,666.185348,-9918.759623,612.876398
870.857540,296.082377,-10362.883188,689.485948
870.857864,0.000000,-10510.924376,995.924147
870.858189,888.247130,-9992.780217,1762.019645
870.858513,1998.556043,-9696.697840,1838.629195
870.858837,814.226536,-9918.759623,842.705048
870.859161,-1480.411884,-9918.759623,0.000000
870.859485,-1850.514855,-10140.821405,-459.657299
870.859809,0.000000,-9622.677246,-229.828649
870.860133,740.205942,-9178.553681,0.000000
870.860457,-592.164754,-9474.636058,0.000000
870.860781,-1702.473667,-10066.800811,-383.047749
870.861105,-740.205942,-9844.739029,0.000000
870.861429,1110.308913,-9252.574275,612.876398
870.861753,1184.329507,-9474.636058,536.266849
870.862077,-962.267725,-9622.677246,459.657299
870.862402,-2220.617826,-9696.697840,995.924147
870.862726,-1258.350101,-9104.533087,1302.362347
870.863050,148.041188,-8512.368333,1608.800546
870.863374,-148.041188,-9178.553681,1455.581446
870.863698,-1480.411884,-9474.636058,1378.971896
870.864022,-888.247130,-9474.636058,1072.533697
870.864346,740.205942,-8512.368333,1302.362347
870.864670,814.226536,-8290.306550,1072.533697
870.864994,-962.267725,-9104.533087,612.876398
870.865318,-1850.514855,-9474.636058,612.876398
870.865642,-148.041188,-9030.512492,536.266849
870.865966,1628.453072,-8512.368333,612.876398
870.866291,1258.350101,-9030.512492,306.438199
870.866615,0.000000,-9326.594869,-153.219100
870.866939,0.000000,-9326.594869,689.485948
870.867263,1258.350101,-8956.491898,153.219100
870.867587,1258.350101,-9474.636058,689.485948
870.867911,-444.123565,-9622.677246,0.000000
870.868235,-2146.597232,-10214.842000,-383.047749
870.868559,-1332.370696,-9844.739029,-383.047749
870.868883,0.000000,-9326.594869,-229.828649
870.869207,666.185348,-9696.697840,-766.095498
870.869531,-222.061783,-10436.903782,0.000000
870.869855,0.000000,-10436.903782,-306.438199
870.870179,1628.453072,-9622.677246,-459.657299
870.870504,1776.494261,-9474.636058,-229.828649
870.870828,0.000000,-10807.006753,-689.485948
870.871152,-592.164754,-11029.068536,-1149.143247
870.871476,-148.041188,-10510.924376,-689.485948
870.871800,1702.473667,-9844.739029,-229.828649
870.872124,1628.453072,-9474.636058,-612.876398
870.872448,592.164754,-10807.006753,-1455.581446
870.872772,-222.061783,-10955.047942,-766.095498
870.873096,1332.370696,-10140.821405,-842.705048
870.873420,2220.617826,-9770.718434,-1072.533697
870.873744,518.144159,-10214.842000,-1149.143247
870.874068,-740.205942,-10881.027347,-1149.143247
870.874393,0.000000,-10214.842000,-153.219100
870.874717,1184.329507,-9474.636058,-919.314598
870.875041,1184.329507,-9696.697840,-995.924147
870.875365,-370.102971,-9770.718434,-995.924147
870.875689,-518.144159,-9992.780217,-536.266849
870.876013,1332.370696,-9770.718434,-383.047749
870.876337,1776.494261,-9030.512492,-153.219100
870.876661,222.061783,-9400.615463,-1149.143247
870.876985,-1998.556043,-9548.656652,-995.924147
870.877309,-1998.556043,-9474.636058,-766.095498
870.877633,-296.082377,-8660.409521,-1302.362347
870.877957,-592.164754,-9252.574275,-919.314598
870.878281,-1924.535449,-9400.615463,-995.924147
870.878606,-2146.597232,-9400.615463,-995.924147
870.878930,0.000000,-9030.512492,-536.266849
870.879254,1480.411884,-9326.594869,-612.876398
870.879578,0.000000,-9474.636058,-842.705048
870.879902,-2072.576638,-10214.842000,-383.047749
870.880226,-1924.535449,-9696.697840,-689.485948
870.880550,222.061783,-9548.656652,0.000000
870.880874,444.123565,-9844.739029,0.000000
870.881198,-740.205942,-10288.862594,-689.485948
870.881522,-962.267725,-10288.862594,-229.828649
870.881846,666.185348,-10066.800811,306.438199
870.882170,2146.597232,-9474.636058,0.000000
870.882495,296.082377,-9474.636058,-76.609550
870.882819,-2220.617826,-9770.718434,-229.828649
870.883143,-1628.453072,-10066.800811,0.000000
870.883467,0.000000,-9770.718434,536.266849
870.883791,296.082377,-9474.636058,306.438199
870.884115,-814.226536,-9696.697840,153.219100
870.884439,-888.247130,-9770.718434,0.000000
870.884763,1480.411884,-9474.636058,842.705048
870.885087,2960.823768,-8956.491898,1149.143247
870.885411,1850.514855,-9474.636058,842.705048
870.885735,-518.144159,-9992.780217,229.828649
870.886059,-814.226536,-9696.697840,306.438199
870.886383,1036.288319,-9252.574275,0.000000
870.886708,1258.350101,-9326.594869,0.000000
870.887032,-444.123565,-10140.821405,76.609550
870.887356,-1258.350101,-10214.842000,459.657299
870.887680,666.185348,-10214.842000,1225.752797
870.888004,1406.391290,-8956.491898,1455.581446
870.888328,814.226536,-9770.718434,1455.581446
870.888652,-888.247130,-10955.047942,995.924147
870.888976,-1258.350101,-10584.944971,1378.971896
870.889300,0.000000,-9548.656652,1915.238745
870.889624,962.267725,-9400.615463,1685.410096
870.889948,0.000000,-9992.780217,1072.533697
870.890272,-814.226536,-9992.780217,1149.143247
870.890596,0.000000,-9104.533087,612.876398
870.890921,1036.288319,-8438.347739,0.000000
870.891245,74.020594,-8956.491898,-306.438199
870.891569,-2072.576638,-9548.656652,-689.485948
870.891893,-2368.659014,-9400.615463,0.000000
870.892217,-370.102971,-8586.388927,76.609550
870.892541,1184.329507,-8586.388927,0.000000
870.892865,0.000000,-9178.553681,-383.047749
870.893189,-1036.288319,-10140.821405,306.438199
870.893513,-370.102971,-9992.780217,1378.971896
870.893837,1628.453072,-9474.636058,1455.581446
870.894161,1480.411884,-9178.553681,1225.752797
870.894485,-962.267725,-9474.636058,1302.362347
870.894810,-2294.638420,-9992.780217,689.485948
870.895134,-1702.473667,-9622.677246,919.314598
870.895458,-444.123565,-9548.656652,383.047749
870.895782,-962.267725,-9548.656652,-306.438199
870.896106,-1628.453072,-9770.718434,-612.876398
870.896430,-888.247130,-9474.636058,-842.705048
870.896754,814.226536,-9178.553681,-1149.143247
870.897078,962.267725,-9474.636058,-995.924147
870.897402,-444.123565,-9770.718434,-1532.190996
870.897726,-1110.308913,-9770.718434,-1532.190996
870.898050,592.164754,-9696.697840,-842.705048
870.898374,2294.638420,-9770.718434,-459.657299
870.898698,1850.514855,-10436.903782,-383.047749
870.899023,518.144159,-11029.068536,-76.609550
870.899347,666.185348,-10140.821405,612.876398
870.899671,2516.700203,-9844.739029,766.095498
870.899995,2368.659014,-9326.594869,306.438199
870.900319,74.020594,-10214.842000,0.000000
870.900643,-1332.370696,-10584.944971,-229.828649
870.900967,-888.247130,-9548.656652,-766.095498
870.901291,148.041188,-8808.450710,-766.095498
870.901615,0.000000,-8586.388927,-1149.143247
870.901939,-962.267725,-9622.677246,-1072.533697
870.902263,-222.061783,-9918.759623,-1455.581446
870.902587,1924.535449,-9696.697840,-995.924147
870.902912,1776.494261,-9548.656652,-1378.971896
870.903236,0.000000,-10362.883188,-1915.238745
870.903560,-1332.370696,-11029.068536,-1685.410096
870.903884,-148.041188,-10214.842000,-1072.533697
870.904208,1036.288319,-9474.636058,-459.657299
870.904532,518.144159,-9918.759623,-383.047749
870.904856,-740.205942,-10955.047942,0.000000
870.905180,-888.247130,-10436.903782,383.047749
870.905504,888.247130,-9696.697840,995.924147
870.905828,1184.329507,-9474.636058,536.266849
870.906152,-370.102971,-9326.594869,459.657299
870.906476,-2220.617826,-9474.636058,612.876398
870.906800,-1628.453072,-9104.533087,383.047749
870.907125,148.041188,-8142.265362,0.000000
870.907449,-74.020594,-8438.347739,-306.438199
870.907773,-1110.308913,-8734.430116,-612.876398
870.908097,-296.082377,-9252.574275,-536.266849
870.908421,1702.473667,-8364.327145,-536.266849
870.908745,1776.494261,-7698.141797,-536.266849
870.909069,-666.185348,-8438.347739,-1072.533697
870.909393,-2590.720797,-9400.615463,-1149.143247
870.909717,-1924.535449,-9030.512492,-306.438199
870.910041,-370.102971,-9030.512492,-153.219100
870.910365,444.123565,-9770.718434,-153.219100
870.910689,0.000000,-10658.965565,536.266849
870.911014,666.185348,-11029.068536,1149.143247
870.911338,2442.679609,-10584.944971,1378.971896
870.911662,2812.782580,-9548.656652,1378.971896
870.911986,1184.329507,-9770.718434,919.314598
870.912310,-296.082377,-11177.109724,612.876398
870.912634,0.000000,-11177.109724,306.438199
870.912958,962.267725,-10214.842000,229.828649
870.913282,-444.123565,-9844.739029,-689.485948
870.913606,-2516.700203,-10214.842000,-1608.800546
870.913930,-2442.679609,-9770.718434,-1302.362347
870.914254,-444.123565,-9178.553681,-995.924147
870.914578,1258.350101,-9252.574275,-919.314598
870.914902,0.000000,-9918.759623,-1072.533697
870.915227,-1776.494261,-10362.883188,-612.876398
870.915551,-1332.370696,-9770.718434,-459.657299
870.915875,1036.288319,-9252.574275,0.000000
870.916199,1850.514855,-9770.718434,536.266849
870.916523,740.205942,-9696.697840,842.705048
870.916847,1258.350101,-10510.924376,1455.581446
870.917171,2294.638420,-10510.924376,2145.067394
870.917495,3256.906145,-9844.739029,2221.676944
870.917819,1258.350101,-9474.636058,459.657299
870.918143,-1406.391290,-9696.697840,229.828649
870.918467,-1924.535449,-9918.759623,0.000000
870.918791,-1036.288319,-9326.594869,0.000000
870.919116,-1776.494261,-8364.327145,76.609550
870.919440,-3034.844362,-8586.388927,-536.266849
870.919764,-3256.906145,-8808.450710,0.000000
870.920088,-962.267725,-8438.347739,229.828649
870.920412,148.041188,-8068.244768,842.705048
870.920736,0.000000,-8512.368333,459.657299
870.921060,-1924.535449,-9400.615463,612.876398
870.921384,-1924.535449,-9622.677246,1072.533697
870.921708,-148.041188,-8956.491898,1455.581446
870.922032,666.185348,-8586.388927,1225.752797
870.922356,0.000000,-9326.594869,383.047749
870.922680,-296.082377,-10066.800811,689.485948
870.923004,518.144159,-10140.821405,459.657299
870.923329,1554.432478,-9104.533087,689.485948
870.923653,740.205942,-9178.553681,153.219100
870.923977,-962.267725,-9770.718434,-306.438199
870.924301,-1702.473667,-10140.821405,-459.657299
870.924625,-592.164754,-10066.800811,0.000000
870.924949,148.041188,-9770.718434,306.438199
870.925273,-518.144159,-9622.677246,-229.828649
870.925597,-444.123565,-10214.842000,306.438199
870.925921,518.144159,-10140.821405,536.266849
870.926245,2072.576638,-9770.718434,306.438199
870.926569,1702.473667,-9770.718434,-229.828649
870.926893,-222.061783,-10214.842000,-1072.533697
870.927218,-1110.308913,-10807.006753,-612.876398
870.927542,222.061783,-10510.924376,-842.705048
870.927866,888.247130,-9992.780217,-459.657299
870.928190,296.082377,-9918.759623,-689.485948
870.928514,-518.144159,-10807.006753,-1302.362347
870.928838,962.267725,-10658.965565,-766.095498
870.929162,2886.803174,-9992.780217,0.000000
870.929486,2368.659014,-9770.718434,0.000000
870.929810,814.226536,-10436.903782,-536.266849
870.930134,-1258.350101,-10658.965565,0.000000
870.930458,-444.123565,-10066.800811,0.000000
870.930782,1332.370696,-9474.636058,0.000000
870.931106,296.082377,-9474.636058,0.000000
870.931431,-740.205942,-9844.739029,229.828649
870.931755,0.000000,-9770.718434,229.828649
870.932079,1628.453072,-8882.471304,383.047749
870.932403,1184.329507,-7846.182985,-1072.533697
870.932727,-666.185348,-8068.244768,-383.047749
870.933051,-1480.411884,-9770.718434,-1072.533697
870.933375,-888.247130,-9326.594869,-1225.752797
870.933699,296.082377,-8142.265362,-995.924147
870.934023,-296.082377,-8216.285956,-1302.362347
870.934347,-1702.473667,-9622.677246,-1455.581446
870.934671,-888.247130,-10140.821405,-689.485948
870.934995,1258.350101,-9474.636058,76.609550
870.935320,1998.556043,-9400.615463,536.266849
870.935644,0.000000,-9770.718434,-229.828649
870.935968,-1406.391290,-10140.821405,306.438199
870.936292,-370.102971,-10214.842000,689.485948
870.936616,592.164754,-10066.800811,536.266849
870.936940,296.082377,-9918.759623,689.485948
870.937264,-1554.432478,-9622.677246,-153.219100
870.937588,-888.247130,-9696.697840,229.828649
870.937912,1184.329507,-9326.594869,0.000000
870.938236,1406.391290,-9104.533087,-459.657299
870.938560,-814.226536,-9548.656652,-1225.752797
870.938884,-2294.638420,-10140.821405,-1685.410096
870.939208,-1036.288319,-9844.739029,-1149.143247
870.939533,666.185348,-9104.533087,-1072.533697
870.939857,1184.329507,-9178.553681,-1532.190996
870.940181,-148.041188,-9548.656652,-766.095498
870.940505,296.082377,-10658.965565,-383.047749
870.940829,1776.494261,-10510.924376,76.609550
870.941153,1850.514855,-9992.780217,306.438199
870.941477,74.020594,-10066.800811,383.047749
870.941801,-1036.288319,-10510.924376,459.657299
870.942125,-666.185348,-10584.944971,919.314598
870.942449,370.102971,-9844.739029,459.657299
870.942773,-370.102971,-9696.697840,612.876398
870.943097,-2146.597232,-9918.759623,153.219100
870.943421,-1184.329507,-9696.697840,76.609550
870.943746,370.102971,-8956.491898,153.219100
870.944070,962.267725,-8586.388927,-306.438199
870.944394,-148.041188,-9474.636058,-689.485948
870.944718,-2072.576638,-9474.636058,-766.095498
870.945042,-814.226536,-9992.780217,-995.924147
870.945366,296.082377,-8290.306550,0.000000
870.945690,592.164754,-8586.388927,-459.657299
870.946014,-444.123565,-10140.821405,-306.438199
870.946338,-518.144159,-10510.924376,-229.828649
870.946662,518.144159,-9696.697840,919.314598
870.946986,1776.494261,-9474.636058,919.314598
870.947310,1258.350101,-9548.656652,612.876398
870.947635,0.000000,-10214.842000,842.705048
870.947959,-666.185348,-10436.903782,1149.143247
870.948283,0.000000,-9696.697840,689.485948
870.948607,-518.144159,-9474.636058,766.095498
870.948931,-1924.535449,-9622.677246,306.438199
870.949255,-1554.432478,-9622.677246,153.219100
870.949579,370.102971,-9622.677246,306.438199
870.949903,1628.453072,-9326.594869,0.000000
870.950227,-518.144159,-9548.656652,-766.095498
870.950552,-2368.659014,-9992.780217,-995.924147
870.950876,-2220.617826,-10066.800811,-842.705048
870.951200,-148.041188,-9696.697840,-459.657299
870.951524,888.247130,-9474.636058,153.219100
870.951848,74.020594,-10362.883188,229.828649
870.952172,-444.123565,-10436.903782,153.219100
870.952497,1110.308913,-9918.759623,612.876398
870.952821,2368.659014,-9770.718434,1072.533697
870.953145,1776.494261,-10140.821405,1149.143247
870.953469,0.000000,-10436.903782,1302.362347
870.953793,-666.185348,-10362.883188,1378.971896
870.954118,370.102971,-9326.594869,1608.800546
870.954442,0.000000,-9252.574275,842.705048
870.954766,-888.247130,-9252.574275,-383.047749
870.955090,-1628.453072,-9622.677246,-229.828649
870.955414,-740.205942,-9030.512492,-612.876398
870.955738,518.144159,-8660.409521,-536.266849
870.956063,74.020594,-8586.388927,-842.705048
870.956387,-1258.350101,-9474.636058,-1532.190996
870.956711,-962.267725,-9474.636058,-919.314598
870.957035,1110.308913,-8956.491898,0.000000
870.957359,2368.659014,-8956.491898,306.438199
870.957684,1036.288319,-9474.636058,0.000000
870.958008,222.061783,-9770.718434,229.828649
870.958332,962.267725,-9770.718434,1072.533697
870.958656,2368.659014,-9622.677246,919.314598
870.958980,1628.453072,-9326.594869,229.828649
870.959304,-814.226536,-9474.636058,229.828649
870.959629,-1850.514855,-9622.677246,-306.438199
870.959953,-296.082377,-9178.553681,-153.219100
870.960277,-148.041188,-8956.491898,-1072.533697
870.960601,-1406.391290,-8660.409521,-1455.581446
870.960925,-2368.659014,-9252.574275,-1762.019645
870.961249,-888.247130,-9474.636058,-1149.143247
870.961574,1332.370696,-9326.594869,-1455.581446
870.961898,1110.308913,-9474.636058,-1762.019645
870.962222,-592.164754,-10066.800811,-1838.629195
870.962546,-962.267725,-10584.944971,-459.657299
870.962870,518.144159,-10658.965565,-229.828649
870.963195,1554.432478,-9992.780217,0.000000
870.963519,296.082377,-10214.842000,-383.047749
870.963843,-888.247130,-10658.965565,-689.485948
870.964167,0.000000,-11103.089130,0.000000
870.964491,2146.597232,-11029.068536,536.266849
870.964815,1480.411884,-9770.718434,-153.219100
870.965140,-888.247130,-9474.636058,-612.876398
870.965464,-2146.597232,-10066.800811,-842.705048
870.965788,-1406.391290,-10436.903782,-1072.533697
870.966112,0.000000,-9474.636058,-995.924147
870.966436,-888.247130,-9622.677246,-689.485948
870.966761,-1702.473667,-10214.842000,-612.876398
870.967085,-592.164754,-9770.718434,0.000000
870.967409,1554.432478,-9622.677246,383.047749
870.967733,1924.535449,-9252.574275,0.000000
870.968057,0.000000,-10658.965565,0.000000
870.968381,-1480.411884,-10881.027347,0.000000
870.968706,-222.061783,-10510.924376,612.876398
870.969030,962.267725,-9400.615463,459.657299
870.969354,222.061783,-8882.471304,0.000000
870.969678,-962.267725,-9992.780217,153.219100
870.970002,0.000000,-10658.965565,306.438199
870.970327,1776.494261,-8660.409521,842.705048
870.970651,2072.576638,-8068.244768,536.266849
870.970975,74.020594,-8512.368333,0.000000
870.971299,-1036.288319,-9770.718434,76.609550
870.971623,-74.020594,-9326.594869,153.219100
870.971947,888.247130,-9030.512492,689.485948
870.972272,-296.082377,-8290.306550,995.924147
870.972596,-1184.329507,-9030.512492,306.438199
870.972920,-740.205942,-9622.677246,459.657299
870.973244,1332.370696,-9030.512492,536.266849
870.973568,2294.638420,-8956.491898,536.266849
870.973893,888.247130,-9770.718434,689.485948
870.974217,-592.164754,-10140.821405,842.705048
870.974541,-74.020594,-9918.759623,536.266849
870.974865,444.123565,-8586.388927,689.485948
870.975189,-148.041188,-8734.430116,0.000000
870.975513,-1554.432478,-9918.759623,-536.266849
870.975838,-1776.494261,-10288.862594,-229.828649
870.976162,0.000000,-9622.677246,0.000000
870.976486,518.144159,-8660.409521,229.828649
870.976810,74.020594,-10066.800811,0.000000
870.977134,-1332.370696,-11103.089130,-459.657299
870.977458,-1110.308913,-10288.862594,153.219100
870.977783,-296.082377,-9548.656652,0.000000
870.978107,-518.144159,-9696.697840,0.000000
870.978431,-1480.411884,-10066.800811,0.000000
870.978755,-1258.350101,-10140.821405,0.000000
870.979079,148.041188,-9696.697840,0.000000
870.979404,1702.473667,-9474.636058,153.219100
870.979728,814.226536,-9400.615463,76.609550
870.980052,-666.185348,-10214.842000,0.000000
870.980376,-814.226536,-10362.883188,-229.828649
870.980700,74.020594,-9770.718434,0.000000
870.981024,148.041188,-9326.594869,-229.828649
870.981349,-888.247130,-9770.718434,-612.876398
870.981673,-1702.473667,-10214.842000,0.000000
870.981997,0.000000,-9622.677246,153.219100
870.982321,740.205942,-8956.491898,76.609550
870.982645,814.226536,-9400.615463,-383.047749
870.982970,-592.164754,-9326.594869,-459.657299
870.983294,-814.226536,-9770.718434,0.000000
870.983618,-222.061783,-10584.944971,-153.219100
870.983942,0.000000,-9548.656652,-612.876398
870.984266,-1406.391290,-9770.718434,0.000000
870.984590,-1998.556043,-10066.800811,0.000000
870.984915,518.144159,-9622.677246,-76.609550
870.985239,2368.659014,-9474.636058,306.438199
870.985563,2146.597232,-9474.636058,306.438199
870.985887,962.267725,-10288.862594,229.828649
870.986211,0.000000,-9918.759623,306.438199
870.986536,74.020594,-8808.450710,153.219100
870.986860,0.000000,-8438.347739,-153.219100
870.987184,-814.226536,-8586.388927,-842.705048
870.987508,-1406.391290,-9326.594869,-612.876398
870.987832,-148.041188,-9474.636058,-229.828649
870.988156,2220.617826,-8808.450710,-306.438199
870.988481,2368.659014,-8438.347739,-459.657299
870.988805,148.041188,-9178.553681,0.000000
870.989129,-1184.329507,-9844.739029,76.609550
870.989453,-444.123565,-9770.718434,0.000000
870.989777,148.041188,-9770.718434,-383.047749
870.990102,-518.144159,-9696.697840,0.000000
870.990426,-592.164754,-10584.944971,229.828649
870.990750,962.267725,-10807.006753,459.657299
870.991074,2368.659014,-10584.944971,229.828649
870.991398,1776.494261,-10362.883188,-306.438199
870.991722,-888.247130,-10807.006753,-1149.143247
870.992047,-1924.535449,-10732.986159,-689.485948
870.992371,-1110.308913,-10436.903782,-689.485948
870.992695,-444.123565,-9622.677246,-1072.533697
870.993019,-1406.391290,-9696.697840,-1608.800546
870.993343,-2220.617826,-10140.821405,-1378.971896
870.993668,-666.185348,-10214.842000,-842.705048
870.993992,1702.473667,-9696.697840,-536.266849
870.994316,1702.473667,-9400.615463,383.047749
870.994640,74.020594,-9992.780217,0.000000
870.994964,-962.267725,-10436.903782,0.000000
870.995288,148.041188,-10436.903782,689.485948
870.995613,1776.494261,-9918.759623,536.266849
870.995937,1258.350101,-9030.512492,153.219100
870.996261,74.020594,-9622.677246,0.000000
870.996585,0.000000,-9622.677246,689.485948
870.996909,1776.494261,-9474.636058,0.000000
870.997233,444.123565,-9030.512492,-612.876398
870.997558,-2220.617826,-8956.491898,-1225.752797
870.997882,-3256.906145,-9696.697840,-1532.190996
870.998206,-1998.556043,-9770.718434,-919.314598
870.998530,148.041188,-8956.491898,-76.609550
870.998854,-296.082377,-8660.409521,0.000000
870.999179,-1110.308913,-9326.594869,153.219100
870.999503,-222.061783,-9474.636058,612.876398
870.999827,1554.432478,-9178.553681,1225.752797
871.000151,1924.535449,-8660.409521,1225.752797
871.000475,-148.041188,-8882.471304,612.876398
871.000799,-1036.288319,-9622.677246,1302.362347
871.001124,296.082377,-9696.697840,1149.143247
871.001448,1554.432478,-8660.409521,919.314598
871.001772,592.164754,-8068.244768,153.219100
871.002096,-1184.329507,-8512.368333,-153.219100
871.002420,-444.123565,-9252.574275,-536.266849
871.002745,1480.411884,-8290.306550,-766.095498
871.003069,1110.308913,-7698.141797,-995.924147
871.003393,-592.164754,-8808.450710,-1302.362347
871.003717,-1628.453072,-10066.800811,-1378.971896
871.004041,222.061783,-10658.965565,-612.876398
871.004365,1480.411884,-9178.553681,0.000000
871.004690,1110.308913,-10140.821405,306.438199
871.005014,0.000000,-11399.171507,0.000000
871.005338,-666.185348,-11399.171507,383.047749
871.005662,1110.308913,-11177.109724,919.314598
871.005986,1332.370696,-11325.150913,842.705048
871.006311,-296.082377,-11399.171507,229.828649
871.006635,-2072.576638,-11621.233289,0.000000
871.006959,-1702.473667,-11769.274478,-842.705048
871.007283,-1036.288319,-10955.047942,-995.924147
871.007607,-962.267725,-10288.862594,-1302.362347
871.007931,-2072.576638,-10510.924376,-1685.410096
871.008256,-1850.514855,-10436.903782,-1608.800546
871.008580,0.000000,-9918.759623,-1302.362347
871.008904,814.226536,-9548.656652,-1149.143247
871.009228,888.247130,-9992.780217,-1378.971896
871.009552,-740.205942,-10436.903782,-612.876398
871.009877,-592.164754,-9696.697840,0.000000
871.010201,666.185348,-9770.718434,536.266849
871.010525,444.123565,-9548.656652,766.095498
871.010849,0.000000,-10066.800811,536.266849
871.011173,0.000000,-10140.821405,1072.533697
871.011497,740.205942,-9474.636058,1302.362347
871.011822,1036.288319,-9548.656652,1532.190996
871.012146,148.041188,-8882.471304,919.314598
871.012470,-1406.391290,-8956.491898,612.876398
871.012794,-1850.514855,-9326.594869,76.609550
871.013118,-814.226536,-9178.553681,0.000000
871.013442,0.000000,-8216.285956,-383.047749
871.013767,-666.185348,-8142.265362,-306.438199
871.014091,-592.164754,-9178.553681,-383.047749
871.014415,0.000000,-8660.409521,-612.876398
871.014739,1628.453072,-8290.306550,536.266849
871.015063,1110.308913,-8660.409521,229.828649
871.015388,0.000000,-9400.615463,229.828649
871.015712,-962.267725,-9474.636058,689.485948
871.016036,370.102971,-8808.450710,1378.971896
871.016360,1702.473667,-8734.430116,1378.971896
871.016684,518.144159,-8808.450710,919.314598
871.017008,-296.082377,-8438.347739,1149.143247
871.017333,666.185348,-8808.450710,1072.533697
871.017657,1702.473667,-8438.347739,383.047749
871.017981,1110.308913,-8734.430116,153.219100
871.018305,-888.247130,-9326.594869,-153.219100
871.018629,-1258.350101,-10140.821405,-842.705048
871.018954,-222.061783,-8808.450710,-612.876398
871.019278,370.102971,-8734.430116,-229.828649
871.019602,148.041188,-10214.842000,-995.924147
871.019926,-740.205942,-10881.027347,-1302.362347
871.020250,74.020594,-10732.986159,-689.485948
871.020574,1850.514855,-10288.862594,0.000000
871.020899,1480.411884,-10732.986159,-612.876398
871.021223,74.020594,-11621.233289,-306.438199
871.021547,-1184.329507,-11695.253884,-229.828649
871.021871,0.000000,-10881.027347,-689.485948
871.022195,1036.288319,-10955.047942,0.000000
871.022520,-222.061783,-11399.171507,-229.828649
871.022844,-962.267725,-11769.274478,-306.438199
871.023168,0.000000,-11029.068536,-153.219100
871.023492,1332.370696,-10140.821405,-229.828649
871.023816,444.123565,-9474.636058,-1072.533697
871.024140,-1406.391290,-9696.697840,-1532.190996
871.024465,-1702.473667,-10288.862594,-1302.362347
871.024789,-740.205942,-9030.512492,-612.876398
871.025113,370.102971,-8142.265362,-1302.362347
871.025437,-962.267725,-8364.327145,-1608.800546
871.025761,-2294.638420,-9178.553681,-1455.581446
871.026086,-962.267725,-9104.533087,-919.314598
871.026410,1628.453072,-8586.388927,-536.266849
871.026734,2442.679609,-8734.430116,-306.438199
871.027058,592.164754,-9918.759623,153.219100
871.027382,-814.226536,-9992.780217,76.609550
871.027706,0.000000,-9844.739029,229.828649
871.028031,888.247130,-9178.553681,153.219100
871.028355,518.144159,-9474.636058,-153.219100
871.028679,-370.102971,-10066.800811,766.095498
871.029003,296.082377,-9770.718434,459.657299
871.029327,1702.473667,-8808.450710,153.219100
871.029651,1036.288319,-8290.306550,-459.657299
871.029976,-1554.432478,-9030.512492,-842.705048
871.030300,-2220.617826,-9696.697840,-766.095498
871.030624,-888.247130,-9178.553681,-459.657299
871.030948,444.123565,-8216.285956,0.000000
871.031272,-222.061783,-9252.574275,689.485948
871.031597,-1480.411884,-9770.718434,0.000000
871.031921,-888.247130,-9622.677246,229.828649
871.032245,1480.411884,-9104.533087,689.485948
871.032569,2072.576638,-9474.636058,612.876398
871.032893,148.041188,-9992.780217,536.266849
871.033217,-888.247130,-9844.739029,919.314598
871.033542,-148.041188,-9622.677246,383.047749
871.033866,888.247130,-9104.533087,0.000000
871.034190,888.247130,-9252.574275,306.438199
871.034514,-592.164754,-9844.739029,-153.219100
871.034838,-814.226536,-10140.821405,-153.219100
871.035163,444.123565,-9622.677246,229.828649
871.035487,962.267725,-10214.842000,459.657299
871.035811,-148.041188,-10658.965565,0.000000
871.036135,-1998.556043,-10807.006753,0.000000
871.036459,-2220.617826,-10288.862594,383.047749
871.036783,0.000000,-10362.883188,536.266849
871.037108,0.000000,-10658.965565,612.876398
871.037432,-962.267725,-10658.965565,612.876398
871.037756,-814.226536,-10214.842000,689.485948
871.038080,888.247130,-9474.636058,459.657299
871.038404,1998.556043,-9326.594869,689.485948
871.038729,814.226536,-9992.780217,0.000000
871.039053,-962.267725,-9918.759623,0.000000
871.039377,-1036.288319,-9622.677246,-229.828649
871.039701,370.102971,-9326.594869,-306.438199
871.040025,592.164754,-9326.594869,-612.876398
871.040349,-518.144159,-9696.697840,-459.657299
871.040674,-888.247130,-10140.821405,536.266849
871.040998,740.205942,-9622.677246,842.705048
871.041322,1998.556043,-9548.656652,1149.143247
871.041646,370.102971,-8956.491898,919.314598
871.041970,-1924.535449,-9474.636058,536.266849
871.042295,-1998.556043,-10066.800811,76.609550
871.042619,-518.144159,-9400.615463,153.219100
871.042943,-296.082377,-9104.533087,76.609550
871.043267,-1628.453072,-9474.636058,612.876398
871.043591,-1258.350101,-9474.636058,-612.876398
871.043915,740.205942,-9030.512492,0.000000
871.044240,1998.556043,-8734.430116,-229.828649
871.044564,1110.308913,-9622.677246,-689.485948
871.044888,0.000000,-10214.842000,-1072.533697
871.045212,0.000000,-9400.615463,-995.924147
871.045536,1628.453072,-8808.450710,-229.828649
871.045861,1776.494261,-9400.615463,-689.485948
871.046185,74.020594,-9770.718434,153.219100
871.046509,-592.164754,-10214.842000,459.657299
871.046833,296.082377,-9918.759623,919.314598
871.047157,1480.411884,-8956.491898,919.314598
871.047481,444.123565,-9030.512492,459.657299
871.047806,-1406.391290,-9548.656652,306.438199
871.048130,-1628.453072,-9696.697840,383.047749
871.048454,-592.164754,-9252.574275,766.095498
871.048778,-296.082377,-8882.471304,76.609550
871.049102,-1628.453072,-8956.491898,-1072.533697
871.049426,-1998.556043,-9696.697840,-689.485948
871.049751,148.041188,-9918.759623,-842.705048
871.050075,2368.659014,-9252.574275,-842.705048
871.050399,1776.494261,-9474.636058,-383.047749
871.050723,222.061783,-11029.068536,-995.924147
871.051047,296.082377,-11177.109724,-689.485948
871.051372,1332.370696,-10214.842000,-766.095498
871.051696,1480.411884,-9844.739029,-229.828649
871.052020,0.000000,-10807.006753,-536.266849
871.052344,-592.164754,-11399.171507,-229.828649
871.052668,370.102971,-10658.965565,459.657299
871.052992,1480.411884,-9696.697840,842.705048
871.053317,1110.308913,-9918.759623,0.000000
871.053641,-1184.329507,-9918.759623,76.609550
871.053965,-2442.679609,-10510.924376,0.000000
871.054289,-1850.514855,-9770.718434,306.438199
871.054613,-666.185348,-9326.594869,-229.828649
871.054937,-1480.411884,-9178.553681,-1455.581446
871.055262,-2220.617826,-9400.615463,-995.924147
871.055586,-222.061783,-9474.636058,-919.314598
871.055910,1850.514855,-9030.512492,-842.705048
871.056234,1702.473667,-8956.491898,-1072.533697
871.056558,0.000000,-10140.821405,-766.095498
871.056882,-888.247130,-10584.944971,-995.924147
871.057207,518.144159,-9622.677246,-383.047749
871.057531,1850.514855,-9252.574275,0.000000
871.057855,1480.411884,-9622.677246,0.000000
871.058179,518.144159,-10436.903782,76.609550
871.058503,1332.370696,-10066.800811,1302.362347
871.058827,2886.803174,-9030.512492,1685.410096
871.059152,1776.494261,-8512.368333,1149.143247
871.059476,-1406.391290,-8734.430116,0.000000
871.059800,-3034.844362,-9474.636058,-229.828649
871.060124,-1924.535449,-9326.594869,-306.438199
871.060448,-962.267725,-8586.388927,-306.438199
871.060772,-1924.535449,-8290.306550,-1072.533697
871.061097,-3034.844362,-8734.430116,-1838.629195
871.061421,-1480.411884,-8808.450710,-1302.362347
871.061745,1776.494261,-8956.491898,-536.266849
871.062069,1924.535449,-9104.533087,153.219100
871.062393,592.164754,-10140.821405,-766.095498
871.062718,-740.205942,-10658.965565,-306.438199
871.063042,222.061783,-10510.924376,306.438199
871.063366,1998.556043,-10288.862594,536.266849
871.063690,1850.514855,-10881.027347,229.828649
871.064014,296.082377,-11251.130318,842.705048
871.064338,-296.082377,-10732.986159,919.314598
871.064663,1406.391290,-10214.842000,1072.533697
871.064987,1332.370696,-9918.759623,995.924147
871.065311,-888.247130,-9622.677246,612.876398
871.065635,-2664.741391,-9770.718434,76.609550
871.065959,-2368.659014,-9474.636058,-306.438199
871.066283,-1110.308913,-8734.430116,153.219100
871.066608,-1332.370696,-8734.430116,-306.438199
871.066932,-2368.659014,-8956.491898,-383.047749
871.067256,-1850.514855,-9474.636058,0.000000
871.067580,518.144159,-9326.594869,383.047749
871.067904,1628.453072,-9252.574275,0.000000
871.068228,222.061783,-9844.739029,153.219100
871.068553,-592.164754,-10436.903782,76.609550
871.068877,0.000000,-10584.944971,306.438199
871.069201,1332.370696,-9844.739029,919.314598
871.069525,1258.350101,-10066.800811,842.705048
871.069849,0.000000,-10807.006753,689.485948
871.070173,-370.102971,-10658.965565,689.485948
871.070498,740.205942,-9918.759623,612.876398
871.070822,1258.350101,-9326.594869,306.438199
871.071146,-148.041188,-9474.636058,0.000000
871.071470,-1998.556043,-9770.718434,306.438199
871.071794,-1628.453072,-9992.780217,229.828649
871.072118,-814.226536,-9030.512492,76.609550
871.072443,-444.123565,-8364.327145,0.000000
871.072767,-1480.411884,-9104.533087,0.000000
871.073091,-1110.308913,-9548.656652,153.219100
871.073415,1258.350101,-9178.553681,153.219100
871.073739,2072.576638,-8882.471304,459.657299
871.074063,962.267725,-9400.615463,0.000000
871.074388,222.061783,-10436.903782,-612.876398
871.074712,0.000000,-9770.718434,0.000000
871.075036,1184.329507,-9030.512492,153.219100
871.075360,1184.329507,-9178.553681,-306.438199
871.075684,-222.061783,-9622.677246,-842.705048
871.076009,-296.082377,-9474.636058,-383.047749
871.076333,1184.329507,-9622.677246,612.876398
871.076657,2072.576638,-9474.636058,229.828649
871.076981,296.082377,-9178.553681,-153.219100
871.077305,-1702.473667,-9548.656652,-383.047749
871.077629,-1332.370696,-10362.883188,-153.219100
871.077954,222.061783,-10066.800811,383.047749
871.078278,814.226536,-9178.553681,153.219100
871.078602,-222.061783,-8660.409521,153.219100
871.078926,-666.185348,-9918.759623,0.000000
871.079250,222.061783,-9770.718434,0.000000
871.079574,1406.391290,-9400.615463,-459.657299
871.079899,962.267725,-9252.574275,-612.876398
871.080223,-518.144159,-9844.739029,-1072.533697
871.080547,-370.102971,-10288.862594,-766.095498
871.080871,962.267725,-9474.636058,-612.876398
871.081195,1554.432478,-9104.533087,-842.705048
871.081519,740.205942,-9770.718434,-1302.362347
871.081844,0.000000,-10658.965565,-1072.533697
871.082168,1110.308913,-10140.821405,-306.438199
871.082492,2368.659014,-9844.739029,0.000000
871.082816,962.267725,-9474.636058,-306.438199
871.083140,-1332.370696,-10288.862594,-842.705048
871.083464,-1776.494261,-11251.130318,612.876398
871.083789,-296.082377,-10658.965565,-153.219100
871.084113,222.061783,-9178.553681,383.047749
871.084437,-1628.453072,-9030.512492,0.000000
871.084761,-2812.782580,-9548.656652,-766.095498
871.085085,-1628.453072,-10066.800811,-919.314598
871.085409,444.123565,-9474.636058,-995.924147
871.085734,666.185348,-8956.491898,-229.828649
871.086058,-1258.350101,-9548.656652,-842.705048
871.086382,-1702.473667,-10214.842000,-689.485948
871.086706,-370.102971,-9622.677246,-919.314598
871.087030,962.267725,-9104.533087,-842.705048
871.087354,740.205942,-9918.759623,-689.485948
871.087679,0.000000,-10807.006753,0.000000
871.088003,1184.329507,-9770.718434,459.657299
871.088327,2516.700203,-8882.471304,919.314598
871.088651,1702.473667,-9030.512492,1149.143247
871.088975,-222.061783,-9770.718434,153.219100
871.089300,-1480.411884,-9918.759623,76.609550
871.089624,-296.082377,-9400.615463,1762.019645
871.089948,296.082377,-8512.368333,689.485948
871.090272,-962.267725,-8660.409521,306.438199
871.090596,-2220.617826,-9252.574275,153.219100
871.090920,-666.185348,-9474.636058,153.219100
871.091245,1628.453072,-9030.512492,76.609550
871.091569,1036.288319,-8438.347739,-153.219100
871.091893,-740.205942,-9400.615463,-612.876398
871.092217,-1702.473667,-10584.944971,-919.314598
871.092541,-518.144159,-10140.821405,-689.485948
871.092865,740.205942,-9474.636058,-459.657299
871.093190,518.144159,-10140.821405,-612.876398
871.093514,148.041188,-11103.089130,0.000000
871.093838,666.185348,-11029.068536,919.314598
871.094162,1702.473667,-9918.759623,1378.971896
871.094486,1776.494261,-10214.842000,842.705048
871.094810,-814.226536,-10066.800811,153.219100
871.095135,-1850.514855,-10510.924376,153.219100
871.095459,-888.247130,-10288.862594,689.485948
871.095783,222.061783,-9844.739029,689.485948
871.096107,-444.123565,-9252.574275,536.266849
871.096431,-1776.494261,-9104.533087,-383.047749
871.096755,-962.267725,-9030.512492,0.000000
871.097080,296.082377,-8438.347739,-229.828649
871.097404,1036.288319,-8734.430116,-153.219100
871.097728,-222.061783,-9474.636058,-229.828649
871.098052,-1184.329507,-9844.739029,-153.219100
871.098376,-444.123565,-9252.574275,383.047749
871.098700,814.226536,-8882.471304,0.000000
871.099025,962.267725,-9474.636058,229.828649
871.099349,-296.082377,-10732.986159,0.000000
871.099673,-148.041188,-10732.986159,689.485948
871.099997,1184.329507,-10066.800811,1225.752797
871.100321,1554.432478,-9474.636058,1378.971896
871.100645,222.061783,-10214.842000,1378.971896
871.100970,-1406.391290,-10732.986159,842.705048
871.101294,-1110.308913,-10066.800811,306.438199
871.101618,0.000000,-8808.450710,536.266849
871.101942,74.020594,-8956.491898,229.828649
871.102266,-1406.391290,-9474.636058,0.000000
871.102591,-1480.411884,-9844.739029,0.000000
871.102915,74.020594,-9326.594869,153.219100
871.103239,1406.391290,-8660.409521,76.609550
871.103563,148.041188,-8956.491898,-536.266849
871.103887,-1258.350101,-9622.677246,0.000000
871.104211,-1406.391290,-9252.574275,0.000000
871.104536,962.267725,-9178.553681,383.047749
871.104860,1332.370696,-9548.656652,229.828649
871.105184,0.000000,-10288.862594,0.000000
871.105508,-592.164754,-10140.821405,0.000000
871.105832,814.226536,-9030.512492,153.219100
871.106156,1924.535449,-8956.491898,153.219100
871.106481,444.123565,-9918.759623,0.000000
871.106805,-1480.411884,-10362.883188,-459.657299
871.107129,-1406.391290,-9844.739029,-766.095498
871.107453,-74.020594,-9474.636058,-153.219100
871.107777,148.041188,-9770.718434,-459.657299
871.108101,-1036.288319,-10066.800811,-383.047749
871.108426,-888.247130,-10362.883188,0.000000
871.108750,1036.288319,-9770.718434,229.828649
871.109074,2220.617826,-8956.491898,0.000000
871.109398,1258.350101,-9844.739029,-459.657299
871.109722,-444.123565,-10807.006753,-229.828649
871.110046,-592.164754,-11103.089130,-229.828649
871.110371,962.267725,-9918.759623,459.657299
871.110695,1850.514855,-9696.697840,306.438199
871.111019,1110.308913,-10288.862594,-383.047749
871.111343,222.061783,-10362.883188,-153.219100
871.111667,962.267725,-9770.718434,153.219100
871.111991,2294.638420,-9474.636058,153.219100
871.112316,1332.370696,-9696.697840,-383.047749
871.112640,-888.247130,-9844.739029,-766.095498
871.112964,-1036.288319,-8956.491898,-306.438199
871.113288,0.000000,-8734.430116,-229.828649
871.113612,222.061783,-8660.409521,0.000000
871.113936,-1184.329507,-9030.512492,-306.438199
871.114261,-1480.411884,-9844.739029,229.828649
871.114585,222.061783,-9326.594869,0.000000
871.114909,2146.597232,-9030.512492,229.828649
871.115233,1406.391290,-9178.553681,0.000000
871.115557,0.000000,-9918.759623,76.609550
871.115882,-1184.329507,-10658.965565,306.438199
871.116206,-296.082377,-9548.656652,-612.876398
871.116530,296.082377,-8808.450710,-612.876398
871.116854,-1036.288319,-9844.739029,-1149.143247
871.117178,-1924.535449,-10658.965565,-1225.752797
871.117502,-814.226536,-9992.780217,-689.485948
871.117827,518.144159,-9252.574275,0.000000
871.118151,0.000000,-9474.636058,-383.047749
871.118475,-962.267725,-10584.944971,-536.266849
871.118799,-1332.370696,-10214.842000,76.609550
871.119123,0.000000,-9474.636058,153.219100
871.119447,370.102971,-9622.677246,229.828649
871.119772,-814.226536,-9622.677246,153.219100
871.120096,-1554.432478,-9770.718434,229.828649
871.120420,-222.061783,-9474.636058,766.095498
871.120744,1110.308913,-8808.450710,919.314598
871.121068,1184.329507,-9326.594869,383.047749
871.121392,-1332.370696,-9696.697840,-229.828649
871.121717,-2072.576638,-10066.800811,-306.438199
871.122041,-592.164754,-9696.697840,0.000000
871.122365,518.144159,-9326.594869,0.000000
871.122689,148.041188,-9474.636058,0.000000
871.123013,-888.247130,-10214.842000,-306.438199
871.123337,-222.061783,-10066.800811,0.000000
871.123662,1776.494261,-9992.780217,0.000000
871.123986,2220.617826,-9992.780217,842.705048
871.124310,666.185348,-10584.944971,153.219100
871.124634,-666.185348,-10807.006753,612.876398
871.124958,0.000000,-10288.862594,919.314598
871.125282,444.123565,-9622.677246,766.095498
871.125607,-1036.288319,-9548.656652,383.047749
871.125931,-2442.679609,-9622.677246,229.828649
871.126255,-1258.350101,-9252.574275,689.485948
871.126579,444.123565,-9030.512492,995.924147
871.126903,888.247130,-9622.677246,766.095498
871.127227,-370.102971,-9696.697840,612.876398
871.127552,-1332.370696,-9548.656652,612.876398
871.127876,-370.102971,-8808.450710,536.266849
871.128200,962.267725,-7920.203579,766.095498
871.128524,1036.288319,-8586.388927,842.705048
871.128848,-444.123565,-9622.677246,536.266849
871.129173,-222.061783,-9252.574275,766.095498
871.129497,1110.308913,-8512.368333,459.657299
871.129821,1776.494261,-8586.388927,229.828649
871.130145,296.082377,-9770.718434,-689.485948
871.130469,-1184.329507,-10066.800811,383.047749
871.130793,-1036.288319,-9992.780217,383.047749
871.131118,-222.061783,-8808.450710,383.047749
871.131442,-444.123565,-9178.553681,153.219100
871.131766,-1406.391290,-9696.697840,0.000000
871.132090,-592.164754,-10214.842000,306.438199
871.132414,1554.432478,-9622.677246,536.266849
871.132738,2294.638420,-9400.615463,689.485948
871.133063,1036.288319,-10214.842000,459.657299
871.133387,-814.226536,-10214.842000,-536.266849
871.133711,-592.164754,-10214.842000,-689.485948
871.134035,814.226536,-9622.677246,-766.095498
871.134359,814.226536,-10140.821405,-1149.143247
871.134683,-296.082377,-10955.047942,-1302.362347
871.135008,-592.164754,-10732.986159,-1225.752797
871.135332,1332.370696,-9844.739029,-1225.752797
871.135656,2368.659014,-9844.739029,-612.876398
871.135980,888.247130,-10362.883188,-612.876398
871.136304,-888.247130,-11029.068536,-383.047749
871.136628,-592.164754,-10288.862594,-229.828649
871.136953,1036.288319,-9548.656652,-306.438199
871.137277,666.185348,-9474.636058,-459.657299
871.137601,-666.185348,-9844.739029,-842.705048
871.137925,-814.226536,-10214.842000,-766.095498
871.138249,1406.391290,-9696.697840,-459.657299
871.138573,2220.617826,-9104.533087,-842.705048
871.138898,1110.308913,-9844.739029,-1455.581446
871.139222,-1184.329507,-10288.862594,-1455.581446
871.139546,-1480.411884,-10436.903782,-1225.752797
871.139870,-370.102971,-9474.636058,-1072.533697
871.140194,0.000000,-9622.677246,-1455.581446
871.140518,-1332.370696,-10066.800811,-306.438199
871.140843,-1258.350101,-10288.862594,-536.266849
871.141167,962.267725,-9622.677246,766.095498
871.141491,1924.535449,-8808.450710,766.095498
871.141815,740.205942,-9696.697840,536.266849
871.142139,-1628.453072,-10140.821405,459.657299
871.142464,-2072.576638,-9844.739029,459.657299
871.142788,-592.164754,-8808.450710,919.314598
871.143112,-518.144159,-8290.306550,0.000000
871.143436,-2220.617826,-8364.327145,-153.219100
871.143760,-2072.576638,-8956.491898,383.047749
871.144084,148.041188,-9400.615463,306.438199
871.144409,1554.432478,-8290.306550,153.219100
871.144733,444.123565,-8660.409521,-383.047749
871.145057,-1776.494261,-9326.594869,-153.219100
871.145381,-1702.473667,-9474.636058,0.000000
871.145705,0.000000,-8956.491898,612.876398
871.146029,666.185348,-8512.368333,842.705048
871.146354,0.000000,-9400.615463,536.266849
871.146678,0.000000,-10510.924376,919.314598
871.147002,1184.329507,-9918.759623,1225.752797
871.147326,2368.659014,-9178.553681,1072.533697
871.147650,814.226536,-9400.615463,612.876398
871.147974,-1924.535449,-9992.780217,0.000000
871.148299,-1924.535449,-10362.883188,-306.438199
871.148623,0.000000,-9474.636058,0.000000
871.148947,370.102971,-9622.677246,-459.657299
871.149271,-518.144159,-9918.759623,-536.266849
871.149595,-592.164754,-10658.965565,-459.657299
871.149919,1036.288319,-10140.821405,-306.438199
871.150244,2738.761985,-9400.615463,306.438199
871.150568,1998.556043,-10362.883188,0.000000
871.150892,-444.123565,-11769.274478,-383.047749
871.151216,-1332.370696,-11399.171507,-153.219100
871.151541,0.000000,-10584.944971,76.609550
871.151865,1332.370696,-10362.883188,612.876398
871.152189,592.164754,-10807.006753,383.047749
871.152513,-444.123565,-10955.047942,1302.362347
871.152838,148.041188,-9992.780217,536.266849
871.153162,1184.329507,-8586.388927,842.705048
871.153486,814.226536,-8438.347739,153.219100
871.153810,-1406.391290,-9474.636058,0.000000
871.154135,-2146.597232,-9474.636058,-306.438199
871.154459,-962.267725,-8882.471304,0.000000
871.154783,-148.041188,-8364.327145,-306.438199
871.155107,-814.226536,-9030.512492,-459.657299
871.155432,-1554.432478,-8882.471304,-766.095498
871.155756,0.000000,-8734.430116,0.000000
871.156080,1776.494261,-8142.265362,-76.609550
871.156404,2072.576638,-8956.491898,0.000000
871.156729,0.000000,-9548.656652,612.876398
871.157053,-1628.453072,-9696.697840,459.657299
871.157377,-592.164754,-9474.636058,536.266849
871.157701,370.102971,-9178.553681,842.705048
871.158026,-148.041188,-9400.615463,383.047749
871.158350,-1480.411884,-10066.800811,536.266849
871.158674,-1406.391290,-10362.883188,919.314598
871.158998,-296.082377,-9844.739029,689.485948
871.159323,-148.041188,-9326.594869,383.047749
871.159647,-1480.411884,-9918.759623,153.219100
871.159971,-2146.597232,-9622.677246,-153.219100
871.160295,-1406.391290,-9104.533087,-689.485948
871.160620,0.000000,-8882.471304,0.000000
871.160944,-74.020594,-9400.615463,-153.219100
871.161268,-1110.308913,-9992.780217,-383.047749
871.161592,-222.061783,-9844.739029,76.609550
871.161917,1480.411884,-9252.574275,459.657299
871.162241,2146.597232,-9474.636058,306.438199
871.162565,740.205942,-10066.800811,612.876398
871.162889,-222.061783,-10658.965565,0.000000
871.163214,0.000000,-9992.780217,689.485948
871.163538,0.000000,-9178.553681,306.438199
871.163862,296.082377,-9326.594869,-153.219100
871.164187,-222.061783,-10066.800811,-153.219100
871.164511,0.000000,-10288.862594,-842.705048
871.164835,1184.329507,-9474.636058,0.000000
871.165159,1850.514855,-10140.821405,229.828649
871.165484,592.164754,-11029.068536,0.000000
871.165808,0.000000,-11177.109724,0.000000
871.166132,-74.020594,-10732.986159,306.438199
871.166456,592.164754,-10214.842000,459.657299
871.166781,592.164754,-10658.965565,76.609550
871.167105,-518.144159,-11177.109724,0.000000
871.167429,0.000000,-10510.924376,0.000000
871.167753,1036.288319,-9252.574275,-153.219100
871.168078,1850.514855,-9326.594869,0.000000
871.168402,962.267725,-10140.821405,-153.219100
871.168726,-1036.288319,-9696.697840,-536.266849
871.169050,-1480.411884,-9252.574275,-536.266849
871.169375,-148.041188,-8734.430116,-383.047749
871.169699,296.082377,-8882.471304,-1225.752797
871.170023,0.000000,-9474.636058,-229.828649
871.170347,592.164754,-9326.594869,76.609550
871.170672,1628.453072,-8438.347739,306.438199
871.170996,1924.535449,-8660.409521,536.266849
871.171320,666.185348,-9474.636058,459.657299
871.171644,-1110.308913,-10066.800811,229.828649
871.171969,-1258.350101,-9548.656652,306.438199
871.172293,-222.061783,-8660.409521,766.095498
871.172617,296.082377,-8512.368333,306.438199
871.172941,-1110.308913,-9696.697840,0.000000
871.173266,-1702.473667,-9548.656652,306.438199
871.173590,-370.102971,-9104.533087,612.876398
871.173914,222.061783,-8808.450710,0.000000
871.174238,-370.102971,-8956.491898,-766.095498
871.174563,-2368.659014,-9474.636058,-995.924147
871.174887,-2220.617826,-9696.697840,-689.485948
871.175211,-592.164754,-9252.574275,-766.095498
871.175535,74.020594,-8512.368333,-536.266849
871.175860,0.000000,-10140.821405,-229.828649
871.176184,0.000000,-10881.027347,-229.828649
871.176508,1184.329507,-9844.739029,153.219100
871.176832,2516.700203,-9252.574275,306.438199
871.177157,2220.617826,-9918.759623,76.609550
871.177481,518.144159,-11103.089130,229.828649
871.177805,-222.061783,-10955.047942,919.314598
871.178129,814.226536,-9770.718434,459.657299
871.178454,814.226536,-9252.574275,-153.219100
871.178778,-592.164754,-10214.842000,-306.438199
871.179102,-1924.535449,-10881.027347,-153.219100
871.179426,0.000000,-10362.883188,0.000000
871.179751,814.226536,-9178.553681,-306.438199
871.180075,-296.082377,-9178.553681,-919.314598
871.180399,-2294.638420,-9844.739029,-1149.143247
871.180724,-2220.617826,-9696.697840,-1225.752797
871.181048,-740.205942,-9548.656652,-919.314598
871.181372,370.102971,-9400.615463,-153.219100
871.181696,0.000000,-10140.821405,0.000000
871.182021,-222.061783,-11177.109724,0.000000
871.182345,518.144159,-10362.883188,612.876398
871.182669,2072.576638,-9548.656652,995.924147
871.182993,1924.535449,-9844.739029,612.876398
871.183318,74.020594,-10214.842000,0.000000
871.183642,0.000000,-10066.800811,536.266849
871.183966,592.164754,-9622.677246,766.095498
871.184290,888.247130,-9622.677246,383.047749
871.184615,-740.205942,-9252.574275,-153.219100
871.184939,-1998.556043,-9252.574275,-766.095498
871.185263,-1332.370696,-8808.450710,-919.314598
871.185587,296.082377,-8290.306550,-995.924147
871.185912,666.185348,-9030.512492,-919.314598
871.186236,-740.205942,-9474.636058,-689.485948
871.186560,-1628.453072,-9252.574275,-842.705048
871.186884,-518.144159,-9030.512492,-383.047749
871.187209,666.185348,-9400.615463,0.000000
871.187533,222.061783,-10214.842000,0.000000
871.187857,-740.205942,-11029.068536,229.828649
871.188181,0.000000,-10955.047942,612.876398
871.188506,1776.494261,-10140.821405,1378.971896
871.188830,2220.617826,-10066.800811,1608.800546
871.189154,222.061783,-10881.027347,1149.143247
871.189478,-1332.370696,-10807.006753,919.314598
871.189803,-1184.329507,-10214.842000,689.485948
871.190127,-740.205942,-9400.615463,306.438199
871.190451,-592.164754,-9474.636058,0.000000
871.190775,-1702.473667,-9326.594869,-306.438199
871.191100,-592.164754,-9622.677246,536.266849
871.191424,1628.453072,-8734.430116,0.000000
871.191748,1628.453072,-8290.306550,-459.657299
871.192072,0.000000,-9104.533087,-766.095498
871.192397,-1258.350101,-9474.636058,-612.876398
871.192721,-296.082377,-9326.594869,-153.219100
871.193045,1628.453072,-9400.615463,459.657299
871.193369,1258.350101,-9474.636058,919.314598
871.193694,888.247130,-10214.842000,919.314598
871.194018,1110.308913,-9696.697840,1838.629195
871.194342,2294.638420,-9400.615463,1915.238745
871.194666,2738.761985,-9770.718434,1762.019645
871.194991,518.144159,-9770.718434,1532.190996
871.195315,-1480.411884,-9770.718434,995.924147
871.195639,-1406.391290,-9326.594869,0.000000
871.195963,-592.164754,-8734.430116,0.000000
871.196288,-1702.473667,-8956.491898,-306.438199
871.196612,-2442.679609,-9474.636058,-842.705048
871.196936,-1036.288319,-8956.491898,-995.924147
871.197261,1036.288319,-8586.388927,-766.095498
871.197585,1702.473667,-8586.388927,-689.485948
871.197909,0.000000,-9400.615463,-1149.143247
871.198233,-1554.432478,-10288.862594,-612.876398
871.198558,-814.226536,-10214.842000,-612.876398
871.198882,962.267725,-9474.636058,0.000000
871.199206,1332.370696,-9844.739029,0.000000
871.199530,518.144159,-10732.986159,153.219100
871.199855,592.164754,-11029.068536,536.266849
871.200179,2220.617826,-9770.718434,536.266849
871.200503,2072.576638,-9474.636058,383.047749
871.200827,296.082377,-9548.656652,-153.219100
871.201152,-2146.597232,-9918.759623,-306.438199
871.201476,-2220.617826,-10288.862594,-995.924147
871.201800,-888.247130,-9770.718434,-1532.190996
871.202124,-888.247130,-9474.636058,-1838.629195
871.202449,-2146.597232,-10214.842000,-1302.362347
871.202773,-1258.350101,-10807.006753,-1608.800546
871.203097,296.082377,-9696.697840,-842.705048
871.203421,1036.288319,-9400.615463,-1225.752797
871.203746,0.000000,-10066.800811,-1072.533697
871.204070,-1480.411884,-11399.171507,-1225.752797
871.204394,-962.267725,-11029.068536,-536.266849
871.204718,888.247130,-9992.780217,0.000000
871.205043,1702.473667,-9474.636058,153.219100
871.205367,814.226536,-10214.842000,0.000000
871.205691,74.020594,-10658.965565,229.828649
871.206015,1036.288319,-9696.697840,229.828649
871.206340,1332.370696,-8734.430116,76.609550
871.206664,222.061783,-9178.553681,-153.219100
871.206988,-1480.411884,-9622.677246,-383.047749
871.207312,-1480.411884,-9030.512492,-766.095498
871.207637,-296.082377,-8734.430116,-689.485948
871.207961,-296.082377,-8586.388927,-689.485948
871.208285,-1258.350101,-9030.512492,-689.485948
871.208609,-1110.308913,-9252.574275,-229.828649
871.208934,814.226536,-8808.450710,76.609550
871.209258,2146.597232,-8586.388927,0.000000
871.209582,962.267725,-9400.615463,-229.828649
871.209906,-222.061783,-10510.924376,-153.219100
871.210231,-518.144159,-10288.862594,383.047749
871.210555,814.226536,-9474.636058,689.485948
871.210879,1406.391290,-9622.677246,842.705048
871.211203,148.041188,-10436.903782,153.219100
871.211528,-296.082377,-11251.130318,383.047749
871.211852,740.205942,-10362.883188,229.828649
871.212176,1554.432478,-9252.574275,612.876398
871.212500,518.144159,-9252.574275,306.438199
871.212825,-592.164754,-10214.842000,766.095498
871.213149,-1850.514855,-9918.759623,459.657299
871.213473,-740.205942,-8808.450710,-229.828649
871.213798,-666.185348,-8216.285956,-229.828649
871.214122,-1702.473667,-9326.594869,-459.657299
871.214446,-1776.494261,-9548.656652,-306.438199
871.214770,222.061783,-8734.430116,536.266849
871.215095,1924.535449,-8586.388927,459.657299
871.215419,1554.432478,-9326.594869,-229.828649
871.215743,-444.123565,-9844.739029,-306.438199
871.216067,-1036.288319,-10510.924376,76.609550
871.216392,444.123565,-10140.821405,689.485948
871.216716,1702.473667,-9918.759623,612.876398
871.217040,518.144159,-10436.903782,536.266849
871.217364,-962.267725,-10955.047942,229.828649
871.217689,-740.205942,-10436.903782,0.000000
871.218013,0.000000,-9696.697840,0.000000
871.218337,222.061783,-10066.800811,0.000000
871.218661,-1332.370696,-10881.027347,0.000000
871.218986,-2442.679609,-10584.944971,0.000000
871.219310,-1480.411884,-9696.697840,383.047749
871.219634,-222.061783,-9252.574275,153.219100
871.219958,-1406.391290,-9474.636058,-76.609550
871.220283,-2072.576638,-9622.677246,612.876398
871.220607,-592.164754,-9548.656652,383.047749
871.220931,1480.411884,-9178.553681,1225.752797
871.221255,1628.453072,-8808.450710,919.314598
871.221580,0.000000,-9252.574275,0.000000
871.221904,-1406.391290,-9474.636058,0.000000
871.222228,-814.226536,-8956.491898,76.609550
871.222552,592.164754,-8512.368333,0.000000
871.222877,888.247130,-8586.388927,0.000000
871.223201,0.000000,-9844.739029,229.828649
871.223525,444.123565,-9918.759623,536.266849
871.223849,2072.576638,-9326.594869,153.219100
871.224174,2220.617826,-9252.574275,383.047749
871.224498,444.123565,-10288.862594,153.219100
871.224822,-1184.329507,-10732.986159,383.047749
871.225146,-518.144159,-9770.718434,919.314598
871.225471,518.144159,-9918.759623,1225.752797
871.225795,0.000000,-10066.800811,536.266849
871.226119,-1184.329507,-10732.986159,459.657299
871.226443,-740.205942,-10362.883188,229.828649
871.226768,1110.308913,-9030.512492,229.828649
871.227092,1776.494261,-8882.471304,0.000000
871.227416,444.123565,-9474.636058,-153.219100
871.227740,-1110.308913,-9918.759623,-1608.800546
871.228065,0.000000,-9696.697840,-1455.581446
871.228389,370.102971,-8512.368333,-1838.629195
871.228713,518.144159,-9178.553681,-1685.410096
871.229037,0.000000,-10881.027347,-1532.190996
871.229362,444.123565,-10658.965565,-1149.143247
871.229686,1850.514855,-9770.718434,-383.047749
871.230010,1998.556043,-9104.533087,383.047749
871.230335,740.205942,-10066.800811,153.219100
871.230659,-666.185348,-10955.047942,0.000000
871.230983,-444.123565,-9992.780217,153.219100
871.231307,296.082377,-9326.594869,76.609550
871.231632,-444.123565,-9400.615463,-153.219100
871.231956,-1628.453072,-9844.739029,-459.657299
871.232280,-1184.329507,-9770.718434,0.000000
871.232604,148.041188,-8734.430116,-689.485948
871.232929,666.185348,-8364.327145,-1915.238745
871.233253,-666.185348,-9104.533087,-2298.286494
871.233577,-2294.638420,-9622.677246,-2221.676944
871.233901,-2072.576638,-9992.780217,-1915.238745
871.234226,-666.185348,-9252.574275,-1762.019645
871.234550,-222.061783,-8586.388927,-2221.676944
871.234874,-444.123565,-9400.615463,-995.924147
871.235198,-222.061783,-9548.656652,-766.095498
871.235523,1036.288319,-9326.594869,-306.438199
871.235847,1702.473667,-9474.636058,229.828649
871.236171,518.144159,-10066.800811,229.828649
871.236495,-370.102971,-10288.862594,229.828649
871.236820,-518.144159,-10214.842000,689.485948
871.237144,888.247130,-9770.718434,0.000000
871.237468,592.164754,-9696.697840,-229.828649
871.237792,0.000000,-10214.842000,0.000000
871.238117,222.061783,-10436.903782,0.000000
871.238441,1554.432478,-9992.780217,0.000000
871.238765,1924.535449,-9474.636058,0.000000
871.239089,888.247130,-9918.759623,0.000000
871.239414,-1628.453072,-10214.842000,-1455.581446
871.239738,-1776.494261,-10066.800811,-1149.143247
871.240062,-592.164754,-9326.594869,-919.314598
871.240386,-370.102971,-9326.594869,-689.485948
871.240711,-888.247130,-9918.759623,-306.438199
871.241035,-1554.432478,-9770.718434,0.000000
871.241359,-592.164754,-9030.512492,842.705048
871.241683,0.000000,-8734.430116,766.095498
871.242008,-148.041188,-9770.718434,995.924147
871.242332,-1110.308913,-10362.883188,919.314598
871.242656,-1628.453072,-9844.739029,766.095498
871.242980,-962.267725,-9400.615463,842.705048
871.243305,-518.144159,-9178.553681,383.047749
871.243629,-370.102971,-9622.677246,536.266849
871.243953,0.000000,-9992.780217,1838.629195
871.244277,1554.432478,-9622.677246,1838.629195
871.244602,2590.720797,-8660.409521,919.314598
871.244926,1332.370696,-9030.512492,76.609550
871.245250,-296.082377,-10214.842000,0.000000
871.245575,-740.205942,-10362.883188,153.219100
871.245899,-296.082377,-9326.594869,536.266849
871.246223,222.061783,-8512.368333,0.000000
871.246547,-666.185348,-9178.553681,0.000000
871.246872,-1036.288319,-10066.800811,536.266849
871.247196,-518.144159,-9918.759623,919.314598
871.247520,296.082377,-9474.636058,1072.533697
871.247844,0.000000,-9252.574275,1225.752797
871.248169,-1184.329507,-9548.656652,766.095498
871.248493,-2072.576638,-10066.800811,995.924147
871.248817,-814.226536,-9770.718434,919.314598
871.249141,-148.041188,-9770.718434,612.876398
871.249466,-666.185348,-9770.718434,-383.047749
871.249790,-1184.329507,-9992.780217,-383.047749
871.250114,0.000000,-9548.656652,153.219100
871.250438,1850.514855,-9252.574275,153.219100
871.250763,1998.556043,-9622.677246,229.828649
871.251087,74.020594,-10214.842000,-612.876398
871.251411,-888.247130,-10362.883188,76.609550
871.251735,-222.061783,-9252.574275,-459.657299
871.252059,1110.308913,-8586.388927,0.000000
871.252384,740.205942,-9030.512492,76.609550
871.252708,-148.041188,-9770.718434,383.047749
871.253032,222.061783,-9474.636058,919.314598
871.253356,1702.473667,-8364.327145,1225.752797
871.253680,2072.576638,-8956.491898,1149.143247
871.254004,444.123565,-9178.553681,153.219100
871.254329,-740.205942,-9104.533087,0.000000
871.254653,-666.185348,-8586.388927,-383.047749
871.254977,0.000000,-8364.327145,-459.657299
871.255301,-518.144159,-9104.533087,-306.438199
871.255625,-1332.370696,-9992.780217,-766.095498
871.255949,-296.082377,-10288.862594,-383.047749
871.256274,1628.453072,-9326.594869,-842.705048
871.256598,1702.473667,-8734.430116,-842.705048
871.256922,74.020594,-9918.759623,-1149.143247
871.257246,-962.267725,-11103.089130,-459.657299
871.257570,0.000000,-10658.965565,459.657299
871.257895,888.247130,-9474.636058,0.000000
871.258219,740.205942,-9548.656652,-459.657299
871.258543,-814.226536,-10214.842000,-995.924147
871.258867,-592.164754,-10288.862594,-995.924147
871.259191,740.205942,-9770.718434,-459.657299
871.259515,666.185348,-9696.697840,-919.314598
871.259840,-962.267725,-10066.800811,-1532.190996
871.260164,-2072.576638,-10658.965565,-1608.800546
871.260488,-1332.370696,-10362.883188,-1532.190996
871.260812,74.020594,-9622.677246,-1991.848295
871.261136,-592.164754,-10066.800811,-2221.676944
871.261460,-1924.535449,-10510.924376,-1455.581446
871.261785,-962.267725,-10658.965565,-689.485948
871.262109,2220.617826,-10214.842000,0.000000
871.262433,2220.617826,-9474.636058,-766.095498
871.262757,0.000000,-9770.718434,-1608.800546
871.263081,-1258.350101,-11325.150913,-1149.143247
871.263405,222.061783,-11547.212695,-612.876398
871.263730,1332.370696,-9696.697840,-536.266849
871.264054,740.205942,-8882.471304,-766.095498
871.264378,-1258.350101,-9696.697840,-1532.190996
871.264702,-1110.308913,-10436.903782,-1378.971896
871.265026,1036.288319,-9844.739029,-1149.143247
871.265351,1258.350101,-9178.553681,-995.924147
871.265675,-296.082377,-9400.615463,-1072.533697
871.265999,-1332.370696,-10362.883188,-919.314598
871.266323,-296.082377,-10140.821405,-995.924147
871.266647,1110.308913,-8882.471304,-766.095498
871.266971,740.205942,-9178.553681,-766.095498
871.267296,-370.102971,-9844.739029,153.219100
871.267620,-148.041188,-9696.697840,306.438199
871.267944,1554.432478,-8956.491898,1072.533697
871.268268,2220.617826,-8734.430116,995.924147
871.268592,814.226536,-9474.636058,153.219100
871.268916,-1110.308913,-9548.656652,229.828649
871.269241,-814.226536,-8956.491898,-383.047749
871.269565,222.061783,-8512.368333,383.047749
871.269889,74.020594,-8586.388927,76.609550
871.270213,-1480.411884,-9474.636058,153.219100
871.270537,-1554.432478,-10214.842000,76.609550
871.270862,296.082377,-9770.718434,76.609550
871.271186,1554.432478,-8512.368333,842.705048
871.271510,814.226536,-9178.553681,1072.533697
871.271834,-296.082377,-10288.862594,995.924147
871.272158,-444.123565,-10436.903782,1532.190996
871.272482,222.061783,-9622.677246,1685.410096
871.272807,148.041188,-9696.697840,1455.581446
871.273131,-1258.350101,-10362.883188,919.314598
871.273455,-1554.432478,-10140.821405,1378.971896
871.273779,0.000000,-9400.615463,1455.581446
871.274103,1332.370696,-9030.512492,2068.457845
871.274427,-148.041188,-9326.594869,842.705048
871.274752,-2146.597232,-10140.821405,689.485948
871.275076,-2294.638420,-9844.739029,459.657299
871.275400,-518.144159,-9104.533087,459.657299
871.275724,0.000000,-8956.491898,459.657299
871.276048,-1628.453072,-9622.677246,536.266849
871.276372,-1850.514855,-10362.883188,919.314598
871.276697,-370.102971,-10066.800811,229.828649
871.277021,2294.638420,-8956.491898,1149.143247
871.277345,1702.473667,-9030.512492,536.266849
871.277669,74.020594,-10214.842000,612.876398
871.277993,-888.247130,-10436.903782,919.314598
871.278318,-296.082377,-9844.739029,1225.752797
871.278642,518.144159,-9474.636058,919.314598
871.278966,-222.061783,-10658.965565,919.314598
871.279290,-962.267725,-10436.903782,459.657299
871.279614,74.020594,-10214.842000,536.266849
871.279938,1110.308913,-9178.553681,383.047749
871.280263,296.082377,-9474.636058,76.609550
871.280587,-1406.391290,-10510.924376,-153.219100
871.280911,-1628.453072,-10066.800811,76.609550
871.281235,0.000000,-9178.553681,0.000000
871.281559,740.205942,-8808.450710,-306.438199
871.281883,-592.164754,-9030.512492,-766.095498
871.282208,-962.267725,-10140.821405,-459.657299
871.282532,1036.288319,-9622.677246,-76.609550
871.282856,2960.823768,-8586.388927,0.000000
871.283180,2442.679609,-9104.533087,0.000000
871.283504,0.000000,-9918.759623,0.000000
871.283829,-814.226536,-11029.068536,-459.657299
871.284153,-296.082377,-9400.615463,0.000000
871.284477,370.102971,-8438.347739,-229.828649
871.284801,222.061783,-9548.656652,-153.219100
871.285125,0.000000,-10584.944971,-459.657299
871.285449,962.267725,-9770.718434,0.000000
871.285774,2220.617826,-8734.430116,0.000000
871.286098,1702.473667,-9104.533087,-689.485948
871.286422,-370.102971,-9992.780217,-995.924147
871.286746,-1332.370696,-10140.821405,-1302.362347
871.287070,-222.061783,-9548.656652,-995.924147
871.287394,666.185348,-9622.677246,-1149.143247
871.287719,-888.247130,-10140.821405,-1455.581446
871.288043,-2146.597232,-10214.842000,-1378.971896
871.288367,-666.185348,-10288.862594,-1378.971896
871.288691,1258.350101,-9474.636058,-919.314598
871.289015,1406.391290,-9696.697840,-306.438199
871.289339,-1036.288319,-10436.903782,-995.924147
871.289664,-2590.720797,-10807.006753,-995.924147
871.289988,-1406.391290,-10066.800811,-995.924147
871.290312,518.144159,-9030.512492,-536.266849
871.290636,888.247130,-8956.491898,-919.314598
871.290960,-740.205942,-9326.594869,-1685.410096
871.291285,-592.164754,-9622.677246,-1149.143247
871.291609,1036.288319,-9030.512492,-1225.752797
871.291933,1702.473667,-9030.512492,-1838.629195
871.292257,-148.041188,-9548.656652,-2221.676944
871.292581,-1776.494261,-10510.924376,-1838.629195
871.292905,-814.226536,-10436.903782,-1838.629195
871.293230,370.102971,-9474.636058,-1532.190996
871.293554,222.061783,-9770.718434,-1378.971896
871.293878,0.000000,-10881.027347,-766.095498
871.294202,-222.061783,-10955.047942,-153.219100
871.294526,1480.411884,-9770.718434,0.000000
871.294850,2146.597232,-9178.553681,229.828649
871.295175,888.247130,-9548.656652,-153.219100
871.295499,-592.164754,-11177.109724,-229.828649
871.295823,-740.205942,-10584.944971,-459.657299
871.296147,0.000000,-8956.491898,-153.219100
871.296471,-444.123565,-8586.388927,-919.314598
871.296796,-1776.494261,-9696.697840,-1302.362347
871.297120,-1332.370696,-9622.677246,-1378.971896
871.297444,592.164754,-8586.388927,-689.485948
871.297768,1850.514855,-8882.471304,0.000000
871.298092,370.102971,-9770.718434,536.266849
871.298416,-1110.308913,-10288.862594,0.000000
871.298741,-814.226536,-9400.615463,459.657299
871.299065,296.082377,-8660.409521,153.219100
871.299389,592.164754,-9326.594869,0.000000
871.299713,0.000000,-9918.759623,1072.533697
871.300037,148.041188,-10140.821405,1838.629195
871.300361,1702.473667,-9252.574275,1685.410096
871.300686,2294.638420,-8956.491898,1608.800546
871.301010,592.164754,-9400.615463,1455.581446
871.301334,-1332.370696,-10140.821405,229.828649
871.301658,-1776.494261,-9770.718434,1072.533697
871.301982,-740.205942,-8882.471304,919.314598
871.302306,-148.041188,-9030.512492,689.485948
871.302631,-1406.391290,-9474.636058,689.485948
871.302955,-1554.432478,-9770.718434,536.266849
871.303279,0.000000,-9178.553681,536.266849
871.303603,1110.308913,-9400.615463,766.095498
871.303927,148.041188,-9844.739029,1072.533697
871.304252,-1480.411884,-10584.944971,842.705048
871.304576,-1628.453072,-9696.697840,842.705048
871.304900,-222.061783,-8956.491898,1225.752797
871.305224,222.061783,-9548.656652,766.095498
871.305548,-814.226536,-10140.821405,459.657299
871.305872,-1258.350101,-10288.862594,766.095498
871.306197,222.061783,-9622.677246,1302.362347
871.306521,1628.453072,-9622.677246,1225.752797
871.306845,444.123565,-10066.800811,1225.752797
871.307169,-1480.411884,-10362.883188,229.828649
871.307493,-1702.473667,-9770.718434,0.000000
871.307817,-296.082377,-8956.491898,76.609550
871.308142,296.082377,-9178.553681,383.047749
871.308466,-296.082377,-9474.636058,459.657299
871.308790,-592.164754,-9770.718434,229.828649
871.309114,1406.391290,-9104.533087,76.609550
871.309438,3034.844362,-9326.594869,536.266849
871.309763,1776.494261,-9992.780217,153.219100
871.310087,-222.061783,-10955.047942,229.828649
871.310411,-740.205942,-10436.903782,459.657299
871.310735,592.164754,-9400.615463,689.485948
871.311059,888.247130,-9326.594869,459.657299
871.311383,148.041188,-9696.697840,-383.047749
871.311708,-444.123565,-10066.800811,383.047749
871.312032,518.144159,-9622.677246,612.876398
871.312356,1406.391290,-9326.594869,383.047749
871.312680,518.144159,-9474.636058,0.000000
871.313004,-1702.473667,-9770.718434,-842.705048
871.313328,-2368.659014,-9474.636058,-1685.410096
871.313653,-814.226536,-8808.450710,-1072.533697
871.313977,0.000000,-8808.450710,-383.047749
871.314301,0.000000,-9400.615463,-995.924147
871.314625,-518.144159,-9844.739029,-383.047749
871.314949,444.123565,-9104.533087,-306.438199
871.315274,1850.514855,-9030.512492,-689.485948
871.315598,1406.391290,-9474.636058,-995.924147
871.315922,0.000000,-10140.821405,-919.314598
871.316246,-592.164754,-10362.883188,-1072.533697
871.316570,74.020594,-9400.615463,-536.266849
871.316894,1332.370696,-9178.553681,-919.314598
871.317219,-592.164754,-10140.821405,-1225.752797
871.317543,-1406.391290,-10658.965565,-1455.581446
871.317867,-148.041188,-10584.944971,-1225.752797
871.318191,1406.391290,-9918.759623,0.000000
871.318515,1036.288319,-9178.553681,0.000000
871.318839,-962.267725,-9696.697840,-1225.752797
871.319164,-1998.556043,-10658.965565,-689.485948
871.319488,-222.061783,-10436.903782,-919.314598
871.319812,962.267725,-9474.636058,-612.876398
871.320136,0.000000,-9474.636058,-1149.143247
871.320460,-1332.370696,-10288.862594,-1072.533697
871.320784,74.020594,-10510.924376,-306.438199
871.321109,1850.514855,-9770.718434,-766.095498
871.321433,1998.556043,-9622.677246,-842.705048
871.321757,-222.061783,-9844.739029,-1378.971896
871.322081,-962.267725,-10362.883188,-1149.143247
871.322405,518.144159,-10066.800811,-766.095498
871.322730,1702.473667,-9252.574275,-766.095498
871.323054,740.205942,-9030.512492,-766.095498
871.323378,-666.185348,-9770.718434,-1378.971896
871.323702,0.000000,-9474.636058,-612.876398
871.324026,1850.514855,-9030.512492,-383.047749
871.324350,1258.350101,-8956.491898,-383.047749
871.324675,-666.185348,-9918.759623,-306.438199
871.324999,-1554.432478,-10807.006753,-306.438199
871.325323,-518.144159,-9918.759623,306.438199
871.325647,592.164754,-8808.450710,306.438199
871.325971,-962.267725,-9178.553681,-383.047749
871.326295,-2146.597232,-9844.739029,-459.657299
871.326620,-1184.329507,-10288.862594,-153.219100
871.326944,814.226536,-9622.677246,306.438199
871.327268,1628.453072,-9252.574275,459.657299
871.327592,0.000000,-10066.800811,-229.828649
871.327916,-1184.329507,-9844.739029,0.000000
871.328241,-814.226536,-9326.594869,-383.047749
871.328565,74.020594,-8512.368333,-229.828649
871.328889,-296.082377,-8808.450710,0.000000
871.329213,-1110.308913,-9770.718434,0.000000
871.329537,-666.185348,-10140.821405,459.657299
871.329861,1332.370696,-9400.615463,1532.190996
871.330186,2220.617826,-8956.491898,1608.800546
871.330510,222.061783,-8882.471304,1838.629195
871.330834,-814.226536,-10140.821405,1532.190996
871.331158,-592.164754,-9400.615463,1608.800546
871.331482,-296.082377,-9104.533087,1915.238745
871.331806,-1332.370696,-9178.553681,842.705048
871.332131,-2664.741391,-9178.553681,76.609550
871.332455,-2812.782580,-8512.368333,0.000000
871.332779,-666.185348,-8290.306550,0.000000
871.333103,1184.329507,-9030.512492,229.828649
871.333427,222.061783,-9548.656652,0.000000
871.333751,-888.247130,-10214.842000,306.438199
871.334076,-814.226536,-10288.862594,-229.828649
871.334400,148.041188,-9696.697840,306.438199
871.334724,888.247130,-10140.821405,612.876398
871.335048,296.082377,-11473.192101,766.095498
871.335372,74.020594,-12139.377449,1532.190996
871.335697,1406.391290,-9992.780217,1991.848295
871.336021,2072.576638,-9252.574275,1532.190996
871.336345,148.041188,-10214.842000,1225.752797
871.336669,-1998.556043,-10732.986159,689.485948
871.336993,-2220.617826,-9844.739029,536.266849
871.337317,-814.226536,-8586.388927,919.314598
871.337642,222.061783,-8290.306550,306.438199
871.337966,-666.185348,-8290.306550,0.000000
871.338290,-1480.411884,-8586.388927,-995.924147
871.338614,0.000000,-8882.471304,-383.047749
871.338938,1998.556043,-8808.450710,-612.876398
871.339262,1258.350101,-9252.574275,-612.876398
871.339587,0.000000,-10214.842000,-459.657299
