#time,accel_x,accel_y,accel_z
790.597061,-592.164754,-9400.615463,689.485948
790.597385,-3997.112087,-9844.739029,-1378.971896
790.597709,-7994.224174,-8660.409521,-1072.533697
790.598033,-8290.306550,-7179.997637,-2221.676944
790.598357,-8438.347739,-9178.553681,-2374.896044
790.598682,-8364.327145,-11029.068536,0.000000
790.599006,-6069.688724,-11547.212695,0.000000
790.599330,-3182.885551,-8808.450710,-612.876398
790.599654,-2442.679609,-5699.585753,689.485948
790.599978,-1036.288319,-6365.771101,1685.410096
790.600302,1998.556043,-8734.430116,1302.362347
790.600626,3627.009116,-10881.027347,995.924147
790.600950,3330.926739,-10955.047942,1991.848295
790.601275,3478.967927,-10140.821405,2911.162892
790.601599,2812.782580,-11621.233289,2528.115143
790.601923,592.164754,-13175.665768,1532.190996
790.602247,-1554.432478,-12139.377449,842.705048
790.602571,-3256.906145,-11621.233289,-766.095498
790.602895,-4145.153275,-10510.924376,536.266849
790.603219,-3404.947333,-8586.388927,919.314598
790.603544,-2072.576638,-7550.100608,1149.143247
790.603868,-1850.514855,-7476.080014,1532.190996
790.604192,-3478.967927,-7994.224174,536.266849
790.604516,-3404.947333,-8882.471304,919.314598
790.604840,-3701.029710,-8142.265362,76.609550
790.605164,-3775.050304,-8882.471304,689.485948
790.605488,-2960.823768,-11029.068536,1762.019645
790.605812,-962.267725,-12583.501014,1455.581446
790.606137,296.082377,-13027.624579,1532.190996
790.606461,296.082377,-12731.542202,2757.943793
790.606785,444.123565,-12361.439231,3140.991542
790.607109,962.267725,-11991.336260,3983.696590
790.607433,296.082377,-11843.295072,3370.820191
790.607757,-1110.308913,-10140.821405,3370.820191
790.608081,-2442.679609,-9770.718434,2757.943793
790.608405,-4589.276840,-10140.821405,2221.676944
790.608730,-6069.688724,-9474.636058,2604.724693
790.609054,-6439.791695,-8438.347739,2681.334243
790.609378,-6217.729913,-8364.327145,2834.553343
790.609702,-5847.626942,-8364.327145,3064.381992
790.610026,-5477.523971,-7846.182985,2298.286494
790.610350,-4071.132681,-7476.080014,2681.334243
790.610674,-1998.556043,-7920.203579,3140.991542
790.610999,222.061783,-8068.244768,3907.087040
790.611323,2664.741391,-7179.997637,3217.601092
790.611647,3478.967927,-7105.977043,3907.087040
790.611971,3256.906145,-8068.244768,4290.134789
790.612295,1776.494261,-8142.265362,3064.381992
790.612619,-518.144159,-8142.265362,2374.896044
790.612943,-3701.029710,-7994.224174,306.438199
790.613267,-6883.915261,-10510.924376,919.314598
790.613592,-7328.038826,-12435.459826,2451.505594
790.613916,-4737.318029,-11103.089130,1838.629195
790.614240,-3849.070898,-9030.512492,3600.648841
790.614564,-2738.761985,-7328.038826,3524.039291
790.614888,-370.102971,-8216.285956,3447.429741
790.615212,962.267725,-9474.636058,3217.601092
790.615536,3182.885551,-9104.533087,2911.162892
790.615861,4071.132681,-8438.347739,2911.162892
790.616185,2590.720797,-7624.121203,689.485948
790.616509,592.164754,-8142.265362,-1378.971896
790.616833,-2442.679609,-10510.924376,-1762.019645
790.617157,-2516.700203,-12583.501014,-3217.601092
790.617481,-3182.885551,-12287.418637,-2834.553343
790.617805,-2442.679609,-11843.295072,-383.047749
790.618129,148.041188,-9474.636058,229.828649
790.618454,1998.556043,-9400.615463,919.314598
790.618778,1702.473667,-9622.677246,1225.752797
790.619102,1628.453072,-9622.677246,1378.971896
790.619426,1850.514855,-10510.924376,689.485948
790.619750,2442.679609,-10807.006753,1378.971896
790.620074,1332.370696,-9104.533087,2068.457845
790.620398,1850.514855,-8586.388927,-689.485948
790.620722,740.205942,-9400.615463,-2451.505594
790.621047,-1850.514855,-12213.398043,-3524.039291
790.621371,-1258.350101,-13545.768739,-5209.449386
790.621695,888.247130,-11843.295072,-5132.839837
790.622019,2220.617826,-10584.944971,-2681.334243
790.622343,2442.679609,-9252.574275,-1378.971896
790.622667,1036.288319,-9696.697840,-3524.039291
790.622991,-1776.494261,-9622.677246,-3370.820191
790.623316,-2368.659014,-9030.512492,-2068.457845
790.623640,-444.123565,-9474.636058,-1225.752797
790.623964,1332.370696,-9622.677246,536.266849
790.624288,2368.659014,-8956.491898,2068.457845
790.624612,2960.823768,-9252.574275,1149.143247
790.624936,1258.350101,-8956.491898,-536.266849
790.625260,-962.267725,-10066.800811,-2374.896044
790.625584,-3256.906145,-10658.965565,-2911.162892
790.625909,-3256.906145,-10658.965565,-3830.477490
790.626233,-2516.700203,-9992.780217,-4213.525239
790.626557,-2146.597232,-9474.636058,-2987.772442
790.626881,-148.041188,-9400.615463,-3983.696590
790.627205,1036.288319,-9770.718434,-2451.505594
790.627529,1776.494261,-8438.347739,-995.924147
790.627853,2886.803174,-8364.327145,383.047749
790.628177,3997.112087,-8734.430116,1455.581446
790.628502,3404.947333,-9622.677246,1762.019645
790.628826,666.185348,-10436.903782,2145.067394
790.629150,-1850.514855,-10362.883188,1685.410096
790.629474,-3108.864956,-10436.903782,536.266849
790.629798,-4145.153275,-9696.697840,-689.485948
790.630122,-3108.864956,-8956.491898,-459.657299
790.630446,-1776.494261,-9400.615463,-689.485948
790.630771,-148.041188,-10288.862594,-766.095498
790.631095,518.144159,-10066.800811,-1455.581446
790.631419,296.082377,-9252.574275,-919.314598
790.631743,222.061783,-8586.388927,-689.485948
790.632067,0.000000,-9622.677246,-536.266849
790.632391,148.041188,-10510.924376,689.485948
790.632715,296.082377,-10436.903782,1762.019645
790.633039,740.205942,-10955.047942,2374.896044
790.633364,740.205942,-10955.047942,2757.943793
790.633688,740.205942,-10140.821405,3140.991542
790.634012,962.267725,-10066.800811,3064.381992
790.634336,-740.205942,-9918.759623,2528.115143
790.634660,-2294.638420,-9770.718434,2451.505594
790.634984,-3701.029710,-9474.636058,995.924147
790.635308,-4367.215058,-8808.450710,0.000000
790.635633,-3997.112087,-8882.471304,0.000000
790.635957,-2664.741391,-9104.533087,0.000000
790.636281,-740.205942,-8586.388927,306.438199
790.636605,1406.391290,-8660.409521,919.314598
790.636929,3478.967927,-9104.533087,1455.581446
790.637253,4441.235652,-8882.471304,1915.238745
790.637577,4219.173869,-9474.636058,1991.848295
790.637901,2738.761985,-9770.718434,2221.676944
790.638226,888.247130,-9844.739029,1685.410096
790.638550,-592.164754,-9326.594869,1685.410096
790.638874,-1850.514855,-9474.636058,1762.019645
790.639198,-2812.782580,-9030.512492,842.705048
790.639522,-2294.638420,-8734.430116,229.828649
790.639846,-888.247130,-7846.182985,1072.533697
790.640170,0.000000,-8438.347739,689.485948
790.640495,1110.308913,-8808.450710,612.876398
790.640819,1406.391290,-8660.409521,536.266849
790.641143,1332.370696,-9178.553681,1149.143247
790.641467,814.226536,-9770.718434,153.219100
790.641791,518.144159,-9992.780217,0.000000
790.642115,888.247130,-9770.718434,-919.314598
790.642439,2590.720797,-9992.780217,-306.438199
790.642763,3701.029710,-10955.047942,0.000000
790.643088,4219.173869,-11103.089130,-306.438199
790.643412,2886.803174,-9992.780217,-536.266849
790.643736,0.000000,-9770.718434,-919.314598
790.644060,-2220.617826,-9992.780217,-2068.457845
790.644384,-3849.070898,-9770.718434,-2604.724693
790.644708,-4145.153275,-9696.697840,-1762.019645
790.645032,-3627.009116,-10066.800811,-1378.971896
790.645357,-2442.679609,-9918.759623,-995.924147
790.645681,-592.164754,-9474.636058,-536.266849
790.646005,814.226536,-9696.697840,1149.143247
790.646329,2442.679609,-10510.924376,383.047749
790.646653,2886.803174,-10881.027347,229.828649
790.646977,1628.453072,-10288.862594,0.000000
790.647301,370.102971,-10584.944971,-842.705048
790.647625,-666.185348,-10362.883188,-1762.019645
790.647950,-1850.514855,-10584.944971,-2451.505594
790.648274,-2368.659014,-10510.924376,-2987.772442
790.648598,-2294.638420,-9770.718434,-3064.381992
790.648922,-1480.411884,-9104.533087,-3217.601092
790.649246,-1110.308913,-9178.553681,-2834.553343
790.649570,-222.061783,-8882.471304,-2451.505594
790.649894,-222.061783,-9104.533087,-1915.238745
790.650219,-1110.308913,-9400.615463,-1378.971896
790.650543,-1332.370696,-9844.739029,-1302.362347
790.650867,-1480.411884,-9770.718434,-689.485948
790.651191,-814.226536,-9918.759623,-306.438199
790.651515,444.123565,-9918.759623,306.438199
790.651839,1850.514855,-9770.718434,842.705048
790.652163,2590.720797,-9770.718434,842.705048
790.652487,3034.844362,-9918.759623,229.828649
790.652812,2368.659014,-9770.718434,-229.828649
790.653136,1110.308913,-9622.677246,-612.876398
790.653460,-148.041188,-9696.697840,-1302.362347
790.653784,-1628.453072,-9474.636058,-1838.629195
790.654108,-2368.659014,-8734.430116,-2145.067394
790.654432,-2146.597232,-9326.594869,-2298.286494
790.654756,-1184.329507,-9400.615463,-1762.019645
790.655081,740.205942,-9326.594869,-689.485948
790.655405,2072.576638,-9474.636058,76.609550
790.655729,2590.720797,-9474.636058,766.095498
790.656053,1850.514855,-9622.677246,1072.533697
790.656377,888.247130,-10214.842000,1302.362347
790.656701,-666.185348,-9992.780217,1072.533697
790.657025,-1184.329507,-10732.986159,919.314598
790.657349,-1554.432478,-10658.965565,1225.752797
790.657674,-740.205942,-10140.821405,995.924147
790.657998,222.061783,-9918.759623,995.924147
790.658322,1628.453072,-9548.656652,995.924147
790.658646,1776.494261,-9474.636058,1302.362347
790.658970,1332.370696,-9548.656652,766.095498
790.659294,-296.082377,-9474.636058,1149.143247
790.659618,-2072.576638,-9400.615463,383.047749
790.659942,-2664.741391,-9696.697840,0.000000
790.660267,-2960.823768,-9770.718434,76.609550
790.660591,-2368.659014,-9770.718434,306.438199
790.660915,-1036.288319,-9548.656652,1225.752797
790.661239,962.267725,-9326.594869,1608.800546
790.661563,2664.741391,-9178.553681,2221.676944
790.661887,2664.741391,-8882.471304,2221.676944
790.662211,1628.453072,-9030.512492,2068.457845
790.662536,666.185348,-9548.656652,1762.019645
790.662860,-740.205942,-9400.615463,1072.533697
790.663184,-1850.514855,-9474.636058,766.095498
790.663508,-2368.659014,-9400.615463,842.705048
790.663832,-2072.576638,-9474.636058,995.924147
790.664156,-1480.411884,-8882.471304,1762.019645
790.664480,-370.102971,-8586.388927,1455.581446
790.664804,518.144159,-8660.409521,1302.362347
790.665129,518.144159,-9104.533087,1149.143247
790.665453,-222.061783,-9252.574275,1302.362347
790.665777,-1332.370696,-9252.574275,1149.143247
790.666101,-2072.576638,-9400.615463,1302.362347
790.666425,-2294.638420,-8956.491898,383.047749
790.666749,-1702.473667,-9178.553681,306.438199
790.667073,-740.205942,-9474.636058,76.609550
790.667398,962.267725,-9474.636058,0.000000
790.667722,1776.494261,-9844.739029,0.000000
790.668046,2220.617826,-9622.677246,-306.438199
790.668370,1702.473667,-9696.697840,-536.266849
790.668694,1036.288319,-10066.800811,-153.219100
790.669018,-222.061783,-10066.800811,-1072.533697
790.669342,-1110.308913,-10214.842000,-766.095498
790.669666,-1110.308913,-10066.800811,-1072.533697
790.669991,-444.123565,-10362.883188,-689.485948
790.670315,592.164754,-10510.924376,-306.438199
790.670639,1850.514855,-10066.800811,306.438199
790.670963,2516.700203,-10214.842000,153.219100
790.671287,1406.391290,-10288.862594,-536.266849
790.671611,444.123565,-10066.800811,-1072.533697
790.671935,-888.247130,-10066.800811,-1762.019645
790.672260,-1406.391290,-10362.883188,-1991.848295
790.672584,-2368.659014,-10140.821405,-2145.067394
790.672908,-1924.535449,-10140.821405,-2298.286494
790.673232,-444.123565,-10140.821405,-2298.286494
790.673556,1702.473667,-10066.800811,-1532.190996
790.673880,3404.947333,-10066.800811,-1149.143247
790.674204,3552.988522,-10140.821405,-1302.362347
790.674528,2146.597232,-10066.800811,-1225.752797
790.674853,888.247130,-10362.883188,-1225.752797
790.675177,148.041188,-10288.862594,-1149.143247
790.675501,-666.185348,-9992.780217,-995.924147
790.675825,-1110.308913,-9992.780217,-689.485948
790.676149,-740.205942,-9622.677246,-459.657299
790.676473,518.144159,-9252.574275,-153.219100
790.676797,1702.473667,-9252.574275,153.219100
790.677122,1628.453072,-8956.491898,383.047749
790.677446,962.267725,-8660.409521,0.000000
790.677770,-296.082377,-8808.450710,-229.828649
790.678094,-1702.473667,-9104.533087,-689.485948
790.678418,-2146.597232,-9252.574275,-1149.143247
790.678742,-1924.535449,-9252.574275,-1149.143247
790.679066,-1554.432478,-8734.430116,-1149.143247
790.679390,0.000000,-9326.594869,-612.876398
790.679715,1036.288319,-9104.533087,-459.657299
790.680039,2072.576638,-9474.636058,-229.828649
790.680363,1998.556043,-9918.759623,0.000000
790.680687,666.185348,-9696.697840,0.000000
790.681011,-444.123565,-9696.697840,0.000000
790.681335,-1554.432478,-9992.780217,383.047749
790.681659,-2368.659014,-10214.842000,459.657299
790.681984,-2738.761985,-9844.739029,459.657299
790.682308,-2072.576638,-10288.862594,459.657299
790.682632,-962.267725,-9844.739029,995.924147
790.682956,444.123565,-9548.656652,1532.190996
790.683280,1480.411884,-9548.656652,1302.362347
790.683604,1258.350101,-9474.636058,1378.971896
790.683928,0.000000,-9326.594869,612.876398
790.684252,-1110.308913,-9474.636058,459.657299
790.684577,-2072.576638,-9696.697840,-229.828649
790.684901,-2516.700203,-9474.636058,-383.047749
790.685225,-2368.659014,-9548.656652,-459.657299
790.685549,-740.205942,-9548.656652,-229.828649
790.685873,814.226536,-9104.533087,306.438199
790.686197,2294.638420,-9696.697840,766.095498
790.686521,2368.659014,-9770.718434,919.314598
790.686846,1776.494261,-9696.697840,1455.581446
790.687170,962.267725,-9992.780217,1378.971896
790.687494,222.061783,-10066.800811,995.924147
790.687818,-666.185348,-10362.883188,1072.533697
790.688142,-1628.453072,-9770.718434,1762.019645
790.688466,-1480.411884,-9474.636058,1302.362347
790.688790,0.000000,-9178.553681,1378.971896
790.689114,1036.288319,-8808.450710,1225.752797
790.689439,1480.411884,-8882.471304,919.314598
790.689763,1554.432478,-9104.533087,766.095498
790.690087,370.102971,-8956.491898,612.876398
790.690411,-814.226536,-9178.553681,153.219100
790.690735,-1406.391290,-9326.594869,-229.828649
790.691059,-2146.597232,-9252.574275,-919.314598
790.691383,-1702.473667,-9474.636058,-842.705048
790.691708,-222.061783,-9252.574275,-383.047749
790.692032,1184.329507,-9622.677246,229.828649
790.692356,2220.617826,-9622.677246,306.438199
790.692680,2368.659014,-9548.656652,0.000000
790.693004,1258.350101,-9548.656652,153.219100
790.693328,222.061783,-9548.656652,0.000000
790.693652,-666.185348,-10436.903782,-383.047749
790.693976,-1924.535449,-11103.089130,-229.828649
790.694301,-1776.494261,-10214.842000,0.000000
790.694625,-962.267725,-9918.759623,-306.438199
790.694949,0.000000,-9622.677246,536.266849
790.695273,1480.411884,-9770.718434,919.314598
790.695597,2072.576638,-9770.718434,459.657299
790.695921,1036.288319,-9696.697840,-306.438199
790.696245,-370.102971,-9548.656652,-383.047749
790.696569,-1776.494261,-9844.739029,-1225.752797
790.696894,-2516.700203,-9474.636058,-1915.238745
790.697218,-3034.844362,-9548.656652,-2068.457845
790.697542,-2368.659014,-9844.739029,-2451.505594
790.697866,-814.226536,-10066.800811,-1762.019645
790.698190,1406.391290,-9992.780217,-689.485948
790.698514,2590.720797,-9918.759623,-689.485948
790.698838,3034.844362,-10214.842000,-689.485948
790.699163,1998.556043,-10288.862594,-229.828649
790.699487,444.123565,-10658.965565,-383.047749
790.699811,148.041188,-10955.047942,-306.438199
790.700135,-592.164754,-10955.047942,-306.438199
790.700459,-1258.350101,-10362.883188,-766.095498
790.700783,-518.144159,-10214.842000,-229.828649
790.701107,296.082377,-9474.636058,0.000000
790.701431,1184.329507,-9400.615463,-153.219100
790.701756,1406.391290,-9400.615463,-459.657299
790.702080,444.123565,-9178.553681,-612.876398
790.702404,-222.061783,-9178.553681,-383.047749
790.702728,-666.185348,-9252.574275,-766.095498
790.703052,-1184.329507,-9326.594869,-306.438199
790.703376,-1258.350101,-9474.636058,-919.314598
790.703700,-1258.350101,-9400.615463,-536.266849
790.704025,148.041188,-9474.636058,0.000000
790.704349,1628.453072,-8882.471304,383.047749
790.704673,2516.700203,-9252.574275,229.828649
790.704997,2368.659014,-9548.656652,229.828649
790.705321,1184.329507,-9474.636058,0.000000
790.705645,0.000000,-9400.615463,-306.438199
790.705969,-1184.329507,-9400.615463,-306.438199
790.706293,-2072.576638,-9400.615463,229.828649
790.706618,-2072.576638,-9696.697840,-536.266849
790.706942,-1702.473667,-9474.636058,76.609550
790.707266,-296.082377,-9474.636058,995.924147
790.707590,1036.288319,-9622.677246,919.314598
790.707914,1480.411884,-9696.697840,1072.533697
790.708238,1184.329507,-9252.574275,459.657299
790.708562,0.000000,-9548.656652,0.000000
790.708887,-2072.576638,-9918.759623,-153.219100
790.709211,-2368.659014,-10288.862594,-766.095498
790.709535,-2886.803174,-10066.800811,-766.095498
790.709859,-2072.576638,-9992.780217,-919.314598
790.710183,-370.102971,-9844.739029,-842.705048
790.710507,1702.473667,-9696.697840,0.000000
790.710831,3108.864956,-9696.697840,459.657299
790.711155,3701.029710,-10510.924376,1225.752797
790.711480,2368.659014,-9548.656652,459.657299
790.711804,1258.350101,-10436.903782,153.219100
790.712128,0.000000,-10362.883188,-306.438199
790.712452,-1184.329507,-10510.924376,0.000000
790.712776,-1628.453072,-10510.924376,0.000000
790.713100,-1110.308913,-10214.842000,-383.047749
790.713424,-296.082377,-9474.636058,229.828649
790.713749,740.205942,-9104.533087,842.705048
790.714073,1480.411884,-9400.615463,689.485948
790.714397,1110.308913,-9178.553681,383.047749
790.714721,74.020594,-9178.553681,383.047749
790.715045,-1036.288319,-9474.636058,0.000000
790.715369,-1628.453072,-9104.533087,0.000000
790.715693,-2146.597232,-8808.450710,-536.266849
790.716017,-1036.288319,-9474.636058,-842.705048
790.716342,0.000000,-9400.615463,-459.657299
790.716666,888.247130,-9548.656652,153.219100
790.716990,1776.494261,-9622.677246,0.000000
790.717314,1406.391290,-9548.656652,0.000000
790.717638,666.185348,-9178.553681,0.000000
790.717962,444.123565,-9770.718434,612.876398
790.718286,0.000000,-9844.739029,842.705048
790.718611,-1332.370696,-9548.656652,1149.143247
790.718935,-2146.597232,-9770.718434,842.705048
790.719259,-1258.350101,-9178.553681,689.485948
790.719583,0.000000,-9104.533087,1455.581446
790.719907,740.205942,-9252.574275,1455.581446
790.720231,740.205942,-9104.533087,1302.362347
790.720555,0.000000,-9178.553681,689.485948
790.720879,-740.205942,-9548.656652,153.219100
790.721204,-2072.576638,-9326.594869,0.000000
790.721528,-2812.782580,-9474.636058,-459.657299
790.721852,-2812.782580,-9918.759623,-612.876398
790.722176,-1850.514855,-9844.739029,-842.705048
790.722500,-740.205942,-9548.656652,-229.828649
790.722824,1258.350101,-9844.739029,459.657299
790.723148,2590.720797,-9474.636058,919.314598
790.723473,2886.803174,-9326.594869,153.219100
790.723797,1776.494261,-9770.718434,536.266849
790.724121,518.144159,-9918.759623,306.438199
790.724445,-592.164754,-10288.862594,-306.438199
790.724769,-1850.514855,-10288.862594,-459.657299
790.725093,-2220.617826,-10140.821405,-536.266849
790.725417,-1184.329507,-9918.759623,0.000000
790.725741,-296.082377,-9326.594869,612.876398
790.726066,1036.288319,-9622.677246,459.657299
790.726390,1850.514855,-9696.697840,76.609550
790.726714,1628.453072,-9622.677246,0.000000
790.727038,666.185348,-9844.739029,0.000000
790.727363,-222.061783,-9918.759623,-536.266849
790.727687,-888.247130,-10066.800811,0.000000
790.728011,-1554.432478,-9622.677246,-229.828649
790.728336,-222.061783,-10288.862594,-766.095498
790.728660,518.144159,-9696.697840,-766.095498
790.728984,1998.556043,-9992.780217,-459.657299
790.729308,2368.659014,-9770.718434,-612.876398
790.729633,2294.638420,-9548.656652,-459.657299
790.729957,1036.288319,-9696.697840,-229.828649
790.730281,-296.082377,-9918.759623,-459.657299
790.730605,-1110.308913,-10066.800811,-229.828649
790.730930,-1998.556043,-9770.718434,-229.828649
790.731254,-1554.432478,-10140.821405,0.000000
790.731578,-962.267725,-9326.594869,766.095498
790.731902,148.041188,-9030.512492,612.876398
790.732227,2072.576638,-9326.594869,766.095498
790.732551,2146.597232,-9104.533087,536.266849
790.732875,1258.350101,-9104.533087,76.609550
790.733199,-148.041188,-9178.553681,-383.047749
790.733524,-1406.391290,-9548.656652,-689.485948
790.733848,-2368.659014,-9474.636058,-766.095498
790.734172,-2442.679609,-9548.656652,-919.314598
790.734496,-2072.576638,-9696.697840,-1225.752797
790.734821,-666.185348,-9548.656652,-612.876398
790.735145,592.164754,-9844.739029,-229.828649
790.735469,1702.473667,-9770.718434,76.609550
790.735793,1406.391290,-9474.636058,-153.219100
790.736118,1110.308913,-9622.677246,459.657299
790.736442,0.000000,-9696.697840,459.657299
790.736766,-666.185348,-10066.800811,-153.219100
790.737091,-1480.411884,-9992.780217,76.609550
790.737415,-1776.494261,-9844.739029,0.000000
790.737739,-1258.350101,-9770.718434,0.000000
790.738063,0.000000,-9474.636058,306.438199
790.738388,1406.391290,-9252.574275,0.000000
790.738712,1702.473667,-9548.656652,-153.219100
790.739036,888.247130,-9844.739029,-383.047749
790.739360,-296.082377,-9548.656652,-229.828649
790.739685,-1406.391290,-9622.677246,-383.047749
790.740009,-1924.535449,-9844.739029,-536.266849
790.740333,-1776.494261,-9992.780217,0.000000
790.740657,-518.144159,-9474.636058,-459.657299
790.740982,962.267725,-9770.718434,612.876398
790.741306,2442.679609,-9548.656652,995.924147
790.741630,3478.967927,-9770.718434,612.876398
790.741954,2442.679609,-9548.656652,459.657299
790.742279,888.247130,-9474.636058,0.000000
790.742603,-370.102971,-9992.780217,-306.438199
790.742927,-962.267725,-9770.718434,-459.657299
790.743251,-2368.659014,-9844.739029,-306.438199
790.743576,-2146.597232,-9474.636058,-536.266849
790.743900,-1110.308913,-9252.574275,-689.485948
790.744224,296.082377,-9252.574275,383.047749
790.744548,1628.453072,-9326.594869,1072.533697
790.744873,1850.514855,-9252.574275,919.314598
790.745197,1480.411884,-9474.636058,1072.533697
790.745521,0.000000,-8438.347739,689.485948
790.745846,-1184.329507,-8882.471304,76.609550
790.746170,-1702.473667,-9104.533087,-536.266849
790.746494,-1850.514855,-9770.718434,-612.876398
790.746818,-1258.350101,-9622.677246,-689.485948
790.747143,0.000000,-9474.636058,-383.047749
790.747467,1184.329507,-9548.656652,0.000000
790.747791,2220.617826,-9918.759623,-153.219100
790.748115,1258.350101,-9696.697840,-229.828649
790.748440,370.102971,-9400.615463,76.609550
790.748764,-296.082377,-9992.780217,0.000000
790.749088,-1258.350101,-10214.842000,-229.828649
790.749412,-2220.617826,-9992.780217,-153.219100
790.749737,-2368.659014,-9918.759623,0.000000
790.750061,-1776.494261,-9770.718434,306.438199
790.750385,-592.164754,-9770.718434,919.314598
790.750709,666.185348,-9400.615463,919.314598
790.751034,1628.453072,-9474.636058,612.876398
790.751358,1110.308913,-9696.697840,306.438199
790.751682,74.020594,-9770.718434,76.609550
790.752006,-1036.288319,-9844.739029,-459.657299
790.752331,-1702.473667,-9918.759623,-842.705048
790.752655,-1776.494261,-9474.636058,-919.314598
790.752979,-1036.288319,-9696.697840,-842.705048
790.753303,444.123565,-9622.677246,-76.609550
790.753628,2072.576638,-9696.697840,-612.876398
790.753952,2294.638420,-9844.739029,0.000000
790.754276,1628.453072,-9622.677246,-229.828649
790.754601,962.267725,-9844.739029,0.000000
790.754925,-222.061783,-10066.800811,76.609550
790.755249,-1332.370696,-9770.718434,-153.219100
790.755573,-1776.494261,-9696.697840,612.876398
790.755898,-2146.597232,-9918.759623,306.438199
790.756222,-1110.308913,-9696.697840,229.828649
790.756546,296.082377,-9474.636058,919.314598
790.756870,1628.453072,-9474.636058,919.314598
790.757195,2146.597232,-9474.636058,536.266849
790.757519,1184.329507,-9326.594869,153.219100
790.757843,0.000000,-9622.677246,0.000000
790.758167,-1258.350101,-9992.780217,-229.828649
790.758492,-1924.535449,-9844.739029,-1149.143247
790.758816,-2146.597232,-9770.718434,-612.876398
790.759140,-1332.370696,-9622.677246,-612.876398
790.759464,148.041188,-9622.677246,0.000000
790.759789,1998.556043,-9474.636058,383.047749
790.760113,2590.720797,-9252.574275,689.485948
790.760437,2738.761985,-9178.553681,383.047749
790.760761,1406.391290,-9252.574275,536.266849
790.761086,148.041188,-9770.718434,229.828649
790.761410,-814.226536,-9844.739029,0.000000
790.761734,-1850.514855,-9770.718434,-612.876398
790.762058,-2294.638420,-9844.739029,-306.438199
790.762383,-1554.432478,-9474.636058,0.000000
790.762707,-592.164754,-9252.574275,0.000000
790.763031,888.247130,-9474.636058,0.000000
790.763356,1184.329507,-9548.656652,153.219100
790.763680,592.164754,-9252.574275,0.000000
790.764004,-296.082377,-9474.636058,0.000000
790.764328,-740.205942,-9770.718434,-306.438199
790.764653,-1406.391290,-9696.697840,-229.828649
790.764977,-1554.432478,-9474.636058,-612.876398
790.765301,-740.205942,-9548.656652,-612.876398
790.765625,444.123565,-9548.656652,-766.095498
790.765950,1776.494261,-9696.697840,-459.657299
790.766274,2146.597232,-9770.718434,-612.876398
790.766598,1258.350101,-9770.718434,-536.266849
790.766922,592.164754,-9918.759623,-459.657299
790.767247,0.000000,-9918.759623,-1149.143247
790.767571,-1184.329507,-9622.677246,-1072.533697
790.767895,-2072.576638,-9770.718434,-689.485948
790.768219,-2146.597232,-9770.718434,-459.657299
790.768544,-888.247130,-9622.677246,0.000000
790.768868,222.061783,-9326.594869,536.266849
790.769192,1554.432478,-9474.636058,766.095498
790.769516,2220.617826,-9992.780217,766.095498
790.769841,1480.411884,-9770.718434,459.657299
790.770165,222.061783,-9992.780217,153.219100
790.770489,-1480.411884,-9696.697840,-766.095498
790.770813,-2812.782580,-10140.821405,-995.924147
790.771138,-2516.700203,-10066.800811,-1072.533697
790.771462,-1480.411884,-10066.800811,-1378.971896
790.771786,0.000000,-9548.656652,-766.095498
790.772111,1628.453072,-9400.615463,0.000000
790.772435,2664.741391,-9696.697840,536.266849
790.772759,2886.803174,-9844.739029,612.876398
790.773083,1628.453072,-9400.615463,919.314598
790.773408,0.000000,-9844.739029,306.438199
790.773732,-814.226536,-10214.842000,-229.828649
790.774056,-1480.411884,-9844.739029,0.000000
790.774380,-1554.432478,-9622.677246,76.609550
790.774705,-740.205942,-9474.636058,536.266849
790.775029,370.102971,-9104.533087,842.705048
790.775353,740.205942,-8956.491898,842.705048
790.775677,962.267725,-8956.491898,612.876398
790.776002,370.102971,-9104.533087,306.438199
790.776326,-444.123565,-9400.615463,0.000000
790.776650,-1258.350101,-9548.656652,0.000000
790.776974,-1776.494261,-9548.656652,-459.657299
790.777299,-1406.391290,-9474.636058,-229.828649
790.777623,-888.247130,-9474.636058,-383.047749
790.777947,666.185348,-9474.636058,-229.828649
790.778271,1776.494261,-9696.697840,0.000000
790.778596,2220.617826,-9770.718434,0.000000
790.778920,1850.514855,-9696.697840,0.000000
790.779244,444.123565,-9474.636058,153.219100
790.779568,-592.164754,-9326.594869,229.828649
790.779893,-1628.453072,-9474.636058,153.219100
790.780217,-2442.679609,-9622.677246,153.219100
790.780541,-2368.659014,-9770.718434,76.609550
790.780865,-1184.329507,-9696.697840,536.266849
790.781190,0.000000,-9400.615463,842.705048
790.781514,1406.391290,-9326.594869,842.705048
790.781838,1628.453072,-9400.615463,689.485948
790.782163,1110.308913,-9326.594869,306.438199
790.782487,0.000000,-9400.615463,383.047749
790.782811,-814.226536,-10066.800811,-383.047749
790.783135,-1776.494261,-10214.842000,-842.705048
790.783460,-1702.473667,-9992.780217,-1225.752797
790.783784,-888.247130,-10066.800811,-1302.362347
790.784108,518.144159,-10214.842000,-689.485948
790.784432,2072.576638,-9992.780217,76.609550
790.784757,2738.761985,-9770.718434,229.828649
790.785081,2294.638420,-9918.759623,-153.219100
790.785405,740.205942,-10066.800811,-153.219100
790.785729,-222.061783,-10066.800811,-153.219100
790.786054,-1110.308913,-10066.800811,-383.047749
790.786378,-1702.473667,-10214.842000,-383.047749
790.786702,-1184.329507,-10214.842000,-153.219100
790.787026,-518.144159,-9770.718434,306.438199
790.787351,444.123565,-9400.615463,995.924147
790.787675,1406.391290,-9622.677246,766.095498
790.787999,1702.473667,-9622.677246,459.657299
790.788323,1036.288319,-9474.636058,229.828649
790.788648,0.000000,-9326.594869,229.828649
790.788972,-962.267725,-9622.677246,-229.828649
790.789296,-2072.576638,-9474.636058,0.000000
790.789620,-2072.576638,-9548.656652,-689.485948
790.789945,-1036.288319,-9252.574275,-766.095498
790.790269,296.082377,-9400.615463,-306.438199
790.790593,1332.370696,-9326.594869,-229.828649
790.790918,2072.576638,-9326.594869,0.000000
790.791242,1628.453072,-9030.512492,0.000000
790.791566,518.144159,-9326.594869,306.438199
790.791890,296.082377,-10362.883188,306.438199
790.792215,-1036.288319,-9918.759623,842.705048
790.792539,-1554.432478,-9844.739029,0.000000
790.792863,-1850.514855,-9548.656652,229.828649
790.793187,-1110.308913,-9474.636058,153.219100
790.793512,74.020594,-9622.677246,536.266849
790.793836,1036.288319,-9474.636058,766.095498
790.794160,1480.411884,-9548.656652,383.047749
790.794484,740.205942,-9770.718434,-306.438199
790.794809,0.000000,-9918.759623,0.000000
790.795133,-1258.350101,-9992.780217,-306.438199
790.795457,-1924.535449,-10066.800811,-919.314598
790.795781,-2146.597232,-10066.800811,-1225.752797
790.796106,-1184.329507,-9918.759623,-1378.971896
790.796430,518.144159,-9622.677246,0.000000
790.796754,2146.597232,-9696.697840,-306.438199
790.797078,2812.782580,-9770.718434,-153.219100
790.797403,2294.638420,-9770.718434,-306.438199
790.797727,962.267725,-10214.842000,-306.438199
790.798051,74.020594,-10140.821405,-306.438199
790.798375,-814.226536,-10362.883188,-536.266849
790.798700,-1184.329507,-10066.800811,-459.657299
790.799024,-1332.370696,-10214.842000,0.000000
790.799348,-148.041188,-9918.759623,306.438199
790.799673,1184.329507,-9400.615463,842.705048
790.799997,1850.514855,-9622.677246,766.095498
790.800321,1776.494261,-9548.656652,459.657299
790.800645,1036.288319,-9474.636058,459.657299
790.800970,-370.102971,-9104.533087,612.876398
790.801294,-1702.473667,-9400.615463,-306.438199
790.801618,-2590.720797,-9400.615463,-1378.971896
790.801942,-2294.638420,-9474.636058,-1455.581446
790.802267,-814.226536,-9178.553681,-919.314598
790.802591,148.041188,-9326.594869,-536.266849
790.802915,1628.453072,-9326.594869,-229.828649
790.803239,2294.638420,-9326.594869,0.000000
790.803564,2146.597232,-9400.615463,0.000000
790.803888,740.205942,-9178.553681,153.219100
790.804212,-370.102971,-9474.636058,-459.657299
790.804536,-1258.350101,-9474.636058,0.000000
790.804861,-1628.453072,-9622.677246,0.000000
790.805185,-1480.411884,-9918.759623,0.000000
790.805509,-814.226536,-9548.656652,76.609550
790.805833,148.041188,-9104.533087,306.438199
790.806158,1036.288319,-9030.512492,919.314598
790.806482,814.226536,-9326.594869,536.266849
790.806806,148.041188,-9474.636058,76.609550
790.807130,-1184.329507,-9770.718434,-612.876398
790.807455,-1850.514855,-9548.656652,-995.924147
790.807779,-2146.597232,-9696.697840,-1378.971896
790.808103,-1998.556043,-10066.800811,-1455.581446
790.808428,-1332.370696,-10140.821405,-1072.533697
790.808752,518.144159,-10140.821405,0.000000
790.809076,2072.576638,-10288.862594,0.000000
790.809400,3034.844362,-10510.924376,0.000000
790.809725,2442.679609,-10362.883188,-229.828649
790.810049,1184.329507,-10658.965565,-153.219100
790.810373,0.000000,-10881.027347,-383.047749
790.810697,-1036.288319,-10658.965565,0.000000
790.811022,-1924.535449,-10510.924376,-229.828649
790.811346,-1628.453072,-10288.862594,76.609550
790.811670,-814.226536,-9696.697840,76.609550
790.811994,740.205942,-9474.636058,536.266849
790.812319,1554.432478,-9474.636058,383.047749
790.812643,1406.391290,-9548.656652,383.047749
790.812967,666.185348,-9696.697840,459.657299
790.813291,-370.102971,-9844.739029,459.657299
790.813616,-888.247130,-9770.718434,383.047749
790.813940,-1554.432478,-9474.636058,383.047749
790.814264,-1850.514855,-9400.615463,-229.828649
790.814588,-666.185348,-9474.636058,-306.438199
790.814913,666.185348,-9474.636058,0.000000
790.815237,1850.514855,-9474.636058,306.438199
790.815561,2442.679609,-9474.636058,459.657299
790.815885,1702.473667,-8882.471304,0.000000
790.816210,666.185348,-9178.553681,229.828649
790.816534,-740.205942,-9474.636058,383.047749
790.816858,-1924.535449,-9622.677246,153.219100
790.817183,-2664.741391,-9548.656652,229.828649
790.817507,-2368.659014,-9252.574275,306.438199
790.817831,-1110.308913,-8882.471304,383.047749
790.818155,296.082377,-8808.450710,1455.581446
790.818480,1332.370696,-8956.491898,1608.800546
790.818804,1998.556043,-8956.491898,1302.362347
790.819128,888.247130,-8808.450710,842.705048
790.819452,-666.185348,-9030.512492,306.438199
790.819777,-2072.576638,-9252.574275,-459.657299
790.820101,-2886.803174,-9474.636058,-919.314598
790.820425,-2886.803174,-9548.656652,-1225.752797
790.820749,-1628.453072,-9918.759623,-1149.143247
790.821074,148.041188,-9844.739029,-919.314598
790.821398,1998.556043,-9992.780217,-536.266849
790.821722,2072.576638,-9918.759623,0.000000
790.822046,1998.556043,-9992.780217,0.000000
790.822371,1406.391290,-10510.924376,76.609550
790.822695,148.041188,-10881.027347,-153.219100
790.823019,-370.102971,-10658.965565,-153.219100
790.823343,-1110.308913,-10288.862594,-153.219100
790.823668,-1480.411884,-10066.800811,76.609550
790.823992,-888.247130,-9918.759623,0.000000
790.824316,444.123565,-9918.759623,0.000000
790.824640,1406.391290,-9992.780217,76.609550
790.824965,1110.308913,-9548.656652,-459.657299
790.825289,296.082377,-9548.656652,-536.266849
790.825613,-518.144159,-9992.780217,-536.266849
790.825938,-1184.329507,-10214.842000,-766.095498
790.826262,-1184.329507,-9622.677246,-1225.752797
790.826586,-1258.350101,-9696.697840,-1532.190996
790.826910,0.000000,-9844.739029,-1072.533697
790.827234,1480.411884,-9844.739029,-459.657299
790.827558,3034.844362,-10288.862594,0.000000
790.827882,3034.844362,-10214.842000,-229.828649
790.828206,1998.556043,-10066.800811,-383.047749
790.828530,814.226536,-9844.739029,0.000000
790.828855,-370.102971,-9992.780217,-1072.533697
790.829179,-1332.370696,-9696.697840,0.000000
790.829503,-2146.597232,-9696.697840,-689.485948
790.829827,-2146.597232,-9474.636058,0.000000
790.830151,-666.185348,-9030.512492,459.657299
790.830475,518.144159,-8660.409521,766.095498
790.830799,1702.473667,-8660.409521,229.828649
790.831123,1628.453072,-8660.409521,383.047749
790.831447,296.082377,-8734.430116,536.266849
790.831771,-444.123565,-9104.533087,-229.828649
790.832096,-1776.494261,-8956.491898,-766.095498
790.832420,-2516.700203,-9252.574275,-995.924147
790.832744,-2368.659014,-9548.656652,-1455.581446
790.833068,-1332.370696,-9474.636058,-1225.752797
790.833392,74.020594,-9400.615463,0.000000
790.833716,1702.473667,-9252.574275,-229.828649
790.834040,2590.720797,-9474.636058,0.000000
790.834364,1998.556043,-9474.636058,-229.828649
790.834688,1332.370696,-10140.821405,0.000000
790.835012,370.102971,-10436.903782,-153.219100
790.835336,-1036.288319,-10510.924376,0.000000
790.835661,-2072.576638,-10510.924376,76.609550
790.835985,-1628.453072,-10584.944971,-153.219100
790.836309,-962.267725,-9696.697840,-153.219100
790.836633,-296.082377,-9918.759623,536.266849
790.836957,444.123565,-10362.883188,76.609550
790.837281,740.205942,-9844.739029,0.000000
790.837605,0.000000,-9548.656652,-306.438199
790.837929,-962.267725,-9918.759623,-459.657299
790.838253,-1628.453072,-9770.718434,-919.314598
790.838577,-2368.659014,-9474.636058,-995.924147
790.838902,-1998.556043,-9622.677246,-995.924147
790.839226,-518.144159,-9918.759623,-689.485948
790.839550,1110.308913,-9918.759623,-612.876398
790.839874,2220.617826,-9992.780217,-306.438199
790.840198,2664.741391,-10288.862594,-153.219100
790.840522,1776.494261,-10214.842000,306.438199
790.840846,888.247130,-10066.800811,459.657299
790.841170,-592.164754,-9992.780217,-306.438199
790.841494,-1406.391290,-9918.759623,383.047749
790.841818,-2072.576638,-9696.697840,153.219100
790.842142,-1480.411884,-9696.697840,383.047749
790.842467,-444.123565,-9252.574275,919.314598
790.842791,1036.288319,-9030.512492,1378.971896
790.843115,2146.597232,-9326.594869,1685.410096
790.843439,1702.473667,-9178.553681,842.705048
790.843763,74.020594,-8956.491898,919.314598
790.844087,-518.144159,-9178.553681,536.266849
790.844411,-1702.473667,-9400.615463,0.000000
790.844735,-2220.617826,-9252.574275,-153.219100
790.845059,-1924.535449,-9400.615463,-536.266849
790.845383,-888.247130,-9326.594869,-306.438199
790.845708,1480.411884,-9178.553681,766.095498
790.846032,2368.659014,-9030.512492,1072.533697
790.846356,2368.659014,-9030.512492,842.705048
790.846680,1776.494261,-9178.553681,919.314598
790.847004,444.123565,-9400.615463,689.485948
790.847328,-666.185348,-9770.718434,229.828649
790.847652,-1850.514855,-9696.697840,459.657299
790.847976,-2516.700203,-9474.636058,766.095498
790.848300,-2294.638420,-9770.718434,-459.657299
790.848624,-1480.411884,-8956.491898,842.705048
790.848948,0.000000,-8882.471304,1302.362347
790.849273,962.267725,-9400.615463,306.438199
790.849597,1258.350101,-9104.533087,229.828649
790.849921,740.205942,-9474.636058,306.438199
790.850245,-370.102971,-9474.636058,229.828649
790.850569,-1258.350101,-9844.739029,-612.876398
790.850893,-2220.617826,-9844.739029,-766.095498
790.851217,-1554.432478,-10436.903782,-919.314598
790.851541,-666.185348,-10214.842000,-1302.362347
790.851865,740.205942,-10214.842000,-766.095498
790.852189,1776.494261,-10807.006753,-306.438199
790.852514,2368.659014,-10807.006753,-459.657299
790.852838,1628.453072,-10288.862594,-153.219100
790.853162,518.144159,-10066.800811,-612.876398
790.853486,-296.082377,-10436.903782,-536.266849
790.853810,-1628.453072,-10362.883188,-1149.143247
790.854134,-1850.514855,-10362.883188,-766.095498
790.854458,-1554.432478,-10288.862594,-766.095498
790.854782,-370.102971,-9992.780217,0.000000
790.855106,962.267725,-9918.759623,306.438199
790.855430,2590.720797,-9918.759623,0.000000
790.855755,2220.617826,-9400.615463,0.000000
790.856079,740.205942,-9474.636058,-153.219100
790.856403,-666.185348,-9474.636058,-842.705048
790.856727,-1480.411884,-9548.656652,-995.924147
790.857051,-2146.597232,-9548.656652,-1149.143247
790.857375,-1924.535449,-9400.615463,-1072.533697
790.857699,-518.144159,-9400.615463,-1455.581446
790.858023,1406.391290,-9622.677246,-153.219100
790.858347,2442.679609,-9104.533087,0.000000
790.858671,2516.700203,-9030.512492,-536.266849
790.858995,1702.473667,-9474.636058,-229.828649
790.859320,296.082377,-9474.636058,0.000000
790.859644,-740.205942,-9696.697840,-306.438199
790.859968,-1332.370696,-10066.800811,-383.047749
790.860292,-2072.576638,-9770.718434,0.000000
790.860616,-1406.391290,-9474.636058,0.000000
790.860940,74.020594,-9326.594869,536.266849
790.861264,1554.432478,-9400.615463,842.705048
790.861588,2368.659014,-9178.553681,766.095498
790.861912,2072.576638,-9252.574275,919.314598
790.862236,814.226536,-9400.615463,612.876398
790.862561,-444.123565,-9326.594869,76.609550
790.862885,-1776.494261,-9474.636058,-383.047749
790.863209,-2072.576638,-9474.636058,-306.438199
790.863533,-1480.411884,-9622.677246,-1149.143247
790.863857,-296.082377,-9474.636058,-766.095498
790.864181,1036.288319,-9474.636058,-229.828649
790.864505,1702.473667,-9400.615463,0.000000
790.864829,1628.453072,-9474.636058,0.000000
790.865153,888.247130,-9622.677246,-306.438199
790.865477,0.000000,-9992.780217,76.609550
790.865801,-962.267725,-9992.780217,0.000000
790.866126,-1924.535449,-10436.903782,-536.266849
790.866450,-2072.576638,-10288.862594,0.000000
790.866774,-1480.411884,-10066.800811,76.609550
790.867098,-444.123565,-9696.697840,995.924147
790.867422,1110.308913,-9696.697840,842.705048
790.867746,1998.556043,-9770.718434,-229.828649
790.868070,1554.432478,-9770.718434,383.047749
790.868394,296.082377,-9548.656652,0.000000
790.868718,-1036.288319,-9696.697840,-459.657299
790.869042,-1480.411884,-9770.718434,-995.924147
790.869367,-2146.597232,-9770.718434,-995.924147
790.869691,-1924.535449,-9548.656652,-1302.362347
790.870015,-888.247130,-9474.636058,-1149.143247
790.870339,888.247130,-9474.636058,-612.876398
790.870663,2664.741391,-9844.739029,-306.438199
790.870987,3330.926739,-10436.903782,0.000000
790.871311,2368.659014,-9770.718434,612.876398
790.871635,1480.411884,-9844.739029,229.828649
790.871959,296.082377,-10288.862594,76.609550
790.872283,-518.144159,-10436.903782,0.000000
790.872608,-1406.391290,-10510.924376,0.000000
790.872932,-1332.370696,-10362.883188,-153.219100
790.873256,-296.082377,-9622.677246,383.047749
790.873580,518.144159,-9474.636058,153.219100
790.873904,1406.391290,-9770.718434,76.609550
790.874228,222.061783,-9030.512492,-229.828649
790.874552,-370.102971,-9104.533087,-229.828649
790.874876,-1258.350101,-9474.636058,-383.047749
790.875200,-2072.576638,-9696.697840,-612.876398
790.875524,-2220.617826,-9178.553681,-995.924147
790.875848,-1924.535449,-9104.533087,-842.705048
790.876173,-370.102971,-9474.636058,-766.095498
790.876497,1480.411884,-9770.718434,0.000000
790.876821,2442.679609,-9770.718434,536.266849
790.877145,2220.617826,-9770.718434,0.000000
790.877469,1406.391290,-9696.697840,153.219100
790.877793,296.082377,-9474.636058,383.047749
790.878117,-814.226536,-9770.718434,383.047749
790.878441,-1406.391290,-9770.718434,919.314598
790.878765,-2442.679609,-9992.780217,153.219100
790.879089,-2072.576638,-9326.594869,0.000000
790.879414,-962.267725,-9178.553681,689.485948
790.879738,518.144159,-9252.574275,1149.143247
790.880062,1924.535449,-9326.594869,1149.143247
790.880386,1184.329507,-8882.471304,1072.533697
790.880710,-296.082377,-8734.430116,459.657299
790.881034,-1406.391290,-9474.636058,-153.219100
790.881358,-2146.597232,-10066.800811,-229.828649
790.881682,-2516.700203,-9770.718434,-306.438199
790.882006,-1924.535449,-9548.656652,-536.266849
790.882330,0.000000,-9326.594869,-383.047749
790.882654,2220.617826,-9252.574275,0.000000
790.882979,3182.885551,-10066.800811,689.485948
790.883303,3256.906145,-9696.697840,536.266849
790.883627,2368.659014,-9548.656652,459.657299
790.883951,888.247130,-9696.697840,153.219100
790.884275,222.061783,-9548.656652,0.000000
790.884599,-1036.288319,-9918.759623,0.000000
790.884923,-1776.494261,-10288.862594,-459.657299
790.885247,-1554.432478,-10140.821405,76.609550
790.885571,-296.082377,-9622.677246,229.828649
790.885895,740.205942,-9622.677246,306.438199
790.886220,888.247130,-9030.512492,612.876398
790.886544,592.164754,-9548.656652,76.609550
790.886868,-148.041188,-9844.739029,0.000000
790.887192,-1036.288319,-10140.821405,-383.047749
790.887516,-1702.473667,-9622.677246,-919.314598
790.887840,-1776.494261,-9696.697840,-1072.533697
790.888164,-888.247130,-9622.677246,-1149.143247
790.888488,74.020594,-9770.718434,-766.095498
790.888812,1332.370696,-9844.739029,-612.876398
790.889136,1628.453072,-10066.800811,-612.876398
790.889460,1850.514855,-9992.780217,-536.266849
790.889785,1332.370696,-9696.697840,-153.219100
790.890109,370.102971,-9770.718434,-306.438199
790.890433,-1036.288319,-10066.800811,-766.095498
790.890757,-1776.494261,-9992.780217,-459.657299
790.891081,-2368.659014,-9844.739029,-459.657299
790.891405,-2220.617826,-9326.594869,-536.266849
790.891729,-666.185348,-9178.553681,306.438199
790.892053,814.226536,-9400.615463,153.219100
790.892377,2220.617826,-9622.677246,612.876398
790.892701,1628.453072,-9622.677246,229.828649
790.893026,0.000000,-9474.636058,76.609550
790.893350,-1480.411884,-9696.697840,-536.266849
790.893674,-2146.597232,-9918.759623,-1149.143247
790.893998,-2294.638420,-10362.883188,-1225.752797
790.894322,-1702.473667,-10362.883188,-1302.362347
790.894646,-518.144159,-10066.800811,-1149.143247
790.894970,1332.370696,-9918.759623,-919.314598
790.895294,2220.617826,-9622.677246,-306.438199
790.895618,2886.803174,-9474.636058,0.000000
790.895942,2072.576638,-9326.594869,229.828649
790.896267,888.247130,-9844.739029,0.000000
790.896591,0.000000,-9992.780217,-153.219100
790.896915,-1110.308913,-9918.759623,0.000000
790.897239,-1406.391290,-9992.780217,306.438199
790.897563,-962.267725,-9622.677246,229.828649
790.897887,74.020594,-9326.594869,689.485948
790.898211,1702.473667,-9030.512492,1225.752797
790.898535,2368.659014,-9252.574275,842.705048
790.898859,1480.411884,-8882.471304,459.657299
790.899183,296.082377,-9178.553681,0.000000
790.899507,-962.267725,-9252.574275,-919.314598
790.899832,-1924.535449,-9104.533087,-459.657299
790.900156,-1850.514855,-9252.574275,-306.438199
790.900480,-1184.329507,-9252.574275,-459.657299
790.900804,-518.144159,-9252.574275,-229.828649
790.901128,1406.391290,-9474.636058,76.609550
790.901452,2072.576638,-9548.656652,229.828649
790.901776,1776.494261,-9844.739029,229.828649
790.902100,962.267725,-9992.780217,689.485948
790.902424,-222.061783,-10066.800811,459.657299
790.902748,-2146.597232,-10140.821405,0.000000
790.903073,-2516.700203,-10362.883188,0.000000
790.903397,-2516.700203,-10066.800811,-229.828649
790.903721,-2072.576638,-10288.862594,76.609550
790.904045,-888.247130,-9844.739029,536.266849
790.904369,296.082377,-9770.718434,612.876398
790.904693,1036.288319,-9770.718434,689.485948
790.905017,444.123565,-9918.759623,1072.533697
790.905341,-370.102971,-9844.739029,0.000000
790.905665,-1850.514855,-9548.656652,0.000000
790.905989,-2368.659014,-9992.780217,0.000000
790.906313,-2368.659014,-9918.759623,-612.876398
790.906638,-1628.453072,-9696.697840,-612.876398
790.906962,-444.123565,-9474.636058,-612.876398
790.907286,1036.288319,-9474.636058,536.266849
790.907610,2442.679609,-9696.697840,0.000000
790.907934,2516.700203,-9622.677246,383.047749
790.908258,2072.576638,-9474.636058,459.657299
790.908582,1110.308913,-9622.677246,153.219100
790.908906,370.102971,-9622.677246,0.000000
790.909230,-222.061783,-9400.615463,0.000000
790.909554,-1036.288319,-9548.656652,0.000000
790.909879,-1110.308913,-9400.615463,153.219100
790.910203,0.000000,-8734.430116,766.095498
790.910527,1554.432478,-9252.574275,919.314598
790.910851,2072.576638,-8660.409521,995.924147
790.911175,1554.432478,-9178.553681,383.047749
790.911499,296.082377,-9326.594869,306.438199
790.911823,-666.185348,-9400.615463,383.047749
790.912147,-1258.350101,-9696.697840,0.000000
790.912471,-2072.576638,-9548.656652,0.000000
790.912795,-1554.432478,-9844.739029,-306.438199
790.913120,-296.082377,-9622.677246,-383.047749
790.913444,1036.288319,-9770.718434,0.000000
790.913768,2146.597232,-9844.739029,0.000000
790.914092,2146.597232,-10066.800811,76.609550
790.914416,1406.391290,-9918.759623,0.000000
790.914740,518.144159,-10214.842000,-229.828649
790.915064,-518.144159,-10362.883188,0.000000
790.915388,-1850.514855,-9844.739029,-153.219100
790.915712,-2442.679609,-10214.842000,0.000000
790.916036,-1850.514855,-9992.780217,0.000000
790.916360,-296.082377,-9548.656652,612.876398
790.916685,1184.329507,-9474.636058,766.095498
790.917009,1628.453072,-9400.615463,1072.533697
790.917333,1036.288319,-9252.574275,153.219100
790.917657,0.000000,-9326.594869,-306.438199
790.917981,-1480.411884,-9548.656652,0.000000
790.918305,-2516.700203,-9696.697840,-919.314598
790.918629,-2516.700203,-9622.677246,-1455.581446
790.918953,-1628.453072,-9770.718434,-1149.143247
790.919277,148.041188,-9844.739029,-1072.533697
790.919601,2294.638420,-9918.759623,-153.219100
790.919926,2960.823768,-9474.636058,76.609550
790.920250,2960.823768,-9548.656652,-383.047749
790.920574,2220.617826,-9844.739029,-153.219100
790.920898,370.102971,-10066.800811,-459.657299
790.921222,-592.164754,-10214.842000,-459.657299
790.921546,-1406.391290,-10510.924376,-689.485948
790.921870,-1998.556043,-9770.718434,-1072.533697
790.922194,-1406.391290,-9770.718434,-229.828649
790.922518,-370.102971,-9104.533087,-153.219100
790.922842,1110.308913,-9474.636058,306.438199
790.923166,1332.370696,-9474.636058,306.438199
790.923491,1258.350101,-9400.615463,-153.219100
790.923815,222.061783,-9326.594869,-306.438199
790.924139,-814.226536,-9252.574275,-612.876398
790.924463,-1554.432478,-9548.656652,-1302.362347
790.924787,-1110.308913,-9474.636058,-306.438199
790.925111,-740.205942,-9474.636058,-1225.752797
790.925435,518.144159,-9770.718434,-689.485948
790.925759,1628.453072,-9770.718434,0.000000
790.926083,2664.741391,-9992.780217,0.000000
790.926407,2294.638420,-9770.718434,0.000000
790.926732,1110.308913,-9844.739029,-842.705048
790.927056,0.000000,-9844.739029,0.000000
790.927380,-1184.329507,-9770.718434,-306.438199
790.927704,-1332.370696,-9770.718434,0.000000
790.928028,-1850.514855,-9622.677246,0.000000
790.928352,-1332.370696,-9474.636058,0.000000
790.928676,0.000000,-9474.636058,689.485948
790.929000,1184.329507,-9400.615463,842.705048
790.929324,1776.494261,-9400.615463,536.266849
790.929648,888.247130,-9622.677246,383.047749
790.929972,-666.185348,-9548.656652,153.219100
790.930296,-1554.432478,-10066.800811,-306.438199
790.930620,-2146.597232,-9918.759623,-766.095498
790.930944,-1850.514855,-9844.739029,-612.876398
790.931268,-1480.411884,-9844.739029,-919.314598
790.931592,-222.061783,-9548.656652,0.000000
790.931916,1258.350101,-9178.553681,766.095498
790.932241,2590.720797,-9474.636058,689.485948
790.932565,2220.617826,-9400.615463,229.828649
790.932889,1184.329507,-9770.718434,459.657299
790.933213,296.082377,-10288.862594,306.438199
790.933537,-444.123565,-10214.842000,383.047749
790.933861,-1628.453072,-10214.842000,383.047749
790.934185,-2294.638420,-9918.759623,383.047749
790.934509,-1998.556043,-9992.780217,76.609550
790.934833,-1110.308913,-9474.636058,612.876398
790.935157,148.041188,-9474.636058,766.095498
790.935481,592.164754,-9400.615463,612.876398
790.935805,444.123565,-9252.574275,459.657299
790.936129,0.000000,-9252.574275,229.828649
790.936453,-814.226536,-9400.615463,76.609550
790.936777,-1628.453072,-9252.574275,-306.438199
790.937101,-1480.411884,-9326.594869,-383.047749
790.937425,-962.267725,-9622.677246,-229.828649
790.937750,444.123565,-9474.636058,229.828649
790.938074,1924.535449,-9548.656652,919.314598
790.938398,2442.679609,-9844.739029,689.485948
790.938722,2072.576638,-9770.718434,0.000000
790.939046,1036.288319,-9474.636058,1072.533697
790.939370,-296.082377,-9326.594869,-153.219100
790.939694,-1332.370696,-9548.656652,76.609550
790.940018,-2294.638420,-9474.636058,76.609550
790.940342,-2368.659014,-9474.636058,0.000000
790.940666,-1480.411884,-9326.594869,0.000000
790.940990,0.000000,-9178.553681,766.095498
790.941314,814.226536,-8956.491898,689.485948
790.941638,1480.411884,-8882.471304,1072.533697
790.941962,1554.432478,-9548.656652,919.314598
790.942286,0.000000,-9844.739029,842.705048
790.942610,-1258.350101,-9918.759623,229.828649
790.942934,-2220.617826,-10066.800811,-459.657299
790.943259,-2664.741391,-9918.759623,-919.314598
790.943583,-1924.535449,-9918.759623,-536.266849
790.943907,0.000000,-9474.636058,-383.047749
790.944231,1480.411884,-9474.636058,229.828649
790.944555,2812.782580,-9622.677246,383.047749
790.944879,2886.803174,-9696.697840,0.000000
790.945203,1554.432478,-9696.697840,0.000000
790.945527,592.164754,-10066.800811,-306.438199
790.945851,-296.082377,-10436.903782,-459.657299
790.946175,-1036.288319,-10140.821405,0.000000
790.946499,-1554.432478,-10288.862594,-459.657299
790.946823,-962.267725,-10658.965565,-459.657299
790.947147,0.000000,-9844.739029,229.828649
790.947471,1480.411884,-9696.697840,612.876398
790.947795,1628.453072,-9474.636058,306.438199
790.948119,888.247130,-9474.636058,-229.828649
790.948443,0.000000,-9474.636058,0.000000
790.948768,-962.267725,-9770.718434,-612.876398
790.949092,-1554.432478,-9696.697840,-1149.143247
790.949416,-888.247130,-9696.697840,-1225.752797
790.949740,-666.185348,-9696.697840,-995.924147
790.950064,518.144159,-9770.718434,-766.095498
790.950388,1924.535449,-9770.718434,-229.828649
790.950712,2442.679609,-10066.800811,-612.876398
790.951036,1998.556043,-9992.780217,-612.876398
790.951360,814.226536,-9844.739029,-536.266849
790.951684,74.020594,-10066.800811,-536.266849
790.952008,-888.247130,-9918.759623,-459.657299
790.952332,-1924.535449,-10066.800811,-459.657299
790.952656,-1998.556043,-9992.780217,-153.219100
790.952980,-1258.350101,-9622.677246,0.000000
790.953304,0.000000,-9326.594869,153.219100
790.953628,888.247130,-9252.574275,383.047749
790.953952,1110.308913,-9474.636058,0.000000
790.954277,666.185348,-9326.594869,0.000000
790.954601,-296.082377,-9474.636058,-383.047749
790.954925,-1332.370696,-10066.800811,-919.314598
790.955249,-1924.535449,-9918.759623,-1302.362347
790.955573,-2072.576638,-9844.739029,-1072.533697
790.955897,-1184.329507,-9474.636058,-1455.581446
790.956221,444.123565,-9474.636058,-842.705048
790.956545,1998.556043,-9474.636058,-229.828649
790.956869,2960.823768,-9992.780217,0.000000
790.957193,2664.741391,-9548.656652,459.657299
790.957517,1850.514855,-9696.697840,0.000000
790.957841,592.164754,-9992.780217,0.000000
790.958165,-518.144159,-10362.883188,-153.219100
790.958489,-1406.391290,-10362.883188,0.000000
790.958813,-1628.453072,-10140.821405,0.000000
790.959137,-1110.308913,-9696.697840,153.219100
790.959461,0.000000,-9252.574275,842.705048
790.959786,1480.411884,-9400.615463,1455.581446
790.960110,1554.432478,-9474.636058,995.924147
790.960434,740.205942,-9326.594869,842.705048
790.960758,-370.102971,-9548.656652,306.438199
790.961082,-1776.494261,-9622.677246,76.609550
790.961406,-2590.720797,-9918.759623,-153.219100
790.961730,-2368.659014,-9770.718434,-459.657299
790.962054,-1850.514855,-9622.677246,-612.876398
790.962378,-370.102971,-10066.800811,0.000000
790.962702,1036.288319,-9770.718434,383.047749
790.963026,1998.556043,-9992.780217,689.485948
790.963350,2072.576638,-9992.780217,842.705048
790.963674,1110.308913,-10066.800811,1149.143247
790.963998,0.000000,-9918.759623,612.876398
790.964322,-962.267725,-9992.780217,459.657299
790.964646,-1850.514855,-9844.739029,689.485948
790.964971,-2516.700203,-9474.636058,1149.143247
790.965295,-1480.411884,-9474.636058,919.314598
790.965619,0.000000,-8956.491898,1685.410096
790.965943,962.267725,-9030.512492,1685.410096
790.966267,962.267725,-8734.430116,1838.629195
790.966591,148.041188,-8882.471304,1149.143247
790.966915,-1110.308913,-8956.491898,689.485948
790.967239,-2146.597232,-8734.430116,153.219100
790.967563,-2664.741391,-8882.471304,-153.219100
790.967887,-2442.679609,-8734.430116,-153.219100
790.968211,-1776.494261,-8734.430116,0.000000
790.968535,0.000000,-9030.512492,383.047749
790.968859,1924.535449,-9400.615463,459.657299
790.969183,2664.741391,-9178.553681,612.876398
790.969507,2664.741391,-9178.553681,612.876398
790.969831,1776.494261,-9622.677246,766.095498
790.970155,666.185348,-10066.800811,153.219100
790.970480,-592.164754,-10288.862594,229.828649
790.970804,-1480.411884,-10584.944971,153.219100
790.971128,-1850.514855,-10362.883188,0.000000
790.971452,-888.247130,-9696.697840,459.657299
790.971776,222.061783,-9178.553681,689.485948
790.972100,1110.308913,-9622.677246,689.485948
790.972424,1702.473667,-9918.759623,459.657299
790.972748,518.144159,-9770.718434,-153.219100
790.973072,-814.226536,-9770.718434,-536.266849
790.973396,-1998.556043,-9844.739029,-766.095498
790.973720,-1924.535449,-9770.718434,-1225.752797
790.974044,-2368.659014,-9696.697840,-1149.143247
790.974368,-1110.308913,-9844.739029,-1149.143247
790.974692,0.000000,-10066.800811,-1149.143247
790.975016,1702.473667,-9992.780217,-842.705048
790.975340,2442.679609,-10214.842000,-689.485948
790.975664,2294.638420,-10066.800811,-919.314598
790.975989,1406.391290,-9770.718434,-459.657299
790.976313,0.000000,-9696.697840,-459.657299
790.976637,-444.123565,-10362.883188,-383.047749
790.976961,-1776.494261,-10140.821405,-919.314598
790.977285,-1702.473667,-9918.759623,-612.876398
790.977609,-1332.370696,-9548.656652,0.000000
790.977933,518.144159,-9474.636058,229.828649
790.978257,1406.391290,-9474.636058,229.828649
790.978581,1480.411884,-9178.553681,76.609550
790.978905,444.123565,-9104.533087,-459.657299
790.979229,-666.185348,-9326.594869,-689.485948
790.979553,-1924.535449,-9548.656652,-1302.362347
790.979877,-2368.659014,-9548.656652,-1378.971896
790.980201,-1850.514855,-9622.677246,-1532.190996
790.980525,-592.164754,-9548.656652,-919.314598
790.980849,814.226536,-9548.656652,-919.314598
790.981173,2072.576638,-9178.553681,-536.266849
790.981498,2886.803174,-9474.636058,229.828649
790.981822,2738.761985,-9548.656652,-383.047749
790.982146,1998.556043,-10066.800811,0.000000
790.982470,666.185348,-9918.759623,0.000000
790.982794,-444.123565,-10066.800811,0.000000
790.983118,-1628.453072,-10066.800811,383.047749
790.983442,-1480.411884,-9992.780217,0.000000
790.983766,-740.205942,-9770.718434,0.000000
790.984090,814.226536,-9252.574275,689.485948
790.984414,1554.432478,-9104.533087,612.876398
790.984738,1480.411884,-9104.533087,459.657299
790.985062,666.185348,-9030.512492,306.438199
790.985386,-666.185348,-9178.553681,0.000000
790.985710,-1480.411884,-9400.615463,-536.266849
790.986034,-2146.597232,-9400.615463,-766.095498
790.986358,-1850.514855,-9326.594869,-919.314598
790.986682,-962.267725,-9622.677246,-229.828649
790.987007,148.041188,-9622.677246,0.000000
790.987331,1628.453072,-9918.759623,459.657299
790.987655,2368.659014,-10066.800811,689.485948
790.987979,2072.576638,-9622.677246,459.657299
790.988303,1184.329507,-9622.677246,842.705048
790.988627,-444.123565,-9548.656652,612.876398
790.988951,-1628.453072,-9992.780217,383.047749
790.989275,-2368.659014,-10214.842000,306.438199
790.989599,-2368.659014,-10066.800811,153.219100
790.989923,-1702.473667,-9548.656652,306.438199
790.990247,-592.164754,-9474.636058,1072.533697
790.990571,296.082377,-9548.656652,919.314598
790.990895,518.144159,-9400.615463,153.219100
790.991219,-222.061783,-9548.656652,383.047749
790.991543,-1406.391290,-9770.718434,76.609550
790.991867,-2146.597232,-9770.718434,-229.828649
790.992191,-2368.659014,-9770.718434,-459.657299
790.992516,-2072.576638,-9844.739029,-229.828649
790.992840,-518.144159,-9844.739029,-229.828649
790.993164,888.247130,-9696.697840,0.000000
790.993488,2220.617826,-9252.574275,306.438199
790.993812,3034.844362,-9844.739029,0.000000
790.994136,2516.700203,-9770.718434,306.438199
790.994460,1776.494261,-10140.821405,306.438199
790.994784,592.164754,-10066.800811,383.047749
790.995108,-370.102971,-9918.759623,0.000000
790.995432,-962.267725,-9992.780217,383.047749
790.995756,-1332.370696,-9992.780217,0.000000
790.996080,-370.102971,-9770.718434,306.438199
790.996404,592.164754,-9252.574275,306.438199
790.996728,1258.350101,-9178.553681,766.095498
790.997052,1628.453072,-9030.512492,306.438199
790.997376,962.267725,-9104.533087,76.609550
790.997700,-222.061783,-9326.594869,76.609550
790.998025,-1110.308913,-9400.615463,-383.047749
790.998349,-1850.514855,-9326.594869,-1225.752797
790.998673,-1406.391290,-9178.553681,-689.485948
790.998997,-740.205942,-9474.636058,-766.095498
790.999321,592.164754,-9326.594869,-689.485948
790.999645,1776.494261,-9548.656652,0.000000
790.999969,2146.597232,-9770.718434,76.609550
791.000293,1998.556043,-9622.677246,-229.828649
791.000617,1036.288319,-9622.677246,0.000000
791.000941,74.020594,-9770.718434,0.000000
791.001265,-1332.370696,-9548.656652,-842.705048
791.001589,-2220.617826,-9844.739029,-383.047749
791.001913,-2220.617826,-9992.780217,-229.828649
791.002237,-1480.411884,-9696.697840,0.000000
791.002561,-296.082377,-9474.636058,689.485948
791.002885,962.267725,-9770.718434,229.828649
791.003209,1480.411884,-9844.739029,766.095498
791.003534,74.020594,-9770.718434,383.047749
791.003858,-1110.308913,-9770.718434,-383.047749
791.004182,-1628.453072,-10066.800811,-919.314598
791.004506,-2072.576638,-10140.821405,-1149.143247
791.004830,-1554.432478,-10140.821405,-1225.752797
791.005154,-814.226536,-9992.780217,-842.705048
791.005478,592.164754,-10066.800811,-842.705048
791.005802,1036.288319,-10066.800811,-612.876398
791.006126,2220.617826,-10288.862594,-1149.143247
791.006450,1702.473667,-10214.842000,-536.266849
791.006774,592.164754,-10436.903782,-229.828649
791.007098,-148.041188,-10510.924376,-459.657299
791.007422,-962.267725,-10510.924376,-153.219100
791.007746,-1332.370696,-9696.697840,-459.657299
791.008070,-1184.329507,-9622.677246,-383.047749
791.008394,-740.205942,-9548.656652,0.000000
791.008718,222.061783,-9104.533087,229.828649
791.009043,1110.308913,-8956.491898,459.657299
791.009367,1258.350101,-9030.512492,76.609550
791.009691,518.144159,-8882.471304,-153.219100
791.010015,-148.041188,-9030.512492,-612.876398
791.010339,-1258.350101,-9252.574275,-383.047749
791.010663,-1258.350101,-9104.533087,-766.095498
791.010987,-1184.329507,-9252.574275,-1378.971896
791.011311,-444.123565,-9474.636058,-919.314598
791.011635,592.164754,-9326.594869,-383.047749
791.011959,1776.494261,-9326.594869,153.219100
791.012283,2368.659014,-9178.553681,536.266849
791.012607,2368.659014,-9252.574275,383.047749
791.012931,1628.453072,-8660.409521,536.266849
791.013255,444.123565,-9104.533087,383.047749
791.013579,-888.247130,-9474.636058,383.047749
791.013903,-1924.535449,-9474.636058,76.609550
791.014227,-2220.617826,-9326.594869,0.000000
791.014552,-1480.411884,-9104.533087,153.219100
791.014876,-222.061783,-9252.574275,919.314598
791.015200,814.226536,-9104.533087,1225.752797
791.015524,740.205942,-9326.594869,229.828649
791.015848,0.000000,-9474.636058,229.828649
791.016172,-1110.308913,-9992.780217,0.000000
791.016496,-1554.432478,-9918.759623,-612.876398
791.016820,-2294.638420,-10066.800811,-919.314598
791.017144,-2072.576638,-10510.924376,-766.095498
791.017468,-592.164754,-10288.862594,-459.657299
791.017792,1406.391290,-10510.924376,689.485948
791.018116,2442.679609,-10436.903782,459.657299
791.018440,2664.741391,-10510.924376,306.438199
791.018764,1850.514855,-10436.903782,306.438199
791.019088,518.144159,-10436.903782,153.219100
791.019412,-814.226536,-10658.965565,229.828649
791.019736,-2072.576638,-10584.944971,0.000000
791.020061,-2368.659014,-10288.862594,-459.657299
791.020385,-2368.659014,-9770.718434,0.000000
791.020709,-1480.411884,-9844.739029,-459.657299
791.021033,0.000000,-9474.636058,459.657299
791.021357,1184.329507,-9474.636058,766.095498
791.021681,1480.411884,-9548.656652,612.876398
791.022005,888.247130,-9474.636058,612.876398
791.022329,0.000000,-9622.677246,842.705048
791.022653,-888.247130,-9474.636058,0.000000
791.022977,-888.247130,-9918.759623,-306.438199
791.023301,-1258.350101,-9918.759623,-612.876398
791.023625,-370.102971,-9474.636058,-459.657299
791.023949,962.267725,-9400.615463,-306.438199
791.024273,2072.576638,-9474.636058,76.609550
791.024597,2516.700203,-9178.553681,229.828649
791.024921,1628.453072,-9400.615463,0.000000
791.025245,592.164754,-9030.512492,383.047749
791.025570,-148.041188,-9326.594869,-536.266849
791.025894,-1110.308913,-9326.594869,153.219100
791.026218,-1628.453072,-9474.636058,153.219100
791.026542,-1480.411884,-9326.594869,306.438199
791.026866,-666.185348,-9400.615463,842.705048
791.027190,444.123565,-9326.594869,1302.362347
791.027514,1406.391290,-9252.574275,995.924147
791.027838,1036.288319,-9400.615463,689.485948
791.028162,-296.082377,-9178.553681,229.828649
791.028486,-1332.370696,-9474.636058,-306.438199
791.028810,-2146.597232,-9696.697840,-842.705048
791.029134,-2220.617826,-9622.677246,-766.095498
791.029458,-1850.514855,-9696.697840,-1302.362347
791.029782,-592.164754,-9474.636058,-995.924147
791.030106,814.226536,-9918.759623,-536.266849
791.030430,1850.514855,-9992.780217,-306.438199
791.030755,2368.659014,-10288.862594,0.000000
791.031079,1850.514855,-10214.842000,0.000000
791.031403,518.144159,-10510.924376,-383.047749
791.031727,-518.144159,-10658.965565,-306.438199
791.032051,-1628.453072,-10214.842000,-842.705048
791.032375,-2220.617826,-10066.800811,-1455.581446
791.032699,-1998.556043,-10140.821405,-919.314598
791.033023,-962.267725,-9696.697840,0.000000
791.033347,888.247130,-9622.677246,229.828649
791.033671,2146.597232,-9548.656652,459.657299
791.033996,2146.597232,-9474.636058,306.438199
791.034320,1406.391290,-9622.677246,612.876398
791.034644,-592.164754,-9474.636058,0.000000
791.034968,-1850.514855,-9622.677246,-306.438199
791.035292,-2368.659014,-9474.636058,-919.314598
791.035616,-2072.576638,-9844.739029,-995.924147
791.035940,-666.185348,-9918.759623,-995.924147
791.036264,888.247130,-9548.656652,-536.266849
791.036588,1998.556043,-9326.594869,-306.438199
791.036912,2368.659014,-9474.636058,-536.266849
791.037237,2368.659014,-9474.636058,153.219100
791.037561,1110.308913,-9622.677246,306.438199
791.037885,222.061783,-9622.677246,0.000000
791.038209,-962.267725,-9474.636058,0.000000
791.038533,-1406.391290,-9696.697840,0.000000
791.038857,-1184.329507,-9770.718434,229.828649
791.039181,-518.144159,-9548.656652,612.876398
791.039505,518.144159,-9474.636058,1302.362347
791.039829,1184.329507,-9030.512492,612.876398
791.040154,1184.329507,-9178.553681,995.924147
791.040478,0.000000,-8882.471304,153.219100
791.040802,-1332.370696,-9474.636058,-229.828649
791.041126,-2146.597232,-9696.697840,-766.095498
791.041450,-2516.700203,-8808.450710,-1455.581446
791.041774,-1998.556043,-9104.533087,-612.876398
791.042098,-370.102971,-9030.512492,-459.657299
791.042422,1258.350101,-9474.636058,-306.438199
791.042746,2368.659014,-9918.759623,229.828649
791.043070,2664.741391,-10214.842000,306.438199
791.043395,2294.638420,-10214.842000,459.657299
791.043719,666.185348,-10584.944971,306.438199
791.044043,0.000000,-10288.862594,383.047749
791.044367,-1036.288319,-10288.862594,-919.314598
791.044691,-1480.411884,-10436.903782,76.609550
791.045015,-1924.535449,-9844.739029,0.000000
791.045339,-962.267725,-9178.553681,383.047749
791.045663,370.102971,-9252.574275,459.657299
791.045987,1036.288319,-9178.553681,459.657299
791.046311,666.185348,-8734.430116,0.000000
791.046636,-296.082377,-9474.636058,153.219100
791.046960,-1036.288319,-9252.574275,-306.438199
791.047284,-1924.535449,-9252.574275,-689.485948
791.047608,-1850.514855,-9770.718434,-842.705048
791.047932,-1480.411884,-9918.759623,-766.095498
791.048256,-444.123565,-9696.697840,-536.266849
791.048580,1258.350101,-9844.739029,0.000000
791.048904,2368.659014,-9696.697840,0.000000
791.049228,3108.864956,-10066.800811,612.876398
791.049552,2146.597232,-9622.677246,536.266849
791.049877,814.226536,-9918.759623,306.438199
791.050201,-740.205942,-10214.842000,-229.828649
791.050525,-1924.535449,-10362.883188,-459.657299
791.050849,-2516.700203,-10288.862594,-306.438199
791.051173,-1924.535449,-9474.636058,-383.047749
791.051497,-814.226536,-9030.512492,0.000000
791.051821,370.102971,-9326.594869,612.876398
791.052145,1406.391290,-9178.553681,689.485948
791.052469,1480.411884,-9326.594869,459.657299
791.052793,518.144159,-9326.594869,383.047749
791.053118,-740.205942,-9548.656652,0.000000
791.053442,-1776.494261,-9548.656652,-536.266849
791.053766,-1554.432478,-9474.636058,-766.095498
791.054090,-1406.391290,-9548.656652,-153.219100
791.054414,0.000000,-9696.697840,-383.047749
791.054738,1628.453072,-9696.697840,153.219100
791.055062,2886.803174,-9844.739029,306.438199
791.055386,3108.864956,-9844.739029,153.219100
791.055710,2146.597232,-9474.636058,229.828649
791.056035,666.185348,-9622.677246,0.000000
791.056359,-592.164754,-9844.739029,76.609550
791.056683,-1036.288319,-9622.677246,383.047749
791.057007,-2220.617826,-9252.574275,-306.438199
791.057331,-1924.535449,-9548.656652,-612.876398
791.057655,-888.247130,-9474.636058,306.438199
791.057979,370.102971,-9474.636058,383.047749
791.058303,1110.308913,-9400.615463,766.095498
791.058627,1110.308913,-9474.636058,919.314598
791.058951,0.000000,-9696.697840,0.000000
791.059276,-1184.329507,-9844.739029,-153.219100
791.059600,-1924.535449,-9548.656652,-689.485948
791.059924,-2146.597232,-9696.697840,-842.705048
791.060248,-1702.473667,-9548.656652,-1072.533697
791.060572,-296.082377,-9770.718434,-1072.533697
791.060896,1110.308913,-9474.636058,0.000000
791.061220,2294.638420,-9548.656652,-459.657299
791.061544,2738.761985,-9992.780217,-306.438199
791.061868,1110.308913,-9844.739029,-383.047749
791.062192,74.020594,-10140.821405,-153.219100
791.062517,-888.247130,-10140.821405,-383.047749
791.062841,-1628.453072,-9992.780217,-459.657299
791.063165,-1924.535449,-10066.800811,-153.219100
791.063489,-1036.288319,-10214.842000,0.000000
791.063813,0.000000,-8882.471304,306.438199
791.064137,1110.308913,-9474.636058,842.705048
791.064461,1628.453072,-9622.677246,536.266849
791.064785,1110.308913,-9770.718434,383.047749
791.065109,74.020594,-9474.636058,459.657299
791.065433,-888.247130,-9622.677246,0.000000
791.065758,-1406.391290,-9696.697840,-306.438199
791.066082,-2072.576638,-9474.636058,-612.876398
791.066406,-1702.473667,-9844.739029,-1225.752797
791.066730,0.000000,-9622.677246,-919.314598
791.067054,1110.308913,-9326.594869,-536.266849
791.067378,2146.597232,-9326.594869,-383.047749
791.067702,2590.720797,-9548.656652,-306.438199
791.068026,2368.659014,-9844.739029,229.828649
791.068350,1406.391290,-9548.656652,229.828649
791.068675,444.123565,-9696.697840,153.219100
791.068999,-444.123565,-10288.862594,0.000000
791.069323,-1850.514855,-9770.718434,-306.438199
791.069647,-1850.514855,-10066.800811,-229.828649
791.069971,-740.205942,-9622.677246,229.828649
791.070295,518.144159,-9548.656652,612.876398
791.070619,1850.514855,-9548.656652,153.219100
791.070943,1554.432478,-9326.594869,76.609550
791.071267,592.164754,-9252.574275,0.000000
791.071591,-740.205942,-9178.553681,-689.485948
791.071916,-1702.473667,-9770.718434,-1378.971896
791.072240,-1998.556043,-9992.780217,-1225.752797
791.072564,-1332.370696,-9992.780217,-1225.752797
791.072888,-296.082377,-9622.677246,-766.095498
791.073212,1332.370696,-10066.800811,-229.828649
791.073536,2368.659014,-10436.903782,-153.219100
791.073860,2516.700203,-10436.903782,76.609550
791.074184,1628.453072,-9844.739029,536.266849
791.074508,444.123565,-9844.739029,383.047749
791.074832,-296.082377,-10140.821405,153.219100
791.075157,-1332.370696,-9844.739029,153.219100
791.075481,-1628.453072,-9844.739029,0.000000
791.075805,-1406.391290,-9622.677246,0.000000
791.076129,-518.144159,-9104.533087,0.000000
791.076453,666.185348,-9178.553681,689.485948
791.076777,888.247130,-9474.636058,766.095498
791.077101,740.205942,-9178.553681,153.219100
791.077425,-296.082377,-9104.533087,0.000000
791.077749,-1480.411884,-9622.677246,-383.047749
791.078073,-1702.473667,-9474.636058,-306.438199
791.078398,-2146.597232,-9252.574275,-306.438199
791.078722,-1776.494261,-9548.656652,-383.047749
791.079046,-592.164754,-9474.636058,-76.609550
791.079370,740.205942,-9696.697840,383.047749
791.079694,2072.576638,-9844.739029,612.876398
791.080018,2368.659014,-9844.739029,536.266849
791.080342,2072.576638,-9622.677246,459.657299
791.080666,666.185348,-9918.759623,536.266849
791.080990,-592.164754,-10066.800811,-383.047749
791.081314,-1332.370696,-10066.800811,536.266849
791.081639,-1850.514855,-10066.800811,-459.657299
791.081963,-1628.453072,-9770.718434,0.000000
791.082287,-592.164754,-9474.636058,229.828649
791.082611,740.205942,-9326.594869,612.876398
791.082935,1332.370696,-9178.553681,1149.143247
791.083259,1110.308913,-8660.409521,0.000000
791.083583,370.102971,-9178.553681,536.266849
791.083907,-296.082377,-9030.512492,76.609550
791.084231,-1184.329507,-9326.594869,-153.219100
791.084556,-1554.432478,-9326.594869,-383.047749
791.084880,-1184.329507,-9474.636058,-536.266849
791.085204,-444.123565,-9178.553681,-459.657299
791.085528,666.185348,-9474.636058,-229.828649
791.085852,2220.617826,-9474.636058,229.828649
791.086176,2590.720797,-9622.677246,0.000000
791.086500,1850.514855,-9770.718434,76.609550
791.086824,814.226536,-9918.759623,-383.047749
791.087148,-370.102971,-10140.821405,-383.047749
791.087472,-1406.391290,-10362.883188,-842.705048
791.087797,-1924.535449,-10140.821405,-459.657299
791.088121,-2072.576638,-10362.883188,-612.876398
791.088445,-1110.308913,-9548.656652,0.000000
791.088769,444.123565,-9770.718434,306.438199
791.089093,1480.411884,-9770.718434,383.047749
791.089417,1554.432478,-9918.759623,0.000000
791.089741,148.041188,-10214.842000,-229.828649
791.090065,-666.185348,-10436.903782,-612.876398
791.090389,-1628.453072,-9918.759623,-766.095498
791.090713,-2442.679609,-10066.800811,-1378.971896
791.091038,-2146.597232,-10288.862594,-1378.971896
791.091362,-962.267725,-10288.862594,-1378.971896
791.091686,814.226536,-9844.739029,-536.266849
791.092010,2220.617826,-9770.718434,-153.219100
791.092334,2812.782580,-9622.677246,0.000000
791.092658,1924.535449,-9770.718434,153.219100
791.092982,148.041188,-9622.677246,0.000000
791.093306,-666.185348,-9844.739029,-383.047749
791.093630,-1702.473667,-9474.636058,-383.047749
791.093954,-2368.659014,-9696.697840,-766.095498
791.094279,-1702.473667,-9548.656652,0.000000
791.094603,-592.164754,-9474.636058,306.438199
791.094927,666.185348,-9474.636058,459.657299
791.095251,1554.432478,-9104.533087,536.266849
791.095575,1184.329507,-9178.553681,459.657299
791.095899,0.000000,-8882.471304,306.438199
791.096223,-740.205942,-9252.574275,0.000000
791.096547,-1258.350101,-9548.656652,-612.876398
791.096871,-1702.473667,-9474.636058,-689.485948
791.097196,-1332.370696,-9770.718434,-766.095498
791.097520,296.082377,-9178.553681,-383.047749
791.097844,1554.432478,-8956.491898,0.000000
791.098168,2664.741391,-9400.615463,383.047749
791.098492,2738.761985,-9474.636058,612.876398
791.098816,2072.576638,-9474.636058,229.828649
791.099140,666.185348,-9696.697840,76.609550
791.099464,-518.144159,-9770.718434,-306.438199
791.099788,-1776.494261,-9400.615463,-536.266849
791.100112,-2294.638420,-9770.718434,-153.219100
791.100437,-2072.576638,-9400.615463,-459.657299
791.100761,-666.185348,-9326.594869,306.438199
791.101085,296.082377,-9326.594869,459.657299
791.101409,1480.411884,-9770.718434,689.485948
791.101733,1554.432478,-9918.759623,612.876398
791.102057,666.185348,-9918.759623,536.266849
791.102381,-296.082377,-10214.842000,459.657299
791.102705,-1332.370696,-9918.759623,153.219100
791.103029,-1628.453072,-10362.883188,-229.828649
791.103353,-1332.370696,-10066.800811,-995.924147
791.103678,-592.164754,-10140.821405,-689.485948
791.104002,592.164754,-10214.842000,-459.657299
791.104326,1628.453072,-10510.924376,-306.438199
791.104650,1924.535449,-10658.965565,-229.828649
791.104974,740.205942,-9622.677246,-612.876398
791.105298,74.020594,-9474.636058,-153.219100
791.105622,-296.082377,-9918.759623,-766.095498
791.105946,-1480.411884,-10214.842000,0.000000
791.106270,-1628.453072,-10214.842000,153.219100
791.106594,-1258.350101,-9992.780217,383.047749
791.106919,0.000000,-8808.450710,1225.752797
791.107243,1628.453072,-8882.471304,1532.190996
791.107567,1924.535449,-9178.553681,766.095498
791.107891,1332.370696,-9400.615463,536.266849
791.108215,296.082377,-9400.615463,536.266849
791.108539,-1406.391290,-9474.636058,-306.438199
791.108863,-2146.597232,-9326.594869,-612.876398
791.109187,-2664.741391,-9178.553681,-842.705048
791.109511,-2072.576638,-9104.533087,-995.924147
791.109835,-444.123565,-9252.574275,-229.828649
791.110160,1480.411884,-9400.615463,76.609550
791.110484,3108.864956,-9474.636058,306.438199
791.110808,2960.823768,-9326.594869,536.266849
791.111132,2220.617826,-9252.574275,383.047749
791.111456,962.267725,-9992.780217,536.266849
791.111780,-518.144159,-10066.800811,76.609550
791.112104,-1554.432478,-10140.821405,-306.438199
791.112428,-2072.576638,-9844.739029,689.485948
791.112752,-1628.453072,-9178.553681,306.438199
791.113077,0.000000,-9252.574275,383.047749
791.113401,1406.391290,-9400.615463,612.876398
791.113725,1702.473667,-9400.615463,536.266849
791.114049,1258.350101,-9252.574275,229.828649
791.114373,74.020594,-8956.491898,0.000000
791.114697,-814.226536,-9474.636058,-383.047749
791.115021,-1628.453072,-9326.594869,-995.924147
791.115345,-1850.514855,-9622.677246,-1608.800546
791.115669,-1628.453072,-10066.800811,-1378.971896
791.115993,-296.082377,-10362.883188,-1072.533697
791.116318,1554.432478,-10066.800811,-383.047749
791.116642,2590.720797,-10140.821405,0.000000
791.116966,2368.659014,-10066.800811,0.000000
791.117290,1332.370696,-9770.718434,153.219100
791.117614,444.123565,-10214.842000,-229.828649
791.117938,-814.226536,-10288.862594,-383.047749
791.118262,-1776.494261,-10362.883188,-689.485948
791.118586,-2220.617826,-10214.842000,-459.657299
791.118910,-1628.453072,-9918.759623,-689.485948
791.119234,-814.226536,-9696.697840,459.657299
791.119559,296.082377,-9770.718434,-153.219100
791.119883,1036.288319,-10140.821405,76.609550
791.120207,296.082377,-9474.636058,76.609550
791.120531,-370.102971,-9696.697840,-153.219100
791.120855,-1184.329507,-10140.821405,-842.705048
791.121179,-1850.514855,-9844.739029,-766.095498
791.121503,-1850.514855,-9844.739029,-1072.533697
791.121827,-814.226536,-9622.677246,-689.485948
791.122151,296.082377,-9400.615463,-612.876398
791.122475,2294.638420,-9548.656652,0.000000
791.122800,2960.823768,-9844.739029,153.219100
791.123124,2812.782580,-9844.739029,0.000000
791.123448,1924.535449,-9696.697840,0.000000
791.123772,666.185348,-9696.697840,-153.219100
791.124096,-296.082377,-9918.759623,-229.828649
791.124420,-1702.473667,-9548.656652,-153.219100
791.124744,-2072.576638,-9252.574275,383.047749
791.125068,-1110.308913,-8956.491898,-306.438199
791.125392,-148.041188,-8882.471304,689.485948
791.125717,962.267725,-9030.512492,1072.533697
791.126041,1702.473667,-9030.512492,919.314598
791.126365,1258.350101,-9030.512492,536.266849
791.126689,222.061783,-9178.553681,536.266849
791.127013,-1036.288319,-9252.574275,76.609550
791.127337,-2368.659014,-9400.615463,-153.219100
791.127661,-2960.823768,-9474.636058,-612.876398
791.127985,-1554.432478,-9770.718434,-1072.533697
791.128309,0.000000,-9474.636058,-536.266849
791.128633,1776.494261,-9770.718434,0.000000
791.128958,3108.864956,-9918.759623,76.609550
791.129282,2738.761985,-9622.677246,689.485948
791.129606,1924.535449,-9770.718434,536.266849
791.129930,592.164754,-9918.759623,306.438199
791.130254,-888.247130,-9770.718434,0.000000
791.130578,-1776.494261,-9844.739029,76.609550
791.130902,-2072.576638,-10140.821405,153.219100
791.131226,-1776.494261,-10066.800811,306.438199
791.131551,0.000000,-9474.636058,459.657299
791.131875,296.082377,-9104.533087,612.876398
791.132199,518.144159,-9104.533087,76.609550
791.132523,74.020594,-9104.533087,229.828649
791.132847,-666.185348,-9622.677246,0.000000
791.133172,-1406.391290,-9770.718434,-306.438199
791.133496,-2146.597232,-9770.718434,-612.876398
791.133820,-2220.617826,-9696.697840,-766.095498
791.134144,-1184.329507,-10066.800811,-919.314598
791.134468,-222.061783,-9918.759623,-612.876398
791.134793,2368.659014,-10362.883188,-153.219100
791.135117,2886.803174,-10214.842000,229.828649
791.135441,3034.844362,-9992.780217,76.609550
791.135765,1554.432478,-9844.739029,229.828649
791.136089,296.082377,-10066.800811,-76.609550
791.136414,-962.267725,-9548.656652,-536.266849
791.136738,-1702.473667,-9474.636058,-689.485948
791.137062,-1850.514855,-9844.739029,-459.657299
791.137386,-1628.453072,-9474.636058,-383.047749
791.137710,-148.041188,-9400.615463,306.438199
791.138035,962.267725,-9326.594869,612.876398
791.138359,1480.411884,-9400.615463,459.657299
791.138683,1332.370696,-9844.739029,306.438199
791.139007,370.102971,-9548.656652,383.047749
791.139331,-370.102971,-9770.718434,153.219100
791.139656,-1036.288319,-10140.821405,0.000000
791.139980,-1184.329507,-9770.718434,-1225.752797
791.140304,-666.185348,-9992.780217,-842.705048
791.140628,444.123565,-9770.718434,-689.485948
791.140952,1776.494261,-9844.739029,-383.047749
791.141277,2886.803174,-9918.759623,-306.438199
791.141601,2516.700203,-9548.656652,153.219100
791.141925,1258.350101,-9400.615463,306.438199
791.142249,370.102971,-9696.697840,0.000000
791.142573,-222.061783,-9770.718434,0.000000
791.142898,-1184.329507,-9474.636058,0.000000
791.143222,-1702.473667,-9770.718434,0.000000
791.143546,-1332.370696,-9474.636058,0.000000
791.143870,-222.061783,-8660.409521,995.924147
791.144194,592.164754,-8808.450710,1072.533697
791.144519,1184.329507,-8956.491898,76.609550
791.144843,222.061783,-8956.491898,-229.828649
791.145167,-592.164754,-9030.512492,-306.438199
791.145491,-1406.391290,-9474.636058,-306.438199
791.145815,-1776.494261,-9770.718434,-689.485948
791.146140,-2072.576638,-10066.800811,-995.924147
791.146464,-2220.617826,-9844.739029,-842.705048
791.146788,-592.164754,-9918.759623,-689.485948
791.147112,1332.370696,-9992.780217,-459.657299
791.147436,2368.659014,-10510.924376,0.000000
791.147761,1998.556043,-10436.903782,-153.219100
791.148085,1332.370696,-10584.944971,0.000000
791.148409,148.041188,-10436.903782,-612.876398
791.148733,-888.247130,-10140.821405,-153.219100
791.149057,-2146.597232,-10288.862594,-306.438199
791.149382,-2146.597232,-10214.842000,0.000000
791.149706,-1776.494261,-10140.821405,0.000000
791.150030,-666.185348,-9474.636058,612.876398
791.150354,888.247130,-9548.656652,919.314598
791.150678,1702.473667,-9474.636058,536.266849
791.151003,1628.453072,-9030.512492,459.657299
791.151327,370.102971,-8734.430116,229.828649
791.151651,-592.164754,-9400.615463,76.609550
791.151975,-1554.432478,-9474.636058,-1225.752797
791.152299,-1850.514855,-9252.574275,-919.314598
791.152624,-1036.288319,-9252.574275,-842.705048
791.152948,370.102971,-9400.615463,-919.314598
791.153272,1924.535449,-9474.636058,76.609550
791.153596,2886.803174,-9326.594869,153.219100
791.153920,2886.803174,-9918.759623,689.485948
791.154245,1850.514855,-9770.718434,612.876398
791.154569,518.144159,-9992.780217,536.266849
791.154893,-296.082377,-9992.780217,153.219100
791.155217,-1554.432478,-10066.800811,383.047749
791.155541,-2146.597232,-10288.862594,383.047749
791.155866,-1480.411884,-9992.780217,0.000000
791.156190,-370.102971,-9474.636058,459.657299
791.156514,370.102971,-8956.491898,612.876398
791.156838,888.247130,-9326.594869,459.657299
791.157162,74.020594,-9104.533087,153.219100
791.157487,-1110.308913,-9400.615463,153.219100
791.157811,-2072.576638,-9622.677246,-306.438199
791.158135,-2590.720797,-9178.553681,-459.657299
791.158459,-2368.659014,-9178.553681,-536.266849
791.158783,-1628.453072,-9474.636058,-766.095498
791.159108,222.061783,-9474.636058,-229.828649
791.159432,1776.494261,-9844.739029,229.828649
791.159756,2442.679609,-9844.739029,612.876398
791.160080,2368.659014,-9548.656652,766.095498
791.160404,1702.473667,-9844.739029,919.314598
791.160729,592.164754,-10288.862594,612.876398
791.161053,-1702.473667,-9770.718434,0.000000
791.161377,-2590.720797,-9770.718434,306.438199
791.161701,-2516.700203,-9548.656652,0.000000
791.162025,-1776.494261,-9770.718434,229.828649
791.162350,-518.144159,-9548.656652,919.314598
791.162674,1036.288319,-9474.636058,766.095498
791.162998,1184.329507,-9326.594869,766.095498
791.163322,888.247130,-9474.636058,536.266849
791.163646,-370.102971,-10066.800811,612.876398
791.163971,-740.205942,-9992.780217,0.000000
791.164295,-1110.308913,-9252.574275,-919.314598
791.164619,-888.247130,-9770.718434,-1072.533697
791.164943,0.000000,-9918.759623,-1149.143247
791.165267,1332.370696,-9918.759623,-689.485948
791.165592,2590.720797,-9696.697840,-153.219100
791.165916,2960.823768,-9770.718434,-459.657299
791.166240,3034.844362,-10288.862594,-612.876398
791.166564,1702.473667,-10066.800811,0.000000
791.166888,592.164754,-10214.842000,-229.828649
791.167213,-296.082377,-10140.821405,-383.047749
791.167537,-1184.329507,-10288.862594,-383.047749
791.167861,-1554.432478,-10066.800811,-459.657299
791.168185,-888.247130,-9400.615463,-459.657299
791.168509,370.102971,-8512.368333,306.438199
791.168834,1554.432478,-9474.636058,0.000000
791.169158,1036.288319,-9474.636058,-459.657299
791.169482,0.000000,-9474.636058,-612.876398
791.169806,-1258.350101,-9548.656652,-766.095498
791.170130,-2072.576638,-9844.739029,-1302.362347
791.170455,-2368.659014,-9622.677246,-1072.533697
791.170779,-2442.679609,-9548.656652,-1532.190996
791.171103,-1332.370696,-9844.739029,-1225.752797
791.171427,222.061783,-9548.656652,-612.876398
791.171751,1998.556043,-9770.718434,-153.219100
791.172076,2664.741391,-9622.677246,0.000000
791.172400,2294.638420,-9770.718434,0.000000
791.172724,962.267725,-9696.697840,76.609550
791.173048,0.000000,-9844.739029,-306.438199
791.173372,-1036.288319,-9918.759623,-612.876398
791.173697,-2146.597232,-9918.759623,-306.438199
791.174021,-2146.597232,-10140.821405,-536.266849
791.174345,-1554.432478,-9548.656652,-306.438199
791.174669,-518.144159,-9400.615463,153.219100
791.174993,888.247130,-9770.718434,383.047749
791.175318,1480.411884,-10066.800811,153.219100
791.175642,1184.329507,-9918.759623,459.657299
791.175966,0.000000,-9474.636058,459.657299
791.176290,-888.247130,-9474.636058,-919.314598
791.176614,-1702.473667,-9696.697840,-995.924147
791.176939,-2294.638420,-9844.739029,-1225.752797
791.177263,-1480.411884,-10066.800811,-1225.752797
791.177587,74.020594,-9844.739029,-383.047749
791.177911,1258.350101,-9696.697840,-153.219100
791.178235,2442.679609,-9696.697840,-306.438199
791.178560,2294.638420,-9474.636058,76.609550
791.178884,1702.473667,-9918.759623,612.876398
791.179208,962.267725,-10140.821405,459.657299
791.179532,0.000000,-9918.759623,766.095498
791.179856,-962.267725,-9770.718434,306.438199
791.180181,-1702.473667,-9770.718434,536.266849
791.180505,-1480.411884,-9326.594869,689.485948
791.180829,148.041188,-9400.615463,1378.971896
791.181153,888.247130,-9104.533087,1072.533697
791.181477,666.185348,-9104.533087,459.657299
791.181802,-222.061783,-8956.491898,153.219100
791.182126,-1184.329507,-9104.533087,0.000000
791.182450,-1998.556043,-9770.718434,-229.828649
791.182774,-1998.556043,-9474.636058,-306.438199
791.183098,-1776.494261,-9400.615463,-153.219100
791.183423,-962.267725,-9622.677246,0.000000
791.183747,888.247130,-9844.739029,76.609550
791.184071,2516.700203,-9844.739029,842.705048
791.184395,3330.926739,-9918.759623,995.924147
791.184719,2960.823768,-10066.800811,1302.362347
791.185044,1628.453072,-9992.780217,919.314598
791.185368,0.000000,-10066.800811,0.000000
791.185692,-2072.576638,-10140.821405,383.047749
791.186016,-3108.864956,-9992.780217,-766.095498
791.186340,-3256.906145,-9770.718434,-383.047749
791.186665,-2368.659014,-9326.594869,0.000000
791.186989,-666.185348,-9104.533087,689.485948
791.187313,1036.288319,-9252.574275,766.095498
791.187637,1628.453072,-8956.491898,919.314598
791.187961,1036.288319,-8586.388927,612.876398
791.188286,74.020594,-9326.594869,153.219100
791.188610,-1184.329507,-9622.677246,0.000000
791.188934,-1924.535449,-10140.821405,-612.876398
791.189258,-1924.535449,-10288.862594,-459.657299
791.189582,-1110.308913,-9918.759623,-919.314598
791.189907,370.102971,-9918.759623,-1072.533697
791.190231,2220.617826,-10214.842000,0.000000
791.190555,2960.823768,-10288.862594,-306.438199
791.190879,2442.679609,-9696.697840,0.000000
791.191203,1628.453072,-9696.697840,0.000000
791.191528,592.164754,-9844.739029,-229.828649
791.191852,-370.102971,-9992.780217,-383.047749
791.192176,-1258.350101,-10066.800811,-306.438199
791.192500,-1110.308913,-9770.718434,-383.047749
791.192824,-962.267725,-8956.491898,0.000000
791.193149,370.102971,-9104.533087,0.000000
791.193473,1184.329507,-9474.636058,536.266849
791.193797,1110.308913,-9622.677246,0.000000
791.194121,296.082377,-9400.615463,0.000000
791.194445,-814.226536,-9474.636058,-229.828649
791.194770,-1628.453072,-9696.697840,-766.095498
791.195094,-1776.494261,-9474.636058,-612.876398
791.195418,-1258.350101,-9548.656652,-766.095498
791.195742,-370.102971,-9548.656652,-383.047749
791.196066,1110.308913,-9696.697840,-612.876398
791.196391,2442.679609,-9696.697840,0.000000
791.196715,2960.823768,-9918.759623,0.000000
791.197039,2220.617826,-9844.739029,0.000000
791.197363,962.267725,-9622.677246,0.000000
791.197687,-222.061783,-9696.697840,-229.828649
791.198012,-1332.370696,-9992.780217,-995.924147
791.198336,-2738.761985,-9770.718434,-766.095498
791.198660,-2738.761985,-9696.697840,-612.876398
791.198984,-1554.432478,-9400.615463,-459.657299
791.199308,0.000000,-9030.512492,306.438199
791.199633,1110.308913,-9252.574275,459.657299
791.199957,1480.411884,-9178.553681,0.000000
791.200281,444.123565,-9326.594869,-383.047749
791.200605,-962.267725,-9696.697840,0.000000
791.200929,-1776.494261,-10436.903782,-995.924147
791.201254,-2590.720797,-10214.842000,-1302.362347
791.201578,-2368.659014,-9992.780217,-1225.752797
791.201902,-1332.370696,-10288.862594,-1302.362347
791.202226,222.061783,-10214.842000,-766.095498
791.202550,1998.556043,-10288.862594,-306.438199
791.202875,2590.720797,-10066.800811,-306.438199
791.203199,2294.638420,-9844.739029,229.828649
791.203523,1554.432478,-9548.656652,0.000000
791.203847,518.144159,-9844.739029,-229.828649
791.204171,-296.082377,-10140.821405,-383.047749
791.204496,-1406.391290,-9696.697840,-383.047749
791.204820,-1110.308913,-9770.718434,-459.657299
791.205144,-592.164754,-9474.636058,-459.657299
791.205468,444.123565,-9474.636058,229.828649
791.205792,1406.391290,-9326.594869,689.485948
791.206117,1554.432478,-9474.636058,459.657299
791.206441,592.164754,-9400.615463,306.438199
791.206765,-666.185348,-9844.739029,0.000000
791.207089,-1480.411884,-9918.759623,-689.485948
791.207413,-2146.597232,-9770.718434,-612.876398
791.207738,-1924.535449,-9770.718434,-306.438199
791.208062,-740.205942,-9844.739029,0.000000
791.208386,518.144159,-9696.697840,153.219100
791.208710,1998.556043,-9844.739029,153.219100
791.209034,2368.659014,-9992.780217,153.219100
791.209359,1628.453072,-9844.739029,0.000000
791.209683,222.061783,-9622.677246,229.828649
791.210007,-740.205942,-9844.739029,76.609550
791.210331,-1406.391290,-9548.656652,76.609550
791.210655,-1924.535449,-9400.615463,229.828649
791.210980,-2368.659014,-9326.594869,306.438199
791.211304,-1480.411884,-9030.512492,842.705048
791.211628,148.041188,-8808.450710,1532.190996
791.211952,1628.453072,-9030.512492,1532.190996
791.212276,1850.514855,-8808.450710,1532.190996
791.212601,592.164754,-8956.491898,1302.362347
791.212925,-592.164754,-9252.574275,306.438199
791.213249,-1702.473667,-9252.574275,0.000000
791.213573,-2146.597232,-9548.656652,-383.047749
791.213897,-2294.638420,-9548.656652,-689.485948
791.214222,-1110.308913,-9548.656652,-612.876398
791.214546,444.123565,-9548.656652,-383.047749
791.214870,2368.659014,-9770.718434,612.876398
791.215194,2368.659014,-9548.656652,-229.828649
791.215518,2146.597232,-9844.739029,536.266849
791.215843,1332.370696,-10362.883188,536.266849
791.216167,74.020594,-10066.800811,536.266849
791.216491,-518.144159,-10288.862594,383.047749
791.216815,-1406.391290,-10362.883188,229.828649
791.217139,-1628.453072,-9992.780217,536.266849
791.217464,-740.205942,-9474.636058,0.000000
791.217788,592.164754,-9252.574275,995.924147
791.218112,1332.370696,-9400.615463,689.485948
791.218436,1332.370696,-9252.574275,229.828649
791.218760,740.205942,-9400.615463,0.000000
791.219085,-370.102971,-9622.677246,-459.657299
791.219409,-1332.370696,-9548.656652,-766.095498
791.219733,-1850.514855,-9622.677246,-919.314598
791.220057,-1998.556043,-9696.697840,-1455.581446
791.220381,-444.123565,-9770.718434,-612.876398
791.220706,888.247130,-9918.759623,-306.438199
791.221030,2294.638420,-9992.780217,0.000000
791.221354,2886.803174,-10362.883188,0.000000
791.221678,2294.638420,-9844.739029,-229.828649
791.222002,1258.350101,-9622.677246,383.047749
791.222327,-666.185348,-9474.636058,-306.438199
791.222651,-888.247130,-9918.759623,-229.828649
791.222975,-1924.535449,-10362.883188,-689.485948
791.223299,-2368.659014,-9918.759623,-536.266849
791.223623,-1332.370696,-9548.656652,-383.047749
791.223948,0.000000,-9474.636058,0.000000
791.224272,1480.411884,-9474.636058,153.219100
791.224596,1924.535449,-9548.656652,229.828649
791.224920,666.185348,-9474.636058,76.609550
791.225244,-888.247130,-9474.636058,-229.828649
791.225569,-1628.453072,-9548.656652,-612.876398
791.225893,-2220.617826,-9474.636058,-995.924147
791.226217,-1776.494261,-9548.656652,-1149.143247
791.226541,-814.226536,-9326.594869,-995.924147
791.226865,666.185348,-9548.656652,-536.266849
791.227190,2442.679609,-10066.800811,306.438199
791.227514,2886.803174,-9770.718434,383.047749
791.227838,1924.535449,-9696.697840,0.000000
791.228162,814.226536,-9844.739029,0.000000
791.228486,-222.061783,-9918.759623,-306.438199
791.228811,-1036.288319,-9622.677246,0.000000
791.229135,-1702.473667,-9548.656652,-383.047749
791.229459,-1554.432478,-9400.615463,-306.438199
791.229783,-666.185348,-9326.594869,-229.828649
791.230107,592.164754,-9252.574275,766.095498
791.230432,962.267725,-9178.553681,383.047749
791.230756,814.226536,-9326.594869,383.047749
791.231080,148.041188,-9252.574275,229.828649
791.231404,-814.226536,-9474.636058,229.828649
791.231728,-1702.473667,-9178.553681,-229.828649
791.232053,-1924.535449,-9326.594869,0.000000
791.232377,-1702.473667,-9696.697840,-842.705048
791.232701,-1258.350101,-9770.718434,-612.876398
791.233025,518.144159,-9696.697840,0.000000
791.233349,2146.597232,-9770.718434,383.047749
791.233673,2442.679609,-9844.739029,383.047749
791.233998,2294.638420,-9770.718434,459.657299
791.234322,1406.391290,-9918.759623,306.438199
791.234646,0.000000,-9918.759623,-229.828649
791.234970,-962.267725,-9992.780217,0.000000
791.235294,-1850.514855,-10066.800811,0.000000
791.235619,-1776.494261,-9844.739029,0.000000
791.235943,-1110.308913,-9770.718434,153.219100
791.236267,74.020594,-9548.656652,689.485948
791.236591,1480.411884,-10288.862594,919.314598
791.236915,1628.453072,-9770.718434,689.485948
791.237240,740.205942,-9548.656652,689.485948
791.237564,-740.205942,-9548.656652,459.657299
791.237888,-1850.514855,-9844.739029,-229.828649
791.238212,-2368.659014,-9918.759623,-459.657299
791.238536,-1924.535449,-9770.718434,-995.924147
791.238861,-592.164754,-9844.739029,-1378.971896
791.239185,1258.350101,-9400.615463,153.219100
791.239509,2590.720797,-9474.636058,153.219100
791.239833,3701.029710,-9696.697840,153.219100
791.240157,2516.700203,-9548.656652,76.609550
791.240482,1332.370696,-9622.677246,0.000000
791.240806,148.041188,-9622.677246,0.000000
791.241130,-370.102971,-9770.718434,0.000000
791.241454,-888.247130,-10066.800811,0.000000
791.241778,-1554.432478,-9548.656652,306.438199
791.242103,-1702.473667,-8882.471304,-153.219100
791.242427,-666.185348,-9030.512492,536.266849
791.242751,370.102971,-9326.594869,842.705048
791.243075,444.123565,-9326.594869,459.657299
791.243399,-370.102971,-9178.553681,306.438199
791.243723,-1184.329507,-9178.553681,0.000000
791.244048,-1776.494261,-9474.636058,0.000000
791.244372,-1850.514855,-9548.656652,0.000000
791.244696,-2294.638420,-9474.636058,-842.705048
791.245020,-1110.308913,-9622.677246,-612.876398
791.245344,296.082377,-9770.718434,-383.047749
791.245669,1850.514855,-10140.821405,0.000000
791.245993,2516.700203,-10436.903782,-153.219100
791.246317,1554.432478,-10214.842000,-153.219100
791.246641,74.020594,-10288.862594,-76.609550
791.246965,-592.164754,-9622.677246,-459.657299
791.247290,-1554.432478,-9696.697840,-459.657299
791.247614,-2220.617826,-10066.800811,-306.438199
791.247938,-2146.597232,-10140.821405,0.000000
791.248262,-666.185348,-9474.636058,689.485948
791.248586,592.164754,-9178.553681,1532.190996
791.248911,1850.514855,-9326.594869,995.924147
791.249235,1702.473667,-9696.697840,1149.143247
791.249559,814.226536,-9844.739029,459.657299
791.249883,-962.267725,-9696.697840,0.000000
791.250207,-2294.638420,-9770.718434,-919.314598
791.250532,-2960.823768,-9696.697840,-1302.362347
791.250856,-2368.659014,-9622.677246,-1532.190996
791.251180,-814.226536,-9918.759623,-1378.971896
791.251504,1258.350101,-9326.594869,-689.485948
791.251828,2590.720797,-9918.759623,0.000000
791.252153,3627.009116,-10140.821405,76.609550
791.252477,3627.009116,-9844.739029,919.314598
791.252801,2368.659014,-9844.739029,459.657299
791.253125,1258.350101,-10214.842000,229.828649
791.253449,222.061783,-10362.883188,383.047749
791.253773,-888.247130,-10510.924376,229.828649
791.254098,-814.226536,-10362.883188,229.828649
791.254422,-370.102971,-9252.574275,0.000000
791.254746,370.102971,-9252.574275,459.657299
791.255070,888.247130,-9030.512492,459.657299
791.255394,1184.329507,-9030.512492,76.609550
791.255719,148.041188,-8882.471304,-383.047749
791.256043,-1036.288319,-9030.512492,-306.438199
791.256367,-2220.617826,-8808.450710,-766.095498
791.256691,-2516.700203,-8364.327145,-229.828649
791.257015,-1258.350101,-9400.615463,-1608.800546
791.257340,-518.144159,-9104.533087,-1072.533697
791.257664,1184.329507,-9622.677246,-689.485948
791.257988,2442.679609,-9844.739029,0.000000
791.258312,2738.761985,-9992.780217,-229.828649
791.258636,1776.494261,-9770.718434,-459.657299
791.258961,444.123565,-9992.780217,0.000000
791.259285,-370.102971,-9622.677246,-766.095498
791.259609,-1628.453072,-9844.739029,-459.657299
791.259933,-2368.659014,-10140.821405,-1072.533697
791.260257,-2442.679609,-10140.821405,-383.047749
791.260582,-1332.370696,-9622.677246,153.219100
791.260906,0.000000,-9474.636058,536.266849
791.261230,888.247130,-9548.656652,766.095498
791.261554,888.247130,-9918.759623,383.047749
791.261878,74.020594,-9844.739029,76.609550
791.262203,-1110.308913,-9622.677246,-153.219100
791.262527,-2220.617826,-9474.636058,-919.314598
791.262851,-2812.782580,-9992.780217,-1072.533697
791.263175,-2294.638420,-10288.862594,-1225.752797
791.263499,-1110.308913,-9992.780217,-1149.143247
791.263823,518.144159,-9696.697840,-383.047749
791.264148,2220.617826,-10214.842000,229.828649
791.264472,3034.844362,-10732.986159,153.219100
791.264796,2960.823768,-9992.780217,689.485948
791.265120,1998.556043,-10288.862594,536.266849
791.265444,888.247130,-10436.903782,459.657299
791.265769,-296.082377,-10140.821405,459.657299
791.266093,-1184.329507,-10066.800811,0.000000
791.266417,-1554.432478,-9474.636058,306.438199
791.266741,-518.144159,-9326.594869,1378.971896
791.267065,296.082377,-8586.388927,995.924147
791.267390,1258.350101,-9030.512492,842.705048
791.267714,1110.308913,-8512.368333,536.266849
791.268038,148.041188,-8512.368333,153.219100
791.268362,-1332.370696,-8734.430116,0.000000
791.268686,-1776.494261,-9030.512492,-459.657299
791.269011,-1924.535449,-8956.491898,-459.657299
791.269335,-1998.556043,-8586.388927,-306.438199
791.269659,-1184.329507,-8808.450710,-689.485948
791.269983,962.267725,-9474.636058,0.000000
791.270307,2368.659014,-9622.677246,229.828649
791.270632,2738.761985,-9548.656652,76.609550
791.270956,1628.453072,-9326.594869,459.657299
791.271280,592.164754,-9474.636058,76.609550
791.271604,-444.123565,-9696.697840,0.000000
791.271928,-1036.288319,-9770.718434,-229.828649
791.272253,-1924.535449,-10140.821405,76.609550
791.272577,-1776.494261,-10140.821405,0.000000
791.272901,-666.185348,-9622.677246,459.657299
791.273225,222.061783,-9548.656652,766.095498
791.273549,1110.308913,-9992.780217,689.485948
791.273873,962.267725,-10288.862594,76.609550
791.274198,-1036.288319,-9474.636058,612.876398
791.274522,-1776.494261,-10214.842000,-383.047749
791.274846,-2442.679609,-9992.780217,-1072.533697
791.275170,-2590.720797,-10066.800811,-1378.971896
791.275494,-2220.617826,-9844.739029,-1225.752797
791.275819,-888.247130,-9622.677246,-536.266849
791.276143,1480.411884,-10288.862594,-229.828649
791.276467,2590.720797,-9622.677246,-306.438199
791.276791,3923.091493,-10066.800811,383.047749
791.277115,3330.926739,-10214.842000,229.828649
791.277440,1924.535449,-10584.944971,536.266849
791.277764,740.205942,-10510.924376,0.000000
791.278088,-962.267725,-9770.718434,76.609550
791.278412,-1850.514855,-10066.800811,0.000000
791.278736,-1776.494261,-10288.862594,-153.219100
791.279061,-1184.329507,-9622.677246,0.000000
791.279385,74.020594,-9104.533087,612.876398
791.279709,888.247130,-9104.533087,689.485948
791.280033,888.247130,-8882.471304,306.438199
791.280357,0.000000,-8956.491898,536.266849
791.280682,-1036.288319,-8956.491898,0.000000
791.281006,-1554.432478,-9178.553681,153.219100
791.281330,-1998.556043,-9104.533087,0.000000
791.281654,-1554.432478,-9030.512492,0.000000
791.281978,-518.144159,-9104.533087,-306.438199
791.282303,962.267725,-9252.574275,0.000000
791.282627,2220.617826,-9622.677246,383.047749
791.282951,2368.659014,-9770.718434,306.438199
791.283275,1332.370696,-9474.636058,0.000000
791.283599,296.082377,-9400.615463,153.219100
791.283923,-1110.308913,-9400.615463,0.000000
791.284248,-2146.597232,-9400.615463,-536.266849
791.284572,-2368.659014,-9474.636058,0.000000
791.284896,-2146.597232,-9474.636058,0.000000
791.285220,-740.205942,-9326.594869,383.047749
791.285544,370.102971,-9252.574275,1149.143247
791.285869,1036.288319,-9326.594869,919.314598
791.286193,1110.308913,-9474.636058,383.047749
791.286517,0.000000,-9992.780217,0.000000
791.286841,-1036.288319,-10066.800811,-612.876398
791.287165,-2072.576638,-10066.800811,-1225.752797
791.287490,-2368.659014,-10140.821405,-1608.800546
791.287814,-1776.494261,-10362.883188,-1608.800546
791.288138,-148.041188,-10066.800811,-1532.190996
791.288462,740.205942,-9992.780217,-612.876398
791.288786,2738.761985,-10584.944971,-766.095498
791.289111,3256.906145,-10140.821405,-383.047749
791.289435,2812.782580,-10214.842000,-229.828649
791.289759,2072.576638,-10732.986159,-229.828649
791.290083,592.164754,-10288.862594,-536.266849
791.290407,74.020594,-10140.821405,-383.047749
791.290732,-1110.308913,-10066.800811,-459.657299
791.291056,-666.185348,-10584.944971,-612.876398
791.291380,-222.061783,-9696.697840,-153.219100
791.291704,592.164754,-9474.636058,0.000000
791.292028,1258.350101,-9474.636058,229.828649
791.292353,1184.329507,-9474.636058,0.000000
791.292677,296.082377,-8882.471304,306.438199
791.293001,-666.185348,-8660.409521,-536.266849
791.293325,-1110.308913,-9474.636058,-153.219100
791.293649,-1850.514855,-9326.594869,-1225.752797
791.293973,-1332.370696,-9474.636058,-1072.533697
791.294298,0.000000,-9252.574275,-766.095498
791.294622,1184.329507,-9548.656652,-306.438199
791.294946,2368.659014,-10066.800811,0.000000
791.295270,2738.761985,-9844.739029,306.438199
791.295594,1850.514855,-9770.718434,306.438199
791.295919,666.185348,-9400.615463,306.438199
791.296243,-1184.329507,-9104.533087,0.000000
791.296567,-1998.556043,-9844.739029,76.609550
791.296891,-2516.700203,-9770.718434,0.000000
791.297215,-2146.597232,-9252.574275,153.219100
791.297540,-814.226536,-9030.512492,1608.800546
791.297864,814.226536,-9252.574275,1608.800546
791.298188,1036.288319,-9178.553681,1608.800546
791.298512,370.102971,-8808.450710,1378.971896
791.298836,-814.226536,-9474.636058,536.266849
791.299161,-2072.576638,-9918.759623,0.000000
791.299485,-2664.741391,-9696.697840,-459.657299
791.299809,-2516.700203,-9770.718434,-459.657299
791.300133,-1702.473667,-9622.677246,-612.876398
791.300457,-296.082377,-9696.697840,-612.876398
791.300782,1480.411884,-10140.821405,0.000000
791.301106,2516.700203,-10066.800811,383.047749
791.301430,2812.782580,-9992.780217,459.657299
791.301754,2072.576638,-10066.800811,459.657299
791.302078,740.205942,-10362.883188,153.219100
791.302403,0.000000,-10436.903782,536.266849
791.302727,-1480.411884,-9992.780217,0.000000
791.303051,-1850.514855,-10140.821405,0.000000
791.303375,-1628.453072,-9770.718434,0.000000
791.303699,-740.205942,-9474.636058,0.000000
791.304023,518.144159,-9474.636058,459.657299
791.304348,888.247130,-9474.636058,459.657299
791.304672,888.247130,-9474.636058,612.876398
791.304996,518.144159,-9474.636058,459.657299
791.305320,-370.102971,-9622.677246,0.000000
791.305644,-740.205942,-9770.718434,0.000000
791.305969,-1036.288319,-9696.697840,-536.266849
791.306293,0.000000,-10214.842000,-689.485948
791.306617,888.247130,-9770.718434,-612.876398
791.306941,1850.514855,-9992.780217,0.000000
791.307265,2664.741391,-10214.842000,153.219100
791.307590,2738.761985,-9918.759623,-306.438199
791.307914,1554.432478,-9474.636058,0.000000
791.308238,518.144159,-9178.553681,0.000000
791.308562,-518.144159,-9770.718434,-153.219100
791.308886,-1480.411884,-9918.759623,-306.438199
791.309211,-2664.741391,-9474.636058,-383.047749
791.309535,-2516.700203,-9326.594869,-383.047749
791.309859,-1406.391290,-8808.450710,306.438199
791.310183,0.000000,-8438.347739,919.314598
791.310507,1258.350101,-9104.533087,689.485948
791.310832,962.267725,-8956.491898,842.705048
791.311156,74.020594,-8956.491898,229.828649
791.311480,-1554.432478,-9178.553681,-459.657299
791.311804,-2442.679609,-9326.594869,-1225.752797
791.312128,-3034.844362,-9474.636058,-1455.581446
791.312453,-2442.679609,-9622.677246,-1532.190996
791.312777,-1036.288319,-9622.677246,-1302.362347
791.313101,1406.391290,-9696.697840,-766.095498
791.313425,3108.864956,-10362.883188,0.000000
791.313749,3404.947333,-10362.883188,0.000000
791.314073,2590.720797,-10362.883188,0.000000
791.314398,1184.329507,-9844.739029,0.000000
791.314722,74.020594,-10362.883188,-153.219100
791.315046,-1036.288319,-10214.842000,-842.705048
791.315370,-1924.535449,-10510.924376,-1149.143247
791.315694,-1776.494261,-9992.780217,-766.095498
791.316019,-1258.350101,-9770.718434,-383.047749
791.316343,0.000000,-9474.636058,0.000000
791.316667,962.267725,-9770.718434,76.609550
791.316991,1110.308913,-9844.739029,-766.095498
791.317315,0.000000,-9474.636058,0.000000
791.317640,-1258.350101,-9770.718434,-919.314598
791.317964,-1332.370696,-9844.739029,-1072.533697
791.318288,-1258.350101,-10140.821405,-842.705048
791.318612,-592.164754,-10214.842000,-689.485948
791.318936,666.185348,-10214.842000,-536.266849
791.319261,1998.556043,-10066.800811,0.000000
791.319585,3182.885551,-10288.862594,383.047749
791.319909,2812.782580,-10362.883188,766.095498
791.320233,2146.597232,-9844.739029,229.828649
791.320557,888.247130,-9474.636058,689.485948
791.320882,-296.082377,-9770.718434,459.657299
791.321206,-1036.288319,-9844.739029,612.876398
791.321530,-1702.473667,-9696.697840,689.485948
791.321854,-1702.473667,-9474.636058,689.485948
791.322178,-1184.329507,-8660.409521,842.705048
791.322503,0.000000,-8660.409521,1532.190996
791.322827,814.226536,-8660.409521,1225.752797
791.323151,814.226536,-8956.491898,919.314598
791.323475,-444.123565,-9104.533087,612.876398
791.323799,-1406.391290,-9326.594869,306.438199
791.324123,-1850.514855,-9178.553681,0.000000
791.324448,-2072.576638,-8808.450710,-153.219100
791.324772,-1998.556043,-8956.491898,-229.828649
791.325096,-444.123565,-9548.656652,0.000000
791.325420,1110.308913,-9474.636058,919.314598
791.325744,3034.844362,-9622.677246,1532.190996
791.326069,3404.947333,-9548.656652,1225.752797
791.326393,2368.659014,-9474.636058,1149.143247
791.326717,1184.329507,-9548.656652,919.314598
791.327041,-296.082377,-9918.759623,689.485948
791.327365,-1924.535449,-9474.636058,536.266849
791.327690,-2886.803174,-9548.656652,-306.438199
791.328014,-2590.720797,-9326.594869,-612.876398
791.328338,-1480.411884,-8808.450710,-153.219100
791.328662,74.020594,-9030.512492,76.609550
791.328986,814.226536,-9474.636058,76.609550
791.329310,740.205942,-9326.594869,0.000000
791.329634,148.041188,-9326.594869,153.219100
791.329958,-740.205942,-9252.574275,-536.266849
791.330283,-1628.453072,-10066.800811,-1072.533697
791.330607,-1924.535449,-10362.883188,-1302.362347
791.330931,-1480.411884,-10510.924376,-1378.971896
791.331255,-148.041188,-10066.800811,-1072.533697
791.331579,1332.370696,-9844.739029,-383.047749
791.331903,3034.844362,-10584.944971,-689.485948
791.332227,2664.741391,-10658.965565,-995.924147
791.332551,1628.453072,-10436.903782,-995.924147
791.332875,-370.102971,-10362.883188,-1608.800546
791.333199,-814.226536,-10658.965565,-1378.971896
791.333523,-1258.350101,-10362.883188,-1149.143247
791.333847,-1628.453072,-10066.800811,-689.485948
791.334171,-1036.288319,-9918.759623,-766.095498
791.334495,296.082377,-9548.656652,-459.657299
791.334820,962.267725,-9474.636058,229.828649
791.335144,1110.308913,-9770.718434,0.000000
791.335468,1036.288319,-9696.697840,-306.438199
791.335792,-222.061783,-9474.636058,-383.047749
791.336116,-1406.391290,-9770.718434,-919.314598
791.336440,-1998.556043,-9770.718434,-995.924147
791.336764,-2368.659014,-9622.677246,-1378.971896
791.337088,-1776.494261,-9548.656652,-1608.800546
791.337412,-592.164754,-8882.471304,-766.095498
791.337736,1776.494261,-9400.615463,-383.047749
791.338060,3108.864956,-9548.656652,-306.438199
791.338384,3256.906145,-9622.677246,0.000000
791.338708,2146.597232,-9622.677246,76.609550
791.339032,1110.308913,-10066.800811,229.828649
791.339357,0.000000,-9548.656652,153.219100
791.339681,-962.267725,-9696.697840,-536.266849
791.340005,-1554.432478,-9548.656652,0.000000
791.340329,-1406.391290,-9770.718434,76.609550
791.340653,0.000000,-9474.636058,459.657299
791.340977,740.205942,-9326.594869,1225.752797
791.341301,888.247130,-8882.471304,1608.800546
791.341625,666.185348,-9030.512492,689.485948
791.341949,-148.041188,-8956.491898,1072.533697
791.342273,-1036.288319,-9474.636058,-229.828649
791.342597,-2072.576638,-9178.553681,-306.438199
791.342921,-2368.659014,-9178.553681,-459.657299
791.343245,-1776.494261,-9178.553681,-612.876398
791.343569,-518.144159,-9178.553681,0.000000
791.343894,666.185348,-9622.677246,76.609550
791.344218,1924.535449,-9844.739029,0.000000
791.344542,2442.679609,-9770.718434,536.266849
791.344866,2146.597232,-9992.780217,536.266849
791.345190,740.205942,-10066.800811,306.438199
791.345514,0.000000,-10066.800811,459.657299
791.345838,-1258.350101,-10362.883188,383.047749
791.346162,-1776.494261,-9992.780217,612.876398
791.346486,-1332.370696,-10584.944971,459.657299
791.346810,-666.185348,-9696.697840,1685.410096
791.347134,814.226536,-9622.677246,1838.629195
791.347458,1628.453072,-9992.780217,1455.581446
791.347782,962.267725,-9918.759623,766.095498
791.348106,-296.082377,-9844.739029,306.438199
791.348430,-1702.473667,-9918.759623,-383.047749
791.348755,-2072.576638,-9474.636058,-306.438199
791.349079,-2294.638420,-9474.636058,-612.876398
791.349403,-1702.473667,-9770.718434,-689.485948
791.349727,-148.041188,-9400.615463,-229.828649
791.350051,1332.370696,-9770.718434,459.657299
791.350375,2738.761985,-9622.677246,689.485948
791.350699,3108.864956,-9696.697840,689.485948
791.351023,2220.617826,-9400.615463,842.705048
791.351347,444.123565,-9622.677246,842.705048
791.351671,-666.185348,-9474.636058,76.609550
791.351995,-1998.556043,-9696.697840,76.609550
791.352319,-2368.659014,-9696.697840,0.000000
791.352643,-2220.617826,-9326.594869,0.000000
791.352967,-1110.308913,-9030.512492,306.438199
791.353292,592.164754,-8808.450710,383.047749
791.353616,1184.329507,-8808.450710,766.095498
791.353940,592.164754,-8290.306550,0.000000
791.354264,-518.144159,-8512.368333,-153.219100
791.354588,-1258.350101,-9326.594869,-766.095498
791.354912,-2368.659014,-9326.594869,-1072.533697
791.355236,-2294.638420,-9474.636058,-1378.971896
791.355560,-1850.514855,-9548.656652,-995.924147
791.355884,148.041188,-9548.656652,-536.266849
791.356208,2368.659014,-10140.821405,383.047749
791.356532,2886.803174,-10140.821405,919.314598
791.356856,3182.885551,-10140.821405,612.876398
791.357180,1702.473667,-10140.821405,153.219100
791.357504,296.082377,-10214.842000,-153.219100
791.357829,-1110.308913,-9992.780217,-612.876398
791.358153,-1776.494261,-9992.780217,-612.876398
791.358477,-1776.494261,-10288.862594,-1225.752797
791.358801,-1480.411884,-9548.656652,-1455.581446
791.359125,444.123565,-9474.636058,76.609550
791.359449,1258.350101,-9474.636058,0.000000
791.359773,1850.514855,-9474.636058,-612.876398
791.360097,592.164754,-9400.615463,-612.876398
791.360421,-518.144159,-9918.759623,-612.876398
791.360745,-1332.370696,-10214.842000,-306.438199
791.361069,-1480.411884,-10288.862594,-842.705048
791.361393,-1480.411884,-10066.800811,-995.924147
791.361717,-1184.329507,-10362.883188,-919.314598
791.362041,370.102971,-10214.842000,-766.095498
791.362366,2146.597232,-10510.924376,0.000000
791.362690,2960.823768,-10658.965565,76.609550
791.363014,2590.720797,-10288.862594,229.828649
791.363338,1850.514855,-10362.883188,-459.657299
791.363662,666.185348,-10214.842000,-306.438199
791.363986,0.000000,-10584.944971,-612.876398
791.364310,-814.226536,-10214.842000,-536.266849
791.364634,-1406.391290,-10066.800811,-612.876398
791.364958,-1332.370696,-9474.636058,-459.657299
791.365282,-370.102971,-8808.450710,76.609550
791.365606,666.185348,-8586.388927,1072.533697
791.365930,1776.494261,-9252.574275,995.924147
791.366254,740.205942,-8882.471304,612.876398
791.366578,-518.144159,-8512.368333,919.314598
791.366903,-1628.453072,-9178.553681,229.828649
791.367227,-1924.535449,-9252.574275,-383.047749
791.367551,-1850.514855,-9178.553681,-229.828649
791.367875,-1628.453072,-9178.553681,-536.266849
791.368199,-370.102971,-8956.491898,153.219100
791.368523,1258.350101,-9474.636058,-383.047749
791.368847,2442.679609,-9030.512492,459.657299
791.369171,2368.659014,-9326.594869,383.047749
791.369495,1628.453072,-9178.553681,0.000000
791.369819,370.102971,-9178.553681,536.266849
791.370143,-814.226536,-9548.656652,153.219100
791.370467,-2072.576638,-9622.677246,0.000000
791.370791,-2738.761985,-9844.739029,0.000000
791.371115,-2146.597232,-9548.656652,153.219100
791.371440,-740.205942,-8956.491898,995.924147
791.371764,444.123565,-9178.553681,1302.362347
791.372088,666.185348,-9474.636058,995.924147
791.372412,296.082377,-9622.677246,919.314598
791.372736,-740.205942,-10066.800811,306.438199
791.373060,-1406.391290,-10214.842000,0.000000
791.373384,-2146.597232,-10066.800811,-383.047749
791.373708,-2220.617826,-9844.739029,-536.266849
791.374032,-1554.432478,-10066.800811,-536.266849
791.374356,222.061783,-10214.842000,-459.657299
791.374680,1850.514855,-10140.821405,0.000000
791.375004,3182.885551,-10288.862594,0.000000
791.375328,3108.864956,-10066.800811,76.609550
791.375652,2368.659014,-9844.739029,76.609550
791.375976,1258.350101,-10510.924376,229.828649
791.376301,-370.102971,-10214.842000,0.000000
791.376625,-1406.391290,-9696.697840,153.219100
791.376949,-2072.576638,-9918.759623,536.266849
791.377273,-1554.432478,-9844.739029,229.828649
791.377597,0.000000,-9622.677246,536.266849
791.377921,1184.329507,-9400.615463,842.705048
791.378245,1628.453072,-9548.656652,766.095498
791.378569,1110.308913,-9548.656652,153.219100
791.378893,370.102971,-9400.615463,306.438199
791.379217,-592.164754,-9326.594869,0.000000
791.379541,-1628.453072,-9474.636058,-536.266849
791.379865,-1406.391290,-9474.636058,-612.876398
791.380189,-592.164754,-9548.656652,-842.705048
791.380513,592.164754,-9326.594869,-536.266849
791.380838,2072.576638,-9474.636058,-459.657299
791.381162,2812.782580,-8956.491898,0.000000
791.381486,2072.576638,-8808.450710,0.000000
791.381810,740.205942,-8586.388927,-612.876398
791.382134,-296.082377,-9474.636058,-383.047749
791.382458,-1554.432478,-9474.636058,-306.438199
791.382782,-2072.576638,-9548.656652,-306.438199
791.383106,-2072.576638,-9474.636058,0.000000
791.383430,-1184.329507,-9178.553681,76.609550
791.383754,370.102971,-9918.759623,383.047749
791.384078,1184.329507,-9326.594869,995.924147
791.384402,1480.411884,-9696.697840,612.876398
791.384726,666.185348,-9622.677246,76.609550
791.385050,-518.144159,-9844.739029,-383.047749
791.385375,-1702.473667,-9696.697840,-919.314598
791.385699,-2294.638420,-9474.636058,-1455.581446
791.386023,-2590.720797,-9770.718434,-1302.362347
791.386347,-1554.432478,-9992.780217,-995.924147
791.386671,-444.123565,-9770.718434,-1225.752797
791.386995,1036.288319,-9992.780217,-459.657299
791.387319,2072.576638,-10288.862594,-306.438199
791.387643,2146.597232,-10288.862594,-459.657299
791.387967,1184.329507,-10066.800811,0.000000
791.388291,222.061783,-10288.862594,0.000000
791.388615,-518.144159,-10584.944971,-536.266849
791.388939,-1554.432478,-10288.862594,-612.876398
791.389263,-1998.556043,-10658.965565,-383.047749
791.389587,-1184.329507,-10288.862594,-306.438199
791.389912,0.000000,-9696.697840,76.609550
791.390236,1184.329507,-9992.780217,306.438199
791.390560,2294.638420,-9770.718434,459.657299
791.390884,1628.453072,-9992.780217,383.047749
791.391208,518.144159,-9770.718434,383.047749
791.391532,-666.185348,-9770.718434,-306.438199
791.391856,-2072.576638,-9770.718434,-612.876398
791.392180,-1998.556043,-9622.677246,-919.314598
791.392504,-1332.370696,-9770.718434,-842.705048
791.392828,148.041188,-9696.697840,-306.438199
791.393152,1406.391290,-9622.677246,306.438199
791.393476,1924.535449,-9622.677246,766.095498
791.393800,1628.453072,-9030.512492,459.657299
791.394124,962.267725,-9400.615463,842.705048
791.394449,222.061783,-9474.636058,536.266849
791.394773,-740.205942,-9400.615463,306.438199
791.395097,-1702.473667,-9474.636058,612.876398
791.395421,-1480.411884,-9400.615463,536.266849
791.395745,-1036.288319,-8586.388927,459.657299
791.396069,296.082377,-8956.491898,1762.019645
791.396393,1332.370696,-8734.430116,1532.190996
791.396717,1258.350101,-8882.471304,842.705048
791.397041,370.102971,-8660.409521,306.438199
791.397365,-962.267725,-8882.471304,76.609550
791.397689,-1924.535449,-8808.450710,-383.047749
791.398013,-2294.638420,-9252.574275,-153.219100
791.398337,-2368.659014,-9104.533087,-459.657299
791.398661,-1850.514855,-9400.615463,-766.095498
791.398986,-518.144159,-9252.574275,-229.828649
791.399310,1332.370696,-9622.677246,459.657299
791.399634,2368.659014,-10140.821405,229.828649
791.399958,2368.659014,-10066.800811,229.828649
791.400282,1332.370696,-9918.759623,229.828649
791.400606,0.000000,-10214.842000,-153.219100
791.400930,-592.164754,-10362.883188,0.000000
791.401254,-1702.473667,-10288.862594,0.000000
791.401578,-1998.556043,-10658.965565,-689.485948
791.401902,-1258.350101,-10362.883188,-459.657299
791.402226,-148.041188,-10140.821405,0.000000
791.402550,888.247130,-10362.883188,306.438199
791.402874,1332.370696,-10066.800811,-229.828649
791.403198,1110.308913,-9844.739029,229.828649
791.403522,222.061783,-9844.739029,306.438199
791.403847,-1036.288319,-9918.759623,-612.876398
791.404171,-1332.370696,-10214.842000,-919.314598
791.404495,-1702.473667,-10288.862594,-1149.143247
791.404819,-1332.370696,-10066.800811,-1149.143247
791.405143,-148.041188,-9474.636058,-229.828649
791.405467,1702.473667,-9548.656652,-153.219100
791.405791,2812.782580,-9622.677246,0.000000
791.406115,2664.741391,-9548.656652,306.438199
791.406439,1776.494261,-9474.636058,153.219100
791.406763,814.226536,-9918.759623,0.000000
791.407087,-296.082377,-9622.677246,0.000000
791.407411,-1406.391290,-9622.677246,-229.828649
791.407735,-1776.494261,-9770.718434,0.000000
791.408059,-1036.288319,-9622.677246,-306.438199
791.408384,0.000000,-9030.512492,995.924147
791.408708,1110.308913,-9030.512492,612.876398
791.409032,1406.391290,-9178.553681,766.095498
791.409356,814.226536,-9178.553681,536.266849
791.409680,-814.226536,-9400.615463,229.828649
791.410004,-1554.432478,-9844.739029,-536.266849
791.410328,-2442.679609,-8956.491898,-766.095498
791.410652,-1850.514855,-9474.636058,-766.095498
791.410976,-1332.370696,-9326.594869,-612.876398
791.411300,444.123565,-9030.512492,0.000000
791.411624,2220.617826,-9474.636058,306.438199
791.411948,2960.823768,-9548.656652,76.609550
791.412272,2294.638420,-9400.615463,76.609550
791.412596,1110.308913,-9474.636058,383.047749
791.412921,148.041188,-9696.697840,0.000000
791.413245,-888.247130,-9844.739029,-536.266849
791.413569,-1554.432478,-9770.718434,-306.438199
791.413893,-2146.597232,-9844.739029,-689.485948
791.414217,-1554.432478,-9474.636058,-306.438199
791.414541,-148.041188,-9326.594869,383.047749
791.414865,1332.370696,-9844.739029,842.705048
791.415189,1184.329507,-9622.677246,153.219100
791.415513,666.185348,-9474.636058,0.000000
