#time,accel_x,accel_y,accel_z
361.333730,-1258.350101,-10807.006753,1455.581446
361.334054,-2516.700203,-8438.347739,766.095498
361.334377,-2812.782580,-6439.791695,229.828649
361.334701,-1036.288319,-6957.935855,-229.828649
361.335025,1628.453072,-7698.141797,153.219100
361.335349,3330.926739,-8512.368333,2451.505594
361.335673,6217.729913,-9622.677246,2834.553343
361.335997,7254.018232,-10955.047942,2987.772442
361.336321,6143.709319,-11917.315666,1915.238745
361.336645,3997.112087,-12361.439231,689.485948
361.336969,2294.638420,-12435.459826,459.657299
361.337293,1184.329507,-12509.480420,153.219100
361.337617,0.000000,-11991.336260,-689.485948
361.337941,-1184.329507,-11103.089130,-383.047749
361.338265,-1924.535449,-10214.842000,-1225.752797
361.338589,-2294.638420,-9178.553681,-1915.238745
361.338913,-2812.782580,-8586.388927,-1532.190996
361.339237,-2738.761985,-7179.997637,-1302.362347
361.339561,-1850.514855,-7698.141797,-689.485948
361.339885,-592.164754,-7402.059420,0.000000
361.340209,1628.453072,-7698.141797,995.924147
361.340532,3997.112087,-9326.594869,1378.971896
361.340856,5699.585753,-9696.697840,842.705048
361.341180,5847.626942,-10214.842000,459.657299
361.341504,4885.359217,-11399.171507,459.657299
361.341828,3775.050304,-12805.562797,0.000000
361.342152,1924.535449,-13249.686362,-306.438199
361.342476,-370.102971,-12879.583391,-383.047749
361.342800,-740.205942,-11917.315666,-383.047749
361.343124,-148.041188,-11547.212695,-842.705048
361.343448,518.144159,-9992.780217,0.000000
361.343772,1258.350101,-8956.491898,153.219100
361.344096,1924.535449,-7846.182985,689.485948
361.344420,1850.514855,-8586.388927,536.266849
361.344744,1406.391290,-8364.327145,766.095498
361.345068,1036.288319,-8290.306550,842.705048
361.345392,814.226536,-8364.327145,0.000000
361.345716,-592.164754,-9548.656652,-306.438199
361.346040,-1036.288319,-9992.780217,-459.657299
361.346363,-518.144159,-9770.718434,-383.047749
361.346687,-666.185348,-9696.697840,76.609550
361.347011,-592.164754,-9622.677246,153.219100
361.347335,-444.123565,-9030.512492,612.876398
361.347659,0.000000,-8586.388927,842.705048
361.347983,1110.308913,-7920.203579,1225.752797
361.348307,1998.556043,-8068.244768,1685.410096
361.348631,2146.597232,-8808.450710,1838.629195
361.348955,1406.391290,-9252.574275,1302.362347
361.349279,-518.144159,-8882.471304,766.095498
361.349603,-2442.679609,-9252.574275,0.000000
361.349927,-3923.091493,-10362.883188,-919.314598
361.350251,-4737.318029,-11029.068536,-1378.971896
361.350575,-4367.215058,-10584.944971,-842.705048
361.350899,-2960.823768,-10288.862594,-229.828649
361.351223,-1480.411884,-10140.821405,612.876398
361.351547,222.061783,-9844.739029,1378.971896
361.351871,1702.473667,-10066.800811,2374.896044
361.352195,2738.761985,-9696.697840,2834.553343
361.352518,2738.761985,-10214.842000,2451.505594
361.352842,2442.679609,-10881.027347,2911.162892
361.353166,2146.597232,-11177.109724,2221.676944
361.353490,1406.391290,-11103.089130,1455.581446
361.353814,592.164754,-11547.212695,842.705048
361.354138,222.061783,-10955.047942,766.095498
361.354462,-148.041188,-11325.150913,689.485948
361.354786,-1406.391290,-10140.821405,766.095498
361.355110,-1554.432478,-9474.636058,306.438199
361.355434,-1628.453072,-8660.409521,842.705048
361.355758,-518.144159,-8364.327145,1762.019645
361.356082,814.226536,-8142.265362,2528.115143
361.356406,1554.432478,-7772.162391,3370.820191
361.356730,1924.535449,-7772.162391,3677.258390
361.357054,888.247130,-8586.388927,2374.896044
361.357378,0.000000,-8364.327145,2221.676944
361.357702,-1850.514855,-8290.306550,1455.581446
361.358026,-2738.761985,-8660.409521,459.657299
361.358349,-2812.782580,-9178.553681,-229.828649
361.358673,-2072.576638,-9400.615463,76.609550
361.358997,0.000000,-9326.594869,153.219100
361.359321,1480.411884,-9622.677246,919.314598
361.359645,2368.659014,-9770.718434,1302.362347
361.359969,2886.803174,-9622.677246,766.095498
361.360293,3404.947333,-9474.636058,1072.533697
361.360617,3849.070898,-10140.821405,1532.190996
361.360941,3478.967927,-10362.883188,1225.752797
361.361265,2960.823768,-10214.842000,919.314598
361.361589,1998.556043,-9696.697840,0.000000
361.361913,666.185348,-10066.800811,-383.047749
361.362237,-1628.453072,-9400.615463,-1915.238745
361.362561,-2738.761985,-9104.533087,-2374.896044
361.362885,-3404.947333,-8512.368333,-2757.943793
361.363209,-3108.864956,-8216.285956,-3064.381992
361.363533,-2590.720797,-8586.388927,-2681.334243
361.363857,-1702.473667,-8290.306550,-2451.505594
361.364181,-814.226536,-8956.491898,-2681.334243
361.364505,0.000000,-9474.636058,-2298.286494
361.364829,592.164754,-10362.883188,-2221.676944
361.365153,370.102971,-11177.109724,-2221.676944
361.365477,370.102971,-11843.295072,-2145.067394
361.365801,-222.061783,-12065.356855,-2451.505594
361.366125,0.000000,-11769.274478,-2451.505594
361.366448,-666.185348,-11843.295072,-2911.162892
361.366772,-1258.350101,-11695.253884,-3677.258390
361.367096,-740.205942,-11695.253884,-3600.648841
361.367420,-740.205942,-11029.068536,-3830.477490
361.367744,-592.164754,-11029.068536,-3753.867940
361.368068,-814.226536,-11103.089130,-3447.429741
361.368392,-444.123565,-10881.027347,-3140.991542
361.368716,0.000000,-10807.006753,-2145.067394
361.369040,962.267725,-11325.150913,-1838.629195
361.369364,1110.308913,-11103.089130,-2374.896044
361.369688,1406.391290,-11029.068536,-1532.190996
361.370012,1110.308913,-11029.068536,-1378.971896
361.370336,444.123565,-10732.986159,-1455.581446
361.370660,-518.144159,-10288.862594,-1685.410096
361.370984,-962.267725,-9474.636058,-919.314598
361.371308,-1628.453072,-8808.450710,-842.705048
361.371632,-1036.288319,-8808.450710,-766.095498
361.371956,-666.185348,-8216.285956,-689.485948
361.372280,-740.205942,-8068.244768,0.000000
361.372604,-592.164754,-7550.100608,0.000000
361.372928,-592.164754,-8290.306550,612.876398
361.373252,-740.205942,-8290.306550,766.095498
361.373576,-592.164754,-8438.347739,1302.362347
361.373900,-962.267725,-8660.409521,1532.190996
361.374224,-518.144159,-8734.430116,919.314598
361.374548,0.000000,-8808.450710,1455.581446
361.374872,962.267725,-8956.491898,1455.581446
361.375196,1480.411884,-9104.533087,2145.067394
361.375520,1554.432478,-9252.574275,2451.505594
361.375844,1480.411884,-9030.512492,2451.505594
361.376168,1406.391290,-9030.512492,2604.724693
361.376492,1480.411884,-9326.594869,3064.381992
361.376816,1776.494261,-9696.697840,2757.943793
361.377140,1554.432478,-9548.656652,2757.943793
361.377464,1406.391290,-9622.677246,2681.334243
361.377788,1036.288319,-9548.656652,2528.115143
361.378112,74.020594,-9548.656652,2221.676944
361.378436,-962.267725,-9548.656652,2451.505594
361.378760,-1702.473667,-9474.636058,2068.457845
361.379084,-1554.432478,-9104.533087,2145.067394
361.379408,-1184.329507,-9178.553681,1685.410096
361.379732,-740.205942,-8882.471304,1838.629195
361.380056,-518.144159,-8882.471304,1838.629195
361.380380,-444.123565,-8956.491898,1685.410096
361.380704,-518.144159,-9104.533087,1838.629195
361.381028,-518.144159,-9326.594869,1455.581446
361.381352,-592.164754,-9696.697840,1225.752797
361.381676,-296.082377,-10436.903782,919.314598
361.382000,-222.061783,-10658.965565,612.876398
361.382324,74.020594,-10732.986159,459.657299
361.382648,370.102971,-11325.150913,459.657299
361.382972,518.144159,-11177.109724,76.609550
361.383296,814.226536,-11177.109724,306.438199
361.383619,740.205942,-10732.986159,-383.047749
361.383943,814.226536,-11029.068536,0.000000
361.384267,370.102971,-10807.006753,0.000000
361.384591,740.205942,-10658.965565,0.000000
361.384915,666.185348,-10658.965565,-153.219100
361.385239,518.144159,-10510.924376,-536.266849
361.385563,444.123565,-10362.883188,-306.438199
361.385887,74.020594,-9696.697840,-612.876398
361.386211,-222.061783,-9400.615463,-1072.533697
361.386535,-444.123565,-9030.512492,-766.095498
361.386859,-814.226536,-8438.347739,-919.314598
361.387183,-592.164754,-8512.368333,-1302.362347
361.387507,-444.123565,-8290.306550,-1072.533697
361.387831,-370.102971,-8068.244768,-1378.971896
361.388155,0.000000,-7994.224174,-1072.533697
361.388479,0.000000,-7846.182985,-1302.362347
361.388803,-148.041188,-8512.368333,-1149.143247
361.389127,-370.102971,-8660.409521,-1302.362347
361.389451,-444.123565,-9104.533087,-1149.143247
361.389775,-592.164754,-9400.615463,-1685.410096
361.390099,-370.102971,-9622.677246,-1608.800546
361.390423,0.000000,-9696.697840,-1532.190996
361.390747,0.000000,-10214.842000,-1378.971896
361.391071,74.020594,-9696.697840,-1455.581446
361.391395,296.082377,-9992.780217,-1302.362347
361.391719,444.123565,-10288.862594,-1149.143247
361.392043,592.164754,-10584.944971,-1072.533697
361.392367,888.247130,-10881.027347,-995.924147
361.392691,888.247130,-10881.027347,-995.924147
361.393015,592.164754,-10881.027347,-1149.143247
361.393339,74.020594,-10658.965565,-919.314598
361.393663,-666.185348,-10288.862594,-612.876398
361.393987,-592.164754,-10362.883188,-689.485948
361.394311,-1184.329507,-9992.780217,-1225.752797
361.394635,-1406.391290,-9474.636058,-1378.971896
361.394959,-1702.473667,-9104.533087,-1302.362347
361.395283,-1332.370696,-8512.368333,-1455.581446
361.395607,-1406.391290,-8512.368333,-995.924147
361.395931,-888.247130,-8956.491898,-229.828649
361.396255,-666.185348,-8882.471304,-842.705048
361.396579,-1184.329507,-9400.615463,-766.095498
361.396903,-1036.288319,-9696.697840,-766.095498
361.397227,-1332.370696,-10436.903782,-919.314598
361.397551,-1110.308913,-10807.006753,-919.314598
361.397875,-666.185348,-11177.109724,-842.705048
361.398199,-518.144159,-10732.986159,-919.314598
361.398523,0.000000,-10881.027347,-306.438199
361.398847,518.144159,-11547.212695,-229.828649
361.399171,1110.308913,-11251.130318,0.000000
361.399495,962.267725,-11029.068536,229.828649
361.399819,1184.329507,-10955.047942,536.266849
361.400143,1036.288319,-10807.006753,306.438199
361.400467,1406.391290,-10140.821405,689.485948
361.400791,1332.370696,-9548.656652,842.705048
361.401114,1110.308913,-9326.594869,842.705048
361.401438,518.144159,-9474.636058,842.705048
361.401762,148.041188,-9474.636058,919.314598
361.402086,-296.082377,-8956.491898,842.705048
361.402410,-296.082377,-8512.368333,919.314598
361.402734,-296.082377,-7994.224174,995.924147
361.403058,-444.123565,-7624.121203,1225.752797
361.403382,-222.061783,-7402.059420,1302.362347
361.403706,0.000000,-7105.977043,1455.581446
361.404030,0.000000,-7550.100608,1608.800546
361.404354,74.020594,-7698.141797,1532.190996
361.404678,-148.041188,-7920.203579,1455.581446
361.405002,-222.061783,-7846.182985,1302.362347
361.405326,0.000000,-8956.491898,1532.190996
361.405650,0.000000,-9030.512492,1225.752797
361.405974,296.082377,-9030.512492,1532.190996
361.406298,296.082377,-9474.636058,1149.143247
361.406622,592.164754,-9770.718434,1225.752797
361.406946,592.164754,-10066.800811,1225.752797
361.407270,814.226536,-9918.759623,1532.190996
361.407594,1184.329507,-10066.800811,1455.581446
361.407918,1036.288319,-10807.006753,1915.238745
361.408242,1258.350101,-9844.739029,1225.752797
361.408566,962.267725,-9918.759623,1302.362347
361.408890,1036.288319,-10140.821405,1149.143247
361.409214,592.164754,-10140.821405,919.314598
361.409538,74.020594,-10140.821405,689.485948
361.409862,-370.102971,-9622.677246,306.438199
361.410186,-666.185348,-9400.615463,536.266849
361.410510,-592.164754,-9474.636058,459.657299
361.410834,-740.205942,-9622.677246,0.000000
361.411158,-888.247130,-9252.574275,76.609550
361.411482,-666.185348,-9030.512492,0.000000
361.411806,-814.226536,-8734.430116,0.000000
361.412130,-740.205942,-8956.491898,-153.219100
361.412454,-962.267725,-9178.553681,-383.047749
361.412778,-1258.350101,-9400.615463,0.000000
361.413102,-1036.288319,-9918.759623,-995.924147
361.413426,-1332.370696,-10140.821405,-1532.190996
361.413750,-1110.308913,-10584.944971,-1149.143247
361.414074,-592.164754,-10807.006753,-1149.143247
361.414398,-370.102971,-10955.047942,-1149.143247
361.414722,148.041188,-11177.109724,-919.314598
361.415046,740.205942,-11325.150913,-919.314598
361.415370,814.226536,-10955.047942,-842.705048
361.415694,1036.288319,-10881.027347,-1149.143247
361.416018,1258.350101,-11029.068536,-1225.752797
361.416342,1480.411884,-11029.068536,-1302.362347
361.416666,1110.308913,-10807.006753,-1225.752797
361.416990,888.247130,-10584.944971,-1532.190996
361.417314,888.247130,-9918.759623,-1302.362347
361.417638,296.082377,-10140.821405,-1378.971896
361.417962,0.000000,-9474.636058,-919.314598
361.418286,-592.164754,-8956.491898,-1072.533697
361.418609,-666.185348,-8956.491898,-1532.190996
361.418933,-740.205942,-8512.368333,-1608.800546
361.419257,-962.267725,-8364.327145,-1532.190996
361.419581,-888.247130,-7920.203579,-1838.629195
361.419905,-518.144159,-7994.224174,-1378.971896
361.420229,-1110.308913,-8290.306550,-1072.533697
361.420553,-888.247130,-8586.388927,-1072.533697
361.420877,-888.247130,-9030.512492,-1608.800546
361.421201,-740.205942,-9474.636058,-1455.581446
361.421525,-370.102971,-9770.718434,-1149.143247
361.421849,0.000000,-9992.780217,-995.924147
361.422173,222.061783,-10214.842000,-842.705048
361.422497,222.061783,-10510.924376,-1072.533697
361.422821,592.164754,-11029.068536,-689.485948
361.423145,518.144159,-11473.192101,-306.438199
361.423469,888.247130,-11547.212695,-306.438199
361.423793,814.226536,-11473.192101,0.000000
361.424117,888.247130,-11251.130318,153.219100
361.424441,1036.288319,-10732.986159,689.485948
361.424765,444.123565,-10066.800811,383.047749
361.425089,518.144159,-10066.800811,1149.143247
361.425413,-222.061783,-9622.677246,995.924147
361.425737,-444.123565,-9178.553681,842.705048
361.426061,-888.247130,-8364.327145,689.485948
361.426385,-814.226536,-8142.265362,383.047749
361.426709,-1036.288319,-7994.224174,689.485948
361.427033,-740.205942,-7846.182985,766.095498
361.427357,-1406.391290,-7772.162391,229.828649
361.427681,-1702.473667,-7994.224174,919.314598
361.428005,-1628.453072,-8734.430116,536.266849
361.428329,-2146.597232,-8808.450710,536.266849
361.428653,-1924.535449,-9400.615463,766.095498
361.428977,-1554.432478,-9548.656652,919.314598
361.429301,-592.164754,-9696.697840,1225.752797
361.429625,444.123565,-10436.903782,1608.800546
361.429949,222.061783,-10066.800811,1608.800546
361.430273,962.267725,-10436.903782,1608.800546
361.430597,1776.494261,-11029.068536,1532.190996
361.430921,1776.494261,-11177.109724,1225.752797
361.431245,1776.494261,-10955.047942,1225.752797
361.431569,1480.411884,-10732.986159,1149.143247
361.431893,1776.494261,-10288.862594,1685.410096
361.432217,1628.453072,-10140.821405,842.705048
361.432541,1258.350101,-10066.800811,919.314598
361.432865,740.205942,-9474.636058,919.314598
361.433189,518.144159,-9548.656652,919.314598
361.433513,222.061783,-8882.471304,919.314598
361.433837,-370.102971,-8586.388927,766.095498
361.434161,-740.205942,-8216.285956,995.924147
361.434485,-1110.308913,-7994.224174,842.705048
361.434809,-962.267725,-8142.265362,919.314598
361.435133,-592.164754,-8068.244768,383.047749
361.435457,-666.185348,-8660.409521,153.219100
361.435780,-370.102971,-8808.450710,153.219100
361.436104,-222.061783,-8956.491898,0.000000
361.436428,0.000000,-9252.574275,-153.219100
361.436752,0.000000,-9474.636058,-153.219100
361.437076,0.000000,-9770.718434,-383.047749
361.437400,444.123565,-10288.862594,-536.266849
361.437724,666.185348,-10732.986159,-76.609550
361.438048,740.205942,-10881.027347,-383.047749
361.438372,740.205942,-11103.089130,-459.657299
361.438696,740.205942,-10955.047942,-229.828649
361.439020,740.205942,-10807.006753,0.000000
361.439344,666.185348,-10214.842000,76.609550
361.439668,740.205942,-10362.883188,0.000000
361.439992,518.144159,-10214.842000,-306.438199
361.440316,814.226536,-10066.800811,-383.047749
361.440640,518.144159,-9548.656652,-383.047749
361.440964,0.000000,-9474.636058,-612.876398
361.441288,-222.061783,-9474.636058,-1072.533697
361.441612,-592.164754,-8882.471304,-995.924147
361.441936,-444.123565,-9104.533087,-689.485948
361.442260,-740.205942,-8882.471304,-1225.752797
361.442584,-740.205942,-8660.409521,-1302.362347
361.442908,-1036.288319,-8290.306550,-766.095498
361.443232,-962.267725,-8660.409521,-842.705048
361.443556,-1184.329507,-9178.553681,-766.095498
361.443880,-1480.411884,-9178.553681,-766.095498
361.444204,-1776.494261,-9474.636058,-995.924147
361.444528,-1776.494261,-9918.759623,-1149.143247
361.444852,-1184.329507,-9918.759623,-766.095498
361.445176,-1184.329507,-10510.924376,-919.314598
361.445500,-814.226536,-10732.986159,-842.705048
361.445824,-370.102971,-10658.965565,-612.876398
361.446148,0.000000,-10955.047942,-689.485948
361.446472,444.123565,-11103.089130,-766.095498
361.446796,666.185348,-11325.150913,-919.314598
361.447120,1036.288319,-11177.109724,-612.876398
361.447444,1110.308913,-11029.068536,-459.657299
361.447768,1258.350101,-10881.027347,-612.876398
361.448092,1258.350101,-10584.944971,-153.219100
361.448416,814.226536,-10362.883188,76.609550
361.448740,296.082377,-10214.842000,0.000000
361.449064,-222.061783,-9622.677246,-153.219100
361.449388,-518.144159,-9548.656652,-306.438199
361.449712,-592.164754,-9104.533087,-306.438199
361.450036,-518.144159,-8882.471304,-229.828649
361.450360,-814.226536,-8512.368333,0.000000
361.450684,-444.123565,-8438.347739,0.000000
361.451008,-740.205942,-8364.327145,0.000000
361.451332,-962.267725,-8660.409521,0.000000
361.451656,-962.267725,-8808.450710,-229.828649
361.451980,-592.164754,-9252.574275,-153.219100
361.452304,-518.144159,-9474.636058,0.000000
361.452628,0.000000,-9474.636058,0.000000
361.452952,370.102971,-9770.718434,536.266849
361.453275,962.267725,-10510.924376,919.314598
361.453599,888.247130,-10510.924376,536.266849
361.453923,1036.288319,-10584.944971,689.485948
361.454247,962.267725,-10584.944971,919.314598
361.454571,666.185348,-10584.944971,919.314598
361.454895,592.164754,-10584.944971,1149.143247
361.455219,962.267725,-10140.821405,995.924147
361.455543,814.226536,-10066.800811,766.095498
361.455867,740.205942,-10288.862594,1225.752797
361.456191,370.102971,-9474.636058,842.705048
361.456515,222.061783,-9400.615463,1072.533697
361.456839,0.000000,-9030.512492,842.705048
361.457163,0.000000,-8808.450710,842.705048
361.457487,-148.041188,-8068.244768,1072.533697
361.457811,0.000000,-8808.450710,766.095498
361.458135,-148.041188,-7994.224174,766.095498
361.458459,-666.185348,-7772.162391,383.047749
361.458783,-962.267725,-8290.306550,536.266849
361.459107,-1406.391290,-8660.409521,459.657299
361.459431,-1332.370696,-8956.491898,459.657299
361.459755,-888.247130,-9474.636058,689.485948
361.460079,-1110.308913,-9326.594869,459.657299
361.460403,-814.226536,-9548.656652,0.000000
361.460727,-296.082377,-9918.759623,383.047749
361.461051,-148.041188,-9918.759623,229.828649
361.461375,0.000000,-9918.759623,0.000000
361.461699,518.144159,-10510.924376,0.000000
361.462023,592.164754,-10732.986159,0.000000
361.462347,518.144159,-10584.944971,0.000000
361.462671,962.267725,-11029.068536,-536.266849
361.462995,1036.288319,-11547.212695,0.000000
361.463319,888.247130,-11029.068536,229.828649
361.463643,814.226536,-10807.006753,-229.828649
361.463967,518.144159,-10510.924376,0.000000
361.464291,222.061783,-10214.842000,-153.219100
361.464615,0.000000,-10066.800811,-919.314598
361.464939,-296.082377,-9474.636058,-383.047749
361.465264,-518.144159,-9104.533087,-536.266849
361.465588,-814.226536,-8956.491898,0.000000
361.465912,-592.164754,-8660.409521,-689.485948
361.466236,-666.185348,-8586.388927,-766.095498
361.466560,-370.102971,-8586.388927,-612.876398
361.466884,-518.144159,-8808.450710,-995.924147
361.467208,-444.123565,-9030.512492,-1072.533697
361.467532,-814.226536,-8808.450710,-1455.581446
361.467857,-222.061783,-9474.636058,-919.314598
361.468181,-370.102971,-9474.636058,-1149.143247
361.468505,0.000000,-9918.759623,-919.314598
361.468829,0.000000,-10066.800811,-1072.533697
361.469153,666.185348,-10584.944971,-995.924147
361.469477,814.226536,-10436.903782,0.000000
361.469801,1036.288319,-10732.986159,-612.876398
361.470125,814.226536,-10658.965565,-383.047749
361.470450,888.247130,-10584.944971,-766.095498
361.470774,1110.308913,-10955.047942,-383.047749
361.471098,1406.391290,-10881.027347,-612.876398
361.471422,1184.329507,-10658.965565,-306.438199
361.471746,1184.329507,-10288.862594,76.609550
361.472070,888.247130,-10066.800811,-306.438199
361.472394,666.185348,-9474.636058,229.828649
361.472719,0.000000,-9474.636058,0.000000
361.473043,-666.185348,-8956.491898,-612.876398
361.473367,-666.185348,-8660.409521,-306.438199
361.473691,-888.247130,-8364.327145,-306.438199
361.474015,-962.267725,-8438.347739,-229.828649
361.474339,-962.267725,-8142.265362,0.000000
361.474663,-1184.329507,-8364.327145,-383.047749
361.474987,-1258.350101,-8364.327145,0.000000
361.475312,-2072.576638,-8290.306550,-383.047749
361.475636,-1850.514855,-9252.574275,-383.047749
361.475960,-1776.494261,-9696.697840,-229.828649
361.476284,-1184.329507,-10140.821405,-153.219100
361.476608,-814.226536,-10140.821405,0.000000
361.476932,-518.144159,-10066.800811,-306.438199
361.477256,0.000000,-10140.821405,306.438199
361.477580,444.123565,-10658.965565,0.000000
361.477905,518.144159,-10955.047942,383.047749
361.478229,666.185348,-10807.006753,229.828649
361.478553,740.205942,-10658.965565,306.438199
361.478877,1036.288319,-10658.965565,306.438199
361.479201,1036.288319,-10510.924376,612.876398
361.479525,1332.370696,-10658.965565,766.095498
361.479849,962.267725,-10362.883188,1072.533697
361.480173,666.185348,-9622.677246,1532.190996
361.480498,0.000000,-9474.636058,919.314598
361.480822,-592.164754,-9474.636058,612.876398
361.481146,-666.185348,-8956.491898,612.876398
361.481470,-666.185348,-8586.388927,306.438199
361.481794,-222.061783,-8734.430116,459.657299
361.482118,-666.185348,-8290.306550,766.095498
361.482442,-222.061783,-7994.224174,383.047749
361.482767,-222.061783,-8290.306550,0.000000
361.483091,-444.123565,-8660.409521,459.657299
361.483415,74.020594,-9178.553681,306.438199
361.483739,0.000000,-9474.636058,306.438199
361.484063,0.000000,-9770.718434,229.828649
361.484387,518.144159,-9622.677246,229.828649
361.484711,518.144159,-10140.821405,459.657299
361.485035,888.247130,-10214.842000,1072.533697
361.485360,814.226536,-10584.944971,612.876398
361.485684,1036.288319,-10584.944971,612.876398
361.486008,1258.350101,-10362.883188,689.485948
361.486332,1110.308913,-10510.924376,459.657299
361.486656,1258.350101,-10510.924376,689.485948
361.486980,1332.370696,-10362.883188,1225.752797
361.487304,1258.350101,-9474.636058,306.438199
361.487628,666.185348,-9696.697840,536.266849
361.487953,666.185348,-9622.677246,612.876398
361.488277,518.144159,-9326.594869,689.485948
361.488601,0.000000,-9104.533087,76.609550
361.488925,-592.164754,-8734.430116,0.000000
361.489249,-1036.288319,-8512.368333,0.000000
361.489573,-1258.350101,-8586.388927,-306.438199
361.489897,-1332.370696,-7846.182985,-383.047749
361.490222,-1406.391290,-8290.306550,0.000000
361.490546,-1628.453072,-8438.347739,-459.657299
361.490870,-1554.432478,-8586.388927,-459.657299
361.491194,-1332.370696,-8956.491898,-536.266849
361.491518,-1406.391290,-9178.553681,-612.876398
361.491842,-1332.370696,-9548.656652,-612.876398
361.492166,-962.267725,-10140.821405,-459.657299
361.492490,-666.185348,-9992.780217,-536.266849
361.492815,-148.041188,-10510.924376,-1302.362347
361.493139,0.000000,-10584.944971,-1532.190996
361.493463,222.061783,-11103.089130,-1149.143247
361.493787,370.102971,-11399.171507,-1072.533697
361.494111,592.164754,-11621.233289,-919.314598
361.494435,592.164754,-11399.171507,-1532.190996
361.494759,666.185348,-11399.171507,-459.657299
361.495083,962.267725,-10955.047942,-689.485948
361.495408,962.267725,-11177.109724,-306.438199
361.495732,148.041188,-10807.006753,-612.876398
361.496056,222.061783,-10140.821405,-383.047749
361.496380,-148.041188,-9770.718434,-536.266849
361.496704,-296.082377,-9474.636058,-919.314598
361.497028,-666.185348,-8882.471304,-612.876398
361.497352,-222.061783,-9178.553681,-842.705048
361.497676,-592.164754,-8660.409521,-689.485948
361.498001,-592.164754,-7994.224174,-1378.971896
361.498325,-814.226536,-8290.306550,-1225.752797
361.498649,-666.185348,-8808.450710,-766.095498
361.498973,-592.164754,-9030.512492,-536.266849
361.499297,-370.102971,-9252.574275,-689.485948
361.499621,-370.102971,-9400.615463,-153.219100
361.499945,0.000000,-9474.636058,-153.219100
361.500270,740.205942,-10066.800811,229.828649
361.500594,518.144159,-9992.780217,-229.828649
361.500918,888.247130,-10510.924376,0.000000
361.501242,666.185348,-10510.924376,306.438199
361.501566,888.247130,-10584.944971,229.828649
361.501890,592.164754,-10436.903782,459.657299
361.502214,1110.308913,-10584.944971,153.219100
361.502538,1258.350101,-9992.780217,306.438199
361.502863,1184.329507,-10214.842000,459.657299
361.503187,814.226536,-9770.718434,536.266849
361.503511,518.144159,-9400.615463,536.266849
361.503835,148.041188,-9474.636058,459.657299
361.504159,-222.061783,-9178.553681,612.876398
361.504483,-444.123565,-8438.347739,689.485948
361.504807,-518.144159,-8438.347739,536.266849
361.505131,-814.226536,-8216.285956,612.876398
361.505456,-592.164754,-8734.430116,536.266849
361.505780,-1036.288319,-8216.285956,459.657299
361.506104,-962.267725,-8364.327145,612.876398
361.506428,-1036.288319,-8734.430116,459.657299
361.506752,-1110.308913,-9030.512492,306.438199
361.507076,-1184.329507,-8808.450710,306.438199
361.507400,-518.144159,-9770.718434,153.219100
361.507724,-666.185348,-9622.677246,153.219100
361.508049,-222.061783,-10436.903782,383.047749
361.508373,0.000000,-10584.944971,306.438199
361.508697,666.185348,-10881.027347,229.828649
361.509021,444.123565,-11029.068536,76.609550
361.509345,444.123565,-11029.068536,-153.219100
361.509669,666.185348,-11621.233289,229.828649
361.509993,592.164754,-11251.130318,842.705048
361.510318,740.205942,-11621.233289,383.047749
361.510642,592.164754,-10955.047942,229.828649
361.510966,370.102971,-10732.986159,306.438199
361.511290,148.041188,-10510.924376,383.047749
361.511614,296.082377,-9918.759623,0.000000
361.511938,74.020594,-9548.656652,306.438199
361.512262,0.000000,-9178.553681,306.438199
361.512586,-444.123565,-8364.327145,0.000000
361.512911,-296.082377,-8586.388927,0.000000
361.513235,0.000000,-8660.409521,0.000000
361.513559,-296.082377,-8512.368333,0.000000
361.513883,-370.102971,-8364.327145,229.828649
361.514207,-518.144159,-8364.327145,-153.219100
361.514531,-666.185348,-8512.368333,229.828649
361.514855,-444.123565,-8956.491898,-383.047749
361.515179,-222.061783,-9326.594869,-306.438199
361.515504,-296.082377,-9400.615463,-153.219100
361.515828,0.000000,-9696.697840,0.000000
361.516152,444.123565,-9844.739029,0.000000
361.516476,740.205942,-9918.759623,0.000000
361.516800,814.226536,-9844.739029,76.609550
361.517124,1332.370696,-10436.903782,0.000000
361.517448,1628.453072,-10658.965565,0.000000
361.517772,1480.411884,-10584.944971,0.000000
361.518097,1406.391290,-10436.903782,0.000000
361.518421,1332.370696,-10362.883188,-153.219100
361.518745,1036.288319,-10510.924376,-229.828649
361.519069,222.061783,-9474.636058,76.609550
361.519393,296.082377,-10066.800811,-153.219100
361.519717,0.000000,-9548.656652,0.000000
361.520041,-518.144159,-9400.615463,0.000000
361.520366,-814.226536,-8956.491898,0.000000
361.520690,-888.247130,-8734.430116,-306.438199
361.521014,-888.247130,-8586.388927,-306.438199
361.521338,-740.205942,-8216.285956,-229.828649
361.521662,-592.164754,-8364.327145,0.000000
361.521986,-814.226536,-8364.327145,-459.657299
361.522310,-1110.308913,-8660.409521,0.000000
361.522634,-1110.308913,-9104.533087,-306.438199
361.522959,-1332.370696,-9474.636058,-612.876398
361.523283,-1554.432478,-9622.677246,-766.095498
361.523607,-1554.432478,-10140.821405,-842.705048
361.523931,-1110.308913,-10436.903782,-766.095498
361.524255,-814.226536,-10732.986159,-459.657299
361.524579,-518.144159,-10807.006753,-766.095498
361.524903,-222.061783,-10732.986159,-689.485948
361.525227,222.061783,-10955.047942,-612.876398
361.525552,888.247130,-11325.150913,-459.657299
361.525876,1036.288319,-11177.109724,-459.657299
361.526200,1036.288319,-11029.068536,0.000000
361.526524,814.226536,-10584.944971,0.000000
361.526848,1036.288319,-10584.944971,-153.219100
361.527172,888.247130,-10510.924376,-383.047749
361.527496,740.205942,-10362.883188,-153.219100
361.527821,148.041188,-9622.677246,-459.657299
361.528145,0.000000,-9474.636058,-536.266849
361.528469,-518.144159,-9104.533087,-383.047749
361.528793,-370.102971,-8956.491898,0.000000
361.529117,0.000000,-8586.388927,383.047749
361.529441,-370.102971,-8216.285956,-383.047749
361.529765,-370.102971,-7994.224174,0.000000
361.530089,-370.102971,-8586.388927,-306.438199
361.530414,-370.102971,-8808.450710,-229.828649
361.530738,-370.102971,-9104.533087,-306.438199
361.531062,-370.102971,-9474.636058,-689.485948
361.531386,0.000000,-9400.615463,-229.828649
361.531710,0.000000,-9474.636058,-536.266849
361.532034,370.102971,-9918.759623,383.047749
361.532358,962.267725,-10362.883188,229.828649
361.532682,1036.288319,-10807.006753,229.828649
361.533007,962.267725,-10658.965565,306.438199
361.533331,888.247130,-10732.986159,306.438199
361.533655,1480.411884,-10658.965565,612.876398
361.533979,1110.308913,-10214.842000,536.266849
361.534303,1036.288319,-10066.800811,919.314598
361.534627,740.205942,-9992.780217,612.876398
361.534951,444.123565,-9770.718434,536.266849
361.535275,148.041188,-9400.615463,689.485948
361.535600,-444.123565,-9252.574275,306.438199
361.535924,-666.185348,-8882.471304,689.485948
361.536248,-740.205942,-8586.388927,306.438199
361.536572,-1036.288319,-7772.162391,459.657299
361.536896,-888.247130,-8438.347739,459.657299
361.537220,-1480.411884,-8438.347739,76.609550
361.537544,-1258.350101,-8734.430116,229.828649
361.537869,-1332.370696,-8734.430116,306.438199
361.538193,-1332.370696,-8808.450710,229.828649
361.538517,-1406.391290,-9030.512492,229.828649
361.538841,-1184.329507,-9326.594869,229.828649
361.539165,-740.205942,-9770.718434,383.047749
361.539489,-888.247130,-9696.697840,306.438199
361.539813,-222.061783,-10214.842000,-76.609550
361.540137,0.000000,-10732.986159,-153.219100
361.540462,518.144159,-10955.047942,0.000000
361.540786,592.164754,-11103.089130,229.828649
361.541110,592.164754,-11029.068536,-459.657299
361.541434,740.205942,-11029.068536,0.000000
361.541758,888.247130,-10955.047942,0.000000
361.542082,1110.308913,-10955.047942,76.609550
361.542406,1036.288319,-10955.047942,76.609550
361.542730,888.247130,-10510.924376,0.000000
361.543055,666.185348,-9992.780217,0.000000
361.543379,74.020594,-9474.636058,-153.219100
361.543703,-296.082377,-9178.553681,-229.828649
361.544027,0.000000,-8956.491898,-76.609550
361.544351,0.000000,-8956.491898,-383.047749
361.544675,0.000000,-8956.491898,-459.657299
361.544999,0.000000,-8586.388927,-536.266849
361.545323,-222.061783,-8290.306550,-459.657299
361.545648,-666.185348,-8438.347739,0.000000
361.545972,-592.164754,-9030.512492,-459.657299
361.546296,-740.205942,-8956.491898,0.000000
361.546620,-222.061783,-9400.615463,0.000000
361.546944,-148.041188,-9474.636058,-306.438199
361.547268,148.041188,-9696.697840,-459.657299
361.547592,444.123565,-9992.780217,0.000000
361.547917,666.185348,-10214.842000,-306.438199
361.548241,666.185348,-9992.780217,-306.438199
361.548565,962.267725,-10362.883188,0.000000
361.548889,1036.288319,-10436.903782,0.000000
361.549213,1110.308913,-10955.047942,-229.828649
361.549537,814.226536,-10807.006753,-229.828649
361.549861,740.205942,-10510.924376,-153.219100
361.550185,444.123565,-10140.821405,0.000000
361.550510,296.082377,-9918.759623,0.000000
361.550834,0.000000,-9770.718434,306.438199
361.551158,-222.061783,-9474.636058,229.828649
361.551482,-888.247130,-8734.430116,0.000000
361.551806,-1184.329507,-8808.450710,-229.828649
361.552130,-1184.329507,-8512.368333,-306.438199
361.552454,-888.247130,-8364.327145,-153.219100
361.552778,-888.247130,-8216.285956,-153.219100
361.553103,-1554.432478,-8068.244768,-306.438199
361.553427,-1258.350101,-8216.285956,-383.047749
361.553751,-1258.350101,-9104.533087,0.000000
361.554075,-1406.391290,-9104.533087,-919.314598
361.554399,-1480.411884,-9400.615463,-612.876398
361.554723,-1110.308913,-9918.759623,-459.657299
361.555047,-962.267725,-10288.862594,-612.876398
361.555372,-296.082377,-10584.944971,-229.828649
361.555696,-74.020594,-10807.006753,76.609550
361.556020,666.185348,-11177.109724,-229.828649
361.556344,518.144159,-11325.150913,-76.609550
361.556668,888.247130,-11473.192101,0.000000
361.556992,1110.308913,-11399.171507,-306.438199
361.557316,1258.350101,-11325.150913,0.000000
361.557640,1036.288319,-11029.068536,-153.219100
361.557965,962.267725,-10732.986159,-612.876398
361.558289,740.205942,-10436.903782,0.000000
361.558613,962.267725,-10510.924376,76.609550
361.558937,666.185348,-10140.821405,-383.047749
361.559261,222.061783,-9622.677246,-306.438199
361.559585,-222.061783,-9252.574275,0.000000
361.559909,-370.102971,-9030.512492,-153.219100
361.560233,-592.164754,-8882.471304,0.000000
361.560558,-148.041188,-8660.409521,459.657299
361.560882,-666.185348,-8512.368333,229.828649
361.561206,-296.082377,-8216.285956,536.266849
361.561530,-592.164754,-8216.285956,76.609550
361.561854,-296.082377,-8586.388927,76.609550
361.562178,0.000000,-8808.450710,0.000000
361.562502,0.000000,-9178.553681,0.000000
361.562826,222.061783,-9474.636058,76.609550
361.563151,592.164754,-9474.636058,229.828649
361.563475,592.164754,-9770.718434,459.657299
361.563799,814.226536,-10140.821405,536.266849
361.564123,740.205942,-10436.903782,383.047749
361.564447,740.205942,-10584.944971,306.438199
361.564771,740.205942,-10658.965565,536.266849
361.565095,962.267725,-10140.821405,995.924147
361.565419,1184.329507,-10436.903782,536.266849
361.565743,962.267725,-10066.800811,1149.143247
361.566067,370.102971,-9548.656652,1072.533697
361.566392,74.020594,-9474.636058,612.876398
361.566716,-370.102971,-9326.594869,536.266849
361.567040,-518.144159,-9104.533087,459.657299
361.567364,-740.205942,-8734.430116,306.438199
361.567688,-740.205942,-8364.327145,0.000000
361.568012,-814.226536,-8216.285956,0.000000
361.568336,-518.144159,-8216.285956,689.485948
361.568660,-296.082377,-8438.347739,0.000000
361.568984,-888.247130,-8364.327145,0.000000
361.569308,-666.185348,-8660.409521,153.219100
361.569632,-814.226536,-8956.491898,0.000000
361.569956,-740.205942,-9474.636058,0.000000
361.570281,-666.185348,-9474.636058,-459.657299
361.570605,-444.123565,-10066.800811,-459.657299
361.570929,-444.123565,-10436.903782,153.219100
361.571253,0.000000,-10732.986159,-459.657299
361.571577,148.041188,-11029.068536,-459.657299
361.571901,370.102971,-11177.109724,-459.657299
361.572225,592.164754,-11177.109724,-459.657299
361.572549,666.185348,-11029.068536,-153.219100
361.572873,1036.288319,-11029.068536,-766.095498
361.573197,1258.350101,-11103.089130,-1149.143247
361.573521,1406.391290,-11103.089130,-153.219100
361.573845,740.205942,-10732.986159,-383.047749
361.574169,666.185348,-10510.924376,-459.657299
361.574494,74.020594,-10066.800811,-229.828649
361.574818,-740.205942,-9844.739029,-459.657299
361.575142,-592.164754,-9178.553681,-536.266849
361.575466,-592.164754,-9252.574275,0.000000
361.575790,-740.205942,-8586.388927,-536.266849
361.576114,-592.164754,-8586.388927,-689.485948
361.576438,-740.205942,-8290.306550,-689.485948
361.576762,-740.205942,-8216.285956,-383.047749
361.577086,-592.164754,-8290.306550,-536.266849
361.577410,-296.082377,-8364.327145,-459.657299
361.577734,0.000000,-8512.368333,-536.266849
361.578058,74.020594,-9030.512492,-459.657299
361.578382,592.164754,-9474.636058,-612.876398
361.578707,222.061783,-9844.739029,-383.047749
361.579031,222.061783,-9992.780217,-153.219100
361.579355,370.102971,-10436.903782,-229.828649
361.579679,222.061783,-10881.027347,-306.438199
361.580003,518.144159,-10436.903782,-306.438199
361.580327,814.226536,-11177.109724,-229.828649
361.580651,740.205942,-10955.047942,0.000000
361.580975,888.247130,-11029.068536,153.219100
361.581299,666.185348,-10510.924376,76.609550
361.581623,296.082377,-10214.842000,153.219100
361.581947,0.000000,-9918.759623,0.000000
361.582271,0.000000,-9992.780217,0.000000
361.582596,-74.020594,-9030.512492,459.657299
361.582920,-666.185348,-8512.368333,-306.438199
361.583244,-666.185348,-8364.327145,-1072.533697
361.583568,-592.164754,-8364.327145,-383.047749
361.583892,-666.185348,-8364.327145,-459.657299
361.584216,-592.164754,-8290.306550,-153.219100
361.584540,-1332.370696,-8586.388927,0.000000
361.584864,-1702.473667,-8364.327145,-229.828649
361.585188,-1480.411884,-8956.491898,-229.828649
361.585512,-1258.350101,-9474.636058,-383.047749
361.585836,-1480.411884,-9844.739029,0.000000
361.586160,-1110.308913,-10140.821405,-153.219100
361.586484,-962.267725,-10140.821405,0.000000
361.586809,-518.144159,-10510.924376,0.000000
361.587133,-148.041188,-10881.027347,-383.047749
361.587457,592.164754,-11103.089130,76.609550
361.587781,592.164754,-10732.986159,-383.047749
361.588105,1036.288319,-11325.150913,-229.828649
361.588429,1332.370696,-11325.150913,0.000000
361.588753,1628.453072,-11399.171507,0.000000
361.589077,1406.391290,-11103.089130,0.000000
361.589401,1258.350101,-11029.068536,-229.828649
361.589725,888.247130,-10510.924376,383.047749
361.590049,592.164754,-9844.739029,306.438199
361.590373,222.061783,-10288.862594,306.438199
361.590698,-148.041188,-9548.656652,383.047749
361.591022,-666.185348,-8956.491898,76.609550
361.591346,-888.247130,-8438.347739,306.438199
361.591670,-962.267725,-8216.285956,153.219100
361.591994,-518.144159,-7772.162391,306.438199
361.592318,-518.144159,-7772.162391,306.438199
361.592642,-444.123565,-7846.182985,76.609550
361.592966,-148.041188,-8142.265362,-153.219100
361.593290,0.000000,-8290.306550,0.000000
361.593614,0.000000,-8586.388927,76.609550
361.593938,-148.041188,-9178.553681,0.000000
361.594262,0.000000,-9696.697840,0.000000
361.594586,0.000000,-9696.697840,-383.047749
361.594911,0.000000,-10066.800811,153.219100
361.595235,296.082377,-10214.842000,0.000000
361.595559,296.082377,-10658.965565,536.266849
361.595883,592.164754,-10732.986159,536.266849
361.596207,444.123565,-10658.965565,536.266849
361.596531,814.226536,-10658.965565,536.266849
361.596855,1110.308913,-10214.842000,766.095498
361.597179,1628.453072,-10214.842000,1532.190996
361.597503,1480.411884,-9770.718434,689.485948
361.597827,666.185348,-9844.739029,153.219100
361.598151,74.020594,-9474.636058,-229.828649
361.598475,-370.102971,-9178.553681,-153.219100
361.598800,-296.082377,-9030.512492,0.000000
361.599124,0.000000,-8882.471304,-229.828649
361.599448,-222.061783,-8660.409521,383.047749
361.599772,-296.082377,-8586.388927,-766.095498
361.600096,-518.144159,-8364.327145,0.000000
361.600420,-1110.308913,-8364.327145,-383.047749
361.600744,-1332.370696,-8808.450710,-229.828649
361.601068,-1628.453072,-9178.553681,-229.828649
361.601392,-1702.473667,-9326.594869,-766.095498
361.601716,-1036.288319,-9474.636058,-383.047749
361.602040,-888.247130,-9770.718434,-766.095498
361.602364,-370.102971,-10658.965565,0.000000
361.602688,-296.082377,-10732.986159,-229.828649
361.603013,0.000000,-10955.047942,-536.266849
361.603337,296.082377,-11029.068536,-766.095498
361.603661,518.144159,-11325.150913,-689.485948
361.603985,888.247130,-11473.192101,-229.828649
361.604309,962.267725,-11473.192101,-536.266849
361.604633,888.247130,-11177.109724,-229.828649
361.604957,962.267725,-11103.089130,0.000000
361.605281,444.123565,-10807.006753,-383.047749
361.605605,222.061783,-10510.924376,0.000000
361.605929,-222.061783,-9770.718434,-229.828649
361.606253,-370.102971,-9622.677246,-229.828649
361.606577,-814.226536,-8882.471304,-153.219100
361.606902,0.000000,-9104.533087,0.000000
361.607226,-296.082377,-8216.285956,-76.609550
361.607550,-296.082377,-8290.306550,-306.438199
361.607874,-518.144159,-8364.327145,-306.438199
361.608198,-592.164754,-8290.306550,-536.266849
361.608522,-814.226536,-8290.306550,-459.657299
361.608846,-1036.288319,-8364.327145,-612.876398
361.609170,-740.205942,-8956.491898,-459.657299
361.609494,0.000000,-9696.697840,-153.219100
361.609818,0.000000,-9474.636058,306.438199
361.610142,296.082377,-9918.759623,-153.219100
361.610466,296.082377,-10140.821405,0.000000
361.610790,444.123565,-10510.924376,-153.219100
361.611115,296.082377,-10658.965565,0.000000
361.611439,888.247130,-11103.089130,229.828649
361.611763,888.247130,-11029.068536,383.047749
361.612087,888.247130,-10658.965565,0.000000
361.612411,666.185348,-10362.883188,0.000000
361.612735,1184.329507,-10214.842000,229.828649
361.613059,740.205942,-10214.842000,0.000000
361.613383,592.164754,-9992.780217,0.000000
361.613707,518.144159,-9770.718434,229.828649
361.614031,222.061783,-9400.615463,229.828649
361.614355,-222.061783,-8956.491898,76.609550
361.614679,-592.164754,-8734.430116,306.438199
361.615003,-518.144159,-8142.265362,76.609550
361.615328,-296.082377,-8364.327145,229.828649
361.615652,-296.082377,-8364.327145,229.828649
361.615976,-962.267725,-8216.285956,76.609550
361.616300,-1554.432478,-8438.347739,0.000000
361.616624,-1406.391290,-8808.450710,76.609550
361.616948,-1776.494261,-9030.512492,0.000000
361.617272,-1480.411884,-9326.594869,0.000000
361.617596,-1332.370696,-9918.759623,0.000000
361.617920,-1036.288319,-9844.739029,153.219100
361.618244,-666.185348,-10214.842000,0.000000
361.618568,0.000000,-10807.006753,76.609550
361.618892,148.041188,-10807.006753,0.000000
361.619217,444.123565,-10881.027347,-383.047749
361.619541,740.205942,-10881.027347,153.219100
361.619865,1036.288319,-10807.006753,-76.609550
361.620189,1406.391290,-11103.089130,229.828649
361.620513,1110.308913,-10436.903782,-306.438199
361.620837,888.247130,-10658.965565,0.000000
361.621161,592.164754,-10362.883188,0.000000
361.621485,296.082377,-10066.800811,0.000000
361.621809,74.020594,-9992.780217,153.219100
361.622133,-222.061783,-9548.656652,306.438199
361.622457,-444.123565,-8882.471304,306.438199
361.622781,-222.061783,-8586.388927,-229.828649
361.623105,-666.185348,-8290.306550,0.000000
361.623430,-592.164754,-8438.347739,-306.438199
361.623754,-592.164754,-8216.285956,-383.047749
361.624078,-518.144159,-8142.265362,-459.657299
361.624402,-666.185348,-8216.285956,-383.047749
361.624726,-518.144159,-8808.450710,-459.657299
361.625050,-74.020594,-9178.553681,-536.266849
361.625374,0.000000,-10288.862594,-536.266849
361.625698,0.000000,-9992.780217,-459.657299
361.626022,74.020594,-9992.780217,-383.047749
361.626346,296.082377,-10436.903782,0.000000
361.626670,444.123565,-10584.944971,-306.438199
361.626994,740.205942,-10510.924376,-153.219100
361.627319,592.164754,-10436.903782,76.609550
361.627643,444.123565,-10584.944971,0.000000
361.627967,962.267725,-10436.903782,153.219100
361.628291,1110.308913,-10362.883188,0.000000
361.628615,1110.308913,-10288.862594,76.609550
361.628939,962.267725,-10140.821405,0.000000
361.629263,444.123565,-9548.656652,0.000000
361.629587,370.102971,-9622.677246,0.000000
361.629911,0.000000,-9252.574275,0.000000
361.630235,-296.082377,-9178.553681,-383.047749
361.630559,-518.144159,-8808.450710,-459.657299
361.630883,-518.144159,-8882.471304,-306.438199
361.631207,-1036.288319,-8512.368333,-383.047749
361.631532,-1184.329507,-8216.285956,0.000000
361.631856,-1258.350101,-8438.347739,0.000000
361.632180,-1258.350101,-8734.430116,306.438199
361.632504,-1332.370696,-9104.533087,-229.828649
361.632828,-1406.391290,-9326.594869,-153.219100
361.633152,-1332.370696,-9474.636058,0.000000
361.633476,-814.226536,-9992.780217,-153.219100
361.633800,-444.123565,-10214.842000,-536.266849
361.634124,0.000000,-10362.883188,-306.438199
361.634448,222.061783,-10584.944971,-229.828649
361.634772,518.144159,-11251.130318,0.000000
361.635096,1258.350101,-11621.233289,0.000000
361.635421,1110.308913,-11325.150913,0.000000
361.635745,962.267725,-11251.130318,0.000000
361.636069,888.247130,-11103.089130,76.609550
361.636393,962.267725,-10807.006753,0.000000
361.636717,888.247130,-10362.883188,536.266849
361.637041,518.144159,-10066.800811,229.828649
361.637365,0.000000,-9622.677246,919.314598
361.637689,-592.164754,-9252.574275,306.438199
361.638013,-666.185348,-8956.491898,76.609550
361.638337,-666.185348,-8660.409521,0.000000
361.638661,-666.185348,-8586.388927,0.000000
361.638985,-592.164754,-8438.347739,153.219100
361.639309,-444.123565,-8364.327145,0.000000
361.639634,-888.247130,-8512.368333,0.000000
361.639958,-740.205942,-8660.409521,76.609550
361.640282,-666.185348,-8956.491898,0.000000
361.640606,-370.102971,-9104.533087,0.000000
361.640930,-222.061783,-9030.512492,0.000000
361.641254,0.000000,-9622.677246,0.000000
361.641578,592.164754,-9844.739029,229.828649
361.641902,888.247130,-9992.780217,1225.752797
361.642226,888.247130,-10510.924376,76.609550
361.642550,1332.370696,-10436.903782,383.047749
361.642874,1258.350101,-10658.965565,229.828649
361.643198,1332.370696,-10807.006753,306.438199
361.643522,1258.350101,-10658.965565,383.047749
361.643847,1110.308913,-10584.944971,229.828649
361.644171,814.226536,-10288.862594,0.000000
361.644495,1036.288319,-9918.759623,229.828649
361.644819,370.102971,-9622.677246,153.219100
361.645143,0.000000,-9770.718434,383.047749
361.645467,-296.082377,-9252.574275,76.609550
361.645791,-740.205942,-8956.491898,459.657299
361.646115,-888.247130,-8142.265362,689.485948
361.646439,-666.185348,-8142.265362,536.266849
361.646763,-444.123565,-8512.368333,459.657299
361.647087,-666.185348,-7698.141797,229.828649
361.647411,-1406.391290,-8216.285956,0.000000
361.647736,-1332.370696,-8512.368333,76.609550
361.648060,-1332.370696,-8956.491898,-153.219100
361.648384,-1036.288319,-9252.574275,-153.219100
361.648708,-962.267725,-9474.636058,306.438199
361.649032,-444.123565,-9770.718434,229.828649
361.649356,-148.041188,-9696.697840,0.000000
361.649680,0.000000,-10066.800811,153.219100
361.650004,222.061783,-10288.862594,-153.219100
361.650328,296.082377,-10510.924376,-153.219100
361.650652,740.205942,-10881.027347,-229.828649
361.650976,888.247130,-11029.068536,-153.219100
361.651300,888.247130,-10955.047942,-306.438199
361.651624,888.247130,-11251.130318,153.219100
361.651949,666.185348,-10955.047942,153.219100
361.652273,148.041188,-10658.965565,-383.047749
361.652597,0.000000,-10436.903782,-459.657299
361.652921,0.000000,-10362.883188,-459.657299
361.653245,-296.082377,-9696.697840,-383.047749
361.653569,-148.041188,-9178.553681,-842.705048
361.653893,-592.164754,-8734.430116,-383.047749
361.654217,-592.164754,-9030.512492,-612.876398
361.654541,0.000000,-8882.471304,0.000000
361.654865,-296.082377,-8290.306550,-612.876398
361.655189,-518.144159,-8364.327145,-536.266849
361.655513,-518.144159,-8956.491898,-612.876398
361.655838,-222.061783,-8956.491898,-536.266849
361.656162,-296.082377,-9030.512492,-612.876398
361.656486,0.000000,-9400.615463,-842.705048
361.656810,0.000000,-9548.656652,-459.657299
361.657134,370.102971,-9696.697840,-459.657299
361.657458,518.144159,-9696.697840,-459.657299
361.657782,518.144159,-10140.821405,-229.828649
361.658106,1184.329507,-10732.986159,-153.219100
361.658430,1110.308913,-10732.986159,0.000000
361.658754,1110.308913,-10881.027347,0.000000
361.659078,1036.288319,-10658.965565,536.266849
361.659402,962.267725,-10881.027347,153.219100
361.659726,1110.308913,-10436.903782,383.047749
361.660051,666.185348,-9992.780217,153.219100
361.660375,740.205942,-9696.697840,536.266849
361.660699,-148.041188,-10066.800811,0.000000
361.661023,-444.123565,-9474.636058,0.000000
361.661347,-814.226536,-9030.512492,0.000000
361.661671,-814.226536,-8956.491898,76.609550
361.661995,-1184.329507,-8512.368333,0.000000
361.662319,-1184.329507,-8290.306550,153.219100
361.662643,-370.102971,-8068.244768,383.047749
361.662967,-1110.308913,-8216.285956,612.876398
361.663291,-814.226536,-8216.285956,153.219100
361.663615,-962.267725,-8882.471304,0.000000
361.663940,-1332.370696,-8808.450710,0.000000
361.664264,-1332.370696,-9178.553681,76.609550
361.664588,-962.267725,-9326.594869,229.828649
361.664912,-518.144159,-9844.739029,153.219100
361.665236,-222.061783,-10288.862594,229.828649
361.665560,518.144159,-10436.903782,153.219100
361.665885,444.123565,-10658.965565,0.000000
361.666209,518.144159,-10732.986159,153.219100
361.666533,444.123565,-10881.027347,76.609550
361.666857,740.205942,-11547.212695,306.438199
361.667182,814.226536,-10955.047942,229.828649
361.667506,962.267725,-11177.109724,383.047749
361.667830,814.226536,-10807.006753,-306.438199
361.668154,370.102971,-10807.006753,76.609550
361.668479,296.082377,-10362.883188,229.828649
361.668803,0.000000,-9844.739029,76.609550
361.669127,-592.164754,-9548.656652,0.000000
361.669451,-740.205942,-9474.636058,306.438199
361.669776,-148.041188,-8956.491898,612.876398
361.670100,0.000000,-8660.409521,0.000000
361.670424,-296.082377,-8512.368333,0.000000
361.670748,148.041188,-8734.430116,0.000000
361.671072,0.000000,-8660.409521,229.828649
361.671397,-296.082377,-8734.430116,0.000000
361.671721,-370.102971,-8882.471304,0.000000
361.672045,-222.061783,-9030.512492,-153.219100
361.672369,222.061783,-9400.615463,-76.609550
361.672694,592.164754,-9400.615463,0.000000
361.673018,370.102971,-9770.718434,-229.828649
361.673342,592.164754,-9918.759623,0.000000
361.673666,740.205942,-10066.800811,0.000000
361.673991,666.185348,-10066.800811,0.000000
361.674315,666.185348,-10140.821405,459.657299
361.674639,740.205942,-9844.739029,0.000000
361.674963,888.247130,-10140.821405,0.000000
361.675288,1110.308913,-10066.800811,229.828649
361.675612,888.247130,-10288.862594,229.828649
361.675936,148.041188,-9992.780217,76.609550
361.676260,74.020594,-9918.759623,0.000000
361.676585,-222.061783,-9918.759623,383.047749
361.676909,-888.247130,-9474.636058,459.657299
361.677233,-740.205942,-9252.574275,-306.438199
361.677557,-962.267725,-8660.409521,-153.219100
361.677882,-1184.329507,-8364.327145,-229.828649
361.678206,-740.205942,-8216.285956,0.000000
361.678530,-888.247130,-8142.265362,-306.438199
361.678854,-740.205942,-8068.244768,459.657299
361.679178,-740.205942,-8290.306550,-153.219100
361.679503,-888.247130,-8660.409521,-459.657299
361.679827,-888.247130,-9104.533087,-306.438199
361.680151,-962.267725,-9696.697840,-689.485948
361.680475,-1258.350101,-10140.821405,-766.095498
361.680800,-814.226536,-10362.883188,-995.924147
361.681124,-296.082377,-10732.986159,-459.657299
361.681448,0.000000,-11029.068536,-229.828649
361.681772,444.123565,-11177.109724,-1302.362347
361.682097,444.123565,-11547.212695,-689.485948
361.682421,962.267725,-10955.047942,-459.657299
361.682745,518.144159,-11103.089130,-459.657299
361.683069,888.247130,-11177.109724,-536.266849
361.683394,888.247130,-11177.109724,-383.047749
361.683718,962.267725,-10807.006753,-383.047749
361.684042,962.267725,-10584.944971,-383.047749
361.684366,666.185348,-10214.842000,0.000000
361.684691,0.000000,-9770.718434,-612.876398
361.685015,-444.123565,-9622.677246,-306.438199
361.685339,-518.144159,-9474.636058,-383.047749
361.685663,-814.226536,-9104.533087,-536.266849
361.685988,-962.267725,-8586.388927,-229.828649
361.686312,-888.247130,-8290.306550,-306.438199
361.686636,-370.102971,-8364.327145,-306.438199
361.686960,-444.123565,-8512.368333,0.000000
361.687285,-370.102971,-8142.265362,0.000000
361.687609,-222.061783,-8956.491898,0.000000
361.687933,-370.102971,-8956.491898,-459.657299
361.688257,0.000000,-9178.553681,-153.219100
361.688581,222.061783,-9474.636058,153.219100
361.688906,814.226536,-9622.677246,229.828649
361.689230,888.247130,-10362.883188,612.876398
361.689554,1110.308913,-10362.883188,383.047749
361.689878,1184.329507,-10436.903782,153.219100
361.690203,592.164754,-10584.944971,229.828649
361.690527,666.185348,-10658.965565,536.266849
361.690851,296.082377,-10436.903782,306.438199
361.691175,370.102971,-10288.862594,383.047749
361.691500,518.144159,-9918.759623,689.485948
361.691824,148.041188,-9844.739029,0.000000
361.692148,-148.041188,-9474.636058,459.657299
361.692472,-444.123565,-9252.574275,536.266849
361.692797,-666.185348,-8808.450710,229.828649
361.693121,-814.226536,-8660.409521,306.438199
361.693445,-740.205942,-8438.347739,229.828649
361.693769,-592.164754,-8068.244768,229.828649
361.694094,-740.205942,-7994.224174,383.047749
361.694418,-518.144159,-8438.347739,689.485948
361.694742,-444.123565,-8586.388927,76.609550
361.695066,-518.144159,-8882.471304,76.609550
361.695391,-666.185348,-9252.574275,0.000000
361.695715,-888.247130,-9474.636058,229.828649
361.696039,-592.164754,-9770.718434,76.609550
361.696363,-814.226536,-10288.862594,0.000000
361.696687,-370.102971,-10288.862594,0.000000
361.697012,0.000000,-10510.924376,76.609550
361.697336,74.020594,-11029.068536,-229.828649
361.697660,444.123565,-11103.089130,153.219100
361.697984,592.164754,-10955.047942,76.609550
361.698309,444.123565,-10807.006753,0.000000
361.698633,888.247130,-10732.986159,76.609550
361.698957,666.185348,-10955.047942,0.000000
361.699281,814.226536,-10362.883188,229.828649
361.699606,592.164754,-10066.800811,0.000000
361.699930,518.144159,-9992.780217,229.828649
361.700254,0.000000,-9770.718434,76.609550
361.700578,-296.082377,-9474.636058,0.000000
361.700903,-592.164754,-9104.533087,0.000000
361.701227,-370.102971,-9104.533087,0.000000
361.701551,-370.102971,-8586.388927,306.438199
361.701875,-370.102971,-8290.306550,-919.314598
361.702200,-370.102971,-8364.327145,-153.219100
361.702524,-444.123565,-8364.327145,-229.828649
361.702848,-518.144159,-8586.388927,-306.438199
361.703172,-370.102971,-8882.471304,-383.047749
361.703497,-148.041188,-9030.512492,-383.047749
361.703821,74.020594,-8882.471304,-229.828649
361.704145,666.185348,-9400.615463,-76.609550
361.704469,444.123565,-9252.574275,0.000000
361.704793,592.164754,-10066.800811,-229.828649
361.705118,444.123565,-10362.883188,-229.828649
361.705442,222.061783,-10436.903782,-76.609550
361.705766,592.164754,-10436.903782,153.219100
361.706090,814.226536,-10584.944971,229.828649
361.706415,814.226536,-10732.986159,306.438199
361.706739,444.123565,-10584.944971,76.609550
361.707063,592.164754,-10658.965565,0.000000
361.707387,74.020594,-9992.780217,0.000000
361.707712,0.000000,-9918.759623,0.000000
361.708036,0.000000,-9844.739029,-76.609550
361.708360,-592.164754,-9252.574275,0.000000
361.708684,-592.164754,-8882.471304,0.000000
361.709009,-740.205942,-8734.430116,-383.047749
361.709333,-592.164754,-8586.388927,-153.219100
361.709657,-592.164754,-8586.388927,-229.828649
361.709981,-444.123565,-8586.388927,-229.828649
361.710306,-740.205942,-8512.368333,0.000000
361.710630,-740.205942,-9178.553681,-306.438199
361.710954,-888.247130,-8956.491898,-383.047749
361.711278,-962.267725,-9474.636058,0.000000
361.711603,-814.226536,-9548.656652,153.219100
361.711927,-962.267725,-9918.759623,0.000000
361.712251,-666.185348,-10140.821405,-229.828649
361.712575,-370.102971,-10362.883188,-383.047749
361.712900,-222.061783,-10807.006753,-459.657299
361.713224,444.123565,-10807.006753,-306.438199
361.713548,814.226536,-10955.047942,-383.047749
361.713872,1036.288319,-11029.068536,0.000000
361.714196,1406.391290,-11177.109724,-153.219100
361.714521,1184.329507,-11103.089130,-306.438199
361.714845,888.247130,-10807.006753,0.000000
361.715169,518.144159,-10510.924376,-229.828649
361.715493,370.102971,-10584.944971,-229.828649
361.715818,74.020594,-10362.883188,76.609550
361.716142,-148.041188,-9844.739029,0.000000
361.716466,0.000000,-9474.636058,383.047749
361.716790,-296.082377,-9400.615463,229.828649
361.717115,-666.185348,-8882.471304,229.828649
361.717439,-592.164754,-8734.430116,0.000000
361.717763,-592.164754,-8364.327145,-306.438199
361.718087,-296.082377,-7994.224174,229.828649
361.718412,148.041188,-8882.471304,0.000000
361.718736,0.000000,-8586.388927,0.000000
361.719060,-296.082377,-8586.388927,76.609550
361.719384,-370.102971,-8734.430116,0.000000
361.719709,-370.102971,-9252.574275,-153.219100
361.720033,-148.041188,-9474.636058,153.219100
361.720357,296.082377,-9844.739029,229.828649
361.720681,518.144159,-9992.780217,536.266849
361.721006,1110.308913,-10436.903782,612.876398
361.721330,592.164754,-10436.903782,383.047749
361.721654,592.164754,-10584.944971,612.876398
361.721978,666.185348,-10584.944971,612.876398
361.722302,740.205942,-10362.883188,842.705048
361.722627,592.164754,-10140.821405,689.485948
361.722951,666.185348,-9992.780217,919.314598
361.723275,888.247130,-10140.821405,612.876398
361.723599,370.102971,-9622.677246,842.705048
361.723924,0.000000,-9474.636058,306.438199
361.724248,-592.164754,-9030.512492,0.000000
361.724572,-814.226536,-9030.512492,76.609550
361.724896,-1036.288319,-8660.409521,0.000000
361.725221,-666.185348,-8512.368333,0.000000
361.725545,-592.164754,-8586.388927,383.047749
361.725869,-1036.288319,-8364.327145,-306.438199
361.726193,-962.267725,-8216.285956,-76.609550
361.726518,-814.226536,-9104.533087,0.000000
361.726842,-888.247130,-9252.574275,0.000000
361.727166,-740.205942,-9548.656652,-383.047749
361.727490,-1332.370696,-9622.677246,306.438199
361.727815,0.000000,-9918.759623,0.000000
361.728139,148.041188,-10288.862594,-612.876398
361.728463,296.082377,-10510.924376,-536.266849
361.728787,666.185348,-11177.109724,-536.266849
361.729112,740.205942,-11029.068536,-459.657299
361.729436,444.123565,-11177.109724,-612.876398
361.729760,444.123565,-11251.130318,-612.876398
361.730084,592.164754,-10955.047942,-459.657299
361.730408,666.185348,-10807.006753,-689.485948
361.730733,518.144159,-10807.006753,-383.047749
361.731057,296.082377,-10214.842000,-995.924147
361.731381,148.041188,-10066.800811,-306.438199
361.731705,0.000000,-9770.718434,-459.657299
361.732030,-370.102971,-9474.636058,-383.047749
361.732354,-666.185348,-8956.491898,-383.047749
361.732678,-592.164754,-8734.430116,-229.828649
361.733002,-222.061783,-8438.347739,-459.657299
361.733327,-148.041188,-8216.285956,-459.657299
361.733651,-148.041188,-8438.347739,-383.047749
361.733975,222.061783,-8808.450710,-306.438199
361.734299,-666.185348,-8438.347739,-995.924147
361.734624,-370.102971,-9030.512492,-306.438199
361.734948,0.000000,-9252.574275,-383.047749
361.735272,74.020594,-9400.615463,76.609550
361.735596,296.082377,-9548.656652,153.219100
361.735921,666.185348,-9844.739029,0.000000
361.736245,740.205942,-9844.739029,229.828649
361.736569,1036.288319,-10214.842000,153.219100
361.736893,666.185348,-10436.903782,0.000000
361.737218,296.082377,-10510.924376,229.828649
361.737542,370.102971,-10658.965565,0.000000
361.737866,148.041188,-10732.986159,0.000000
361.738190,518.144159,-10436.903782,-153.219100
361.738515,222.061783,-10362.883188,-306.438199
361.738839,148.041188,-10214.842000,536.266849
361.739163,-74.020594,-9696.697840,76.609550
361.739487,-370.102971,-9696.697840,306.438199
361.739811,-740.205942,-9178.553681,153.219100
361.740136,-962.267725,-9030.512492,0.000000
361.740460,-888.247130,-8734.430116,459.657299
361.740784,-814.226536,-8364.327145,536.266849
361.741108,-296.082377,-8586.388927,229.828649
361.741433,-740.205942,-8438.347739,612.876398
361.741757,-962.267725,-8438.347739,229.828649
361.742081,-1110.308913,-8586.388927,153.219100
361.742405,-1184.329507,-8882.471304,0.000000
361.742730,-1332.370696,-9178.553681,-153.219100
361.743054,-1110.308913,-9252.574275,0.000000
361.743378,-740.205942,-9696.697840,-383.047749
361.743702,-444.123565,-9770.718434,-229.828649
361.744027,296.082377,-10510.924376,153.219100
361.744351,148.041188,-10658.965565,-153.219100
361.744675,592.164754,-10881.027347,0.000000
361.744999,888.247130,-10955.047942,-153.219100
361.745324,1406.391290,-11325.150913,153.219100
361.745648,1480.411884,-11399.171507,0.000000
361.745972,1480.411884,-10881.027347,0.000000
361.746296,1480.411884,-10584.944971,0.000000
361.746621,1258.350101,-10732.986159,-153.219100
361.746945,888.247130,-10732.986159,-229.828649
361.747269,444.123565,-10362.883188,-229.828649
361.747593,370.102971,-9622.677246,0.000000
361.747917,-222.061783,-9474.636058,76.609550
361.748242,0.000000,-9030.512492,-383.047749
361.748566,-370.102971,-8512.368333,0.000000
361.748890,-666.185348,-9030.512492,-229.828649
361.749214,-592.164754,-8438.347739,-306.438199
361.749539,-592.164754,-8290.306550,-383.047749
361.749863,-666.185348,-8438.347739,-153.219100
361.750187,-370.102971,-8142.265362,0.000000
361.750511,-370.102971,-8586.388927,-459.657299
361.750836,-962.267725,-9178.553681,0.000000
361.751160,-296.082377,-9400.615463,-383.047749
361.751484,0.000000,-9548.656652,-383.047749
361.751808,0.000000,-9992.780217,-383.047749
361.752133,222.061783,-10584.944971,-306.438199
361.752457,74.020594,-10436.903782,-306.438199
361.752781,296.082377,-10288.862594,0.000000
361.753105,296.082377,-10658.965565,76.609550
361.753430,518.144159,-10584.944971,76.609550
361.753754,592.164754,-11103.089130,306.438199
361.754078,518.144159,-10436.903782,229.828649
361.754402,518.144159,-9992.780217,153.219100
361.754727,444.123565,-10066.800811,153.219100
361.755051,148.041188,-9696.697840,-229.828649
361.755375,-370.102971,-9548.656652,0.000000
361.755699,-814.226536,-8808.450710,0.000000
361.756023,-518.144159,-8956.491898,-383.047749
361.756348,-740.205942,-8660.409521,-229.828649
361.756672,-1184.329507,-8586.388927,-229.828649
361.756996,-814.226536,-8586.388927,-229.828649
361.757320,-518.144159,-8142.265362,0.000000
361.757645,-740.205942,-8512.368333,536.266849
361.757969,-666.185348,-9030.512492,-383.047749
361.758293,-888.247130,-8956.491898,76.609550
361.758617,-592.164754,-9400.615463,-229.828649
361.758942,-518.144159,-9474.636058,-229.828649
361.759266,-296.082377,-9918.759623,0.000000
361.759590,222.061783,-10362.883188,-153.219100
361.759914,592.164754,-10732.986159,0.000000
361.760239,888.247130,-10584.944971,153.219100
361.760563,1184.329507,-11251.130318,76.609550
361.760887,592.164754,-10881.027347,0.000000
361.761211,444.123565,-11251.130318,0.000000
361.761536,370.102971,-11103.089130,0.000000
361.761860,518.144159,-10584.944971,-153.219100
361.762184,444.123565,-10807.006753,0.000000
361.762508,222.061783,-10214.842000,153.219100
361.762833,222.061783,-9696.697840,-306.438199
361.763157,-444.123565,-9474.636058,0.000000
361.763481,-370.102971,-9696.697840,0.000000
361.763805,-740.205942,-9104.533087,-153.219100
361.764129,-518.144159,-8734.430116,-153.219100
361.764454,-518.144159,-8734.430116,0.000000
361.764778,0.000000,-8660.409521,0.000000
361.765102,-296.082377,-8512.368333,229.828649
361.765426,-296.082377,-8216.285956,0.000000
361.765750,-148.041188,-8660.409521,0.000000
361.766075,-222.061783,-8956.491898,0.000000
361.766399,0.000000,-9178.553681,0.000000
361.766723,0.000000,-9548.656652,0.000000
361.767047,518.144159,-9474.636058,306.438199
361.767371,592.164754,-10288.862594,0.000000
361.767695,370.102971,-9918.759623,459.657299
361.768019,444.123565,-10362.883188,153.219100
361.768343,444.123565,-10362.883188,0.000000
361.768667,592.164754,-10658.965565,229.828649
361.768992,740.205942,-10658.965565,153.219100
361.769316,814.226536,-10584.944971,0.000000
361.769640,888.247130,-10584.944971,459.657299
361.769964,1406.391290,-10881.027347,536.266849
361.770288,592.164754,-10066.800811,459.657299
361.770612,370.102971,-9992.780217,306.438199
361.770936,-222.061783,-9548.656652,76.609550
361.771260,-296.082377,-9548.656652,229.828649
361.771584,-370.102971,-8956.491898,0.000000
361.771909,-740.205942,-8734.430116,0.000000
361.772233,-370.102971,-8586.388927,0.000000
361.772557,-296.082377,-8216.285956,229.828649
361.772881,-666.185348,-7772.162391,0.000000
361.773205,-740.205942,-8068.244768,-612.876398
361.773529,-1036.288319,-8216.285956,0.000000
361.773853,-962.267725,-8660.409521,-459.657299
361.774177,-518.144159,-9252.574275,-536.266849
361.774502,-962.267725,-9548.656652,-306.438199
361.774826,-888.247130,-9696.697840,-153.219100
361.775150,-444.123565,-10214.842000,-153.219100
361.775474,0.000000,-10140.821405,-306.438199
361.775798,518.144159,-10214.842000,0.000000
361.776122,444.123565,-10807.006753,-383.047749
361.776446,370.102971,-10881.027347,0.000000
361.776770,370.102971,-10807.006753,-153.219100
361.777094,740.205942,-11029.068536,-153.219100
361.777419,740.205942,-10807.006753,-306.438199
361.777743,888.247130,-10732.986159,-306.438199
361.778067,592.164754,-10584.944971,0.000000
361.778391,592.164754,-10510.924376,-229.828649
361.778715,222.061783,-10732.986159,0.000000
361.779039,-370.102971,-9844.739029,-153.219100
361.779363,-444.123565,-9696.697840,153.219100
361.779687,-814.226536,-9474.636058,-229.828649
361.780011,-888.247130,-8956.491898,-306.438199
361.780336,-592.164754,-8956.491898,-229.828649
361.780660,-814.226536,-8586.388927,0.000000
361.780984,-518.144159,-8216.285956,-536.266849
361.781308,-222.061783,-8364.327145,0.000000
361.781632,-444.123565,-8512.368333,-536.266849
361.781956,-518.144159,-8808.450710,-536.266849
361.782280,-296.082377,-9178.553681,-459.657299
361.782604,-74.020594,-9696.697840,-612.876398
361.782928,0.000000,-9844.739029,-229.828649
361.783253,222.061783,-9992.780217,-1149.143247
361.783577,296.082377,-10140.821405,76.609550
361.783901,814.226536,-10510.924376,0.000000
361.784225,740.205942,-10510.924376,0.000000
361.784549,888.247130,-10510.924376,229.828649
361.784873,962.267725,-10658.965565,229.828649
361.785197,888.247130,-10584.944971,459.657299
361.785521,1184.329507,-10436.903782,689.485948
361.785845,888.247130,-10066.800811,383.047749
361.786170,814.226536,-9844.739029,383.047749
361.786494,74.020594,-9770.718434,0.000000
361.786818,-222.061783,-9548.656652,0.000000
361.787142,-444.123565,-9252.574275,76.609550
361.787466,-592.164754,-8586.388927,0.000000
361.787790,-592.164754,-8438.347739,153.219100
361.788114,-1406.391290,-8216.285956,0.000000
361.788438,-1110.308913,-8512.368333,76.609550
361.788763,-740.205942,-8142.265362,0.000000
361.789087,-740.205942,-8438.347739,0.000000
361.789411,-888.247130,-8734.430116,0.000000
361.789735,-962.267725,-9104.533087,0.000000
361.790059,-888.247130,-9252.574275,76.609550
361.790383,-814.226536,-9400.615463,306.438199
361.790707,-444.123565,-9992.780217,0.000000
361.791031,-370.102971,-9844.739029,0.000000
361.791355,0.000000,-10658.965565,-153.219100
361.791680,370.102971,-11029.068536,-229.828649
361.792004,518.144159,-11029.068536,-306.438199
361.792328,370.102971,-11103.089130,0.000000
361.792652,444.123565,-10881.027347,0.000000
361.792976,1036.288319,-11399.171507,689.485948
361.793300,740.205942,-10732.986159,0.000000
361.793624,296.082377,-10881.027347,-153.219100
361.793948,222.061783,-10732.986159,-153.219100
361.794272,0.000000,-10214.842000,0.000000
361.794597,-222.061783,-9696.697840,0.000000
361.794921,-814.226536,-9474.636058,0.000000
361.795245,-592.164754,-9474.636058,-229.828649
361.795569,-444.123565,-9400.615463,-536.266849
361.795893,-888.247130,-8660.409521,-459.657299
361.796217,-740.205942,-8586.388927,0.000000
361.796541,-592.164754,-8364.327145,-306.438199
361.796865,-370.102971,-8216.285956,-383.047749
361.797189,-148.041188,-8882.471304,-153.219100
361.797514,296.082377,-9104.533087,0.000000
361.797838,444.123565,-9474.636058,0.000000
361.798162,814.226536,-9474.636058,229.828649
361.798486,814.226536,-9844.739029,0.000000
361.798810,814.226536,-9992.780217,306.438199
361.799134,888.247130,-10214.842000,153.219100
361.799458,1110.308913,-10436.903782,153.219100
361.799782,888.247130,-10288.862594,76.609550
361.800106,1110.308913,-10584.944971,-612.876398
361.800431,1332.370696,-10955.047942,0.000000
361.800755,1258.350101,-10510.924376,459.657299
361.801079,1036.288319,-10584.944971,383.047749
361.801403,888.247130,-10658.965565,76.609550
361.801727,370.102971,-10066.800811,229.828649
361.802051,0.000000,-9548.656652,76.609550
361.802375,-222.061783,-9252.574275,76.609550
361.802699,-444.123565,-9252.574275,536.266849
361.803024,0.000000,-9252.574275,-153.219100
361.803348,-666.185348,-8586.388927,76.609550
361.803672,-592.164754,-8660.409521,0.000000
361.803996,-814.226536,-8290.306550,76.609550
361.804320,-888.247130,-8216.285956,76.609550
361.804644,-814.226536,-8290.306550,306.438199
361.804968,-1036.288319,-8438.347739,0.000000
361.805292,-888.247130,-8808.450710,-306.438199
361.805616,-1406.391290,-9030.512492,306.438199
361.805941,-1184.329507,-9400.615463,0.000000
361.806265,-814.226536,-9622.677246,0.000000
361.806589,-740.205942,-9992.780217,-153.219100
361.806913,-518.144159,-9992.780217,-383.047749
361.807237,-370.102971,-9844.739029,-306.438199
361.807561,296.082377,-10436.903782,-229.828649
361.807885,518.144159,-10436.903782,0.000000
361.808209,444.123565,-11029.068536,-229.828649
361.808533,740.205942,-11251.130318,-153.219100
361.808858,592.164754,-11103.089130,-153.219100
361.809182,518.144159,-10955.047942,0.000000
361.809506,666.185348,-11251.130318,-459.657299
361.809830,444.123565,-11029.068536,-459.657299
361.810154,222.061783,-10436.903782,0.000000
361.810478,0.000000,-9844.739029,-459.657299
361.810802,-222.061783,-9474.636058,-229.828649
361.811126,-666.185348,-9178.553681,-153.219100
361.811450,-666.185348,-9030.512492,-459.657299
361.811775,-666.185348,-8956.491898,-383.047749
361.812099,-518.144159,-8068.244768,-536.266849
361.812423,-666.185348,-8142.265362,-842.705048
361.812747,-592.164754,-8068.244768,-383.047749
361.813071,-296.082377,-8734.430116,-459.657299
361.813395,-444.123565,-8734.430116,-536.266849
361.813719,-296.082377,-9104.533087,-612.876398
361.814043,-222.061783,-9252.574275,-459.657299
361.814368,444.123565,-9770.718434,-153.219100
361.814692,740.205942,-10362.883188,-153.219100
361.815016,1332.370696,-10288.862594,0.000000
361.815340,1406.391290,-10510.924376,-229.828649
361.815664,1258.350101,-10658.965565,153.219100
361.815988,1110.308913,-10955.047942,153.219100
361.816312,1184.329507,-10807.006753,0.000000
361.816636,1110.308913,-10658.965565,76.609550
361.816960,1036.288319,-10510.924376,383.047749
361.817285,518.144159,-9992.780217,536.266849
361.817609,296.082377,-9770.718434,459.657299
361.817933,-370.102971,-9770.718434,153.219100
361.818257,-518.144159,-9474.636058,0.000000
361.818581,-740.205942,-9326.594869,0.000000
361.818905,-666.185348,-8956.491898,0.000000
361.819229,-1184.329507,-7698.141797,0.000000
361.819553,-814.226536,-8216.285956,0.000000
361.819877,-148.041188,-8586.388927,0.000000
361.820202,-1332.370696,-7920.203579,76.609550
361.820526,-1184.329507,-8290.306550,0.000000
361.820850,-1110.308913,-8734.430116,0.000000
361.821174,-1110.308913,-9252.574275,0.000000
361.821498,-888.247130,-9104.533087,383.047749
361.821822,-962.267725,-9622.677246,76.609550
361.822146,-592.164754,-9844.739029,0.000000
361.822470,-148.041188,-10066.800811,229.828649
361.822794,74.020594,-10732.986159,76.609550
361.823119,370.102971,-11103.089130,0.000000
361.823443,592.164754,-10955.047942,76.609550
361.823767,444.123565,-11029.068536,0.000000
361.824091,666.185348,-11399.171507,383.047749
361.824415,370.102971,-10584.944971,306.438199
361.824739,370.102971,-10732.986159,-229.828649
361.825063,444.123565,-10584.944971,0.000000
361.825387,74.020594,-10510.924376,0.000000
361.825711,0.000000,-10066.800811,76.609550
361.826036,-222.061783,-9622.677246,0.000000
361.826360,-518.144159,-9474.636058,0.000000
361.826684,-592.164754,-9178.553681,76.609550
361.827008,-222.061783,-8956.491898,0.000000
361.827332,-518.144159,-8512.368333,0.000000
361.827656,-370.102971,-8586.388927,76.609550
361.827980,0.000000,-8438.347739,0.000000
361.828304,-296.082377,-8364.327145,-153.219100
361.828629,-74.020594,-8586.388927,76.609550
361.828953,148.041188,-8660.409521,0.000000
361.829277,148.041188,-8882.471304,306.438199
361.829601,666.185348,-9252.574275,306.438199
361.829925,222.061783,-9252.574275,153.219100
361.830249,814.226536,-9844.739029,-306.438199
361.830573,666.185348,-10066.800811,0.000000
361.830897,666.185348,-10362.883188,-229.828649
361.831221,888.247130,-10288.862594,766.095498
361.831546,1110.308913,-10436.903782,306.438199
361.831870,1258.350101,-10584.944971,459.657299
361.832194,962.267725,-10732.986159,229.828649
361.832518,592.164754,-10732.986159,153.219100
361.832842,666.185348,-10436.903782,153.219100
361.833166,444.123565,-10066.800811,306.438199
361.833490,74.020594,-9770.718434,306.438199
361.833814,222.061783,-9474.636058,383.047749
361.834138,-518.144159,-9030.512492,-229.828649
361.834463,-592.164754,-8882.471304,-306.438199
361.834787,-814.226536,-8438.347739,153.219100
361.835111,-888.247130,-8512.368333,0.000000
361.835435,-962.267725,-8290.306550,0.000000
361.835759,-962.267725,-8290.306550,0.000000
361.836083,-1036.288319,-8364.327145,919.314598
361.836407,-1554.432478,-8438.347739,76.609550
361.836731,-1406.391290,-8956.491898,-229.828649
361.837055,-1406.391290,-9326.594869,229.828649
361.837380,-1184.329507,-9252.574275,-153.219100
361.837704,-1110.308913,-9548.656652,0.000000
361.838028,-888.247130,-10140.821405,-306.438199
361.838352,-222.061783,-10288.862594,229.828649
361.838676,0.000000,-10362.883188,-306.438199
361.839000,0.000000,-10807.006753,-153.219100
361.839324,148.041188,-11029.068536,-459.657299
361.839648,1036.288319,-11177.109724,-153.219100
361.839972,888.247130,-11177.109724,-536.266849
361.840297,962.267725,-11325.150913,-229.828649
361.840621,814.226536,-11029.068536,0.000000
361.840945,444.123565,-10807.006753,-459.657299
361.841269,370.102971,-10362.883188,-459.657299
361.841593,74.020594,-10140.821405,-306.438199
361.841917,148.041188,-9770.718434,153.219100
361.842241,-74.020594,-9474.636058,-612.876398
361.842565,-518.144159,-9030.512492,-306.438199
361.842890,-444.123565,-8956.491898,0.000000
361.843214,-370.102971,-8586.388927,0.000000
361.843538,0.000000,-8364.327145,-306.438199
361.843862,-148.041188,-7920.203579,-612.876398
361.844186,-222.061783,-8068.244768,-229.828649
361.844510,0.000000,-8734.430116,-229.828649
361.844834,0.000000,-9104.533087,-306.438199
361.845158,0.000000,-9400.615463,-229.828649
361.845482,0.000000,-9474.636058,-306.438199
361.845807,222.061783,-9474.636058,-306.438199
361.846131,518.144159,-9252.574275,229.828649
361.846455,592.164754,-9992.780217,153.219100
361.846779,814.226536,-10214.842000,229.828649
361.847103,666.185348,-10807.006753,306.438199
361.847427,962.267725,-10732.986159,383.047749
361.847751,1110.308913,-10658.965565,612.876398
361.848075,1110.308913,-11103.089130,459.657299
361.848399,962.267725,-10214.842000,383.047749
361.848724,888.247130,-10288.862594,612.876398
361.849048,370.102971,-9622.677246,306.438199
361.849372,0.000000,-9474.636058,306.438199
361.849696,-370.102971,-9400.615463,0.000000
361.850020,-592.164754,-8956.491898,0.000000
361.850344,-962.267725,-8512.368333,0.000000
361.850668,-888.247130,-8142.265362,0.000000
361.850992,-1332.370696,-7624.121203,-153.219100
361.851316,-888.247130,-8216.285956,383.047749
361.851641,-962.267725,-7920.203579,-306.438199
361.851965,-1110.308913,-8290.306550,-383.047749
361.852289,-1258.350101,-9030.512492,-153.219100
361.852613,-1258.350101,-9178.553681,-306.438199
361.852937,-1110.308913,-9474.636058,-383.047749
361.853261,-1332.370696,-9844.739029,-229.828649
361.853585,-888.247130,-10066.800811,-612.876398
361.853909,0.000000,-10584.944971,-383.047749
361.854233,0.000000,-10658.965565,-459.657299
361.854558,370.102971,-11177.109724,-383.047749
361.854882,592.164754,-11399.171507,-459.657299
361.855206,666.185348,-11251.130318,-383.047749
361.855530,1036.288319,-11029.068536,0.000000
361.855854,888.247130,-10955.047942,-153.219100
361.856178,888.247130,-11473.192101,-153.219100
361.856502,1036.288319,-11325.150913,-383.047749
361.856826,666.185348,-11029.068536,-383.047749
361.857151,0.000000,-10140.821405,-383.047749
361.857475,-222.061783,-9918.759623,-383.047749
361.857799,-518.144159,-9696.697840,-153.219100
361.858123,-592.164754,-9474.636058,-153.219100
361.858447,-518.144159,-8956.491898,76.609550
361.858771,-296.082377,-8956.491898,-919.314598
361.859095,-222.061783,-8438.347739,0.000000
361.859419,-370.102971,-8734.430116,-459.657299
361.859743,-296.082377,-8660.409521,-383.047749
361.860068,0.000000,-8882.471304,-383.047749
361.860392,0.000000,-9252.574275,-306.438199
361.860716,74.020594,-9400.615463,-229.828649
361.861040,518.144159,-9474.636058,-383.047749
361.861364,444.123565,-9696.697840,-306.438199
361.861688,444.123565,-9992.780217,-153.219100
361.862012,666.185348,-9844.739029,383.047749
361.862336,592.164754,-9918.759623,0.000000
361.862660,518.144159,-10362.883188,153.219100
361.862985,444.123565,-10510.924376,153.219100
361.863309,444.123565,-10362.883188,229.828649
361.863633,518.144159,-10214.842000,306.438199
361.863957,518.144159,-9992.780217,612.876398
361.864281,666.185348,-9918.759623,919.314598
361.864605,666.185348,-9918.759623,76.609550
361.864929,74.020594,-9696.697840,229.828649
361.865253,0.000000,-9474.636058,459.657299
361.865577,0.000000,-8882.471304,153.219100
361.865902,-592.164754,-8512.368333,0.000000
361.866226,-296.082377,-8586.388927,536.266849
361.866550,-148.041188,-8512.368333,153.219100
361.866874,-518.144159,-8068.244768,153.219100
361.867198,-592.164754,-8068.244768,-229.828649
361.867522,-1184.329507,-8290.306550,0.000000
361.867846,-1036.288319,-8882.471304,0.000000
361.868170,-1332.370696,-8956.491898,0.000000
361.868494,-1258.350101,-9474.636058,0.000000
361.868818,-1258.350101,-9844.739029,306.438199
361.869142,-962.267725,-9622.677246,0.000000
361.869466,-518.144159,-9844.739029,0.000000
361.869791,0.000000,-10362.883188,0.000000
361.870115,148.041188,-10732.986159,0.000000
361.870439,592.164754,-11029.068536,-306.438199
361.870763,888.247130,-11029.068536,-153.219100
361.871087,1554.432478,-11399.171507,0.000000
361.871411,1184.329507,-10955.047942,0.000000
361.871735,1776.494261,-11177.109724,-612.876398
361.872059,1184.329507,-11177.109724,-229.828649
361.872383,888.247130,-10955.047942,-153.219100
361.872707,592.164754,-10732.986159,-306.438199
361.873031,0.000000,-10288.862594,-306.438199
361.873355,-148.041188,-9918.759623,459.657299
361.873679,-518.144159,-9622.677246,-612.876398
361.874004,-444.123565,-9326.594869,153.219100
361.874328,-296.082377,-9030.512492,306.438199
361.874652,-222.061783,-8734.430116,-153.219100
361.874976,-444.123565,-8290.306550,-306.438199
361.875300,-370.102971,-8364.327145,0.000000
361.875624,-444.123565,-8586.388927,-229.828649
361.875948,-296.082377,-8808.450710,-306.438199
361.876272,-296.082377,-8808.450710,-612.876398
361.876596,-148.041188,-9030.512492,-689.485948
361.876920,-148.041188,-9030.512492,0.000000
361.877244,0.000000,-9622.677246,-229.828649
361.877568,148.041188,-9696.697840,0.000000
361.877893,518.144159,-10066.800811,229.828649
361.878217,592.164754,-10214.842000,229.828649
361.878541,666.185348,-9844.739029,612.876398
361.878865,962.267725,-10066.800811,842.705048
361.879189,518.144159,-10066.800811,306.438199
361.879513,962.267725,-10214.842000,306.438199
361.879837,740.205942,-10066.800811,229.828649
361.880161,370.102971,-9844.739029,306.438199
361.880485,74.020594,-9622.677246,306.438199
361.880809,-370.102971,-9400.615463,536.266849
361.881133,-370.102971,-9622.677246,0.000000
361.881457,-888.247130,-9252.574275,0.000000
361.881781,-1258.350101,-8586.388927,0.000000
361.882106,-1258.350101,-8882.471304,-306.438199
361.882430,-1332.370696,-8512.368333,0.000000
361.882754,-1184.329507,-8586.388927,-153.219100
361.883078,-888.247130,-8586.388927,76.609550
361.883402,-814.226536,-8808.450710,0.000000
361.883726,-888.247130,-8956.491898,-536.266849
361.884050,-666.185348,-9030.512492,153.219100
361.884374,-666.185348,-9400.615463,-306.438199
361.884698,-444.123565,-9918.759623,-459.657299
361.885022,0.000000,-10436.903782,-459.657299
361.885346,0.000000,-10732.986159,-536.266849
361.885670,444.123565,-11103.089130,-689.485948
361.885995,592.164754,-11325.150913,-153.219100
361.886319,592.164754,-11325.150913,-842.705048
361.886643,888.247130,-11621.233289,-536.266849
361.886967,592.164754,-11399.171507,-536.266849
361.887291,296.082377,-11325.150913,-536.266849
361.887615,592.164754,-11029.068536,-536.266849
361.887939,148.041188,-10732.986159,-689.485948
361.888263,518.144159,-10066.800811,-383.047749
361.888587,0.000000,-9918.759623,0.000000
361.888911,296.082377,-10140.821405,-459.657299
361.889235,-296.082377,-9400.615463,-459.657299
361.889559,-740.205942,-9326.594869,-459.657299
361.889883,-592.164754,-8808.450710,-459.657299
361.890208,-518.144159,-8438.347739,-383.047749
361.890532,0.000000,-8808.450710,-229.828649
361.890856,0.000000,-8734.430116,229.828649
361.891180,-444.123565,-8660.409521,-536.266849
361.891504,0.000000,-8808.450710,-306.438199
361.891828,0.000000,-8734.430116,0.000000
361.892152,0.000000,-9104.533087,0.000000
361.892476,296.082377,-9252.574275,0.000000
361.892800,592.164754,-9104.533087,306.438199
361.893124,1332.370696,-9622.677246,0.000000
361.893448,1036.288319,-9622.677246,-153.219100
361.893772,814.226536,-9770.718434,1225.752797
361.894096,592.164754,-9918.759623,0.000000
361.894421,148.041188,-10214.842000,229.828649
361.894745,222.061783,-10362.883188,153.219100
361.895069,370.102971,-10584.944971,76.609550
361.895393,444.123565,-10436.903782,459.657299
361.895717,444.123565,-10214.842000,995.924147
361.896041,74.020594,-9844.739029,766.095498
361.896365,-370.102971,-9474.636058,689.485948
361.896689,-592.164754,-9474.636058,459.657299
361.897013,-1110.308913,-8956.491898,459.657299
361.897337,-888.247130,-8808.450710,383.047749
361.897661,-814.226536,-8808.450710,306.438199
361.897985,-888.247130,-8216.285956,689.485948
361.898310,-740.205942,-7920.203579,766.095498
361.898634,-740.205942,-8216.285956,229.828649
361.898958,-1332.370696,-8438.347739,0.000000
361.899282,-1258.350101,-8808.450710,0.000000
361.899606,-1406.391290,-9030.512492,0.000000
361.899930,-1406.391290,-9548.656652,76.609550
361.900254,-1110.308913,-9770.718434,0.000000
361.900578,-1110.308913,-9474.636058,306.438199
361.900902,-222.061783,-9770.718434,0.000000
361.901226,370.102971,-10288.862594,-306.438199
361.901550,888.247130,-10658.965565,0.000000
361.901874,962.267725,-10732.986159,0.000000
361.902198,1036.288319,-10807.006753,0.000000
361.902523,1406.391290,-11325.150913,-229.828649
361.902847,1258.350101,-11177.109724,-306.438199
361.903171,1628.453072,-11325.150913,0.000000
361.903495,1110.308913,-10510.924376,-229.828649
361.903819,888.247130,-11251.130318,76.609550
361.904143,666.185348,-11103.089130,-383.047749
361.904467,296.082377,-10955.047942,0.000000
361.904791,0.000000,-10214.842000,-153.219100
361.905115,0.000000,-9770.718434,153.219100
361.905439,-296.082377,-9104.533087,76.609550
361.905763,-296.082377,-8734.430116,0.000000
361.906087,0.000000,-7846.182985,0.000000
361.906412,-296.082377,-8068.244768,-153.219100
361.906736,-148.041188,-8068.244768,-459.657299
361.907060,-296.082377,-8068.244768,-383.047749
361.907384,-444.123565,-8586.388927,-459.657299
361.907708,-592.164754,-8734.430116,-306.438199
361.908032,-444.123565,-8956.491898,-536.266849
361.908356,-814.226536,-8956.491898,0.000000
361.908680,0.000000,-9622.677246,-306.438199
361.909004,0.000000,-9696.697840,-306.438199
361.909328,148.041188,-10066.800811,0.000000
361.909652,592.164754,-10288.862594,0.000000
361.909976,888.247130,-10140.821405,76.609550
361.910300,1110.308913,-10436.903782,459.657299
361.910625,962.267725,-10066.800811,306.438199
361.910949,1036.288319,-10214.842000,383.047749
361.911273,740.205942,-10362.883188,153.219100
361.911597,518.144159,-10066.800811,153.219100
361.911921,148.041188,-9844.739029,-229.828649
361.912245,-296.082377,-9104.533087,76.609550
361.912569,-518.144159,-9326.594869,-153.219100
361.912893,-888.247130,-9178.553681,-766.095498
361.913217,-1184.329507,-8734.430116,-306.438199
361.913541,-1776.494261,-8882.471304,-689.485948
361.913865,-1258.350101,-8660.409521,-229.828649
361.914189,-1258.350101,-8142.265362,-153.219100
361.914514,-592.164754,-8364.327145,0.000000
361.914838,-592.164754,-8438.347739,0.000000
361.915162,-222.061783,-8882.471304,-459.657299
361.915486,-296.082377,-9326.594869,-459.657299
361.915810,-444.123565,-9178.553681,-229.828649
361.916134,-444.123565,-9992.780217,-536.266849
361.916458,-370.102971,-10436.903782,-383.047749
361.916782,74.020594,-11103.089130,-536.266849
361.917106,296.082377,-11399.171507,-689.485948
361.917430,518.144159,-11029.068536,-306.438199
361.917754,666.185348,-11177.109724,-306.438199
361.918078,296.082377,-11177.109724,0.000000
361.918402,296.082377,-11251.130318,-306.438199
361.918727,518.144159,-11251.130318,-383.047749
361.919051,370.102971,-10807.006753,0.000000
361.919375,370.102971,-10658.965565,0.000000
361.919699,370.102971,-9844.739029,0.000000
361.920023,222.061783,-10066.800811,-153.219100
361.920347,-518.144159,-9548.656652,-229.828649
361.920671,-1258.350101,-9030.512492,-229.828649
361.920995,-962.267725,-9178.553681,-612.876398
361.921319,-592.164754,-8882.471304,-229.828649
361.921643,-666.185348,-8734.430116,-306.438199
361.921967,-296.082377,-8586.388927,306.438199
361.922291,-444.123565,-8290.306550,0.000000
361.922616,-222.061783,-8142.265362,0.000000
361.922940,0.000000,-8068.244768,306.438199
361.923264,-148.041188,-8734.430116,76.609550
361.923588,0.000000,-8956.491898,0.000000
361.923912,370.102971,-9326.594869,76.609550
361.924236,592.164754,-9474.636058,0.000000
361.924560,962.267725,-10066.800811,306.438199
361.924884,444.123565,-9918.759623,689.485948
361.925208,518.144159,-10510.924376,-229.828649
361.925532,444.123565,-10658.965565,306.438199
361.925856,444.123565,-10955.047942,76.609550
361.926180,370.102971,-10807.006753,229.828649
361.926504,444.123565,-10658.965565,306.438199
361.926829,518.144159,-10436.903782,536.266849
361.927153,666.185348,-10214.842000,76.609550
361.927477,666.185348,-10214.842000,842.705048
361.927801,444.123565,-9474.636058,612.876398
361.928125,0.000000,-9326.594869,459.657299
361.928449,-444.123565,-9178.553681,306.438199
361.928773,-592.164754,-9030.512492,306.438199
361.929097,-666.185348,-8734.430116,-459.657299
361.929421,-518.144159,-8290.306550,536.266849
361.929745,-518.144159,-7920.203579,536.266849
361.930069,-370.102971,-8142.265362,459.657299
361.930393,-1258.350101,-8216.285956,0.000000
361.930718,-962.267725,-8808.450710,0.000000
361.931042,-1036.288319,-9104.533087,0.000000
361.931366,-740.205942,-9474.636058,0.000000
361.931690,-370.102971,-9400.615463,459.657299
361.932014,-666.185348,-9770.718434,306.438199
361.932338,0.000000,-10510.924376,306.438199
361.932662,74.020594,-10436.903782,-306.438199
361.932986,148.041188,-10732.986159,0.000000
361.933310,222.061783,-10807.006753,0.000000
361.933634,296.082377,-10955.047942,-153.219100
361.933958,296.082377,-10955.047942,-383.047749
361.934282,888.247130,-11103.089130,-459.657299
361.934606,740.205942,-10732.986159,-229.828649
361.934931,888.247130,-11399.171507,0.000000
361.935255,592.164754,-10955.047942,0.000000
361.935579,444.123565,-10436.903782,-383.047749
361.935903,0.000000,-10658.965565,-306.438199
361.936227,0.000000,-10140.821405,-229.828649
361.936551,-296.082377,-10066.800811,0.000000
361.936875,-592.164754,-9400.615463,0.000000
361.937199,-592.164754,-8438.347739,383.047749
361.937523,-222.061783,-8586.388927,229.828649
361.937847,-518.144159,-8734.430116,0.000000
361.938171,-592.164754,-8512.368333,-229.828649
361.938495,-518.144159,-8216.285956,-306.438199
361.938820,-296.082377,-8290.306550,-229.828649
361.939144,0.000000,-8586.388927,-306.438199
361.939468,74.020594,-9252.574275,-842.705048
361.939792,222.061783,-9326.594869,-229.828649
361.940116,0.000000,-9178.553681,-306.438199
361.940440,74.020594,-9696.697840,-306.438199
361.940764,222.061783,-10362.883188,-306.438199
361.941088,666.185348,-10510.924376,0.000000
361.941412,592.164754,-10658.965565,0.000000
361.941736,888.247130,-10362.883188,229.828649
361.942060,814.226536,-10510.924376,0.000000
361.942384,1184.329507,-10732.986159,612.876398
361.942708,1480.411884,-10362.883188,0.000000
361.943033,1184.329507,-10436.903782,153.219100
361.943357,740.205942,-10066.800811,306.438199
361.943681,148.041188,-9844.739029,0.000000
361.944005,444.123565,-9474.636058,0.000000
361.944329,-222.061783,-8882.471304,153.219100
361.944653,-592.164754,-8660.409521,-229.828649
361.944977,-962.267725,-8290.306550,-306.438199
361.945301,-740.205942,-8660.409521,-229.828649
361.945625,-1554.432478,-7846.182985,306.438199
361.945949,-1258.350101,-8068.244768,-383.047749
361.946273,-1406.391290,-8438.347739,0.000000
361.946597,-1258.350101,-8586.388927,0.000000
361.946922,-1258.350101,-8956.491898,0.000000
361.947246,-888.247130,-9178.553681,0.000000
361.947570,-666.185348,-9696.697840,-153.219100
361.947894,-518.144159,-10288.862594,153.219100
361.948218,74.020594,-10584.944971,-229.828649
361.948542,444.123565,-11029.068536,0.000000
361.948866,592.164754,-11325.150913,-153.219100
361.949190,888.247130,-11399.171507,0.000000
361.949514,666.185348,-11473.192101,0.000000
361.949838,518.144159,-10955.047942,-459.657299
361.950162,370.102971,-10955.047942,76.609550
361.950486,518.144159,-10732.986159,-153.219100
361.950810,0.000000,-10584.944971,-383.047749
361.951135,-370.102971,-10436.903782,-153.219100
361.951459,-592.164754,-10140.821405,-306.438199
361.951783,-814.226536,-9548.656652,-459.657299
361.952107,-962.267725,-9178.553681,0.000000
361.952431,-1332.370696,-8808.450710,-1149.143247
361.952755,-888.247130,-8438.347739,153.219100
361.953079,-740.205942,-8586.388927,0.000000
361.953403,-370.102971,-8512.368333,0.000000
361.953727,0.000000,-8660.409521,-229.828649
361.954051,74.020594,-8660.409521,0.000000
361.954375,148.041188,-8956.491898,76.609550
361.954699,148.041188,-8882.471304,-459.657299
361.955024,74.020594,-8660.409521,0.000000
361.955348,518.144159,-9252.574275,-153.219100
361.955672,518.144159,-9474.636058,-306.438199
361.955996,740.205942,-9992.780217,-306.438199
361.956320,592.164754,-10362.883188,0.000000
361.956644,740.205942,-10436.903782,0.000000
361.956968,740.205942,-10510.924376,229.828649
361.957292,666.185348,-10362.883188,229.828649
361.957616,888.247130,-10362.883188,229.828649
361.957940,740.205942,-10362.883188,689.485948
361.958264,962.267725,-10362.883188,459.657299
361.958588,592.164754,-10214.842000,383.047749
361.958912,296.082377,-9918.759623,153.219100
361.959237,222.061783,-9918.759623,76.609550
361.959561,0.000000,-9252.574275,153.219100
361.959885,0.000000,-9178.553681,76.609550
361.960209,-370.102971,-9030.512492,0.000000
361.960533,-370.102971,-8660.409521,-153.219100
361.960857,-370.102971,-8512.368333,229.828649
361.961181,-518.144159,-8438.347739,153.219100
361.961505,-740.205942,-8438.347739,-153.219100
361.961829,-1036.288319,-8660.409521,306.438199
361.962153,-1258.350101,-8808.450710,0.000000
361.962477,-1258.350101,-9030.512492,459.657299
361.962801,-962.267725,-9252.574275,0.000000
361.963126,-888.247130,-9548.656652,0.000000
361.963450,-666.185348,-9844.739029,0.000000
361.963774,-148.041188,-10362.883188,0.000000
361.964098,0.000000,-10214.842000,0.000000
361.964422,0.000000,-10288.862594,-153.219100
361.964746,0.000000,-10510.924376,0.000000
361.965070,296.082377,-11029.068536,-383.047749
361.965394,444.123565,-11251.130318,-383.047749
361.965718,666.185348,-11251.130318,0.000000
361.966042,666.185348,-11103.089130,-306.438199
361.966366,370.102971,-10807.006753,0.000000
361.966690,592.164754,-10584.944971,-306.438199
361.967015,222.061783,-10584.944971,-383.047749
361.967339,0.000000,-10584.944971,0.000000
361.967663,-518.144159,-9770.718434,153.219100
361.967987,-222.061783,-9696.697840,0.000000
361.968311,-370.102971,-9326.594869,0.000000
361.968635,-592.164754,-9326.594869,0.000000
361.968959,-444.123565,-8660.409521,-383.047749
361.969283,-296.082377,-8364.327145,-383.047749
361.969607,-518.144159,-8364.327145,-229.828649
361.969932,-222.061783,-8216.285956,-229.828649
361.970256,0.000000,-8364.327145,-153.219100
361.970580,148.041188,-8660.409521,0.000000
361.970904,74.020594,-9178.553681,0.000000
361.971228,0.000000,-9252.574275,-229.828649
361.971552,0.000000,-9696.697840,-229.828649
361.971876,444.123565,-9548.656652,0.000000
361.972200,444.123565,-9992.780217,306.438199
361.972524,592.164754,-10214.842000,229.828649
361.972849,1036.288319,-10584.944971,306.438199
361.973173,1258.350101,-10436.903782,459.657299
361.973497,1332.370696,-10510.924376,689.485948
361.973821,1628.453072,-10807.006753,1072.533697
361.974145,1332.370696,-10436.903782,612.876398
361.974469,1184.329507,-9918.759623,383.047749
361.974793,1184.329507,-9918.759623,306.438199
361.975117,222.061783,-9474.636058,153.219100
361.975441,-222.061783,-9474.636058,229.828649
361.975766,-518.144159,-8882.471304,0.000000
361.976090,-1036.288319,-8290.306550,0.000000
361.976414,-1036.288319,-8068.244768,0.000000
361.976738,-1406.391290,-7698.141797,0.000000
361.977062,-1184.329507,-8068.244768,0.000000
361.977386,-962.267725,-8438.347739,229.828649
361.977710,-1184.329507,-8512.368333,0.000000
361.978034,-1332.370696,-8734.430116,153.219100
361.978358,-1332.370696,-8882.471304,76.609550
361.978683,-888.247130,-9252.574275,153.219100
361.979007,0.000000,-9992.780217,153.219100
361.979331,0.000000,-9918.759623,76.609550
361.979655,296.082377,-10362.883188,-536.266849
361.979979,148.041188,-10881.027347,-536.266849
361.980303,296.082377,-11325.150913,-612.876398
361.980627,370.102971,-11399.171507,-689.485948
361.980951,296.082377,-11399.171507,-689.485948
361.981275,74.020594,-11473.192101,-689.485948
361.981600,296.082377,-10881.027347,0.000000
361.981924,74.020594,-11251.130318,0.000000
361.982248,148.041188,-10732.986159,0.000000
361.982572,-518.144159,-10510.924376,-153.219100
361.982896,0.000000,-10362.883188,-536.266849
361.983220,-518.144159,-9770.718434,-229.828649
361.983544,-740.205942,-9474.636058,-229.828649
361.983868,-592.164754,-9178.553681,-612.876398
361.984192,-296.082377,-8808.450710,-153.219100
361.984517,0.000000,-8586.388927,-459.657299
361.984841,-222.061783,-8068.244768,-153.219100
361.985165,-148.041188,-8364.327145,-153.219100
361.985489,0.000000,-8660.409521,-766.095498
361.985813,74.020594,-8956.491898,-383.047749
361.986137,222.061783,-8956.491898,-459.657299
361.986461,296.082377,-9178.553681,-383.047749
361.986785,222.061783,-8956.491898,-153.219100
361.987109,888.247130,-9474.636058,0.000000
361.987434,666.185348,-9844.739029,-383.047749
361.987758,814.226536,-10066.800811,76.609550
361.988082,222.061783,-10214.842000,76.609550
361.988406,518.144159,-10288.862594,0.000000
361.988730,518.144159,-10658.965565,229.828649
361.989054,814.226536,-10658.965565,76.609550
361.989378,1036.288319,-10510.924376,0.000000
361.989702,444.123565,-10214.842000,229.828649
361.990026,-148.041188,-10214.842000,76.609550
361.990351,0.000000,-9918.759623,306.438199
361.990675,-222.061783,-9622.677246,153.219100
361.990999,-370.102971,-9474.636058,153.219100
361.991323,-592.164754,-9104.533087,0.000000
361.991647,-1110.308913,-8586.388927,0.000000
361.991971,-592.164754,-7920.203579,383.047749
361.992295,-370.102971,-8142.265362,536.266849
361.992619,-666.185348,-7994.224174,229.828649
361.992943,-888.247130,-8216.285956,76.609550
361.993268,-1110.308913,-8290.306550,153.219100
361.993592,-1110.308913,-8438.347739,-229.828649
361.993916,-1110.308913,-9104.533087,0.000000
361.994240,-962.267725,-9474.636058,-383.047749
361.994564,-962.267725,-9622.677246,-229.828649
361.994888,-814.226536,-9770.718434,0.000000
361.995212,-222.061783,-10362.883188,-383.047749
361.995536,-222.061783,-10584.944971,0.000000
361.995860,74.020594,-11029.068536,-153.219100
361.996185,296.082377,-11029.068536,0.000000
361.996509,740.205942,-11177.109724,0.000000
361.996833,1110.308913,-11029.068536,-153.219100
361.997157,888.247130,-11177.109724,229.828649
361.997481,888.247130,-10658.965565,-306.438199
361.997805,666.185348,-10955.047942,-306.438199
361.998129,296.082377,-10955.047942,-306.438199
361.998453,74.020594,-10881.027347,-306.438199
361.998777,0.000000,-10436.903782,-459.657299
361.999102,74.020594,-10140.821405,-76.609550
361.999426,0.000000,-9474.636058,0.000000
361.999750,-222.061783,-9326.594869,0.000000
362.000074,0.000000,-9178.553681,76.609550
362.000398,0.000000,-8734.430116,153.219100
362.000722,0.000000,-8290.306550,-153.219100
362.001046,-148.041188,-8364.327145,-229.828649
362.001370,0.000000,-8364.327145,-153.219100
362.001694,296.082377,-8808.450710,0.000000
362.002019,148.041188,-8882.471304,-153.219100
362.002343,148.041188,-9030.512492,0.000000
362.002667,-148.041188,-9104.533087,0.000000
362.002991,0.000000,-9474.636058,-383.047749
362.003315,222.061783,-9696.697840,0.000000
362.003639,148.041188,-9992.780217,0.000000
362.003963,370.102971,-9918.759623,153.219100
362.004287,444.123565,-9844.739029,459.657299
362.004611,296.082377,-9844.739029,229.828649
362.004936,666.185348,-9992.780217,842.705048
362.005260,888.247130,-10510.924376,612.876398
362.005584,888.247130,-10288.862594,766.095498
362.005908,962.267725,-10140.821405,842.705048
362.006232,814.226536,-10066.800811,229.828649
362.006556,296.082377,-9622.677246,842.705048
362.006880,74.020594,-9548.656652,689.485948
362.007204,-296.082377,-9326.594869,76.609550
362.007528,-1036.288319,-8586.388927,153.219100
362.007853,-1184.329507,-8364.327145,0.000000
362.008177,-1332.370696,-8290.306550,-153.219100
362.008501,-1184.329507,-8068.244768,-229.828649
362.008825,-1036.288319,-8142.265362,0.000000
362.009149,-1406.391290,-8364.327145,612.876398
362.009473,-1036.288319,-8734.430116,0.000000
362.009797,-1036.288319,-9326.594869,-229.828649
362.010121,-1036.288319,-9474.636058,-229.828649
362.010445,-592.164754,-10066.800811,-153.219100
362.010770,-222.061783,-10510.924376,0.000000
362.011094,148.041188,-10955.047942,0.000000
362.011418,444.123565,-11029.068536,76.609550
362.011742,740.205942,-11103.089130,0.000000
362.012066,814.226536,-11547.212695,-229.828649
362.012390,814.226536,-11695.253884,-153.219100
362.012714,888.247130,-11399.171507,-306.438199
362.013038,888.247130,-11251.130318,-383.047749
362.013362,814.226536,-10955.047942,-689.485948
362.013687,296.082377,-10658.965565,-383.047749
362.014011,148.041188,-11103.089130,-153.219100
362.014335,-148.041188,-9770.718434,0.000000
362.014659,-592.164754,-9622.677246,-76.609550
362.014983,-888.247130,-9548.656652,-229.828649
362.015307,-1184.329507,-8882.471304,-229.828649
362.015631,-814.226536,-8734.430116,-306.438199
362.015955,-740.205942,-8808.450710,-612.876398
362.016279,-148.041188,-8216.285956,-229.828649
362.016604,-518.144159,-7994.224174,0.000000
362.016928,0.000000,-8438.347739,0.000000
362.017252,-148.041188,-8512.368333,0.000000
362.017576,0.000000,-9030.512492,-459.657299
362.017900,370.102971,-9104.533087,-306.438199
362.018224,518.144159,-9400.615463,-153.219100
362.018548,1110.308913,-9252.574275,0.000000
362.018872,1184.329507,-9844.739029,-612.876398
362.019196,1184.329507,-10362.883188,0.000000
362.019520,444.123565,-10066.800811,0.000000
362.019845,592.164754,-10362.883188,0.000000
362.020169,148.041188,-10214.842000,0.000000
362.020493,74.020594,-10510.924376,229.828649
362.020817,370.102971,-10214.842000,0.000000
362.021141,666.185348,-10214.842000,229.828649
362.021465,148.041188,-9918.759623,229.828649
362.021789,0.000000,-9770.718434,383.047749
362.022113,-296.082377,-9770.718434,0.000000
362.022437,-592.164754,-9474.636058,-153.219100
362.022762,-814.226536,-9474.636058,-229.828649
362.023086,-962.267725,-9104.533087,0.000000
362.023410,-962.267725,-8734.430116,0.000000
362.023734,-518.144159,-8216.285956,0.000000
362.024058,-296.082377,-8586.388927,153.219100
362.024382,-740.205942,-8808.450710,-76.609550
362.024706,-814.226536,-8882.471304,-153.219100
362.025030,-1036.288319,-9252.574275,0.000000
362.025354,-962.267725,-9252.574275,0.000000
362.025679,-962.267725,-9474.636058,0.000000
362.026003,-518.144159,-9918.759623,153.219100
362.026327,-370.102971,-9622.677246,0.000000
362.026651,-296.082377,-10362.883188,-536.266849
362.026975,-296.082377,-10732.986159,-383.047749
362.027299,-148.041188,-10881.027347,-459.657299
362.027623,222.061783,-11029.068536,-383.047749
362.027947,444.123565,-10881.027347,-383.047749
362.028271,814.226536,-10658.965565,0.000000
362.028596,1036.288319,-11103.089130,0.000000
362.028920,1110.308913,-10955.047942,76.609550
362.029244,1258.350101,-10362.883188,-612.876398
362.029568,962.267725,-10436.903782,0.000000
362.029892,666.185348,-10362.883188,76.609550
362.030216,148.041188,-10214.842000,0.000000
362.030540,-370.102971,-9770.718434,76.609550
362.030864,-444.123565,-8956.491898,0.000000
362.031188,0.000000,-9252.574275,536.266849
362.031513,0.000000,-8808.450710,229.828649
362.031837,-222.061783,-8660.409521,0.000000
362.032161,-296.082377,-8068.244768,153.219100
362.032485,0.000000,-7920.203579,0.000000
362.032809,0.000000,-8290.306550,383.047749
362.033133,0.000000,-8438.347739,0.000000
362.033457,0.000000,-8364.327145,306.438199
362.033781,-370.102971,-8956.491898,0.000000
362.034105,0.000000,-8956.491898,229.828649
362.034430,222.061783,-9622.677246,76.609550
362.034754,296.082377,-9992.780217,0.000000
362.035078,444.123565,-10436.903782,229.828649
362.035402,518.144159,-10066.800811,459.657299
362.035726,740.205942,-10288.862594,306.438199
362.036050,740.205942,-10732.986159,459.657299
362.036374,814.226536,-10732.986159,76.609550
362.036698,888.247130,-10658.965565,459.657299
362.037022,666.185348,-10658.965565,459.657299
362.037347,370.102971,-10510.924376,229.828649
362.037671,148.041188,-10140.821405,153.219100
362.037995,-148.041188,-9770.718434,0.000000
362.038319,-296.082377,-9622.677246,153.219100
362.038643,-370.102971,-9178.553681,-153.219100
362.038967,-888.247130,-9400.615463,76.609550
362.039291,-814.226536,-8882.471304,76.609550
362.039615,-1036.288319,-8808.450710,0.000000
362.039939,-814.226536,-8364.327145,0.000000
362.040264,-740.205942,-8290.306550,153.219100
362.040588,-592.164754,-8512.368333,0.000000
362.040912,-1184.329507,-8290.306550,153.219100
362.041236,-888.247130,-8882.471304,76.609550
362.041560,-888.247130,-8956.491898,0.000000
362.041884,-370.102971,-9696.697840,0.000000
362.042208,0.000000,-10140.821405,0.000000
362.042532,370.102971,-10510.924376,306.438199
362.042856,666.185348,-10732.986159,-76.609550
362.043181,740.205942,-10881.027347,-76.609550
362.043505,666.185348,-10955.047942,0.000000
362.043829,814.226536,-11399.171507,76.609550
362.044153,888.247130,-11177.109724,0.000000
362.044477,814.226536,-11103.089130,-383.047749
362.044801,740.205942,-11029.068536,-153.219100
362.045125,444.123565,-10807.006753,-306.438199
362.045449,0.000000,-10214.842000,-229.828649
362.045773,-740.205942,-9474.636058,153.219100
362.046098,-740.205942,-9326.594869,0.000000
362.046422,-740.205942,-9030.512492,0.000000
362.046746,-592.164754,-8734.430116,-459.657299
362.047070,-296.082377,-8512.368333,-383.047749
362.047394,-370.102971,-8438.347739,-612.876398
362.047718,-444.123565,-7994.224174,-612.876398
362.048042,-666.185348,-7994.224174,-306.438199
362.048366,-518.144159,-8290.306550,-383.047749
362.048690,148.041188,-8956.491898,-229.828649
362.049015,0.000000,-8882.471304,-383.047749
362.049339,296.082377,-9326.594869,-383.047749
362.049663,666.185348,-9548.656652,-306.438199
362.049987,740.205942,-9696.697840,-153.219100
362.050311,518.144159,-9844.739029,-306.438199
362.050635,888.247130,-10066.800811,229.828649
362.050959,444.123565,-10362.883188,-229.828649
362.051283,222.061783,-10658.965565,-612.876398
362.051607,222.061783,-10807.006753,-306.438199
362.051932,148.041188,-10807.006753,-306.438199
362.052256,74.020594,-10658.965565,-229.828649
362.052580,74.020594,-10658.965565,153.219100
362.052904,0.000000,-10807.006753,-229.828649
362.053228,-222.061783,-10066.800811,-229.828649
362.053552,-444.123565,-10584.944971,-153.219100
362.053876,-1184.329507,-9844.739029,0.000000
362.054200,-1258.350101,-9622.677246,0.000000
362.054524,-962.267725,-9030.512492,-229.828649
362.054849,-888.247130,-8512.368333,229.828649
362.055173,-592.164754,-8438.347739,76.609550
362.055497,-222.061783,-8660.409521,-153.219100
362.055821,-148.041188,-8586.388927,229.828649
362.056145,-592.164754,-8438.347739,76.609550
362.056469,-666.185348,-8808.450710,-229.828649
362.056793,-740.205942,-9252.574275,0.000000
362.057117,-740.205942,-9474.636058,0.000000
362.057441,-444.123565,-9770.718434,-536.266849
362.057766,-222.061783,-9844.739029,-153.219100
362.058090,-148.041188,-10140.821405,0.000000
362.058414,296.082377,-10584.944971,306.438199
362.058738,148.041188,-10584.944971,-229.828649
362.059062,518.144159,-10510.924376,0.000000
362.059386,518.144159,-10955.047942,306.438199
362.059710,518.144159,-10807.006753,0.000000
362.060034,962.267725,-10658.965565,459.657299
362.060358,1036.288319,-10436.903782,306.438199
362.060683,666.185348,-10214.842000,306.438199
362.061007,518.144159,-10362.883188,76.609550
362.061331,296.082377,-10214.842000,76.609550
362.061655,148.041188,-10066.800811,229.828649
362.061979,74.020594,-9474.636058,0.000000
362.062303,-148.041188,-9178.553681,0.000000
362.062627,-148.041188,-8734.430116,229.828649
362.062951,-296.082377,-8586.388927,153.219100
362.063275,-666.185348,-8512.368333,306.438199
362.063600,-444.123565,-8364.327145,459.657299
362.063924,-666.185348,-8290.306550,153.219100
362.064248,-518.144159,-8364.327145,0.000000
362.064572,0.000000,-8734.430116,612.876398
362.064896,-222.061783,-8586.388927,0.000000
362.065220,-296.082377,-9326.594869,0.000000
362.065544,0.000000,-9474.636058,0.000000
362.065868,0.000000,-9474.636058,153.219100
362.066192,740.205942,-10140.821405,76.609550
362.066517,444.123565,-10214.842000,0.000000
362.066841,518.144159,-10658.965565,0.000000
362.067165,444.123565,-10584.944971,0.000000
362.067489,592.164754,-10732.986159,76.609550
362.067813,740.205942,-10732.986159,612.876398
362.068138,1036.288319,-10807.006753,153.219100
362.068462,1036.288319,-11621.233289,306.438199
362.068786,740.205942,-10658.965565,229.828649
362.069110,518.144159,-10288.862594,153.219100
362.069434,148.041188,-9992.780217,229.828649
362.069758,-222.061783,-9548.656652,0.000000
362.070083,-370.102971,-9474.636058,0.000000
362.070407,-592.164754,-8734.430116,-229.828649
362.070731,-296.082377,-8438.347739,-229.828649
362.071055,-370.102971,-8290.306550,-306.438199
362.071379,-370.102971,-8364.327145,-383.047749
362.071704,-814.226536,-8586.388927,-459.657299
362.072028,-1036.288319,-8660.409521,-306.438199
362.072352,-1258.350101,-8808.450710,-153.219100
362.072676,-1184.329507,-9030.512492,0.000000
362.073000,-962.267725,-9400.615463,0.000000
362.073325,-518.144159,-9326.594869,76.609550
362.073649,222.061783,-9844.739029,0.000000
362.073973,222.061783,-10436.903782,-306.438199
362.074297,444.123565,-10807.006753,0.000000
362.074621,518.144159,-11029.068536,-76.609550
362.074946,296.082377,-11029.068536,-306.438199
362.075270,296.082377,-11103.089130,-229.828649
362.075594,740.205942,-10807.006753,0.000000
362.075918,592.164754,-10955.047942,-689.485948
362.076242,592.164754,-10362.883188,0.000000
362.076567,148.041188,-10214.842000,-229.828649
362.076891,-148.041188,-10362.883188,-383.047749
362.077215,-666.185348,-9992.780217,-536.266849
362.077539,-962.267725,-9326.594869,-842.705048
362.077863,-1184.329507,-8734.430116,-306.438199
362.078188,-1406.391290,-8512.368333,-153.219100
362.078512,-740.205942,-8660.409521,0.000000
362.078836,-962.267725,-8586.388927,-536.266849
362.079160,-592.164754,-8512.368333,-306.438199
362.079484,-814.226536,-8290.306550,-306.438199
362.079808,-444.123565,-8586.388927,-153.219100
362.080133,-444.123565,-8586.388927,-612.876398
362.080457,296.082377,-8808.450710,-153.219100
362.080781,592.164754,-9178.553681,-689.485948
362.081105,888.247130,-9770.718434,-229.828649
362.081429,666.185348,-9992.780217,-153.219100
362.081754,666.185348,-10214.842000,-153.219100
362.082078,888.247130,-10436.903782,0.000000
362.082402,666.185348,-10362.883188,0.000000
362.082726,444.123565,-10881.027347,383.047749
362.083050,814.226536,-10584.944971,306.438199
362.083375,666.185348,-10584.944971,76.609550
362.083699,814.226536,-10732.986159,229.828649
362.084023,666.185348,-10436.903782,153.219100
362.084347,444.123565,-10140.821405,153.219100
362.084671,74.020594,-10066.800811,612.876398
362.084996,-148.041188,-9696.697840,766.095498
362.085320,-222.061783,-9326.594869,76.609550
362.085644,-444.123565,-9178.553681,0.000000
362.085968,-296.082377,-9104.533087,229.828649
362.086292,-518.144159,-8808.450710,0.000000
362.086617,-592.164754,-8438.347739,0.000000
362.086941,-444.123565,-8438.347739,153.219100
362.087265,-222.061783,-8142.265362,229.828649
362.087589,-444.123565,-8512.368333,76.609550
362.087913,-1332.370696,-8512.368333,306.438199
362.088238,-1258.350101,-8808.450710,0.000000
362.088562,-740.205942,-9104.533087,76.609550
362.088886,-370.102971,-9622.677246,0.000000
362.089210,-444.123565,-9770.718434,0.000000
362.089534,-296.082377,-9844.739029,-153.219100
362.089858,-148.041188,-9844.739029,229.828649
362.090183,370.102971,-10510.924376,153.219100
362.090507,296.082377,-10584.944971,0.000000
362.090831,444.123565,-10584.944971,0.000000
362.091155,148.041188,-10807.006753,-153.219100
362.091479,444.123565,-10807.006753,0.000000
362.091804,444.123565,-10732.986159,0.000000
362.092128,296.082377,-10436.903782,-459.657299
362.092452,222.061783,-10436.903782,229.828649
362.092776,444.123565,-10510.924376,0.000000
362.093100,0.000000,-10214.842000,76.609550
362.093425,-148.041188,-9918.759623,76.609550
362.093749,-370.102971,-9474.636058,0.000000
362.094073,-296.082377,-9326.594869,0.000000
362.094397,-296.082377,-9030.512492,0.000000
362.094721,0.000000,-8734.430116,76.609550
362.095046,-592.164754,-8364.327145,76.609550
362.095370,0.000000,-8512.368333,-612.876398
362.095694,0.000000,-8956.491898,-153.219100
362.096018,-444.123565,-8882.471304,-536.266849
362.096342,-592.164754,-9030.512492,-383.047749
362.096667,-370.102971,-9326.594869,-306.438199
362.096991,148.041188,-9400.615463,0.000000
362.097315,518.144159,-9622.677246,229.828649
362.097639,444.123565,-9844.739029,383.047749
362.097963,222.061783,-10066.800811,-153.219100
362.098288,740.205942,-10362.883188,0.000000
362.098612,666.185348,-10584.944971,0.000000
362.098936,814.226536,-10955.047942,306.438199
362.099260,888.247130,-11029.068536,0.000000
362.099584,1258.350101,-10584.944971,-229.828649
362.099908,1036.288319,-10140.821405,459.657299
362.100233,814.226536,-10214.842000,0.000000
362.100557,444.123565,-10066.800811,229.828649
362.100881,0.000000,-9770.718434,0.000000
362.101205,-296.082377,-9400.615463,0.000000
362.101529,-740.205942,-8882.471304,-153.219100
362.101854,-592.164754,-8660.409521,-229.828649
362.102178,-666.185348,-8142.265362,383.047749
362.102502,-666.185348,-8068.244768,0.000000
362.102826,-370.102971,-7772.162391,-383.047749
362.103150,-592.164754,-8216.285956,-153.219100
362.103475,-814.226536,-8438.347739,0.000000
362.103799,-888.247130,-8660.409521,-306.438199
362.104123,-888.247130,-8956.491898,76.609550
362.104447,-888.247130,-9400.615463,0.000000
362.104771,-740.205942,-9696.697840,0.000000
362.105096,-518.144159,-10288.862594,0.000000
362.105420,-592.164754,-10214.842000,0.000000
362.105744,0.000000,-10881.027347,-229.828649
362.106068,296.082377,-10881.027347,0.000000
362.106392,592.164754,-10955.047942,0.000000
362.106717,740.205942,-10807.006753,0.000000
362.107041,518.144159,-10658.965565,-229.828649
362.107365,444.123565,-10362.883188,0.000000
362.107689,148.041188,-10436.903782,153.219100
362.108013,-74.020594,-10658.965565,0.000000
362.108338,-148.041188,-10140.821405,0.000000
362.108662,-444.123565,-10140.821405,0.000000
362.108986,-666.185348,-9770.718434,-153.219100
362.109310,-962.267725,-9400.615463,153.219100
362.109634,-1184.329507,-8808.450710,0.000000
362.109958,-888.247130,-8438.347739,-306.438199
362.110283,-814.226536,-7994.224174,383.047749
362.110607,-444.123565,-8512.368333,0.000000
362.110931,-296.082377,-8364.327145,-306.438199
362.111255,-148.041188,-8512.368333,-229.828649
362.111579,-74.020594,-8586.388927,0.000000
362.111904,-222.061783,-9030.512492,-383.047749
362.112228,0.000000,-9178.553681,229.828649
362.112552,370.102971,-9474.636058,0.000000
362.112876,444.123565,-9844.739029,0.000000
362.113200,444.123565,-10288.862594,-229.828649
362.113525,518.144159,-10436.903782,0.000000
362.113849,740.205942,-10732.986159,0.000000
362.114173,1258.350101,-10436.903782,383.047749
362.114497,888.247130,-10362.883188,459.657299
362.114821,1036.288319,-10807.006753,-76.609550
362.115146,962.267725,-10732.986159,229.828649
362.115470,740.205942,-10510.924376,76.609550
362.115794,444.123565,-10362.883188,76.609550
362.116118,148.041188,-9992.780217,153.219100
362.116442,0.000000,-9696.697840,0.000000
362.116767,-296.082377,-9252.574275,306.438199
362.117091,-740.205942,-8956.491898,-229.828649
362.117415,-740.205942,-8734.430116,153.219100
362.117739,-592.164754,-8512.368333,-383.047749
362.118063,-740.205942,-8364.327145,-229.828649
362.118388,-222.061783,-8290.306550,-153.219100
362.118712,-444.123565,-8364.327145,0.000000
362.119036,-592.164754,-8290.306550,-153.219100
362.119360,-1036.288319,-8808.450710,-383.047749
362.119684,-1258.350101,-8660.409521,76.609550
362.120008,-592.164754,-9474.636058,-306.438199
362.120333,-444.123565,-10066.800811,0.000000
362.120657,-370.102971,-10066.800811,0.000000
362.120981,0.000000,-10288.862594,-153.219100
362.121305,148.041188,-10362.883188,-383.047749
362.121629,444.123565,-10584.944971,-306.438199
362.121954,444.123565,-10362.883188,-229.828649
362.122278,592.164754,-10955.047942,-383.047749
362.122602,518.144159,-11029.068536,-229.828649
362.122926,444.123565,-10955.047942,-153.219100
362.123250,518.144159,-11325.150913,-306.438199
362.123575,370.102971,-10881.027347,-153.219100
362.123899,444.123565,-10436.903782,153.219100
362.124223,-148.041188,-10066.800811,0.000000
362.124547,-666.185348,-9844.739029,-383.047749
362.124871,-148.041188,-9696.697840,0.000000
362.125196,-518.144159,-9474.636058,0.000000
362.125520,-592.164754,-8882.471304,0.000000
362.125844,-444.123565,-8734.430116,0.000000
362.126168,74.020594,-8512.368333,-383.047749
362.126492,74.020594,-8216.285956,0.000000
362.126817,0.000000,-8364.327145,-612.876398
362.127141,-148.041188,-8512.368333,383.047749
362.127465,0.000000,-8586.388927,0.000000
362.127789,-148.041188,-9030.512492,0.000000
362.128113,0.000000,-9252.574275,0.000000
362.128438,0.000000,-9474.636058,229.828649
362.128762,0.000000,-9474.636058,0.000000
362.129086,222.061783,-9918.759623,229.828649
362.129410,296.082377,-9918.759623,383.047749
362.129734,370.102971,-10066.800811,153.219100
362.130058,666.185348,-10362.883188,306.438199
362.130383,1110.308913,-10066.800811,536.266849
362.130707,1184.329507,-10658.965565,536.266849
362.131031,740.205942,-10214.842000,459.657299
362.131355,814.226536,-10584.944971,459.657299
362.131679,888.247130,-9622.677246,689.485948
362.132004,518.144159,-9844.739029,76.609550
362.132328,148.041188,-10066.800811,76.609550
362.132652,0.000000,-9400.615463,76.609550
362.132976,-296.082377,-9252.574275,0.000000
362.133300,-592.164754,-8956.491898,76.609550
362.133625,-592.164754,-8734.430116,0.000000
362.133949,-518.144159,-8734.430116,76.609550
362.134273,-444.123565,-8586.388927,0.000000
362.134597,-518.144159,-8142.265362,-229.828649
362.134921,-888.247130,-8660.409521,0.000000
362.135246,-1110.308913,-8882.471304,0.000000
362.135570,-962.267725,-9326.594869,76.609550
362.135894,-1036.288319,-9104.533087,153.219100
362.136218,-444.123565,-9548.656652,76.609550
362.136542,-148.041188,-9918.759623,0.000000
362.136867,0.000000,-10140.821405,0.000000
362.137191,222.061783,-10510.924376,0.000000
362.137515,296.082377,-10955.047942,-306.438199
362.137839,518.144159,-11029.068536,-229.828649
362.138163,296.082377,-11177.109724,0.000000
362.138488,740.205942,-11399.171507,-306.438199
362.138812,740.205942,-11103.089130,0.000000
362.139136,518.144159,-11103.089130,-229.828649
362.139460,518.144159,-11103.089130,0.000000
362.139784,0.000000,-10436.903782,-383.047749
362.140108,-148.041188,-10140.821405,-306.438199
362.140433,-518.144159,-9844.739029,-229.828649
362.140757,-1184.329507,-9104.533087,0.000000
362.141081,-814.226536,-8364.327145,-383.047749
362.141405,-296.082377,-8882.471304,0.000000
362.141729,-740.205942,-8364.327145,-612.876398
362.142054,-444.123565,-8438.347739,-383.047749
362.142378,-444.123565,-8586.388927,-536.266849
362.142702,-444.123565,-8586.388927,-459.657299
362.143026,-518.144159,-8660.409521,-306.438199
362.143350,-370.102971,-8290.306550,-612.876398
362.143675,-592.164754,-8882.471304,-842.705048
362.143999,222.061783,-9474.636058,-306.438199
362.144323,740.205942,-9770.718434,-383.047749
362.144647,962.267725,-10140.821405,0.000000
362.144971,1036.288319,-10436.903782,0.000000
362.145296,814.226536,-10436.903782,76.609550
362.145620,888.247130,-10881.027347,306.438199
362.145944,666.185348,-10732.986159,306.438199
362.146268,666.185348,-10732.986159,-459.657299
362.146592,518.144159,-10214.842000,0.000000
362.146917,222.061783,-10436.903782,153.219100
362.147241,148.041188,-10066.800811,0.000000
362.147565,-148.041188,-9770.718434,0.000000
362.147889,-296.082377,-9548.656652,0.000000
362.148213,-592.164754,-9326.594869,-306.438199
362.148538,-592.164754,-9548.656652,-229.828649
362.148862,-444.123565,-8882.471304,0.000000
362.149186,-370.102971,-8438.347739,76.609550
362.149510,-370.102971,-8660.409521,0.000000
362.149834,-518.144159,-8438.347739,0.000000
362.150158,-1036.288319,-8586.388927,-306.438199
362.150483,-1036.288319,-8586.388927,459.657299
362.150807,-962.267725,-8882.471304,0.000000
362.151131,-518.144159,-9400.615463,383.047749
362.151455,-666.185348,-9844.739029,153.219100
362.151779,-740.205942,-9622.677246,-153.219100
362.152104,-666.185348,-9992.780217,-153.219100
362.152428,-370.102971,-10214.842000,-306.438199
362.152752,74.020594,-10658.965565,-383.047749
362.153076,296.082377,-10881.027347,-306.438199
362.153400,518.144159,-10807.006753,-229.828649
362.153725,370.102971,-10732.986159,-153.219100
362.154049,0.000000,-10955.047942,-153.219100
362.154373,222.061783,-11251.130318,-306.438199
362.154697,592.164754,-11251.130318,-229.828649
362.155021,296.082377,-10732.986159,-306.438199
362.155346,370.102971,-10584.944971,0.000000
362.155670,740.205942,-10288.862594,229.828649
362.155994,-296.082377,-9696.697840,536.266849
362.156318,74.020594,-9400.615463,76.609550
362.156642,74.020594,-9326.594869,153.219100
362.156967,0.000000,-8956.491898,0.000000
362.157291,0.000000,-8808.450710,0.000000
362.157615,0.000000,-8512.368333,0.000000
362.157939,74.020594,-8142.265362,0.000000
362.158263,-296.082377,-8216.285956,76.609550
362.158588,-222.061783,-8586.388927,0.000000
362.158912,0.000000,-8660.409521,0.000000
362.159236,0.000000,-8808.450710,0.000000
362.159560,148.041188,-9326.594869,0.000000
362.159884,0.000000,-9622.677246,383.047749
362.160208,518.144159,-9770.718434,306.438199
362.160533,444.123565,-9992.780217,689.485948
362.160857,814.226536,-10214.842000,229.828649
362.161181,740.205942,-10288.862594,306.438199
362.161505,888.247130,-10436.903782,229.828649
362.161829,814.226536,-10584.944971,383.047749
362.162154,1110.308913,-10881.027347,612.876398
362.162478,814.226536,-10584.944971,383.047749
362.162802,1110.308913,-10362.883188,459.657299
362.163126,740.205942,-10066.800811,689.485948
362.163450,518.144159,-9992.780217,842.705048
362.163775,-296.082377,-9844.739029,612.876398
362.164099,-592.164754,-9474.636058,229.828649
362.164423,-962.267725,-9030.512492,229.828649
