#time,accel_x,accel_y,accel_z
780.005791,-4811.338623,-7846.182985,-995.924147
780.006115,-9252.574275,-8586.388927,-1762.019645
780.006439,-11029.068536,-10140.821405,-2298.286494
780.006764,-8586.388927,-11621.233289,-1762.019645
780.007088,-5255.462188,-11177.109724,536.266849
780.007412,-1554.432478,-8216.285956,1378.971896
780.007737,740.205942,-5847.626942,919.314598
780.008061,1110.308913,-5181.441594,76.609550
780.008385,666.185348,-5625.565159,612.876398
780.008710,518.144159,-7772.162391,1072.533697
780.009034,1480.411884,-9252.574275,1072.533697
780.009358,2072.576638,-9770.718434,1991.848295
780.009683,2886.803174,-11177.109724,1991.848295
780.010007,2146.597232,-12435.459826,1991.848295
780.010331,-518.144159,-12953.603985,459.657299
780.010656,-3478.967927,-11843.295072,-459.657299
780.010980,-5107.421000,-10436.903782,-612.876398
780.011304,-3775.050304,-9770.718434,-383.047749
780.011629,-1554.432478,-9178.553681,766.095498
780.011953,-296.082377,-8734.430116,1225.752797
780.012277,-148.041188,-9104.533087,1762.019645
780.012602,-814.226536,-8512.368333,689.485948
780.012926,-2886.803174,-8364.327145,-383.047749
780.013250,-4219.173869,-7698.141797,-1072.533697
780.013575,-4737.318029,-8364.327145,-1608.800546
780.013899,-4145.153275,-11621.233289,-1302.362347
780.014223,-2368.659014,-13471.748144,-1072.533697
780.014548,-740.205942,-13101.645173,536.266849
780.014872,-370.102971,-12583.501014,689.485948
780.015196,-222.061783,-11991.336260,995.924147
780.015521,0.000000,-11547.212695,1225.752797
780.015845,222.061783,-10732.986159,1915.238745
780.016169,592.164754,-10436.903782,2298.286494
780.016494,222.061783,-9770.718434,2451.505594
780.016818,-1480.411884,-10510.924376,2298.286494
780.017142,-3478.967927,-10066.800811,2068.457845
780.017467,-5477.523971,-9400.615463,1838.629195
780.017791,-6957.935855,-9326.594869,1608.800546
780.018115,-7920.203579,-9622.677246,842.705048
780.018440,-7624.121203,-9548.656652,1149.143247
780.018764,-5773.606348,-9400.615463,1762.019645
780.019088,-3404.947333,-9770.718434,2987.772442
780.019413,-1776.494261,-10362.883188,3140.991542
780.019737,-1480.411884,-9844.739029,3983.696590
780.020061,-1110.308913,-10214.842000,4213.525239
780.020386,0.000000,-9770.718434,4136.915689
780.020710,1480.411884,-8956.491898,4290.134789
780.021034,2294.638420,-8586.388927,4290.134789
780.021359,2072.576638,-8216.285956,4366.744339
780.021683,1036.288319,-7920.203579,3677.258390
780.022007,-740.205942,-8438.347739,3677.258390
780.022331,-2664.741391,-9030.512492,3830.477490
780.022656,-3775.050304,-8956.491898,3370.820191
780.022980,-3997.112087,-7846.182985,4443.353888
780.023304,-2146.597232,-6883.915261,5898.935335
780.023629,370.102971,-6809.894666,5745.716235
780.023953,1998.556043,-7846.182985,6665.030833
780.024277,2812.782580,-7846.182985,5822.325785
780.024602,3552.988522,-7031.956449,4673.182538
780.024926,3701.029710,-6143.709319,4290.134789
780.025250,2072.576638,-5847.626942,2451.505594
780.025575,444.123565,-6513.812290,1532.190996
780.025899,-740.205942,-8068.244768,76.609550
780.026223,-1258.350101,-8808.450710,-1685.410096
780.026548,-2072.576638,-9326.594869,-919.314598
780.026872,-3330.926739,-9844.739029,459.657299
780.027196,-2960.823768,-10955.047942,1378.971896
780.027521,-2368.659014,-11103.089130,2145.067394
780.027845,-814.226536,-10510.924376,2757.943793
780.028169,1184.329507,-11325.150913,2528.115143
780.028494,2664.741391,-12139.377449,2145.067394
780.028818,3552.988522,-12435.459826,2987.772442
780.029142,4145.153275,-11251.130318,2451.505594
780.029467,3552.988522,-9548.656652,995.924147
780.029791,1776.494261,-8808.450710,-689.485948
780.030115,-148.041188,-5921.647536,-6358.592633
780.030440,-2368.659014,-6291.750507,-9422.974625
780.030764,-4145.153275,-11029.068536,-7277.907231
780.031088,-444.123565,-14211.954086,-7354.516781
780.031413,1036.288319,-13693.809927,-6511.811733
780.031737,-592.164754,-11917.315666,-2681.334243
780.032061,-666.185348,-10955.047942,-4290.134789
780.032386,-1332.370696,-12805.562797,-5592.497135
780.032710,-1480.411884,-13397.727550,-4060.306139
780.033034,592.164754,-12583.501014,-995.924147
780.033358,3627.009116,-12879.583391,-995.924147
780.033682,3552.988522,-11991.336260,-1455.581446
780.034006,3330.926739,-8734.430116,-995.924147
780.034331,3034.844362,-7994.224174,-1378.971896
780.034655,2886.803174,-10066.800811,-3217.601092
780.034979,2294.638420,-10584.944971,-3907.087040
780.035303,1924.535449,-7624.121203,-5515.887586
780.035627,814.226536,-7624.121203,-5592.497135
780.035951,-1184.329507,-10658.965565,-6205.373534
780.036275,-3108.864956,-11991.336260,-6588.421283
780.036599,-4811.338623,-11547.212695,-5209.449386
780.036923,-5921.647536,-9474.636058,-5056.230287
780.037247,-5255.462188,-8512.368333,-3907.087040
780.037571,-3108.864956,-8364.327145,-2681.334243
780.037895,444.123565,-7920.203579,-1072.533697
780.038219,3627.009116,-7698.141797,0.000000
780.038543,4293.194464,-9548.656652,842.705048
780.038867,4219.173869,-9992.780217,2298.286494
780.039191,4663.297435,-9474.636058,2451.505594
780.039515,3256.906145,-8808.450710,1762.019645
780.039839,444.123565,-8882.471304,-766.095498
780.040163,-2516.700203,-10658.965565,-2221.676944
780.040488,-4441.235652,-11843.295072,-1532.190996
780.040812,-4145.153275,-11473.192101,-1685.410096
780.041136,-3552.988522,-9030.512492,-536.266849
780.041460,-2590.720797,-7550.100608,842.705048
780.041784,-1850.514855,-7920.203579,995.924147
780.042108,-1258.350101,-7772.162391,766.095498
780.042432,-814.226536,-7105.977043,1915.238745
780.042756,148.041188,-7624.121203,3524.039291
780.043080,1184.329507,-9252.574275,3753.867940
780.043404,888.247130,-9400.615463,3907.087040
780.043728,-814.226536,-7772.162391,3524.039291
780.044052,-1998.556043,-8956.491898,2604.724693
780.044376,-3256.906145,-12065.356855,1991.848295
780.044700,-2516.700203,-13619.789333,2145.067394
780.045024,0.000000,-11547.212695,2757.943793
780.045348,2886.803174,-10066.800811,3907.087040
780.045672,4293.194464,-10362.883188,4596.572988
780.045996,4293.194464,-10140.821405,3830.477490
780.046320,3256.906145,-10066.800811,4060.306139
780.046645,1554.432478,-9400.615463,2834.553343
780.046969,0.000000,-9400.615463,3064.381992
780.047293,-222.061783,-8956.491898,3064.381992
780.047617,-666.185348,-8364.327145,2604.724693
780.047941,-2072.576638,-9030.512492,2374.896044
780.048265,-3404.947333,-9104.533087,1225.752797
780.048589,-3552.988522,-8808.450710,1072.533697
780.048913,-1480.411884,-8660.409521,2068.457845
780.049237,1036.288319,-8290.306550,3217.601092
780.049561,2886.803174,-8438.347739,3830.477490
780.049885,3775.050304,-9326.594869,4136.915689
780.050209,3256.906145,-10066.800811,3907.087040
780.050533,2368.659014,-10066.800811,3140.991542
780.050857,1258.350101,-9622.677246,2221.676944
780.051181,814.226536,-9474.636058,2068.457845
780.051505,296.082377,-9474.636058,1378.971896
780.051829,-296.082377,-9548.656652,76.609550
780.052153,-814.226536,-9178.553681,-689.485948
780.052477,-1554.432478,-8512.368333,-1225.752797
780.052802,-1850.514855,-8290.306550,-1762.019645
780.053126,-1554.432478,-8216.285956,-1991.848295
780.053450,-1036.288319,-8290.306550,-1838.629195
780.053774,-1776.494261,-8438.347739,-1838.629195
780.054098,-1406.391290,-9770.718434,-1915.238745
780.054422,-1480.411884,-9992.780217,-1378.971896
780.054746,-1036.288319,-10510.924376,-842.705048
780.055070,-1110.308913,-10436.903782,-459.657299
780.055394,-444.123565,-9992.780217,0.000000
780.055718,592.164754,-10510.924376,76.609550
780.056042,1850.514855,-10362.883188,0.000000
780.056366,2368.659014,-10436.903782,-1149.143247
780.056690,2072.576638,-10214.842000,-1762.019645
780.057014,1258.350101,-9548.656652,-2451.505594
780.057338,-666.185348,-9992.780217,-3370.820191
780.057662,-2664.741391,-10140.821405,-4519.963438
780.057986,-3849.070898,-10140.821405,-5209.449386
780.058310,-4145.153275,-10584.944971,-5745.716235
780.058635,-3849.070898,-10436.903782,-5592.497135
780.058959,-2220.617826,-10807.006753,-4366.744339
780.059283,-222.061783,-10658.965565,-2834.553343
780.059607,1850.514855,-11029.068536,-1762.019645
780.059931,3923.091493,-11103.089130,-1149.143247
780.060255,4441.235652,-11029.068536,-612.876398
780.060579,3923.091493,-10658.965565,-689.485948
780.060903,3108.864956,-11177.109724,-536.266849
780.061227,2368.659014,-10955.047942,-689.485948
780.061551,1332.370696,-10955.047942,-1838.629195
780.061875,444.123565,-10955.047942,-2681.334243
780.062199,-592.164754,-10584.944971,-3524.039291
780.062523,-962.267725,-10436.903782,-3140.991542
780.062847,-1036.288319,-9474.636058,-2451.505594
780.063171,-148.041188,-9252.574275,-919.314598
780.063495,962.267725,-9400.615463,-842.705048
780.063819,1702.473667,-9696.697840,-689.485948
780.064143,1776.494261,-9548.656652,0.000000
780.064467,1036.288319,-9548.656652,383.047749
780.064792,74.020594,-9474.636058,383.047749
780.065116,-370.102971,-9548.656652,766.095498
780.065440,-1184.329507,-9474.636058,1302.362347
780.065764,-740.205942,-10066.800811,0.000000
780.066088,0.000000,-9400.615463,229.828649
780.066412,888.247130,-8956.491898,383.047749
780.066736,1258.350101,-8438.347739,536.266849
780.067060,1924.535449,-8660.409521,536.266849
780.067384,1924.535449,-9104.533087,919.314598
780.067708,1332.370696,-8882.471304,919.314598
780.068032,0.000000,-8734.430116,536.266849
780.068356,-1110.308913,-9030.512492,1225.752797
780.068680,-2220.617826,-8956.491898,1225.752797
780.069004,-2368.659014,-9030.512492,1455.581446
780.069328,-2590.720797,-8956.491898,1838.629195
780.069652,-2368.659014,-9178.553681,2145.067394
780.069976,-1332.370696,-8586.388927,2911.162892
780.070300,-444.123565,-8364.327145,3064.381992
780.070624,74.020594,-8586.388927,2757.943793
780.070949,370.102971,-8882.471304,2451.505594
780.071273,-888.247130,-9474.636058,2221.676944
780.071597,-1406.391290,-9918.759623,1302.362347
780.071921,-1998.556043,-9844.739029,459.657299
780.072245,-2294.638420,-9844.739029,229.828649
780.072569,-2590.720797,-10510.924376,383.047749
780.072893,-2072.576638,-10510.924376,995.924147
780.073217,-1184.329507,-10140.821405,689.485948
780.073541,74.020594,-9918.759623,1532.190996
780.073865,1628.453072,-9622.677246,1991.848295
780.074189,2812.782580,-9474.636058,2451.505594
780.074513,2960.823768,-9474.636058,2374.896044
780.074837,1998.556043,-9770.718434,1915.238745
780.075161,444.123565,-9474.636058,1378.971896
780.075485,-814.226536,-9622.677246,766.095498
780.075809,-1924.535449,-9326.594869,0.000000
780.076133,-2738.761985,-9548.656652,-383.047749
780.076457,-2516.700203,-10066.800811,-612.876398
780.076782,-1776.494261,-10066.800811,0.000000
780.077106,0.000000,-9474.636058,459.657299
780.077430,1406.391290,-8956.491898,1302.362347
780.077754,2368.659014,-9030.512492,1532.190996
780.078078,2812.782580,-9326.594869,1302.362347
780.078402,2516.700203,-9770.718434,1915.238745
780.078726,1554.432478,-10288.862594,1072.533697
780.079050,370.102971,-10362.883188,306.438199
780.079374,-1110.308913,-10066.800811,-612.876398
780.079698,-2146.597232,-9844.739029,-1225.752797
780.080022,-1850.514855,-9474.636058,-1685.410096
780.080346,-1776.494261,-9326.594869,-1838.629195
780.080670,-666.185348,-8660.409521,-1302.362347
780.080994,962.267725,-8734.430116,-995.924147
780.081318,2146.597232,-8734.430116,-842.705048
780.081642,2368.659014,-8660.409521,-383.047749
780.081966,2072.576638,-9030.512492,-306.438199
780.082290,962.267725,-9474.636058,-536.266849
780.082614,666.185348,-9770.718434,306.438199
780.082939,0.000000,-9770.718434,76.609550
780.083263,-444.123565,-9696.697840,-689.485948
780.083587,-592.164754,-10066.800811,-995.924147
780.083911,-148.041188,-10362.883188,-842.705048
780.084235,74.020594,-10214.842000,-1302.362347
780.084559,74.020594,-9474.636058,-1302.362347
780.084883,370.102971,-9622.677246,-1608.800546
780.085207,-222.061783,-9696.697840,-1762.019645
780.085531,-666.185348,-10066.800811,-2604.724693
780.085855,-1406.391290,-11103.089130,-2604.724693
780.086179,-2294.638420,-10955.047942,-2604.724693
780.086503,-2294.638420,-10955.047942,-2451.505594
780.086827,-1850.514855,-10510.924376,-2451.505594
780.087151,-444.123565,-10732.986159,-1149.143247
780.087475,962.267725,-11029.068536,-612.876398
780.087799,2146.597232,-10436.903782,-612.876398
780.088123,2960.823768,-10140.821405,0.000000
780.088447,3552.988522,-10362.883188,-306.438199
780.088771,2368.659014,-9992.780217,-229.828649
780.089096,962.267725,-10066.800811,-919.314598
780.089420,-740.205942,-9770.718434,-1685.410096
780.089744,-1628.453072,-9770.718434,-2068.457845
780.090068,-2590.720797,-9474.636058,-2298.286494
780.090392,-2664.741391,-9548.656652,-2221.676944
780.090716,-2368.659014,-9326.594869,-1455.581446
780.091040,-1184.329507,-9548.656652,-612.876398
780.091364,222.061783,-9326.594869,153.219100
780.091688,1480.411884,-9252.574275,1225.752797
780.092012,2072.576638,-9622.677246,1838.629195
780.092336,1998.556043,-9548.656652,1532.190996
780.092660,1258.350101,-10066.800811,1532.190996
780.092984,-222.061783,-9844.739029,1302.362347
780.093308,-1628.453072,-9918.759623,153.219100
780.093632,-2442.679609,-9918.759623,-306.438199
780.093956,-2664.741391,-9474.636058,-459.657299
780.094280,-2294.638420,-9474.636058,-612.876398
780.094604,-1110.308913,-9400.615463,-229.828649
780.094928,0.000000,-7772.162391,306.438199
780.095253,1406.391290,-7698.141797,1072.533697
780.095577,2294.638420,-8290.306550,1455.581446
780.095901,2368.659014,-9030.512492,1838.629195
780.096225,1628.453072,-8882.471304,2451.505594
780.096549,740.205942,-8734.430116,2221.676944
780.096873,-148.041188,-9400.615463,1991.848295
780.097197,-962.267725,-9474.636058,1762.019645
780.097521,-1480.411884,-9474.636058,1378.971896
780.097845,-1776.494261,-9400.615463,1455.581446
780.098169,-1110.308913,-8956.491898,1532.190996
780.098493,-74.020594,-8512.368333,1532.190996
780.098817,740.205942,-8734.430116,1532.190996
780.099141,370.102971,-9030.512492,1302.362347
780.099465,0.000000,-9622.677246,1072.533697
780.099789,-888.247130,-10288.862594,1072.533697
780.100113,-1406.391290,-10288.862594,153.219100
780.100437,-1406.391290,-10140.821405,76.609550
780.100761,-1628.453072,-10214.842000,612.876398
780.101086,-1110.308913,-10881.027347,842.705048
780.101410,-740.205942,-10807.006753,536.266849
780.101734,148.041188,-10066.800811,919.314598
780.102058,1480.411884,-9622.677246,995.924147
780.102382,2590.720797,-9474.636058,995.924147
780.102706,3182.885551,-9622.677246,1455.581446
780.103030,2294.638420,-9622.677246,536.266849
780.103354,518.144159,-9770.718434,229.828649
780.103678,-592.164754,-10066.800811,-153.219100
780.104002,-1554.432478,-9696.697840,-995.924147
780.104326,-1924.535449,-9548.656652,-1225.752797
780.104650,-1702.473667,-9770.718434,-919.314598
780.104974,-740.205942,-10066.800811,-536.266849
780.105298,148.041188,-9400.615463,229.828649
780.105622,1184.329507,-9548.656652,76.609550
780.105946,2294.638420,-9918.759623,459.657299
780.106270,2368.659014,-10066.800811,536.266849
780.106594,1480.411884,-9918.759623,612.876398
780.106918,74.020594,-10214.842000,-229.828649
780.107243,-1332.370696,-10288.862594,-766.095498
780.107567,-1776.494261,-9992.780217,-1685.410096
780.107891,-1776.494261,-10214.842000,-1991.848295
780.108215,-1776.494261,-9548.656652,-2068.457845
780.108539,-1258.350101,-9770.718434,-1608.800546
780.108863,74.020594,-9474.636058,-1532.190996
780.109187,1406.391290,-8808.450710,-1302.362347
780.109511,2368.659014,-8734.430116,-842.705048
780.109835,2516.700203,-8808.450710,-689.485948
780.110159,2072.576638,-9400.615463,-919.314598
780.110483,222.061783,-9548.656652,-842.705048
780.110807,-518.144159,-9770.718434,-1225.752797
780.111131,-814.226536,-9770.718434,-1532.190996
780.111455,-1998.556043,-10066.800811,-1455.581446
780.111779,-1702.473667,-10066.800811,-1608.800546
780.112103,-1332.370696,-9918.759623,-1225.752797
780.112427,-148.041188,-9474.636058,-766.095498
780.112751,1110.308913,-9474.636058,-459.657299
780.113075,1702.473667,-9770.718434,0.000000
780.113400,1332.370696,-9474.636058,-153.219100
780.113724,296.082377,-10584.944971,-766.095498
780.114048,-740.205942,-10658.965565,-1149.143247
780.114372,-1776.494261,-10658.965565,-1378.971896
780.114696,-2072.576638,-10658.965565,-1915.238745
780.115020,-2072.576638,-10732.986159,-2528.115143
780.115344,-1258.350101,-10584.944971,-1302.362347
780.115668,-592.164754,-10140.821405,-995.924147
780.115992,1184.329507,-10214.842000,-383.047749
780.116316,2146.597232,-9770.718434,0.000000
780.116640,2664.741391,-9622.677246,536.266849
780.116964,2886.803174,-9992.780217,842.705048
780.117288,1924.535449,-10066.800811,842.705048
780.117612,518.144159,-9844.739029,536.266849
780.117936,-740.205942,-9992.780217,153.219100
780.118260,-1406.391290,-9770.718434,-383.047749
780.118584,-1406.391290,-9844.739029,-383.047749
780.118908,-1406.391290,-9918.759623,-383.047749
780.119232,-1184.329507,-9770.718434,0.000000
780.119557,-296.082377,-9178.553681,306.438199
780.119881,962.267725,-9030.512492,995.924147
780.120205,962.267725,-9030.512492,842.705048
780.120529,1036.288319,-9474.636058,1455.581446
780.120853,296.082377,-9770.718434,1532.190996
780.121177,-814.226536,-9622.677246,1302.362347
780.121501,-1554.432478,-9696.697840,995.924147
780.121825,-2146.597232,-9992.780217,612.876398
780.122149,-1406.391290,-9918.759623,995.924147
780.122473,-1628.453072,-9770.718434,689.485948
780.122797,-444.123565,-9104.533087,1532.190996
780.123121,222.061783,-7846.182985,1149.143247
780.123445,1332.370696,-8586.388927,1225.752797
780.123769,1998.556043,-8438.347739,1455.581446
780.124093,2220.617826,-8734.430116,1532.190996
780.124417,1184.329507,-8512.368333,1378.971896
780.124741,444.123565,-8956.491898,689.485948
780.125065,-740.205942,-9252.574275,689.485948
780.125390,-1998.556043,-8882.471304,995.924147
780.125714,-2072.576638,-9252.574275,766.095498
780.126038,-1998.556043,-9400.615463,766.095498
780.126362,-1036.288319,-9474.636058,1149.143247
780.126686,0.000000,-9030.512492,1455.581446
780.127010,1184.329507,-8808.450710,1915.238745
780.127334,1258.350101,-8734.430116,2221.676944
780.127658,370.102971,-9622.677246,919.314598
780.127982,-370.102971,-9918.759623,1072.533697
780.128306,-1184.329507,-10362.883188,0.000000
780.128630,-1850.514855,-10362.883188,-459.657299
780.128954,-2146.597232,-10510.924376,-842.705048
780.129278,-2072.576638,-10807.006753,-1225.752797
780.129602,-1332.370696,-10140.821405,-459.657299
780.129926,0.000000,-10214.842000,-689.485948
780.130250,1332.370696,-9400.615463,-306.438199
780.130574,2368.659014,-9622.677246,76.609550
780.130899,2738.761985,-9474.636058,383.047749
780.131223,2442.679609,-9770.718434,153.219100
780.131547,1406.391290,-10140.821405,-383.047749
780.131871,222.061783,-9918.759623,-1149.143247
780.132195,-888.247130,-10066.800811,-1378.971896
780.132519,-1406.391290,-9992.780217,-1762.019645
780.132843,-1924.535449,-10140.821405,-1838.629195
780.133167,-1702.473667,-10436.903782,-1302.362347
780.133491,-666.185348,-9918.759623,-1072.533697
780.133816,666.185348,-9696.697840,-995.924147
780.134140,1628.453072,-9622.677246,-383.047749
780.134464,2294.638420,-9696.697840,-459.657299
780.134788,1924.535449,-10140.821405,-153.219100
780.135112,1184.329507,-10140.821405,-459.657299
780.135436,296.082377,-10436.903782,-995.924147
780.135760,-666.185348,-9548.656652,-1685.410096
780.136084,-1480.411884,-10140.821405,-1532.190996
780.136408,-1258.350101,-10066.800811,-2145.067394
780.136733,-666.185348,-10214.842000,-1838.629195
780.137057,0.000000,-9400.615463,-1762.019645
780.137381,888.247130,-8660.409521,-1532.190996
780.137705,1776.494261,-8660.409521,-919.314598
780.138029,2442.679609,-8660.409521,-536.266849
780.138353,2146.597232,-9030.512492,-689.485948
780.138677,1184.329507,-9400.615463,-536.266849
780.139001,518.144159,-9918.759623,-536.266849
780.139325,-444.123565,-9770.718434,-536.266849
780.139650,-740.205942,-9770.718434,-383.047749
780.139974,-888.247130,-9622.677246,-689.485948
780.140298,-962.267725,-9696.697840,0.000000
780.140622,-148.041188,-9548.656652,0.000000
780.140946,370.102971,-9400.615463,0.000000
780.141270,592.164754,-9474.636058,0.000000
780.141594,296.082377,-9474.636058,-306.438199
780.141918,-592.164754,-9918.759623,-536.266849
780.142242,-1702.473667,-10288.862594,-536.266849
780.142567,-2294.638420,-10436.903782,-995.924147
780.142891,-2738.761985,-9844.739029,-1302.362347
780.143215,-2368.659014,-10436.903782,-842.705048
780.143539,-2368.659014,-10436.903782,-612.876398
780.143863,-1332.370696,-10658.965565,0.000000
780.144187,0.000000,-10214.842000,612.876398
780.144511,1184.329507,-9696.697840,1225.752797
780.144835,2664.741391,-9696.697840,1685.410096
780.145160,2812.782580,-9770.718434,1455.581446
780.145484,1924.535449,-9844.739029,1225.752797
780.145808,1036.288319,-9844.739029,612.876398
780.146132,-444.123565,-9918.759623,0.000000
780.146456,-1850.514855,-9770.718434,-459.657299
780.146780,-2220.617826,-9622.677246,-383.047749
780.147104,-1998.556043,-9548.656652,-229.828649
780.147428,-1406.391290,-9400.615463,153.219100
780.147752,-592.164754,-8882.471304,689.485948
780.148077,444.123565,-8734.430116,1915.238745
780.148401,1332.370696,-8734.430116,2145.067394
780.148725,2146.597232,-9030.512492,2681.334243
780.149049,1702.473667,-9474.636058,2451.505594
780.149373,592.164754,-9992.780217,2451.505594
780.149697,-222.061783,-9918.759623,1532.190996
780.150021,-1628.453072,-9844.739029,1685.410096
780.150345,-1554.432478,-9992.780217,612.876398
780.150669,-1776.494261,-9622.677246,536.266849
780.150994,-1036.288319,-9474.636058,383.047749
780.151318,296.082377,-9252.574275,383.047749
780.151642,1258.350101,-8660.409521,459.657299
780.151966,2072.576638,-8512.368333,612.876398
780.152290,2368.659014,-8734.430116,1685.410096
780.152614,2146.597232,-9104.533087,1225.752797
780.152938,1406.391290,-9548.656652,1302.362347
780.153262,-518.144159,-9622.677246,919.314598
780.153586,-1480.411884,-9696.697840,689.485948
780.153911,-1776.494261,-9918.759623,536.266849
780.154235,-1702.473667,-9696.697840,306.438199
780.154559,-1554.432478,-9252.574275,842.705048
780.154883,-666.185348,-9104.533087,229.828649
780.155207,222.061783,-8956.491898,0.000000
780.155531,666.185348,-8956.491898,0.000000
780.155855,296.082377,-9104.533087,0.000000
780.156179,-444.123565,-9548.656652,-689.485948
780.156503,-1406.391290,-10140.821405,-1225.752797
780.156828,-1702.473667,-10584.944971,-1302.362347
780.157152,-1554.432478,-10584.944971,-1608.800546
780.157476,-1480.411884,-10658.965565,-1455.581446
780.157800,-888.247130,-10658.965565,-766.095498
780.158124,0.000000,-10955.047942,-536.266849
780.158448,1110.308913,-10140.821405,-459.657299
780.158772,1998.556043,-9918.759623,-153.219100
780.159096,2220.617826,-9770.718434,-229.828649
780.159420,1850.514855,-9696.697840,-383.047749
780.159745,1110.308913,-9992.780217,-919.314598
780.160069,-222.061783,-10362.883188,-1532.190996
780.160393,-1258.350101,-10214.842000,-1915.238745
780.160717,-1924.535449,-9844.739029,-2374.896044
780.161041,-2220.617826,-9992.780217,-2145.067394
780.161365,-1776.494261,-9992.780217,-1685.410096
780.161689,-666.185348,-9844.739029,-995.924147
780.162013,444.123565,-9252.574275,0.000000
780.162337,2146.597232,-9252.574275,766.095498
780.162662,2812.782580,-9178.553681,995.924147
780.162986,2664.741391,-9622.677246,536.266849
780.163310,1628.453072,-9918.759623,0.000000
780.163634,222.061783,-10214.842000,-383.047749
780.163958,-1110.308913,-9844.739029,-1149.143247
780.164282,-2072.576638,-9622.677246,-1838.629195
780.164606,-2146.597232,-9474.636058,-1915.238745
780.164930,-2146.597232,-9622.677246,-1685.410096
780.165254,-1036.288319,-9622.677246,-1302.362347
780.165579,370.102971,-9178.553681,-612.876398
780.165903,1628.453072,-8512.368333,-229.828649
780.166227,2664.741391,-8512.368333,536.266849
780.166551,2812.782580,-8956.491898,1225.752797
780.166875,1998.556043,-9474.636058,612.876398
780.167199,814.226536,-9474.636058,536.266849
780.167523,148.041188,-9548.656652,229.828649
780.167847,-814.226536,-9622.677246,0.000000
780.168172,-1406.391290,-9918.759623,-306.438199
780.168496,-1850.514855,-9622.677246,-536.266849
780.168820,-1850.514855,-9844.739029,-536.266849
780.169144,-962.267725,-9474.636058,-229.828649
780.169468,74.020594,-9104.533087,306.438199
780.169792,74.020594,-8586.388927,229.828649
780.170116,518.144159,-9696.697840,459.657299
780.170440,-296.082377,-10066.800811,383.047749
780.170764,-740.205942,-10288.862594,76.609550
780.171089,-1332.370696,-10214.842000,76.609550
780.171413,-1702.473667,-9918.759623,0.000000
780.171737,-1036.288319,-10510.924376,76.609550
780.172061,-592.164754,-10288.862594,0.000000
780.172385,222.061783,-10288.862594,459.657299
780.172709,962.267725,-9992.780217,306.438199
780.173033,1924.535449,-9696.697840,306.438199
780.173357,2146.597232,-9474.636058,383.047749
780.173681,1628.453072,-9474.636058,229.828649
780.174006,592.164754,-9992.780217,0.000000
780.174330,-370.102971,-10066.800811,-383.047749
780.174654,-888.247130,-9770.718434,0.000000
780.174978,-1258.350101,-9696.697840,-306.438199
780.175302,-1184.329507,-10066.800811,-459.657299
780.175626,-592.164754,-9992.780217,153.219100
780.175950,0.000000,-10140.821405,995.924147
780.176274,814.226536,-9844.739029,1149.143247
780.176598,1554.432478,-9622.677246,1762.019645
780.176923,2146.597232,-9770.718434,1225.752797
780.177247,740.205942,-9474.636058,1915.238745
780.177571,0.000000,-9770.718434,689.485948
780.177895,-888.247130,-9696.697840,0.000000
780.178219,-1702.473667,-9918.759623,-459.657299
780.178543,-1924.535449,-9622.677246,-766.095498
780.178867,-1850.514855,-9474.636058,-842.705048
780.179191,-1554.432478,-9400.615463,-689.485948
780.179515,-592.164754,-8882.471304,-306.438199
780.179840,666.185348,-8290.306550,0.000000
780.180164,2220.617826,-8438.347739,229.828649
780.180488,2220.617826,-8586.388927,842.705048
780.180812,1924.535449,-8734.430116,919.314598
780.181136,1036.288319,-9252.574275,383.047749
780.181460,-148.041188,-9400.615463,229.828649
780.181784,-1332.370696,-9326.594869,-153.219100
780.182108,-2220.617826,-9400.615463,-153.219100
780.182432,-2664.741391,-9326.594869,-383.047749
780.182757,-1924.535449,-9474.636058,76.609550
780.183081,-1110.308913,-8956.491898,0.000000
780.183405,444.123565,-9104.533087,229.828649
780.183729,1184.329507,-9178.553681,306.438199
780.184053,1702.473667,-9400.615463,153.219100
780.184377,1036.288319,-9844.739029,306.438199
780.184701,-222.061783,-10214.842000,-383.047749
780.185025,-1332.370696,-10510.924376,-766.095498
780.185349,-1850.514855,-10732.986159,-1149.143247
780.185674,-1850.514855,-10732.986159,-1072.533697
780.185998,-1036.288319,-10955.047942,-1149.143247
780.186322,-148.041188,-10881.027347,-1072.533697
780.186646,740.205942,-9844.739029,-612.876398
780.186970,2146.597232,-9474.636058,306.438199
780.187294,2886.803174,-9178.553681,76.609550
780.187618,2516.700203,-9252.574275,0.000000
780.187942,2220.617826,-9992.780217,0.000000
780.188266,1036.288319,-10288.862594,-536.266849
780.188591,0.000000,-10436.903782,-919.314598
780.188915,-962.267725,-10066.800811,-995.924147
780.189239,-1258.350101,-10066.800811,-1378.971896
780.189563,-1258.350101,-10140.821405,-1532.190996
780.189887,-740.205942,-10140.821405,-766.095498
780.190211,-148.041188,-9474.636058,0.000000
780.190535,518.144159,-9474.636058,229.828649
780.190859,1406.391290,-9548.656652,306.438199
780.191184,1184.329507,-9178.553681,383.047749
780.191508,370.102971,-9474.636058,229.828649
780.191832,-518.144159,-10066.800811,-229.828649
780.192156,-1554.432478,-9696.697840,-459.657299
780.192480,-1998.556043,-9326.594869,-1532.190996
780.192804,-1924.535449,-9770.718434,-1149.143247
780.193128,-1554.432478,-9770.718434,-1378.971896
780.193452,-666.185348,-9622.677246,-766.095498
780.193776,592.164754,-9104.533087,-306.438199
780.194101,2072.576638,-8512.368333,153.219100
780.194425,2590.720797,-8512.368333,536.266849
780.194749,2146.597232,-8068.244768,229.828649
780.195073,1036.288319,-9252.574275,612.876398
780.195397,0.000000,-9474.636058,0.000000
780.195721,-1406.391290,-9622.677246,0.000000
780.196045,-2146.597232,-9400.615463,-306.438199
780.196369,-2368.659014,-9474.636058,-153.219100
780.196693,-2146.597232,-9474.636058,-306.438199
780.197018,-1110.308913,-9326.594869,76.609550
780.197342,-296.082377,-9252.574275,919.314598
780.197666,592.164754,-9252.574275,1072.533697
780.197990,1554.432478,-9400.615463,1149.143247
780.198314,1332.370696,-9918.759623,1072.533697
780.198638,296.082377,-10362.883188,459.657299
780.198962,-1110.308913,-10732.986159,153.219100
780.199286,-1554.432478,-11251.130318,-766.095498
780.199610,-1480.411884,-10955.047942,-689.485948
780.199935,-1850.514855,-10510.924376,-842.705048
780.200259,-1332.370696,-10510.924376,-153.219100
780.200583,-370.102971,-10510.924376,0.000000
780.200907,518.144159,-9548.656652,536.266849
780.201231,2220.617826,-9400.615463,536.266849
780.201555,2590.720797,-8882.471304,1378.971896
780.201879,2738.761985,-8734.430116,1455.581446
780.202203,2442.679609,-9474.636058,1302.362347
780.202527,888.247130,-9622.677246,689.485948
780.202852,-370.102971,-9474.636058,306.438199
780.203176,-1332.370696,-9622.677246,76.609550
780.203500,-1776.494261,-9622.677246,-153.219100
780.203824,-1998.556043,-10066.800811,-383.047749
780.204148,-1258.350101,-9696.697840,0.000000
780.204472,-370.102971,-9548.656652,612.876398
780.204796,592.164754,-8808.450710,1149.143247
780.205120,1406.391290,-9178.553681,1378.971896
780.205444,1480.411884,-9400.615463,1532.190996
780.205769,740.205942,-9770.718434,1455.581446
780.206093,148.041188,-10066.800811,1149.143247
780.206417,-740.205942,-10066.800811,842.705048
780.206741,-1702.473667,-9548.656652,0.000000
780.207065,-1628.453072,-9548.656652,-153.219100
780.207389,-1702.473667,-10214.842000,-612.876398
780.207713,-592.164754,-9696.697840,-306.438199
780.208037,444.123565,-9178.553681,-306.438199
780.208361,1628.453072,-8882.471304,-306.438199
780.208686,1850.514855,-8512.368333,-306.438199
780.209010,1480.411884,-8290.306550,-153.219100
780.209334,814.226536,-8956.491898,-306.438199
780.209658,-296.082377,-9178.553681,-995.924147
780.209982,-814.226536,-9474.636058,-612.876398
780.210306,-888.247130,-9400.615463,-689.485948
780.210630,-592.164754,-9474.636058,-459.657299
780.210954,-370.102971,-9622.677246,0.000000
780.211278,74.020594,-9696.697840,-536.266849
780.211603,222.061783,-9548.656652,229.828649
780.211927,1110.308913,-9400.615463,0.000000
780.212251,592.164754,-9548.656652,-459.657299
780.212575,74.020594,-9918.759623,-1072.533697
780.212899,-592.164754,-10510.924376,-1685.410096
780.213223,-1554.432478,-10881.027347,-1915.238745
780.213547,-2072.576638,-10807.006753,-2374.896044
780.213871,-2220.617826,-10436.903782,-2604.724693
780.214196,-1554.432478,-10658.965565,-1991.848295
780.214520,-962.267725,-10658.965565,-1532.190996
780.214844,74.020594,-10288.862594,-1532.190996
780.215168,1628.453072,-10066.800811,-612.876398
780.215492,3108.864956,-9844.739029,-153.219100
780.215816,3627.009116,-10066.800811,153.219100
780.216140,2738.761985,-9770.718434,229.828649
780.216464,1480.411884,-10066.800811,-612.876398
780.216788,0.000000,-9844.739029,-919.314598
780.217113,-1480.411884,-9622.677246,-2221.676944
780.217437,-1998.556043,-9696.697840,-1762.019645
780.217761,-1924.535449,-10362.883188,-1608.800546
780.218085,-1628.453072,-9622.677246,-1149.143247
780.218409,-666.185348,-9474.636058,-842.705048
780.218733,444.123565,-9252.574275,-153.219100
780.219057,1406.391290,-9030.512492,536.266849
780.219381,1776.494261,-9104.533087,612.876398
780.219705,740.205942,-9622.677246,1302.362347
780.220030,148.041188,-10362.883188,689.485948
780.220354,-740.205942,-10066.800811,383.047749
780.220678,-1480.411884,-10362.883188,229.828649
780.221002,-2072.576638,-10214.842000,-229.828649
780.221326,-1998.556043,-10066.800811,-612.876398
780.221650,-1776.494261,-9844.739029,-612.876398
780.221974,-1110.308913,-9400.615463,-459.657299
780.222298,-148.041188,-8956.491898,76.609550
780.222622,1036.288319,-8586.388927,612.876398
780.222947,1924.535449,-8512.368333,612.876398
780.223271,2146.597232,-8734.430116,1149.143247
780.223595,1036.288319,-9030.512492,766.095498
780.223919,148.041188,-9030.512492,919.314598
780.224243,-592.164754,-9400.615463,995.924147
780.224567,-962.267725,-9474.636058,1302.362347
780.224891,-1036.288319,-9030.512492,689.485948
780.225215,-1258.350101,-8956.491898,612.876398
780.225539,-962.267725,-8956.491898,842.705048
780.225864,222.061783,-9474.636058,1455.581446
780.226188,592.164754,-9178.553681,1532.190996
780.226512,296.082377,-9252.574275,1149.143247
780.226836,-444.123565,-9474.636058,842.705048
780.227160,-1110.308913,-9622.677246,229.828649
780.227484,-1554.432478,-10214.842000,229.828649
780.227808,-1776.494261,-10288.862594,229.828649
780.228132,-1480.411884,-10584.944971,0.000000
780.228456,-1332.370696,-10510.924376,-229.828649
780.228781,0.000000,-10436.903782,153.219100
780.229105,1110.308913,-10140.821405,612.876398
780.229429,2072.576638,-10066.800811,459.657299
780.229753,2590.720797,-10066.800811,1149.143247
780.230077,2590.720797,-9622.677246,766.095498
780.230401,1702.473667,-9844.739029,306.438199
780.230725,0.000000,-10066.800811,459.657299
780.231049,-1184.329507,-10362.883188,0.000000
780.231373,-1850.514855,-10140.821405,-689.485948
780.231698,-1924.535449,-9918.759623,-689.485948
780.232022,-1406.391290,-9770.718434,-229.828649
780.232346,-1258.350101,-9252.574275,0.000000
780.232670,0.000000,-9400.615463,919.314598
780.232994,888.247130,-8956.491898,995.924147
780.233318,2368.659014,-9400.615463,995.924147
780.233642,2294.638420,-9622.677246,919.314598
780.233966,1554.432478,-9844.739029,766.095498
780.234291,370.102971,-10288.862594,383.047749
780.234615,-740.205942,-10436.903782,229.828649
780.234939,-1776.494261,-9696.697840,0.000000
780.235263,-2368.659014,-10066.800811,-1225.752797
780.235588,-1628.453072,-9918.759623,-1532.190996
780.235912,-1184.329507,-9178.553681,-1378.971896
780.236236,0.000000,-8808.450710,-1072.533697
780.236560,1036.288319,-8586.388927,-612.876398
780.236885,1998.556043,-8586.388927,-306.438199
780.237209,2368.659014,-8068.244768,459.657299
780.237533,1628.453072,-8808.450710,-153.219100
780.237857,518.144159,-8956.491898,0.000000
780.238181,-592.164754,-9474.636058,-153.219100
780.238506,-1036.288319,-9548.656652,-306.438199
780.238830,-962.267725,-9548.656652,-459.657299
780.239154,-1110.308913,-9844.739029,-306.438199
780.239478,-740.205942,-9622.677246,-383.047749
780.239803,-370.102971,-9474.636058,-536.266849
780.240127,370.102971,-9326.594869,0.000000
780.240451,962.267725,-9474.636058,-612.876398
780.240775,148.041188,-9474.636058,-919.314598
780.241100,-296.082377,-10288.862594,-919.314598
780.241424,-888.247130,-10955.047942,-1455.581446
780.241748,-1110.308913,-10807.006753,-1455.581446
780.242072,-1776.494261,-10658.965565,-1302.362347
780.242396,-1332.370696,-10658.965565,-1072.533697
780.242721,-740.205942,-10436.903782,-1378.971896
780.243045,592.164754,-10732.986159,-919.314598
780.243369,1554.432478,-10510.924376,-612.876398
780.243693,2590.720797,-9992.780217,-306.438199
780.244018,3256.906145,-9770.718434,0.000000
780.244342,2812.782580,-9548.656652,-306.438199
780.244666,1776.494261,-9918.759623,-689.485948
780.244990,666.185348,-10288.862594,-1302.362347
780.245315,-370.102971,-10510.924376,-1225.752797
780.245639,-1332.370696,-9992.780217,-1149.143247
780.245963,-1628.453072,-9992.780217,-1149.143247
780.246287,-1332.370696,-9696.697840,-536.266849
780.246612,-370.102971,-9474.636058,153.219100
780.246936,962.267725,-9548.656652,306.438199
780.247260,1702.473667,-9252.574275,689.485948
780.247584,2294.638420,-9474.636058,1225.752797
780.247908,1406.391290,-9474.636058,995.924147
780.248233,592.164754,-9770.718434,842.705048
780.248557,-592.164754,-10066.800811,383.047749
780.248881,-1776.494261,-10288.862594,229.828649
780.249205,-2072.576638,-9622.677246,76.609550
780.249530,-1924.535449,-9474.636058,-306.438199
780.249854,-1332.370696,-9400.615463,76.609550
780.250178,-740.205942,-9178.553681,306.438199
780.250502,370.102971,-8734.430116,383.047749
780.250827,1332.370696,-8438.347739,919.314598
780.251151,1702.473667,-8216.285956,1072.533697
780.251475,1480.411884,-8364.327145,1225.752797
780.251799,444.123565,-8586.388927,689.485948
780.252124,-370.102971,-8808.450710,459.657299
780.252448,-962.267725,-8734.430116,842.705048
780.252772,-1406.391290,-9104.533087,459.657299
780.253096,-1850.514855,-9252.574275,306.438199
780.253420,-1702.473667,-8882.471304,536.266849
780.253745,-1258.350101,-9178.553681,689.485948
780.254069,-148.041188,-9474.636058,842.705048
780.254393,740.205942,-9474.636058,1532.190996
780.254717,814.226536,-9548.656652,1072.533697
780.255042,222.061783,-9770.718434,766.095498
780.255366,-444.123565,-10288.862594,459.657299
780.255690,-1406.391290,-10807.006753,0.000000
780.256014,-1776.494261,-10955.047942,-383.047749
780.256339,-1776.494261,-10807.006753,-689.485948
780.256663,-1554.432478,-10732.986159,-383.047749
780.256987,-962.267725,-10807.006753,-306.438199
780.257311,74.020594,-10140.821405,-459.657299
780.257636,1184.329507,-9844.739029,153.219100
780.257960,2220.617826,-9770.718434,306.438199
780.258284,2442.679609,-9696.697840,536.266849
780.258608,2368.659014,-9696.697840,76.609550
780.258932,1628.453072,-9622.677246,-76.609550
780.259257,518.144159,-9992.780217,1072.533697
780.259581,-148.041188,-9918.759623,0.000000
780.259905,-1258.350101,-9622.677246,-766.095498
780.260229,-1332.370696,-9918.759623,-842.705048
780.260554,-962.267725,-9622.677246,-766.095498
780.260878,-296.082377,-9474.636058,-306.438199
780.261202,592.164754,-8882.471304,612.876398
780.261526,1332.370696,-8364.327145,76.609550
780.261851,1036.288319,-8882.471304,842.705048
780.262175,740.205942,-9474.636058,229.828649
780.262499,-296.082377,-10288.862594,0.000000
780.262823,-1480.411884,-10214.842000,-383.047749
780.263148,-2220.617826,-9918.759623,-766.095498
780.263472,-1924.535449,-10066.800811,-1149.143247
780.263796,-1184.329507,-9844.739029,-1149.143247
780.264120,-740.205942,-9548.656652,-1072.533697
780.264444,444.123565,-9326.594869,-842.705048
780.264769,1406.391290,-8586.388927,-612.876398
780.265093,2146.597232,-8660.409521,-306.438199
780.265417,2072.576638,-8586.388927,-383.047749
780.265741,1258.350101,-9178.553681,-383.047749
780.266066,444.123565,-9326.594869,153.219100
780.266390,-518.144159,-9474.636058,-612.876398
780.266714,-1332.370696,-9400.615463,-306.438199
780.267038,-1184.329507,-9622.677246,-306.438199
780.267363,-1480.411884,-9548.656652,-689.485948
780.267687,-1110.308913,-9622.677246,0.000000
780.268011,-222.061783,-9474.636058,306.438199
780.268335,592.164754,-9400.615463,612.876398
780.268660,1332.370696,-9252.574275,306.438199
780.268984,1628.453072,-9696.697840,306.438199
780.269308,296.082377,-10140.821405,0.000000
780.269632,-444.123565,-10584.944971,-229.828649
780.269956,-1850.514855,-10807.006753,-1302.362347
780.270281,-2368.659014,-10807.006753,-1532.190996
780.270605,-2072.576638,-10881.027347,-1302.362347
780.270929,-1406.391290,-11029.068536,-1378.971896
780.271253,-296.082377,-10658.965565,-919.314598
780.271578,666.185348,-9844.739029,229.828649
780.271902,2368.659014,-9696.697840,306.438199
780.272226,3182.885551,-9696.697840,1072.533697
780.272550,3034.844362,-9622.677246,995.924147
780.272875,1998.556043,-9770.718434,766.095498
780.273199,814.226536,-10214.842000,153.219100
780.273523,-518.144159,-9918.759623,-536.266849
780.273847,-1776.494261,-9770.718434,-229.828649
780.274171,-2146.597232,-9696.697840,-689.485948
780.274496,-2146.597232,-9770.718434,-689.485948
780.274820,-1332.370696,-9548.656652,0.000000
780.275144,-444.123565,-9104.533087,76.609550
780.275468,666.185348,-8882.471304,612.876398
780.275793,1406.391290,-8660.409521,842.705048
780.276117,1702.473667,-8956.491898,1225.752797
780.276441,1036.288319,-9548.656652,1225.752797
780.276765,-222.061783,-9252.574275,766.095498
780.277090,-1184.329507,-9992.780217,229.828649
780.277414,-1628.453072,-9770.718434,0.000000
780.277738,-1776.494261,-9918.759623,-153.219100
780.278062,-1628.453072,-9622.677246,-229.828649
780.278387,-888.247130,-9178.553681,0.000000
780.278711,74.020594,-8660.409521,0.000000
780.279035,1110.308913,-8364.327145,76.609550
780.279359,2146.597232,-8290.306550,0.000000
780.279683,1776.494261,-8660.409521,383.047749
780.280008,1184.329507,-9104.533087,459.657299
780.280332,74.020594,-9474.636058,76.609550
780.280656,-740.205942,-9326.594869,0.000000
780.280980,-1184.329507,-9622.677246,459.657299
780.281305,-1258.350101,-9548.656652,0.000000
780.281629,-962.267725,-10066.800811,612.876398
780.281953,-518.144159,-9770.718434,536.266849
780.282277,0.000000,-9474.636058,383.047749
780.282602,1036.288319,-9844.739029,383.047749
780.282926,1258.350101,-9696.697840,459.657299
780.283250,1036.288319,-9622.677246,153.219100
780.283574,0.000000,-10140.821405,76.609550
780.283899,-1332.370696,-10436.903782,-383.047749
780.284223,-2072.576638,-10658.965565,-995.924147
780.284547,-2146.597232,-10510.924376,-1149.143247
780.284871,-1480.411884,-10584.944971,-766.095498
780.285195,-740.205942,-10510.924376,-459.657299
780.285520,296.082377,-10140.821405,0.000000
780.285844,1628.453072,-9696.697840,536.266849
780.286168,2442.679609,-9178.553681,153.219100
780.286492,3034.844362,-9178.553681,612.876398
780.286817,2294.638420,-9548.656652,229.828649
780.287141,1332.370696,-9918.759623,-229.828649
780.287465,0.000000,-9770.718434,-612.876398
780.287789,-1258.350101,-9178.553681,-995.924147
780.288114,-1702.473667,-9474.636058,-1378.971896
780.288438,-1998.556043,-9770.718434,0.000000
780.288762,-1702.473667,-9770.718434,-689.485948
780.289086,-814.226536,-9104.533087,229.828649
780.289411,74.020594,-9104.533087,229.828649
780.289735,1184.329507,-9178.553681,842.705048
780.290059,1776.494261,-9474.636058,1072.533697
780.290383,1702.473667,-9622.677246,995.924147
780.290707,370.102971,-9770.718434,919.314598
780.291032,-814.226536,-9918.759623,229.828649
780.291356,-1332.370696,-9992.780217,-306.438199
780.291680,-1702.473667,-10214.842000,-689.485948
780.292004,-1998.556043,-10214.842000,-1225.752797
780.292329,-1702.473667,-9770.718434,-1149.143247
780.292653,-1184.329507,-9326.594869,-919.314598
780.292977,518.144159,-9030.512492,-383.047749
780.293301,1332.370696,-8808.450710,-459.657299
780.293626,2072.576638,-8512.368333,76.609550
780.293950,2220.617826,-9104.533087,229.828649
780.294274,1332.370696,-9474.636058,229.828649
780.294598,222.061783,-9696.697840,0.000000
780.294923,-518.144159,-9844.739029,0.000000
780.295247,-1036.288319,-10066.800811,-153.219100
780.295571,-1184.329507,-9992.780217,153.219100
780.295895,-1850.514855,-9622.677246,76.609550
780.296219,-888.247130,-9622.677246,-536.266849
780.296544,0.000000,-9770.718434,-306.438199
780.296868,222.061783,-9696.697840,-229.828649
780.297192,296.082377,-9918.759623,-459.657299
780.297516,-148.041188,-9992.780217,-689.485948
780.297841,-888.247130,-10066.800811,-689.485948
780.298165,-1554.432478,-10732.986159,-1072.533697
780.298489,-1850.514855,-10807.006753,-1149.143247
780.298813,-1776.494261,-10881.027347,-689.485948
780.299138,-1406.391290,-10807.006753,-612.876398
780.299462,-148.041188,-10510.924376,0.000000
780.299786,1184.329507,-10066.800811,383.047749
780.300110,2368.659014,-9178.553681,689.485948
780.300435,3330.926739,-9622.677246,689.485948
780.300759,2886.803174,-9252.574275,919.314598
780.301083,1406.391290,-9252.574275,459.657299
780.301407,74.020594,-9474.636058,-153.219100
780.301731,-1184.329507,-9178.553681,-612.876398
780.302056,-1480.411884,-9326.594869,-612.876398
780.302380,-1628.453072,-9252.574275,-995.924147
780.302704,-1406.391290,-9326.594869,-459.657299
780.303028,-1036.288319,-8808.450710,0.000000
780.303353,518.144159,-8956.491898,612.876398
780.303677,1702.473667,-8734.430116,995.924147
780.304001,2294.638420,-9178.553681,1455.581446
780.304325,2220.617826,-9400.615463,1685.410096
780.304650,1480.411884,-9622.677246,1302.362347
780.304974,222.061783,-10214.842000,1072.533697
780.305298,-1406.391290,-10066.800811,612.876398
780.305622,-1998.556043,-10436.903782,306.438199
780.305946,-1850.514855,-10214.842000,0.000000
780.306271,-2072.576638,-10066.800811,-689.485948
780.306595,-1406.391290,-9622.677246,-306.438199
780.306919,-296.082377,-8882.471304,0.000000
780.307243,1406.391290,-9252.574275,0.000000
780.307568,2220.617826,-8882.471304,689.485948
780.307892,2590.720797,-9104.533087,1149.143247
780.308216,2220.617826,-9474.636058,919.314598
780.308540,444.123565,-9548.656652,306.438199
780.308865,-592.164754,-10140.821405,306.438199
780.309189,-1628.453072,-10288.862594,0.000000
780.309513,-1998.556043,-10362.883188,-153.219100
780.309837,-1924.535449,-10214.842000,-306.438199
780.310162,-1332.370696,-9622.677246,-229.828649
780.310486,-222.061783,-9252.574275,0.000000
780.310810,296.082377,-9030.512492,229.828649
780.311134,370.102971,-9400.615463,0.000000
780.311458,148.041188,-9622.677246,0.000000
780.311783,-296.082377,-10066.800811,-229.828649
780.312107,-666.185348,-10140.821405,-459.657299
780.312431,-814.226536,-10658.965565,-766.095498
780.312755,-1036.288319,-10140.821405,-1225.752797
780.313080,-1184.329507,-10510.924376,-1072.533697
780.313404,-666.185348,-10436.903782,-229.828649
780.313728,0.000000,-10362.883188,-612.876398
780.314052,888.247130,-9992.780217,-153.219100
780.314377,1924.535449,-9548.656652,76.609550
780.314701,2368.659014,-9252.574275,153.219100
780.315025,1998.556043,-9252.574275,-383.047749
780.315349,962.267725,-8586.388927,0.000000
780.315674,666.185348,-9178.553681,-536.266849
780.315998,-296.082377,-9400.615463,-995.924147
780.316322,-962.267725,-9030.512492,-1149.143247
780.316646,-1258.350101,-9252.574275,-1225.752797
780.316970,-814.226536,-8808.450710,-766.095498
780.317295,0.000000,-9474.636058,-306.438199
780.317619,740.205942,-9178.553681,-689.485948
780.317943,1406.391290,-9030.512492,0.000000
780.318267,1924.535449,-9030.512492,306.438199
780.318592,1702.473667,-9770.718434,383.047749
780.318916,592.164754,-9992.780217,0.000000
780.319240,-888.247130,-10362.883188,-383.047749
780.319564,-1702.473667,-9918.759623,-995.924147
780.319889,-1776.494261,-9918.759623,-1302.362347
780.320213,-1332.370696,-9918.759623,-766.095498
780.320537,-962.267725,-10214.842000,-919.314598
780.320861,0.000000,-9696.697840,-459.657299
780.321186,962.267725,-9474.636058,-306.438199
780.321510,2220.617826,-9400.615463,-153.219100
780.321834,2516.700203,-9548.656652,76.609550
780.322158,2442.679609,-10066.800811,0.000000
780.322482,1332.370696,-9474.636058,0.000000
780.322807,0.000000,-10066.800811,-459.657299
780.323131,-888.247130,-9844.739029,-229.828649
780.323455,-1702.473667,-9844.739029,-459.657299
780.323779,-1924.535449,-9770.718434,-612.876398
780.324104,-1850.514855,-9770.718434,-306.438199
780.324428,-1332.370696,-9252.574275,229.828649
780.324752,0.000000,-9104.533087,383.047749
780.325076,74.020594,-8734.430116,153.219100
780.325401,740.205942,-9178.553681,1302.362347
780.325725,296.082377,-9770.718434,459.657299
780.326049,-370.102971,-10436.903782,229.828649
780.326373,-1258.350101,-10436.903782,-153.219100
780.326698,-1332.370696,-10510.924376,-459.657299
780.327022,-1776.494261,-10288.862594,-689.485948
780.327346,-1776.494261,-10362.883188,-842.705048
780.327670,-1406.391290,-10732.986159,-536.266849
780.327994,-370.102971,-9770.718434,0.000000
780.328319,888.247130,-9474.636058,229.828649
780.328643,1998.556043,-9178.553681,842.705048
780.328967,2516.700203,-9104.533087,995.924147
780.329291,2368.659014,-9252.574275,1532.190996
780.329616,1184.329507,-9548.656652,766.095498
780.329940,-222.061783,-9474.636058,689.485948
780.330264,-962.267725,-8882.471304,76.609550
780.330588,-1480.411884,-9474.636058,0.000000
780.330913,-1184.329507,-9622.677246,0.000000
780.331237,-1184.329507,-9548.656652,0.000000
780.331561,-592.164754,-9252.574275,306.438199
780.331885,296.082377,-9178.553681,689.485948
780.332209,1924.535449,-8660.409521,1225.752797
780.332534,2072.576638,-9104.533087,1685.410096
780.332858,1702.473667,-9474.636058,1225.752797
780.333182,592.164754,-9918.759623,919.314598
780.333506,-444.123565,-10288.862594,842.705048
780.333831,-1110.308913,-10288.862594,0.000000
780.334155,-1258.350101,-9622.677246,0.000000
780.334479,-1332.370696,-9400.615463,-153.219100
780.334803,-444.123565,-9918.759623,-306.438199
780.335127,0.000000,-9030.512492,-229.828649
780.335452,518.144159,-9104.533087,153.219100
780.335776,1480.411884,-8882.471304,306.438199
780.336100,1850.514855,-8734.430116,306.438199
780.336424,1702.473667,-9252.574275,536.266849
780.336748,888.247130,-9178.553681,229.828649
780.337073,-444.123565,-9474.636058,76.609550
780.337397,-1036.288319,-9918.759623,0.000000
780.337721,-1850.514855,-9770.718434,0.000000
780.338045,-1998.556043,-9918.759623,0.000000
780.338370,-1924.535449,-9770.718434,76.609550
780.338694,-814.226536,-9696.697840,612.876398
780.339018,222.061783,-9474.636058,306.438199
780.339342,814.226536,-9326.594869,919.314598
780.339666,814.226536,-9548.656652,612.876398
780.339991,0.000000,-9474.636058,0.000000
780.340315,-1036.288319,-10214.842000,-153.219100
780.340639,-1776.494261,-10658.965565,-1072.533697
780.340963,-2294.638420,-10584.944971,-1378.971896
780.341287,-2368.659014,-10584.944971,-1608.800546
780.341612,-2146.597232,-10288.862594,-1225.752797
780.341936,-962.267725,-10214.842000,-995.924147
780.342260,814.226536,-9770.718434,153.219100
780.342584,1924.535449,-9696.697840,153.219100
780.342909,3182.885551,-9474.636058,766.095498
780.343233,3552.988522,-9474.636058,612.876398
780.343557,2516.700203,-9474.636058,459.657299
780.343881,1184.329507,-9918.759623,-306.438199
780.344205,74.020594,-9992.780217,-842.705048
780.344530,-888.247130,-9622.677246,-995.924147
780.344854,-1258.350101,-9548.656652,-1685.410096
780.345178,-1258.350101,-9844.739029,-1225.752797
780.345502,-962.267725,-9548.656652,-842.705048
780.345826,0.000000,-9400.615463,-612.876398
780.346151,1110.308913,-9104.533087,0.000000
780.346475,2368.659014,-9400.615463,536.266849
780.346799,2368.659014,-9400.615463,459.657299
780.347123,1628.453072,-9844.739029,842.705048
780.347448,222.061783,-9844.739029,153.219100
780.347772,-740.205942,-10140.821405,-689.485948
780.348096,-1776.494261,-10214.842000,-766.095498
780.348420,-1850.514855,-10066.800811,-536.266849
780.348744,-1628.453072,-10362.883188,-1378.971896
780.349069,-740.205942,-9918.759623,-995.924147
780.349393,74.020594,-9326.594869,-919.314598
780.349717,962.267725,-9178.553681,-842.705048
780.350041,2072.576638,-9178.553681,-383.047749
780.350365,1998.556043,-9252.574275,229.828649
780.350690,666.185348,-9474.636058,76.609550
780.351014,518.144159,-9844.739029,306.438199
780.351338,-666.185348,-9770.718434,-153.219100
780.351662,-1184.329507,-9918.759623,-153.219100
780.351987,-1480.411884,-9770.718434,0.000000
780.352311,-1332.370696,-9992.780217,76.609550
780.352635,-888.247130,-9844.739029,919.314598
780.352959,370.102971,-9844.739029,612.876398
780.353283,592.164754,-9326.594869,383.047749
780.353608,444.123565,-9252.574275,383.047749
780.353932,222.061783,-9770.718434,459.657299
780.354256,-592.164754,-9992.780217,-459.657299
780.354580,-1480.411884,-10288.862594,-842.705048
780.354904,-1998.556043,-10510.924376,-766.095498
780.355229,-1628.453072,-9992.780217,-919.314598
780.355553,-1332.370696,-10510.924376,-766.095498
780.355877,-962.267725,-10362.883188,0.000000
780.356201,-370.102971,-10066.800811,383.047749
780.356526,1332.370696,-9548.656652,689.485948
780.356850,2442.679609,-9696.697840,1225.752797
780.357174,3034.844362,-9400.615463,1149.143247
780.357498,2516.700203,-9474.636058,919.314598
780.357822,1332.370696,-9474.636058,612.876398
780.358147,296.082377,-9474.636058,459.657299
780.358471,-962.267725,-9326.594869,-229.828649
780.358795,-1554.432478,-9844.739029,-383.047749
780.359119,-2146.597232,-9548.656652,-766.095498
780.359443,-1850.514855,-9326.594869,-153.219100
780.359768,-962.267725,-9104.533087,76.609550
780.360092,148.041188,-8882.471304,689.485948
780.360416,1258.350101,-9030.512492,1225.752797
780.360740,2368.659014,-8956.491898,2298.286494
780.361065,2442.679609,-9400.615463,1838.629195
780.361389,1258.350101,-9770.718434,1455.581446
780.361713,0.000000,-9992.780217,1072.533697
780.362037,-1332.370696,-10214.842000,306.438199
780.362361,-2072.576638,-9918.759623,0.000000
780.362686,-2146.597232,-10066.800811,-153.219100
780.363010,-1406.391290,-9622.677246,-689.485948
780.363334,-592.164754,-9178.553681,-153.219100
780.363658,-148.041188,-8660.409521,0.000000
780.363982,1036.288319,-8512.368333,76.609550
780.364307,1924.535449,-8660.409521,229.828649
780.364631,1924.535449,-9104.533087,536.266849
780.364955,1258.350101,-9474.636058,229.828649
780.365279,148.041188,-9696.697840,383.047749
780.365604,-444.123565,-9992.780217,229.828649
780.365928,-1554.432478,-9918.759623,76.609550
780.366252,-1776.494261,-10214.842000,0.000000
780.366576,-1924.535449,-10214.842000,0.000000
780.366900,-1184.329507,-9992.780217,-229.828649
780.367225,-222.061783,-9696.697840,76.609550
780.367549,666.185348,-9474.636058,153.219100
780.367873,370.102971,-9548.656652,0.000000
780.368197,-518.144159,-9770.718434,-459.657299
780.368521,-1110.308913,-10436.903782,-306.438199
780.368846,-1554.432478,-10732.986159,-689.485948
780.369170,-2146.597232,-10510.924376,-1072.533697
780.369494,-1850.514855,-10510.924376,-1149.143247
780.369818,-962.267725,-10584.944971,-1149.143247
780.370143,0.000000,-10510.924376,-612.876398
780.370467,1406.391290,-9992.780217,153.219100
780.370791,2516.700203,-9548.656652,0.000000
780.371115,2960.823768,-9178.553681,153.219100
780.371439,2812.782580,-9030.512492,0.000000
780.371764,2146.597232,-9474.636058,-229.828649
780.372088,740.205942,-9622.677246,-919.314598
780.372412,-296.082377,-9844.739029,-1225.752797
780.372736,-1480.411884,-9326.594869,-1149.143247
780.373060,-1850.514855,-9326.594869,-995.924147
780.373385,-1776.494261,-9326.594869,-995.924147
780.373709,-962.267725,-9696.697840,-459.657299
780.374033,-222.061783,-9474.636058,76.609550
780.374357,740.205942,-9326.594869,536.266849
780.374682,2146.597232,-9474.636058,1149.143247
780.375006,2368.659014,-9548.656652,1302.362347
780.375330,2072.576638,-9992.780217,536.266849
780.375654,74.020594,-10066.800811,383.047749
780.375978,-1480.411884,-9992.780217,-536.266849
780.376303,-2294.638420,-10066.800811,-1225.752797
780.376627,-2220.617826,-10288.862594,-1378.971896
780.376951,-2146.597232,-9918.759623,-1455.581446
780.377275,-888.247130,-9326.594869,-995.924147
780.377599,0.000000,-9030.512492,-536.266849
780.377924,1184.329507,-8808.450710,0.000000
780.378248,2516.700203,-8512.368333,536.266849
780.378572,2812.782580,-8586.388927,842.705048
780.378896,2294.638420,-9104.533087,995.924147
780.379221,1480.411884,-9548.656652,919.314598
780.379545,74.020594,-9474.636058,306.438199
780.379869,-740.205942,-10214.842000,229.828649
780.380193,-2072.576638,-9178.553681,-459.657299
780.380517,-1924.535449,-9548.656652,-459.657299
780.380842,-1776.494261,-9844.739029,-459.657299
780.381166,-1110.308913,-9474.636058,0.000000
780.381490,-222.061783,-9474.636058,383.047749
780.381814,370.102971,-9400.615463,0.000000
780.382138,592.164754,-9622.677246,459.657299
780.382463,0.000000,-10140.821405,995.924147
780.382787,-740.205942,-10658.965565,153.219100
780.383111,-1184.329507,-10658.965565,536.266849
780.383435,-1184.329507,-10807.006753,-229.828649
780.383760,-1184.329507,-10881.027347,-229.828649
780.384084,-962.267725,-11029.068536,-153.219100
780.384408,-148.041188,-10436.903782,76.609550
780.384732,962.267725,-9474.636058,153.219100
780.385056,1628.453072,-9252.574275,306.438199
780.385381,2590.720797,-9252.574275,229.828649
780.385705,1998.556043,-9548.656652,153.219100
780.386029,1332.370696,-9104.533087,459.657299
780.386353,148.041188,-9326.594869,-306.438199
780.386677,-888.247130,-9474.636058,-383.047749
780.387002,-1554.432478,-9326.594869,-536.266849
780.387326,-1480.411884,-9474.636058,0.000000
780.387650,-814.226536,-9400.615463,0.000000
780.387974,-148.041188,-9326.594869,76.609550
780.388299,444.123565,-9030.512492,536.266849
780.388623,1480.411884,-9178.553681,1225.752797
780.388947,2368.659014,-9400.615463,1072.533697
780.389271,1924.535449,-9474.636058,995.924147
780.389595,518.144159,-9474.636058,459.657299
780.389920,-740.205942,-9696.697840,229.828649
780.390244,-1850.514855,-9696.697840,0.000000
780.390568,-1776.494261,-9770.718434,-1455.581446
780.390892,-1554.432478,-9548.656652,-995.924147
780.391216,-1184.329507,-9548.656652,-612.876398
780.391541,-296.082377,-9104.533087,-459.657299
780.391865,814.226536,-8586.388927,-536.266849
780.392189,1628.453072,-8438.347739,0.000000
780.392513,2072.576638,-8586.388927,0.000000
780.392838,2220.617826,-9474.636058,459.657299
780.393162,1480.411884,-9178.553681,153.219100
780.393486,444.123565,-9474.636058,0.000000
780.393810,-1036.288319,-9770.718434,-612.876398
780.394134,-1628.453072,-10140.821405,-766.095498
780.394459,-2368.659014,-10214.842000,-919.314598
780.394783,-2072.576638,-9696.697840,-689.485948
780.395107,-1480.411884,-10066.800811,-306.438199
780.395431,-296.082377,-10066.800811,229.828649
780.395755,222.061783,-9770.718434,-76.609550
780.396080,518.144159,-9918.759623,0.000000
780.396404,148.041188,-10362.883188,-229.828649
780.396728,-518.144159,-10732.986159,-536.266849
780.397052,-1406.391290,-11251.130318,-919.314598
780.397377,-1924.535449,-10658.965565,-842.705048
780.397701,-1998.556043,-10732.986159,-1378.971896
780.398025,-2220.617826,-10807.006753,-1302.362347
780.398349,-1184.329507,-10510.924376,-1072.533697
780.398673,222.061783,-9844.739029,-612.876398
780.398998,1628.453072,-9622.677246,0.000000
780.399322,2738.761985,-9400.615463,0.000000
780.399646,3034.844362,-9400.615463,306.438199
780.399970,2812.782580,-9326.594869,536.266849
780.400294,1850.514855,-9326.594869,459.657299
780.400619,518.144159,-9400.615463,0.000000
780.400943,-888.247130,-9178.553681,0.000000
780.401267,-1036.288319,-9622.677246,-306.438199
780.401591,-1110.308913,-9622.677246,0.000000
780.401916,-592.164754,-9326.594869,0.000000
780.402240,-296.082377,-8882.471304,842.705048
780.402564,370.102971,-8734.430116,383.047749
780.402888,1184.329507,-8586.388927,766.095498
780.403212,1480.411884,-8882.471304,766.095498
780.403537,888.247130,-9474.636058,842.705048
780.403861,74.020594,-9696.697840,306.438199
780.404185,-740.205942,-9770.718434,-306.438199
780.404509,-1628.453072,-9696.697840,-612.876398
780.404833,-1702.473667,-9844.739029,-306.438199
780.405158,-1332.370696,-10214.842000,-536.266849
780.405482,-518.144159,-9622.677246,0.000000
780.405806,518.144159,-9252.574275,0.000000
780.406130,1258.350101,-8882.471304,0.000000
780.406455,1924.535449,-8808.450710,306.438199
780.406779,2368.659014,-9252.574275,459.657299
780.407103,1850.514855,-8956.491898,459.657299
780.407427,666.185348,-9326.594869,0.000000
780.407751,-962.267725,-9474.636058,76.609550
780.408076,-1036.288319,-10214.842000,-306.438199
780.408400,-2368.659014,-10140.821405,-842.705048
780.408724,-2368.659014,-10510.924376,-842.705048
780.409048,-1924.535449,-10214.842000,-459.657299
780.409372,-1184.329507,-10140.821405,-306.438199
780.409697,148.041188,-10066.800811,0.000000
780.410021,740.205942,-10140.821405,612.876398
780.410345,888.247130,-10362.883188,76.609550
780.410669,296.082377,-10584.944971,-459.657299
780.410994,-888.247130,-10881.027347,-383.047749
780.411318,-1480.411884,-11399.171507,-612.876398
780.411642,-1924.535449,-11177.109724,-766.095498
780.411966,-2072.576638,-11029.068536,-459.657299
780.412290,-1702.473667,-10807.006753,-306.438199
780.412615,-296.082377,-9844.739029,-153.219100
780.412939,592.164754,-9548.656652,0.000000
780.413263,1998.556043,-9326.594869,459.657299
780.413587,3034.844362,-8882.471304,536.266849
780.413911,2960.823768,-8882.471304,383.047749
780.414236,2072.576638,-8956.491898,306.438199
780.414560,962.267725,-8586.388927,383.047749
780.414884,0.000000,-9178.553681,76.609550
780.415208,-592.164754,-9178.553681,-459.657299
780.415533,-962.267725,-9252.574275,-689.485948
780.415857,-1184.329507,-9474.636058,-383.047749
780.416181,-814.226536,-9104.533087,153.219100
780.416505,-148.041188,-8956.491898,689.485948
780.416829,962.267725,-9030.512492,995.924147
780.417154,1554.432478,-8586.388927,1532.190996
780.417478,1702.473667,-8660.409521,1915.238745
780.417802,814.226536,-9252.574275,1149.143247
780.418126,-370.102971,-9474.636058,612.876398
780.418450,-1480.411884,-9918.759623,0.000000
780.418775,-2146.597232,-9548.656652,-306.438199
780.419099,-1924.535449,-9770.718434,-766.095498
780.419423,-1406.391290,-9992.780217,-1225.752797
780.419747,-740.205942,-9474.636058,-919.314598
780.420072,148.041188,-8660.409521,-766.095498
780.420396,1924.535449,-8660.409521,-153.219100
780.420720,2442.679609,-8734.430116,306.438199
780.421044,2368.659014,-8882.471304,383.047749
780.421368,1850.514855,-9474.636058,612.876398
780.421693,888.247130,-9400.615463,306.438199
780.422017,-370.102971,-9548.656652,0.000000
780.422341,-1184.329507,-9918.759623,-153.219100
780.422665,-1406.391290,-10214.842000,-842.705048
780.422989,-1406.391290,-10732.986159,-612.876398
780.423314,-1036.288319,-9992.780217,-612.876398
780.423638,-518.144159,-10140.821405,-459.657299
780.423962,0.000000,-10066.800811,-383.047749
780.424286,518.144159,-10214.842000,-459.657299
780.424611,666.185348,-10436.903782,-383.047749
780.424935,-370.102971,-10732.986159,-536.266849
780.425259,-888.247130,-11473.192101,-995.924147
780.425583,-1702.473667,-11251.130318,-1378.971896
780.425907,-1924.535449,-11325.150913,-1378.971896
780.426232,-1628.453072,-11029.068536,-766.095498
780.426556,-1258.350101,-10881.027347,-689.485948
780.426880,0.000000,-10436.903782,-383.047749
780.427204,1406.391290,-9696.697840,76.609550
780.427528,2368.659014,-9622.677246,-153.219100
780.427853,2812.782580,-9104.533087,612.876398
780.428177,2294.638420,-9030.512492,536.266849
780.428501,1036.288319,-9104.533087,0.000000
780.428825,444.123565,-9104.533087,-153.219100
780.429150,-888.247130,-9400.615463,-689.485948
780.429474,-1258.350101,-9252.574275,-1149.143247
780.429798,-1850.514855,-9030.512492,-1225.752797
780.430122,-1628.453072,-9326.594869,-612.876398
780.430446,-1184.329507,-8512.368333,0.000000
780.430771,592.164754,-8438.347739,766.095498
780.431095,1776.494261,-8808.450710,1378.971896
780.431419,1628.453072,-8956.491898,1915.238745
780.431743,1850.514855,-9178.553681,1378.971896
780.432067,814.226536,-9326.594869,1149.143247
780.432392,-296.082377,-9622.677246,766.095498
780.432716,-1554.432478,-9474.636058,229.828649
780.433040,-2368.659014,-9400.615463,-229.828649
780.433364,-2368.659014,-10214.842000,-536.266849
780.433689,-2072.576638,-9992.780217,-689.485948
780.434013,-1110.308913,-9474.636058,-919.314598
780.434337,222.061783,-9104.533087,-383.047749
780.434661,1702.473667,-8956.491898,153.219100
780.434985,2590.720797,-8956.491898,689.485948
780.435310,2812.782580,-9104.533087,1072.533697
780.435634,1924.535449,-9474.636058,612.876398
780.435958,1036.288319,-9992.780217,459.657299
780.436282,-296.082377,-9992.780217,0.000000
780.436606,-1554.432478,-10288.862594,0.000000
780.436930,-1850.514855,-10584.944971,0.000000
780.437255,-1850.514855,-10658.965565,-153.219100
780.437579,-1110.308913,-10436.903782,76.609550
780.437903,-222.061783,-9918.759623,-153.219100
780.438227,296.082377,-9622.677246,306.438199
780.438551,666.185348,-9770.718434,306.438199
780.438875,296.082377,-10066.800811,0.000000
780.439200,-370.102971,-10436.903782,-153.219100
780.439524,-1184.329507,-10881.027347,-459.657299
780.439848,-1258.350101,-10658.965565,-689.485948
780.440172,-1110.308913,-10214.842000,-612.876398
780.440496,-518.144159,-10584.944971,0.000000
780.440820,-296.082377,-10436.903782,0.000000
780.441144,518.144159,-9770.718434,-306.438199
780.441469,1554.432478,-9622.677246,0.000000
780.441793,2072.576638,-9400.615463,229.828649
780.442117,2220.617826,-9252.574275,153.219100
780.442441,1554.432478,-9548.656652,229.828649
780.442765,0.000000,-8808.450710,0.000000
780.443089,-962.267725,-9548.656652,76.609550
780.443414,-1406.391290,-9178.553681,-612.876398
780.443738,-1702.473667,-9104.533087,-689.485948
780.444062,-1776.494261,-9252.574275,-383.047749
780.444386,-1110.308913,-9252.574275,229.828649
780.444710,-74.020594,-8882.471304,842.705048
780.445034,1110.308913,-8512.368333,1149.143247
780.445359,2072.576638,-8956.491898,1608.800546
780.445683,2072.576638,-9104.533087,1225.752797
780.446007,1406.391290,-9400.615463,919.314598
780.446331,-296.082377,-9844.739029,153.219100
780.446655,-1776.494261,-9844.739029,-536.266849
780.446979,-2812.782580,-9696.697840,-1378.971896
780.447304,-3108.864956,-9474.636058,-1762.019645
780.447628,-2368.659014,-9474.636058,-1915.238745
780.447952,-962.267725,-9548.656652,-1072.533697
780.448276,148.041188,-9326.594869,-459.657299
780.448600,1850.514855,-8586.388927,0.000000
780.448924,3108.864956,-8882.471304,306.438199
780.449249,3552.988522,-9030.512492,842.705048
780.449573,2960.823768,-9696.697840,766.095498
780.449897,2072.576638,-10436.903782,306.438199
780.450221,222.061783,-10510.924376,0.000000
780.450545,-888.247130,-10362.883188,-229.828649
780.450869,-1332.370696,-10732.986159,-612.876398
780.451194,-1332.370696,-10881.027347,-766.095498
780.451518,-1406.391290,-10214.842000,-842.705048
780.451842,-888.247130,-10140.821405,-306.438199
780.452166,0.000000,-9918.759623,-536.266849
780.452490,962.267725,-9696.697840,76.609550
780.452814,666.185348,-9696.697840,153.219100
780.453139,0.000000,-10436.903782,-229.828649
780.453463,0.000000,-10510.924376,-383.047749
780.453787,-1184.329507,-10955.047942,-459.657299
780.454111,-962.267725,-10732.986159,-459.657299
780.454435,-1110.308913,-10732.986159,-536.266849
780.454759,-666.185348,-10807.006753,-306.438199
780.455084,-148.041188,-10066.800811,-306.438199
780.455408,222.061783,-9400.615463,-306.438199
780.455732,1110.308913,-9252.574275,153.219100
780.456056,2072.576638,-8734.430116,76.609550
780.456380,2294.638420,-8882.471304,306.438199
780.456704,1406.391290,-8956.491898,0.000000
780.457029,74.020594,-8956.491898,-306.438199
780.457353,-1036.288319,-8956.491898,-919.314598
780.457677,-1998.556043,-9030.512492,-919.314598
780.458001,-1924.535449,-9030.512492,0.000000
780.458325,-1110.308913,-9622.677246,-306.438199
780.458649,-444.123565,-9252.574275,153.219100
780.458974,370.102971,-8882.471304,383.047749
780.459298,1036.288319,-8882.471304,766.095498
780.459622,1480.411884,-8808.450710,766.095498
780.459946,1332.370696,-9326.594869,1072.533697
780.460270,296.082377,-9474.636058,612.876398
780.460594,-1110.308913,-9696.697840,0.000000
780.460918,-1924.535449,-9844.739029,-536.266849
780.461243,-2146.597232,-10066.800811,-1072.533697
780.461567,-1998.556043,-9992.780217,-1149.143247
780.461891,-1036.288319,-10362.883188,-1302.362347
780.462215,-148.041188,-9696.697840,-306.438199
780.462539,962.267725,-9326.594869,0.000000
780.462863,2590.720797,-9104.533087,459.657299
780.463188,3701.029710,-9400.615463,689.485948
780.463512,3552.988522,-9622.677246,612.876398
780.463836,2368.659014,-9992.780217,306.438199
780.464160,740.205942,-10140.821405,-153.219100
780.464484,-814.226536,-10140.821405,-459.657299
780.464808,-1406.391290,-10066.800811,-766.095498
780.465133,-1554.432478,-10362.883188,-1302.362347
780.465457,-1850.514855,-10510.924376,0.000000
780.465781,-1628.453072,-10066.800811,-306.438199
780.466105,-740.205942,-9770.718434,0.000000
780.466429,74.020594,-9770.718434,459.657299
780.466753,888.247130,-9696.697840,766.095498
780.467078,962.267725,-10140.821405,1302.362347
780.467402,592.164754,-10362.883188,459.657299
780.467726,-444.123565,-10510.924376,153.219100
780.468050,-1776.494261,-10658.965565,-306.438199
780.468374,-2146.597232,-10584.944971,-612.876398
780.468698,-2072.576638,-10436.903782,-842.705048
780.469023,-1480.411884,-10288.862594,-689.485948
780.469347,-444.123565,-9918.759623,-153.219100
780.469671,222.061783,-8586.388927,0.000000
780.469995,1258.350101,-8660.409521,383.047749
780.470319,1998.556043,-8142.265362,536.266849
780.470643,1924.535449,-8660.409521,842.705048
780.470968,1332.370696,-8734.430116,766.095498
780.471292,74.020594,-8882.471304,612.876398
780.471616,-814.226536,-8512.368333,459.657299
780.471940,-1110.308913,-8882.471304,383.047749
780.472264,-1110.308913,-9252.574275,383.047749
780.472588,-814.226536,-9104.533087,612.876398
780.472913,-592.164754,-9178.553681,459.657299
780.473237,740.205942,-9030.512492,689.485948
780.473561,1554.432478,-9030.512492,995.924147
780.473885,1776.494261,-9326.594869,766.095498
780.474209,814.226536,-9178.553681,842.705048
780.474533,74.020594,-9696.697840,536.266849
780.474858,-1110.308913,-9844.739029,-153.219100
780.475182,-1406.391290,-9696.697840,-459.657299
780.475506,-1258.350101,-10288.862594,-459.657299
780.475830,-1184.329507,-10214.842000,-383.047749
780.476154,-296.082377,-10066.800811,-306.438199
780.476478,370.102971,-9696.697840,0.000000
780.476803,1480.411884,-9696.697840,0.000000
780.477127,2368.659014,-10066.800811,459.657299
780.477451,2812.782580,-9474.636058,612.876398
780.477775,2294.638420,-9918.759623,76.609550
780.478099,814.226536,-10066.800811,-306.438199
780.478423,-296.082377,-10436.903782,-612.876398
780.478748,-1332.370696,-10288.862594,-995.924147
780.479072,-1702.473667,-10214.842000,-842.705048
780.479396,-1554.432478,-9918.759623,-1378.971896
780.479720,-1702.473667,-10214.842000,-612.876398
780.480044,-962.267725,-9770.718434,0.000000
780.480368,-296.082377,-9696.697840,0.000000
780.480692,370.102971,-9622.677246,306.438199
780.481017,444.123565,-10066.800811,76.609550
780.481341,0.000000,-10288.862594,536.266849
780.481665,-1110.308913,-10362.883188,-612.876398
780.481989,-1554.432478,-9918.759623,-919.314598
780.482313,-2294.638420,-10584.944971,-842.705048
780.482637,-2738.761985,-10066.800811,-1302.362347
780.482962,-2220.617826,-10066.800811,-1302.362347
780.483286,-1184.329507,-9622.677246,-995.924147
780.483610,148.041188,-9252.574275,-536.266849
780.483934,1850.514855,-8438.347739,229.828649
780.484258,2960.823768,-8586.388927,919.314598
780.484582,3478.967927,-8364.327145,689.485948
780.484907,2590.720797,-8808.450710,0.000000
780.485231,1480.411884,-9400.615463,0.000000
780.485555,148.041188,-9770.718434,-306.438199
780.485879,-1184.329507,-9474.636058,-536.266849
780.486203,-1850.514855,-9178.553681,-995.924147
780.486527,-1702.473667,-9326.594869,-612.876398
780.486852,-1850.514855,-9474.636058,-459.657299
780.487176,-222.061783,-9030.512492,-229.828649
780.487500,1036.288319,-9326.594869,229.828649
780.487824,1554.432478,-9104.533087,383.047749
780.488148,1850.514855,-9400.615463,459.657299
780.488472,1184.329507,-9844.739029,383.047749
780.488797,222.061783,-9844.739029,0.000000
780.489121,-444.123565,-10214.842000,0.000000
780.489445,-1184.329507,-10066.800811,-459.657299
780.489769,-814.226536,-10288.862594,-1225.752797
780.490093,-740.205942,-10658.965565,-842.705048
780.490417,-222.061783,-10288.862594,-612.876398
780.490742,518.144159,-9770.718434,-383.047749
780.491066,1406.391290,-9400.615463,0.000000
780.491390,2146.597232,-9400.615463,0.000000
780.491714,2294.638420,-9252.574275,383.047749
780.492038,1776.494261,-9104.533087,76.609550
780.492362,592.164754,-9326.594869,0.000000
780.492687,-518.144159,-9844.739029,-459.657299
780.493011,-1702.473667,-9622.677246,-536.266849
780.493335,-2294.638420,-9992.780217,-536.266849
780.493659,-1998.556043,-10140.821405,-612.876398
780.493983,-1924.535449,-9548.656652,-229.828649
780.494307,-444.123565,-9622.677246,0.000000
780.494632,592.164754,-9918.759623,383.047749
780.494956,1110.308913,-10140.821405,459.657299
780.495280,888.247130,-10066.800811,459.657299
780.495604,0.000000,-10288.862594,612.876398
780.495928,-1184.329507,-10881.027347,0.000000
780.496252,-1998.556043,-10732.986159,-459.657299
780.496577,-2516.700203,-10436.903782,-229.828649
780.496901,-1924.535449,-10510.924376,-612.876398
780.497225,-1036.288319,-10510.924376,-689.485948
780.497549,-592.164754,-9770.718434,0.000000
780.497873,962.267725,-9104.533087,689.485948
780.498197,1924.535449,-8660.409521,919.314598
780.498522,2590.720797,-9030.512492,1149.143247
780.498846,2738.761985,-8956.491898,1072.533697
780.499170,1924.535449,-9178.553681,842.705048
780.499494,666.185348,-9400.615463,689.485948
780.499818,0.000000,-9548.656652,0.000000
780.500142,-814.226536,-9252.574275,-612.876398
780.500466,-1258.350101,-9326.594869,0.000000
780.500791,-1184.329507,-9400.615463,0.000000
780.501115,-740.205942,-9326.594869,0.000000
780.501439,222.061783,-8956.491898,536.266849
780.501763,1258.350101,-9030.512492,1072.533697
780.502087,2368.659014,-8808.450710,1685.410096
780.502411,1924.535449,-8660.409521,1455.581446
780.502736,962.267725,-10066.800811,919.314598
780.503060,-296.082377,-9992.780217,459.657299
780.503384,-1184.329507,-10436.903782,-153.219100
780.503708,-1850.514855,-10140.821405,-459.657299
780.504032,-1998.556043,-9844.739029,-919.314598
780.504356,-1406.391290,-9622.677246,-842.705048
780.504681,-592.164754,-9474.636058,-383.047749
780.505005,518.144159,-9252.574275,-229.828649
780.505329,1480.411884,-9030.512492,76.609550
780.505653,2072.576638,-8956.491898,153.219100
780.505977,1702.473667,-8956.491898,0.000000
780.506301,1110.308913,-9178.553681,229.828649
780.506626,0.000000,-9770.718434,-383.047749
780.506950,-814.226536,-9844.739029,-766.095498
780.507274,-1036.288319,-9622.677246,0.000000
780.507598,-1184.329507,-9770.718434,-536.266849
780.507922,-1628.453072,-9770.718434,-1225.752797
780.508246,-1406.391290,-10140.821405,-689.485948
780.508571,-740.205942,-10140.821405,-612.876398
780.508895,296.082377,-10140.821405,-153.219100
780.509219,740.205942,-9918.759623,459.657299
780.509543,814.226536,-9844.739029,0.000000
780.509867,370.102971,-10288.862594,-459.657299
780.510191,-888.247130,-10955.047942,-459.657299
780.510516,-1850.514855,-10881.027347,-1072.533697
780.510840,-1924.535449,-11029.068536,-1455.581446
780.511164,-2072.576638,-10658.965565,-1455.581446
780.511488,-1184.329507,-10658.965565,-1149.143247
780.511812,0.000000,-10288.862594,-536.266849
780.512136,1702.473667,-9770.718434,-153.219100
780.512461,3034.844362,-9474.636058,459.657299
780.512785,2886.803174,-9400.615463,153.219100
780.513109,2664.741391,-9474.636058,153.219100
780.513433,1776.494261,-9622.677246,0.000000
780.513757,740.205942,-9696.697840,-306.438199
780.514081,-222.061783,-9622.677246,-536.266849
780.514406,-740.205942,-9770.718434,-383.047749
780.514730,-1406.391290,-9696.697840,0.000000
780.515054,-740.205942,-9622.677246,76.609550
780.515378,-222.061783,-9030.512492,536.266849
780.515702,222.061783,-8808.450710,842.705048
780.516026,1036.288319,-8882.471304,1072.533697
780.516351,1110.308913,-8512.368333,995.924147
780.516675,370.102971,-8512.368333,689.485948
780.516999,-592.164754,-9252.574275,0.000000
780.517323,-1554.432478,-9548.656652,0.000000
780.517647,-1924.535449,-9400.615463,-689.485948
780.517971,-2368.659014,-9474.636058,-612.876398
780.518296,-2072.576638,-9770.718434,-383.047749
780.518620,-1480.411884,-9474.636058,-459.657299
780.518944,-148.041188,-8808.450710,689.485948
780.519268,1332.370696,-8216.285956,919.314598
780.519592,2516.700203,-8660.409521,1378.971896
780.519916,2664.741391,-9030.512492,1838.629195
780.520240,2220.617826,-9252.574275,1149.143247
780.520565,888.247130,-9474.636058,842.705048
780.520889,-296.082377,-9548.656652,76.609550
780.521213,-1554.432478,-9696.697840,-459.657299
780.521537,-2294.638420,-9770.718434,-689.485948
780.521861,-2516.700203,-9844.739029,-229.828649
780.522185,-2146.597232,-9770.718434,-536.266849
780.522510,-1332.370696,-9696.697840,-153.219100
780.522834,-518.144159,-9696.697840,306.438199
780.523158,814.226536,-9844.739029,689.485948
780.523482,1332.370696,-9844.739029,842.705048
780.523806,1036.288319,-9844.739029,995.924147
780.524130,0.000000,-10881.027347,229.828649
780.524455,-222.061783,-11029.068536,0.000000
780.524779,-1554.432478,-11177.109724,-306.438199
780.525103,-1480.411884,-11251.130318,-995.924147
780.525427,-1184.329507,-11547.212695,-1225.752797
780.525751,-592.164754,-11177.109724,-1072.533697
780.526075,74.020594,-10510.924376,-612.876398
780.526400,1184.329507,-9696.697840,-612.876398
780.526724,2368.659014,-9548.656652,-153.219100
780.527048,2516.700203,-9474.636058,306.438199
780.527372,2146.597232,-9622.677246,0.000000
780.527696,1332.370696,-9474.636058,0.000000
780.528020,592.164754,-9770.718434,-459.657299
780.528345,-296.082377,-9474.636058,-153.219100
780.528669,-814.226536,-9400.615463,0.000000
780.528993,-1184.329507,-9474.636058,0.000000
780.529317,-1258.350101,-9104.533087,76.609550
780.529641,0.000000,-9178.553681,0.000000
780.529965,666.185348,-8956.491898,306.438199
780.530290,1406.391290,-9030.512492,612.876398
780.530614,1554.432478,-8882.471304,306.438199
780.530938,518.144159,-9030.512492,383.047749
780.531262,-518.144159,-9400.615463,-383.047749
780.531586,-1702.473667,-9770.718434,-919.314598
780.531910,-2220.617826,-9622.677246,-995.924147
780.532235,-2294.638420,-9770.718434,-842.705048
780.532559,-1554.432478,-9548.656652,-995.924147
780.532883,-592.164754,-9548.656652,-383.047749
780.533207,888.247130,-9178.553681,76.609550
780.533531,1998.556043,-9104.533087,919.314598
780.533855,2812.782580,-9104.533087,459.657299
780.534180,2516.700203,-9104.533087,919.314598
780.534504,1480.411884,-9252.574275,76.609550
780.534828,0.000000,-9474.636058,-459.657299
780.535152,-1480.411884,-9474.636058,-1378.971896
780.535476,-1850.514855,-9770.718434,-1532.190996
780.535799,-1998.556043,-9992.780217,-1378.971896
780.536123,-1850.514855,-9770.718434,-1149.143247
780.536447,-1110.308913,-9622.677246,0.000000
780.536771,-222.061783,-9770.718434,0.000000
780.537095,444.123565,-9770.718434,612.876398
780.537419,1036.288319,-10288.862594,842.705048
780.537743,1332.370696,-10510.924376,919.314598
780.538067,1036.288319,-10658.965565,612.876398
780.538391,0.000000,-11103.089130,229.828649
780.538715,-1258.350101,-10510.924376,0.000000
780.539040,-2220.617826,-10881.027347,-1225.752797
780.539364,-2368.659014,-10807.006753,-1532.190996
780.539688,-1776.494261,-10881.027347,-1608.800546
780.540012,-814.226536,-10288.862594,-995.924147
780.540336,518.144159,-9622.677246,-229.828649
780.540660,2072.576638,-9252.574275,0.000000
780.540984,2664.741391,-8808.450710,689.485948
780.541308,2442.679609,-8956.491898,995.924147
780.541632,1998.556043,-9474.636058,766.095498
780.541956,1258.350101,-9992.780217,995.924147
780.542280,222.061783,-9622.677246,612.876398
780.542605,-666.185348,-9622.677246,383.047749
780.542929,-1406.391290,-9770.718434,383.047749
780.543253,-1702.473667,-9474.636058,0.000000
780.543577,-1332.370696,-9474.636058,229.828649
780.543901,-740.205942,-8808.450710,689.485948
780.544225,0.000000,-8660.409521,459.657299
780.544549,296.082377,-8808.450710,689.485948
780.544873,148.041188,-9030.512492,383.047749
780.545197,-444.123565,-9622.677246,76.609550
780.545521,-1184.329507,-10288.862594,0.000000
780.545846,-1702.473667,-9622.677246,0.000000
780.546170,-1702.473667,-9622.677246,0.000000
780.546494,-1258.350101,-9992.780217,0.000000
780.546818,-296.082377,-10362.883188,229.828649
780.547142,0.000000,-9844.739029,536.266849
780.547466,962.267725,-9474.636058,459.657299
780.547790,1924.535449,-9030.512492,612.876398
780.548114,2812.782580,-8882.471304,995.924147
780.548438,2146.597232,-8882.471304,766.095498
780.548762,1110.308913,-9178.553681,306.438199
780.549087,-370.102971,-9326.594869,-536.266849
780.549411,-1702.473667,-9400.615463,-842.705048
780.549735,-2294.638420,-9400.615463,-1072.533697
780.550059,-2146.597232,-9252.574275,-689.485948
780.550383,-1480.411884,-9474.636058,-383.047749
780.550707,-444.123565,-9474.636058,612.876398
780.551031,518.144159,-9474.636058,689.485948
780.551355,1776.494261,-9030.512492,1149.143247
780.551679,2294.638420,-9918.759623,1378.971896
780.552003,1702.473667,-10066.800811,689.485948
780.552328,444.123565,-10362.883188,383.047749
780.552652,-1036.288319,-10658.965565,-536.266849
780.552976,-2220.617826,-10436.903782,-1225.752797
780.553300,-1998.556043,-10140.821405,-1225.752797
780.553624,-1850.514855,-10584.944971,-1378.971896
780.553948,-1258.350101,-10214.842000,-1149.143247
780.554272,0.000000,-9622.677246,-995.924147
780.554596,1480.411884,-9474.636058,0.000000
780.554920,3034.844362,-9474.636058,-229.828649
780.555244,3478.967927,-9400.615463,229.828649
780.555569,3034.844362,-9622.677246,536.266849
780.555893,2220.617826,-10140.821405,459.657299
780.556217,370.102971,-10066.800811,-766.095498
780.556541,-296.082377,-10066.800811,-383.047749
780.556865,-1628.453072,-10066.800811,-689.485948
780.557189,-2072.576638,-9992.780217,-1072.533697
780.557513,-2368.659014,-9622.677246,-919.314598
780.557837,-1998.556043,-9548.656652,-766.095498
780.558161,-962.267725,-8882.471304,-689.485948
780.558485,518.144159,-9178.553681,0.000000
780.558810,1036.288319,-9326.594869,536.266849
780.559134,814.226536,-9622.677246,153.219100
780.559458,-370.102971,-9548.656652,0.000000
780.559782,-888.247130,-9918.759623,-459.657299
780.560106,-1406.391290,-10288.862594,-383.047749
780.560430,-1480.411884,-10362.883188,-459.657299
780.560754,-1406.391290,-10436.903782,-612.876398
780.561078,-444.123565,-10362.883188,-612.876398
780.561402,74.020594,-9474.636058,-229.828649
780.561726,1406.391290,-9178.553681,76.609550
780.562051,2220.617826,-9104.533087,0.000000
780.562375,1924.535449,-8882.471304,153.219100
780.562699,1406.391290,-9178.553681,0.000000
780.563023,444.123565,-9252.574275,0.000000
780.563347,-592.164754,-9326.594869,-306.438199
780.563671,-1036.288319,-9178.553681,-536.266849
780.563995,-888.247130,-9548.656652,-153.219100
780.564319,-888.247130,-9696.697840,0.000000
780.564643,-444.123565,-9622.677246,229.828649
780.564967,0.000000,-9622.677246,536.266849
780.565292,814.226536,-9474.636058,612.876398
780.565616,1480.411884,-9770.718434,842.705048
780.565940,1258.350101,-9770.718434,612.876398
780.566264,592.164754,-9918.759623,153.219100
780.566588,-518.144159,-10066.800811,76.609550
780.566912,-2072.576638,-10140.821405,-1225.752797
780.567236,-2442.679609,-10362.883188,-1225.752797
780.567560,-2442.679609,-10584.944971,-1225.752797
780.567884,-1628.453072,-10584.944971,-1072.533697
780.568208,-740.205942,-10288.862594,-306.438199
780.568533,666.185348,-9918.759623,153.219100
780.568857,2220.617826,-9474.636058,536.266849
780.569181,3256.906145,-9548.656652,1072.533697
780.569505,3775.050304,-9400.615463,1378.971896
780.569829,2368.659014,-9622.677246,995.924147
780.570153,740.205942,-9770.718434,459.657299
780.570477,-518.144159,-9770.718434,0.000000
780.570801,-1480.411884,-9844.739029,-229.828649
780.571125,-2294.638420,-9400.615463,-766.095498
780.571449,-1850.514855,-9548.656652,-612.876398
780.571773,-1184.329507,-8808.450710,-153.219100
780.572098,-370.102971,-8808.450710,0.000000
780.572422,370.102971,-8586.388927,536.266849
780.572746,1332.370696,-8956.491898,919.314598
780.573070,1480.411884,-9178.553681,1378.971896
780.573394,1110.308913,-9474.636058,1072.533697
780.573718,370.102971,-10066.800811,229.828649
780.574042,-888.247130,-10066.800811,153.219100
780.574366,-1480.411884,-10436.903782,0.000000
780.574690,-2220.617826,-10510.924376,-383.047749
780.575014,-1998.556043,-9992.780217,-536.266849
780.575339,-1332.370696,-9770.718434,-459.657299
780.575663,-148.041188,-8956.491898,-612.876398
780.575987,1258.350101,-8808.450710,383.047749
780.576311,1998.556043,-8512.368333,612.876398
780.576635,2220.617826,-9104.533087,0.000000
780.576959,888.247130,-9178.553681,229.828649
780.577283,74.020594,-9696.697840,76.609550
780.577607,-962.267725,-9918.759623,-306.438199
780.577931,-1702.473667,-9918.759623,-306.438199
780.578255,-1776.494261,-9992.780217,-229.828649
780.578580,-1850.514855,-10288.862594,0.000000
780.578904,-1554.432478,-10066.800811,306.438199
780.579228,-444.123565,-9548.656652,612.876398
780.579552,222.061783,-9474.636058,459.657299
780.579876,1036.288319,-9696.697840,459.657299
780.580200,666.185348,-9844.739029,306.438199
780.580524,0.000000,-9918.759623,229.828649
780.580848,-814.226536,-10140.821405,-919.314598
780.581172,-1554.432478,-10510.924376,-1378.971896
780.581496,-1850.514855,-10436.903782,-1991.848295
780.581821,-1702.473667,-10732.986159,-1378.971896
780.582145,-1036.288319,-10881.027347,-919.314598
780.582469,0.000000,-10436.903782,-459.657299
780.582793,1184.329507,-10066.800811,229.828649
780.583117,2294.638420,-9474.636058,995.924147
780.583441,3108.864956,-9992.780217,0.000000
780.583765,2812.782580,-9474.636058,995.924147
780.584089,2220.617826,-9548.656652,1149.143247
780.584413,592.164754,-9548.656652,383.047749
780.584737,-666.185348,-9474.636058,-306.438199
780.585062,-1628.453072,-9326.594869,-612.876398
780.585386,-2368.659014,-9104.533087,-995.924147
780.585710,-1554.432478,-8956.491898,-459.657299
780.586034,-370.102971,-8808.450710,-383.047749
780.586358,592.164754,-8586.388927,-229.828649
780.586682,1184.329507,-8882.471304,612.876398
780.587006,1776.494261,-8882.471304,766.095498
780.587330,1702.473667,-9104.533087,766.095498
780.587654,1110.308913,-9770.718434,689.485948
780.587978,0.000000,-9622.677246,766.095498
780.588303,-666.185348,-10214.842000,76.609550
780.588627,-1184.329507,-9918.759623,0.000000
780.588951,-1628.453072,-9770.718434,-536.266849
780.589275,-1480.411884,-9992.780217,-383.047749
780.589599,-666.185348,-9474.636058,-229.828649
780.589923,444.123565,-9252.574275,0.000000
780.590247,2072.576638,-9104.533087,0.000000
780.590571,1924.535449,-8956.491898,0.000000
780.590895,1258.350101,-8882.471304,-153.219100
780.591219,740.205942,-9474.636058,229.828649
780.591544,-740.205942,-9622.677246,-383.047749
780.591868,-1332.370696,-9992.780217,-536.266849
780.592192,-1702.473667,-10214.842000,-536.266849
780.592516,-1850.514855,-9992.780217,-306.438199
780.592840,-1480.411884,-9696.697840,-229.828649
780.593164,-740.205942,-10066.800811,383.047749
780.593488,0.000000,-10214.842000,383.047749
780.593812,592.164754,-9696.697840,766.095498
780.594136,666.185348,-9696.697840,689.485948
780.594460,444.123565,-9844.739029,229.828649
780.594785,-444.123565,-10066.800811,0.000000
780.595109,-1702.473667,-10362.883188,-153.219100
780.595433,-1554.432478,-10436.903782,-842.705048
780.595757,-2146.597232,-10140.821405,-1838.629195
780.596081,-1924.535449,-9992.780217,-1225.752797
780.596405,-1332.370696,-10288.862594,-995.924147
780.596729,148.041188,-10066.800811,-383.047749
780.597053,1406.391290,-9696.697840,0.000000
780.597377,2442.679609,-9400.615463,0.000000
780.597701,2664.741391,-9252.574275,0.000000
780.598025,2590.720797,-9918.759623,536.266849
780.598350,888.247130,-9622.677246,612.876398
780.598674,74.020594,-9770.718434,153.219100
780.598998,-666.185348,-9696.697840,-612.876398
780.599322,-1850.514855,-9548.656652,-689.485948
780.599646,-1924.535449,-9770.718434,-995.924147
780.599970,-1776.494261,-9474.636058,-306.438199
780.600294,-444.123565,-9252.574275,-612.876398
780.600618,888.247130,-9030.512492,76.609550
780.600942,1776.494261,-8882.471304,153.219100
780.601266,1998.556043,-9030.512492,459.657299
780.601591,1406.391290,-9474.636058,459.657299
780.601915,296.082377,-9918.759623,0.000000
780.602239,-518.144159,-10066.800811,-229.828649
780.602563,-1036.288319,-9770.718434,0.000000
780.602887,-1480.411884,-9548.656652,-536.266849
780.603211,-962.267725,-9770.718434,-612.876398
780.603535,-222.061783,-9696.697840,-459.657299
780.603859,518.144159,-9400.615463,-306.438199
780.604183,1628.453072,-9400.615463,-306.438199
780.604507,1850.514855,-9104.533087,0.000000
780.604832,2072.576638,-9104.533087,0.000000
780.605156,1406.391290,-9104.533087,0.000000
780.605480,444.123565,-9770.718434,0.000000
780.605804,-444.123565,-9918.759623,-1072.533697
780.606128,-1332.370696,-9844.739029,-766.095498
780.606452,-1702.473667,-9992.780217,-919.314598
780.606776,-1776.494261,-10066.800811,-995.924147
780.607100,-1480.411884,-10066.800811,0.000000
780.607424,-666.185348,-10214.842000,383.047749
780.607748,296.082377,-9992.780217,689.485948
780.608073,962.267725,-9548.656652,1685.410096
780.608397,1184.329507,-9474.636058,842.705048
780.608721,740.205942,-10214.842000,842.705048
780.609045,-666.185348,-9918.759623,0.000000
780.609369,-1776.494261,-9918.759623,-995.924147
780.609693,-2368.659014,-10214.842000,-1685.410096
780.610017,-2590.720797,-10436.903782,-1762.019645
780.610341,-2368.659014,-10510.924376,-1378.971896
780.610665,-1406.391290,-9696.697840,-689.485948
780.610989,444.123565,-9696.697840,612.876398
780.611314,1850.514855,-8956.491898,842.705048
780.611638,3552.988522,-9474.636058,1225.752797
780.611962,3552.988522,-9474.636058,1685.410096
780.612286,2738.761985,-9400.615463,1762.019645
780.612610,1480.411884,-9844.739029,1302.362347
780.612934,0.000000,-9770.718434,383.047749
780.613258,-888.247130,-9474.636058,306.438199
780.613582,-2220.617826,-9474.636058,0.000000
780.613906,-2590.720797,-9770.718434,-459.657299
780.614230,-2368.659014,-9770.718434,-612.876398
780.614555,-1554.432478,-9104.533087,-229.828649
780.614879,-222.061783,-9030.512492,0.000000
780.615203,592.164754,-8956.491898,689.485948
780.615527,1110.308913,-8956.491898,1149.143247
780.615851,888.247130,-9474.636058,1149.143247
780.616175,0.000000,-9696.697840,383.047749
780.616499,-740.205942,-9696.697840,689.485948
780.616823,-888.247130,-9844.739029,229.828649
780.617147,-1110.308913,-9770.718434,306.438199
780.617471,-592.164754,-9992.780217,383.047749
780.617796,-296.082377,-9548.656652,0.000000
780.618120,148.041188,-8956.491898,153.219100
780.618444,740.205942,-9178.553681,229.828649
780.618768,1332.370696,-8882.471304,0.000000
780.619092,1332.370696,-8882.471304,-153.219100
780.619416,666.185348,-9104.533087,-459.657299
780.619740,-444.123565,-9474.636058,-612.876398
780.620064,-1258.350101,-9696.697840,-612.876398
780.620388,-1776.494261,-9844.739029,-76.609550
780.620712,-1628.453072,-9844.739029,0.000000
780.621037,-888.247130,-10066.800811,153.219100
780.621361,-222.061783,-9696.697840,689.485948
780.621685,814.226536,-10288.862594,1072.533697
780.622009,1850.514855,-10436.903782,1378.971896
780.622333,1998.556043,-10140.821405,842.705048
780.622657,1110.308913,-9696.697840,306.438199
780.622981,148.041188,-9918.759623,0.000000
780.623305,-1628.453072,-10362.883188,-1072.533697
780.623629,-2294.638420,-10288.862594,-1455.581446
780.623953,-2516.700203,-10510.924376,-2145.067394
780.624277,-2146.597232,-10140.821405,-1838.629195
780.624602,-888.247130,-9992.780217,-1302.362347
780.624926,518.144159,-9622.677246,-842.705048
780.625250,2294.638420,-9104.533087,306.438199
780.625574,3034.844362,-8660.409521,689.485948
780.625898,4219.173869,-9474.636058,612.876398
780.626222,3775.050304,-9770.718434,1225.752797
780.626546,2220.617826,-9844.739029,766.095498
780.626870,666.185348,-10066.800811,383.047749
780.627194,-814.226536,-9992.780217,-536.266849
780.627518,-1850.514855,-9400.615463,-1149.143247
780.627843,-2664.741391,-9474.636058,-1378.971896
780.628167,-2516.700203,-9178.553681,-1685.410096
780.628491,-2220.617826,-8882.471304,-1072.533697
780.628815,-740.205942,-8660.409521,-383.047749
780.629139,444.123565,-8586.388927,76.609550
780.629463,1110.308913,-8808.450710,229.828649
780.629787,1110.308913,-9252.574275,306.438199
780.630111,1036.288319,-9770.718434,842.705048
780.630435,0.000000,-9992.780217,689.485948
780.630759,-148.041188,-10066.800811,612.876398
780.631084,-962.267725,-10214.842000,383.047749
780.631408,-1332.370696,-10140.821405,-459.657299
780.631732,-1480.411884,-9918.759623,-383.047749
780.632056,-888.247130,-9548.656652,-612.876398
780.632380,74.020594,-9030.512492,-459.657299
780.632704,814.226536,-9104.533087,383.047749
780.633028,1776.494261,-8068.244768,153.219100
780.633352,1850.514855,-8882.471304,-459.657299
780.633676,592.164754,-9474.636058,-536.266849
780.634000,-222.061783,-9770.718434,-459.657299
780.634325,-962.267725,-10140.821405,-306.438199
780.634649,-1332.370696,-10362.883188,-153.219100
780.634973,-1258.350101,-10510.924376,153.219100
780.635297,-962.267725,-10436.903782,459.657299
780.635621,-370.102971,-10436.903782,1072.533697
780.635945,666.185348,-10807.006753,1225.752797
780.636269,1184.329507,-10436.903782,1072.533697
780.636593,666.185348,-10066.800811,766.095498
780.636918,-222.061783,-9844.739029,0.000000
780.637242,-1554.432478,-10140.821405,-766.095498
780.637566,-2516.700203,-10436.903782,-1532.190996
780.637890,-2886.803174,-10362.883188,-1532.190996
780.638214,-1850.514855,-10214.842000,-995.924147
780.638538,-1110.308913,-9992.780217,-919.314598
780.638863,0.000000,-9696.697840,-229.828649
780.639187,1406.391290,-9696.697840,459.657299
780.639511,2590.720797,-9474.636058,995.924147
780.639835,3923.091493,-9400.615463,1532.190996
780.640159,4293.194464,-8734.430116,1915.238745
780.640484,2812.782580,-8660.409521,1608.800546
780.640808,1776.494261,-9252.574275,1149.143247
780.641132,0.000000,-9326.594869,153.219100
780.641456,-1480.411884,-9030.512492,-306.438199
780.641780,-2516.700203,-8734.430116,-1072.533697
780.642104,-2664.741391,-8734.430116,-919.314598
780.642429,-1924.535449,-8660.409521,-459.657299
780.642753,-1258.350101,-8586.388927,0.000000
780.643077,518.144159,-8808.450710,459.657299
780.643401,1702.473667,-9030.512492,995.924147
780.643725,2442.679609,-9326.594869,1455.581446
780.644050,2220.617826,-9770.718434,1608.800546
780.644374,1258.350101,-10510.924376,1532.190996
780.644698,-148.041188,-10510.924376,536.266849
780.645022,-1628.453072,-10362.883188,0.000000
780.645346,-2220.617826,-10436.903782,-459.657299
780.645670,-2368.659014,-10066.800811,-766.095498
780.645995,-1850.514855,-9844.739029,-612.876398
780.646319,-296.082377,-9104.533087,-229.828649
780.646643,518.144159,-8882.471304,-689.485948
780.646967,1332.370696,-8734.430116,-306.438199
780.647291,1702.473667,-8808.450710,0.000000
780.647615,962.267725,-8956.491898,0.000000
780.647940,74.020594,-9918.759623,0.000000
780.648264,-296.082377,-10510.924376,-229.828649
780.648588,-1036.288319,-10436.903782,306.438199
780.648912,-1480.411884,-11029.068536,-306.438199
780.649236,-1702.473667,-10807.006753,-383.047749
780.649561,-1406.391290,-10658.965565,153.219100
780.649885,-592.164754,-10658.965565,153.219100
780.650209,0.000000,-10140.821405,153.219100
780.650533,444.123565,-10066.800811,229.828649
780.650857,-148.041188,-9918.759623,0.000000
780.651181,-740.205942,-9918.759623,-766.095498
780.651506,-1702.473667,-9992.780217,-1302.362347
780.651830,-1998.556043,-10140.821405,-1302.362347
780.652154,-2368.659014,-10066.800811,-1838.629195
780.652478,-1776.494261,-10436.903782,-1302.362347
780.652802,-1036.288319,-10436.903782,-919.314598
780.653127,74.020594,-10362.883188,0.000000
780.653451,1850.514855,-10066.800811,76.609550
780.653775,2960.823768,-9548.656652,919.314598
780.654099,3923.091493,-9178.553681,766.095498
780.654423,3923.091493,-9030.512492,1378.971896
780.654747,2516.700203,-9252.574275,766.095498
780.655072,740.205942,-9400.615463,306.438199
780.655396,-592.164754,-9030.512492,-229.828649
780.655720,-1998.556043,-8660.409521,-1225.752797
780.656044,-2516.700203,-8512.368333,-1378.971896
780.656368,-2146.597232,-8586.388927,-1149.143247
780.656692,-1036.288319,-8956.491898,-995.924147
780.657017,296.082377,-9178.553681,229.828649
780.657341,888.247130,-8808.450710,842.705048
780.657665,2072.576638,-9030.512492,919.314598
780.657989,2146.597232,-9474.636058,1378.971896
780.658313,1628.453072,-10066.800811,1302.362347
780.658638,296.082377,-10214.842000,919.314598
780.658962,-740.205942,-10066.800811,383.047749
780.659286,-1480.411884,-9770.718434,0.000000
780.659610,-1702.473667,-10066.800811,-459.657299
780.659934,-1480.411884,-9918.759623,-612.876398
780.660258,-1110.308913,-9622.677246,-689.485948
780.660583,0.000000,-8882.471304,76.609550
780.660907,1332.370696,-8808.450710,459.657299
780.661231,1998.556043,-8660.409521,153.219100
780.661555,1628.453072,-8956.491898,153.219100
780.661879,518.144159,-9844.739029,0.000000
780.662203,-222.061783,-10140.821405,-229.828649
780.662528,-814.226536,-10436.903782,-536.266849
780.662852,-1332.370696,-10288.862594,-536.266849
780.663176,-1702.473667,-10436.903782,0.000000
780.663500,-1998.556043,-10140.821405,-229.828649
780.663824,-1110.308913,-10140.821405,306.438199
780.664149,-518.144159,-9696.697840,229.828649
780.664473,666.185348,-9918.759623,536.266849
780.664797,962.267725,-9844.739029,306.438199
780.665121,740.205942,-9918.759623,153.219100
780.665445,-444.123565,-10288.862594,-612.876398
780.665769,-1332.370696,-10214.842000,-536.266849
780.666094,-1258.350101,-10732.986159,-459.657299
780.666418,-1480.411884,-10732.986159,-995.924147
780.666742,-1258.350101,-10510.924376,-995.924147
780.667066,-370.102971,-10214.842000,-459.657299
780.667390,518.144159,-9844.739029,-306.438199
780.667715,1628.453072,-9622.677246,0.000000
780.668039,2664.741391,-9030.512492,229.828649
780.668363,2812.782580,-8956.491898,229.828649
780.668687,2442.679609,-8956.491898,766.095498
780.669011,1628.453072,-9326.594869,612.876398
780.669335,148.041188,-9400.615463,-306.438199
780.669660,-740.205942,-9474.636058,-459.657299
780.669984,-1332.370696,-9548.656652,-689.485948
780.670308,-1480.411884,-9104.533087,-612.876398
780.670632,-1110.308913,-9178.553681,-459.657299
780.670956,-296.082377,-9178.553681,689.485948
780.671280,370.102971,-8660.409521,919.314598
780.671605,1850.514855,-8808.450710,842.705048
780.671929,2072.576638,-9178.553681,766.095498
780.672253,1332.370696,-9326.594869,766.095498
780.672577,296.082377,-9622.677246,536.266849
780.672901,-666.185348,-9622.677246,-383.047749
780.673226,-1628.453072,-9696.697840,-229.828649
780.673550,-2146.597232,-9474.636058,-689.485948
780.673874,-2294.638420,-9474.636058,-766.095498
780.674198,-1554.432478,-9548.656652,-766.095498
780.674522,0.000000,-9104.533087,-306.438199
780.674846,1406.391290,-8956.491898,0.000000
780.675171,2368.659014,-8808.450710,229.828649
780.675495,2590.720797,-9104.533087,612.876398
780.675819,1850.514855,-9400.615463,919.314598
780.676143,444.123565,-10066.800811,0.000000
780.676467,-1258.350101,-10140.821405,-766.095498
780.676792,-1776.494261,-10658.965565,-689.485948
780.677116,-2072.576638,-10658.965565,-919.314598
780.677440,-2072.576638,-10510.924376,-383.047749
780.677764,-1480.411884,-10362.883188,459.657299
780.678088,-814.226536,-10066.800811,76.609550
780.678412,592.164754,-9992.780217,612.876398
780.678737,1110.308913,-9622.677246,919.314598
780.679061,1110.308913,-9844.739029,842.705048
780.679385,222.061783,-10362.883188,229.828649
780.679709,-962.267725,-10584.944971,-459.657299
780.680033,-1702.473667,-10362.883188,-383.047749
780.680357,-2072.576638,-10510.924376,-1072.533697
780.680682,-1776.494261,-10288.862594,-1378.971896
780.681006,-1406.391290,-10362.883188,-1378.971896
780.681330,-592.164754,-9992.780217,-689.485948
780.681654,962.267725,-9548.656652,76.609550
780.681978,2516.700203,-9474.636058,612.876398
780.682303,3182.885551,-8956.491898,919.314598
780.682627,3701.029710,-8586.388927,1608.800546
780.682951,2960.823768,-8956.491898,919.314598
780.683275,1776.494261,-9326.594869,689.485948
780.683599,296.082377,-9400.615463,-153.219100
780.683923,-814.226536,-9326.594869,-995.924147
780.684248,-2146.597232,-9104.533087,-995.924147
780.684572,-2146.597232,-9326.594869,-1072.533697
780.684896,-2072.576638,-9326.594869,-766.095498
780.685220,-1184.329507,-9400.615463,-459.657299
780.685544,0.000000,-8882.471304,306.438199
780.685869,1036.288319,-8956.491898,1072.533697
780.686193,1258.350101,-9104.533087,919.314598
780.686517,888.247130,-9178.553681,1149.143247
780.686841,370.102971,-9992.780217,1378.971896
780.687165,-666.185348,-10140.821405,229.828649
780.687489,-1554.432478,-9992.780217,0.000000
780.687814,-1924.535449,-9844.739029,-459.657299
780.688138,-1776.494261,-9622.677246,-612.876398
780.688462,-888.247130,-9992.780217,-459.657299
780.688786,222.061783,-9030.512492,-153.219100
780.689110,1258.350101,-8734.430116,153.219100
780.689434,1480.411884,-8216.285956,-459.657299
780.689759,1998.556043,-8808.450710,76.609550
780.690083,1258.350101,-9326.594869,0.000000
780.690407,222.061783,-9770.718434,0.000000
780.690731,-592.164754,-10140.821405,229.828649
780.691055,-1332.370696,-10140.821405,0.000000
780.691380,-1554.432478,-10510.924376,153.219100
780.691704,-1406.391290,-10362.883188,689.485948
780.692028,-1184.329507,-10436.903782,459.657299
780.692352,-296.082377,-10362.883188,689.485948
780.692676,740.205942,-10140.821405,1149.143247
780.693000,1628.453072,-9918.759623,1149.143247
780.693325,962.267725,-9770.718434,689.485948
780.693649,0.000000,-10362.883188,459.657299
780.693973,-1776.494261,-10140.821405,-919.314598
780.694297,-2442.679609,-10288.862594,-1608.800546
780.694621,-2886.803174,-10140.821405,-2145.067394
780.694946,-2368.659014,-10362.883188,-1762.019645
780.695270,-1258.350101,-10140.821405,-1072.533697
780.695594,222.061783,-9622.677246,-459.657299
780.695918,1776.494261,-9030.512492,383.047749
780.696242,3330.926739,-8882.471304,1072.533697
780.696566,4219.173869,-9104.533087,1608.800546
780.696891,3923.091493,-9400.615463,1455.581446
780.697215,2516.700203,-9474.636058,995.924147
780.697539,962.267725,-9548.656652,306.438199
780.697863,-370.102971,-9844.739029,-306.438199
780.698187,-1406.391290,-9252.574275,-1072.533697
780.698511,-2220.617826,-9104.533087,-1302.362347
780.698836,-2442.679609,-9400.615463,-1838.629195
780.699160,-1332.370696,-9326.594869,-1302.362347
780.699484,-518.144159,-8882.471304,-459.657299
780.699808,222.061783,-8734.430116,-153.219100
780.700132,1258.350101,-8882.471304,612.876398
780.700457,1924.535449,-9400.615463,1072.533697
780.700781,1776.494261,-10436.903782,1149.143247
780.701105,592.164754,-10510.924376,1149.143247
780.701429,-444.123565,-10066.800811,306.438199
780.701753,-1184.329507,-10066.800811,0.000000
780.702077,-1702.473667,-10288.862594,-689.485948
780.702402,-1776.494261,-10288.862594,-1225.752797
780.702726,-740.205942,-9622.677246,-842.705048
780.703050,666.185348,-9252.574275,-919.314598
780.703374,1924.535449,-8734.430116,-689.485948
780.703698,2072.576638,-8290.306550,-459.657299
780.704023,2294.638420,-8956.491898,-612.876398
780.704347,1110.308913,-9326.594869,-76.609550
780.704671,296.082377,-10140.821405,-306.438199
780.704995,-592.164754,-10140.821405,-306.438199
780.705319,-740.205942,-9992.780217,153.219100
780.705643,-518.144159,-10436.903782,229.828649
780.705968,-740.205942,-10584.944971,689.485948
780.706292,-962.267725,-9992.780217,689.485948
780.706616,-222.061783,-10510.924376,689.485948
780.706940,444.123565,-10066.800811,689.485948
780.707264,518.144159,-10066.800811,459.657299
780.707588,-370.102971,-9918.759623,0.000000
780.707913,-1702.473667,-9918.759623,-919.314598
780.708237,-2664.741391,-10436.903782,-1378.971896
780.708561,-3478.967927,-10140.821405,-1532.190996
780.708885,-2738.761985,-9844.739029,-1455.581446
780.709209,-1924.535449,-10140.821405,-842.705048
780.709534,-518.144159,-9918.759623,-306.438199
780.709858,1036.288319,-9622.677246,383.047749
780.710182,2590.720797,-9252.574275,1838.629195
780.710506,3478.967927,-8808.450710,1455.581446
780.710830,4293.194464,-9474.636058,2451.505594
780.711154,3404.947333,-9474.636058,1455.581446
780.711479,1776.494261,-9326.594869,689.485948
780.711803,-296.082377,-9326.594869,0.000000
780.712127,-1850.514855,-9030.512492,-842.705048
780.712451,-2664.741391,-9696.697840,-1225.752797
780.712775,-2664.741391,-9178.553681,-1455.581446
780.713099,-2220.617826,-8956.491898,-1225.752797
780.713424,-1036.288319,-8512.368333,-306.438199
780.713748,518.144159,-8808.450710,229.828649
780.714072,2146.597232,-8956.491898,1225.752797
780.714396,2812.782580,-9400.615463,1455.581446
780.714720,2368.659014,-9548.656652,1608.800546
780.715045,1628.453072,-10066.800811,1532.190996
780.715369,518.144159,-9844.739029,919.314598
780.715693,-888.247130,-10214.842000,153.219100
780.716017,-1998.556043,-9844.739029,-229.828649
780.716341,-2516.700203,-10436.903782,-1302.362347
780.716665,-2368.659014,-9844.739029,-1532.190996
780.716990,-1406.391290,-9622.677246,-1302.362347
780.717314,0.000000,-8956.491898,-995.924147
780.717638,1702.473667,-9326.594869,-1072.533697
780.717962,2368.659014,-9104.533087,612.876398
780.718286,1776.494261,-9178.553681,-229.828649
780.718611,1480.411884,-9696.697840,0.000000
780.718935,814.226536,-10214.842000,153.219100
780.719259,74.020594,-10436.903782,383.047749
780.719583,-370.102971,-10658.965565,459.657299
780.719907,-1036.288319,-11029.068536,153.219100
780.720231,-1554.432478,-10881.027347,76.609550
780.720556,-1628.453072,-10510.924376,0.000000
780.720880,-518.144159,-10288.862594,229.828649
780.721204,-370.102971,-9696.697840,0.000000
780.721528,-444.123565,-9918.759623,0.000000
780.721852,-740.205942,-9844.739029,-842.705048
780.722176,-1776.494261,-10066.800811,-459.657299
780.722501,-2220.617826,-9992.780217,-919.314598
780.722825,-2368.659014,-10140.821405,-1072.533697
780.723149,-2294.638420,-10288.862594,-689.485948
780.723473,-1332.370696,-10362.883188,-536.266849
780.723797,0.000000,-9992.780217,536.266849
780.724122,1776.494261,-9844.739029,1378.971896
780.724446,2960.823768,-9474.636058,1149.143247
780.724770,3256.906145,-9252.574275,1302.362347
780.725094,3108.864956,-9030.512492,1225.752797
780.725418,1924.535449,-9030.512492,919.314598
780.725742,666.185348,-9326.594869,0.000000
780.726067,-518.144159,-9474.636058,-689.485948
780.726391,-2146.597232,-8512.368333,0.000000
780.726715,-2442.679609,-8586.388927,-1072.533697
780.727039,-2368.659014,-8808.450710,-919.314598
780.727363,-1702.473667,-8956.491898,-229.828649
780.727688,-518.144159,-8734.430116,306.438199
780.728012,962.267725,-8808.450710,1378.971896
780.728336,2294.638420,-8660.409521,1302.362347
780.728660,2886.803174,-8956.491898,1685.410096
780.728984,2368.659014,-9770.718434,1608.800546
780.729308,888.247130,-10214.842000,919.314598
780.729633,-592.164754,-10214.842000,0.000000
780.729957,-1480.411884,-10140.821405,-383.047749
780.730281,-2072.576638,-10140.821405,-1149.143247
780.730605,-1924.535449,-10140.821405,-1149.143247
780.730929,-1110.308913,-9474.636058,-919.314598
780.731253,0.000000,-9104.533087,-1072.533697
780.731578,1258.350101,-8438.347739,-306.438199
780.731902,2368.659014,-8882.471304,0.000000
780.732226,2812.782580,-9400.615463,306.438199
780.732550,2220.617826,-9622.677246,229.828649
780.732874,888.247130,-10066.800811,229.828649
780.733199,0.000000,-10288.862594,-306.438199
780.733523,-1184.329507,-10584.944971,-536.266849
780.733847,-1850.514855,-10881.027347,-612.876398
780.734171,-1998.556043,-10807.006753,-536.266849
780.734495,-1628.453072,-10807.006753,-229.828649
780.734819,-1036.288319,-10140.821405,-229.828649
780.735144,0.000000,-9992.780217,-383.047749
780.735468,148.041188,-9474.636058,-229.828649
780.735792,0.000000,-9548.656652,0.000000
780.736116,-296.082377,-10214.842000,-766.095498
780.736440,-1184.329507,-10732.986159,-842.705048
780.736764,-1924.535449,-10510.924376,-1149.143247
780.737089,-2072.576638,-10436.903782,-1149.143247
780.737413,-1850.514855,-10584.944971,-1072.533697
780.737737,-740.205942,-10436.903782,-383.047749
780.738061,518.144159,-9918.759623,0.000000
780.738385,2220.617826,-9622.677246,306.438199
780.738709,2960.823768,-8956.491898,1149.143247
780.739033,3330.926739,-8956.491898,842.705048
780.739357,2886.803174,-8734.430116,306.438199
780.739681,1702.473667,-8956.491898,153.219100
780.740006,222.061783,-9030.512492,0.000000
780.740330,-962.267725,-9030.512492,-306.438199
780.740654,-1776.494261,-8734.430116,-1302.362347
780.740978,-1850.514855,-9474.636058,-766.095498
780.741302,-1554.432478,-8734.430116,-689.485948
780.741626,-888.247130,-9030.512492,0.000000
780.741950,0.000000,-9104.533087,459.657299
780.742274,962.267725,-9252.574275,919.314598
780.742598,1628.453072,-9030.512492,1532.190996
780.742922,1998.556043,-9252.574275,1225.752797
780.743247,1184.329507,-9992.780217,1838.629195
780.743571,-296.082377,-10140.821405,689.485948
780.743895,-1628.453072,-9844.739029,-153.219100
780.744219,-1924.535449,-9918.759623,-612.876398
780.744543,-1924.535449,-9844.739029,-995.924147
780.744867,-1406.391290,-9918.759623,-842.705048
780.745191,-444.123565,-9400.615463,-612.876398
780.745515,740.205942,-8882.471304,-459.657299
780.745839,1776.494261,-8438.347739,-536.266849
780.746164,2368.659014,-8438.347739,-306.438199
780.746488,2220.617826,-9178.553681,0.000000
780.746812,1406.391290,-9474.636058,0.000000
780.747136,148.041188,-9992.780217,-306.438199
780.747460,-740.205942,-10214.842000,-153.219100
780.747784,-1702.473667,-9918.759623,-612.876398
780.748108,-1702.473667,-10807.006753,-459.657299
780.748432,-1554.432478,-10658.965565,76.609550
780.748756,-666.185348,-10510.924376,0.000000
780.749080,-296.082377,-10510.924376,383.047749
780.749405,370.102971,-10214.842000,459.657299
780.749729,740.205942,-10066.800811,229.828649
780.750053,148.041188,-10066.800811,-536.266849
780.750377,-592.164754,-10214.842000,-612.876398
780.750701,-1480.411884,-10658.965565,-995.924147
780.751025,-1628.453072,-10436.903782,-1455.581446
780.751349,-1554.432478,-10362.883188,-1149.143247
780.751673,-1184.329507,-10288.862594,-919.314598
780.751997,-296.082377,-10362.883188,-995.924147
780.752322,666.185348,-9696.697840,-153.219100
780.752646,2220.617826,-8956.491898,766.095498
780.752970,3108.864956,-8660.409521,459.657299
780.753294,3182.885551,-8734.430116,919.314598
780.753618,2590.720797,-8808.450710,766.095498
780.753942,1776.494261,-9178.553681,383.047749
780.754266,74.020594,-8734.430116,0.000000
780.754590,-1258.350101,-8808.450710,-459.657299
780.754914,-1702.473667,-9252.574275,-1225.752797
780.755239,-1924.535449,-9104.533087,-1455.581446
780.755563,-1554.432478,-9326.594869,-995.924147
780.755887,-1332.370696,-8586.388927,-383.047749
780.756211,-222.061783,-9030.512492,153.219100
780.756535,592.164754,-9400.615463,612.876398
780.756859,1406.391290,-9548.656652,919.314598
780.757183,888.247130,-9918.759623,1302.362347
780.757507,0.000000,-10066.800811,766.095498
780.757831,-962.267725,-9918.759623,536.266849
780.758155,-1850.514855,-9622.677246,-306.438199
780.758480,-2368.659014,-9622.677246,-766.095498
780.758804,-1998.556043,-9844.739029,-995.924147
780.759128,-1332.370696,-9844.739029,-536.266849
780.759452,-222.061783,-9104.533087,-459.657299
780.759776,1258.350101,-8956.491898,0.000000
780.760100,1924.535449,-8734.430116,0.000000
780.760424,2368.659014,-9178.553681,0.000000
780.760748,1554.432478,-9178.553681,0.000000
780.761072,814.226536,-9918.759623,0.000000
780.761397,0.000000,-10140.821405,0.000000
780.761721,-814.226536,-10288.862594,-229.828649
780.762045,-1332.370696,-10288.862594,383.047749
780.762369,-1480.411884,-10362.883188,-383.047749
780.762693,-1184.329507,-10510.924376,0.000000
780.763017,-666.185348,-10066.800811,76.609550
780.763341,0.000000,-9992.780217,612.876398
780.763665,740.205942,-10066.800811,383.047749
780.763989,370.102971,-9992.780217,0.000000
780.764313,-296.082377,-10288.862594,-229.828649
780.764638,-1406.391290,-10436.903782,-689.485948
780.764962,-2072.576638,-10436.903782,-1149.143247
780.765286,-2220.617826,-10658.965565,-1072.533697
780.765610,-2220.617826,-10362.883188,-1302.362347
780.765934,-1110.308913,-10658.965565,-766.095498
780.766258,74.020594,-10362.883188,-153.219100
780.766582,1406.391290,-9770.718434,536.266849
780.766906,2442.679609,-9030.512492,1149.143247
780.767230,4071.132681,-9030.512492,1915.238745
780.767555,4145.153275,-9474.636058,1608.800546
780.767879,2368.659014,-9178.553681,1149.143247
780.768203,1110.308913,-9030.512492,459.657299
780.768527,0.000000,-9178.553681,0.000000
780.768851,-1628.453072,-9030.512492,-612.876398
780.769175,-2442.679609,-9030.512492,-1072.533697
780.769499,-2368.659014,-9030.512492,-919.314598
780.769823,-1184.329507,-8808.450710,-383.047749
780.770147,-518.144159,-8512.368333,459.657299
780.770472,592.164754,-8586.388927,1072.533697
780.770796,1480.411884,-8660.409521,766.095498
780.771120,1998.556043,-8882.471304,1302.362347
780.771444,1332.370696,-9474.636058,1378.971896
780.771768,74.020594,-9918.759623,1149.143247
780.772092,-888.247130,-9844.739029,306.438199
780.772416,-1258.350101,-9844.739029,0.000000
780.772740,-1702.473667,-9844.739029,-459.657299
780.773064,-1628.453072,-9992.780217,-689.485948
780.773388,-1480.411884,-9918.759623,-1072.533697
780.773713,0.000000,-9326.594869,-766.095498
780.774037,962.267725,-8734.430116,-766.095498
780.774361,1776.494261,-8808.450710,0.000000
780.774685,2072.576638,-9326.594869,0.000000
780.775009,1776.494261,-9844.739029,76.609550
780.775333,962.267725,-9844.739029,0.000000
780.775657,148.041188,-9770.718434,0.000000
780.775981,-444.123565,-10140.821405,-306.438199
780.776305,-666.185348,-10288.862594,229.828649
780.776630,-1258.350101,-10510.924376,0.000000
780.776954,-1110.308913,-10658.965565,-306.438199
780.777278,-740.205942,-10436.903782,0.000000
780.777602,-222.061783,-10066.800811,-153.219100
780.777926,0.000000,-9622.677246,-459.657299
780.778250,296.082377,-9770.718434,-766.095498
780.778574,-1184.329507,-10288.862594,-1149.143247
780.778898,-1850.514855,-10362.883188,-1149.143247
780.779222,-1850.514855,-10584.944971,-1608.800546
780.779546,-1406.391290,-10584.944971,-1455.581446
780.779871,-1184.329507,-10584.944971,-1072.533697
780.780195,-518.144159,-10658.965565,-842.705048
780.780519,370.102971,-10436.903782,76.609550
780.780843,1850.514855,-9770.718434,766.095498
780.781167,3330.926739,-9696.697840,459.657299
780.781491,3923.091493,-9400.615463,612.876398
780.781815,2886.803174,-9622.677246,459.657299
780.782139,1554.432478,-9548.656652,0.000000
780.782463,-148.041188,-9178.553681,-1072.533697
780.782788,-1554.432478,-8956.491898,-1838.629195
780.783112,-2442.679609,-8882.471304,-1838.629195
780.783436,-2812.782580,-8734.430116,-1991.848295
780.783760,-1924.535449,-8808.450710,-995.924147
780.784084,-962.267725,-8734.430116,-306.438199
780.784408,444.123565,-9178.553681,536.266849
780.784732,1924.535449,-9104.533087,1149.143247
780.785056,2738.761985,-9400.615463,1838.629195
780.785380,2886.803174,-10066.800811,2145.067394
780.785705,1554.432478,-10066.800811,2068.457845
780.786029,0.000000,-9844.739029,1072.533697
780.786353,-1406.391290,-9696.697840,0.000000
780.786677,-2072.576638,-9474.636058,-919.314598
780.787001,-2220.617826,-9622.677246,-1302.362347
780.787325,-1850.514855,-9918.759623,-1532.190996
780.787649,-666.185348,-9474.636058,-1378.971896
780.787973,370.102971,-8438.347739,-766.095498
780.788297,1036.288319,-8068.244768,-153.219100
780.788621,1924.535449,-8660.409521,153.219100
780.788946,1924.535449,-9548.656652,766.095498
780.789270,1554.432478,-10214.842000,995.924147
780.789594,666.185348,-10288.862594,995.924147
780.789918,0.000000,-10584.944971,995.924147
780.790242,-962.267725,-10140.821405,919.314598
780.790566,-1184.329507,-10510.924376,229.828649
780.790890,-1702.473667,-10066.800811,612.876398
780.791214,-1258.350101,-10066.800811,229.828649
780.791538,-740.205942,-9696.697840,0.000000
780.791863,0.000000,-9696.697840,-229.828649
780.792187,0.000000,-9696.697840,76.609550
780.792511,-444.123565,-9918.759623,-153.219100
780.792835,-1480.411884,-10288.862594,-306.438199
780.793159,-2072.576638,-9992.780217,-383.047749
780.793483,-2072.576638,-10510.924376,-153.219100
780.793807,-1924.535449,-10584.944971,0.000000
780.794131,-740.205942,-10510.924376,153.219100
780.794455,148.041188,-10066.800811,612.876398
780.794779,1332.370696,-9548.656652,766.095498
780.795104,2368.659014,-9400.615463,919.314598
780.795428,3256.906145,-9178.553681,1072.533697
780.795752,3034.844362,-8808.450710,995.924147
780.796076,1850.514855,-8882.471304,383.047749
780.796400,0.000000,-9252.574275,-306.438199
780.796724,-1554.432478,-9326.594869,-1149.143247
780.797048,-2368.659014,-9474.636058,-1225.752797
780.797372,-2220.617826,-9030.512492,-1149.143247
780.797696,-2072.576638,-9326.594869,-995.924147
780.798021,-1332.370696,-9104.533087,-612.876398
780.798345,444.123565,-9104.533087,536.266849
780.798669,1702.473667,-9030.512492,1302.362347
780.798993,2368.659014,-9474.636058,1302.362347
780.799317,2294.638420,-9474.636058,1608.800546
780.799641,1628.453072,-9474.636058,1608.800546
780.799965,222.061783,-9622.677246,612.876398
780.800289,-814.226536,-9474.636058,229.828649
780.800613,-2146.597232,-9548.656652,-842.705048
780.800938,-2960.823768,-9696.697840,-1991.848295
780.801262,-2738.761985,-9992.780217,-1991.848295
780.801586,-2146.597232,-9474.636058,-1762.019645
780.801910,-592.164754,-9104.533087,-1225.752797
780.802234,1332.370696,-8882.471304,0.000000
780.802558,2664.741391,-9178.553681,-919.314598
780.802882,3701.029710,-9252.574275,536.266849
780.803206,2960.823768,-9474.636058,1072.533697
780.803530,2220.617826,-10436.903782,612.876398
780.803854,1110.308913,-10510.924376,76.609550
780.804179,-370.102971,-10288.862594,0.000000
780.804503,-1480.411884,-10436.903782,-612.876398
780.804827,-2220.617826,-10436.903782,-536.266849
780.805151,-2146.597232,-10288.862594,-612.876398
780.805475,-740.205942,-10140.821405,-306.438199
780.805799,0.000000,-9696.697840,-766.095498
780.806123,444.123565,-9400.615463,0.000000
780.806447,296.082377,-9548.656652,-153.219100
780.806771,-222.061783,-10066.800811,-459.657299
780.807096,-888.247130,-10436.903782,-153.219100
780.807420,-1628.453072,-10214.842000,229.828649
780.807744,-1184.329507,-10584.944971,306.438199
780.808068,-814.226536,-10214.842000,153.219100
780.808392,0.000000,-10510.924376,0.000000
780.808716,296.082377,-10288.862594,229.828649
780.809040,1332.370696,-9622.677246,459.657299
780.809364,1554.432478,-8956.491898,766.095498
780.809688,2368.659014,-8660.409521,766.095498
780.810013,2220.617826,-8660.409521,459.657299
780.810337,888.247130,-8734.430116,-306.438199
780.810661,-148.041188,-8882.471304,-536.266849
780.810985,-1184.329507,-9178.553681,-842.705048
780.811309,-1702.473667,-8956.491898,-995.924147
780.811633,-1924.535449,-9030.512492,-919.314598
780.811957,-1480.411884,-9474.636058,-459.657299
780.812281,-814.226536,-9252.574275,229.828649
780.812605,444.123565,-9326.594869,536.266849
780.812929,1258.350101,-9548.656652,1225.752797
780.813254,1776.494261,-9622.677246,1455.581446
780.813578,1554.432478,-9770.718434,1149.143247
780.813902,296.082377,-10066.800811,689.485948
780.814226,-888.247130,-9696.697840,0.000000
780.814550,-1924.535449,-9844.739029,-459.657299
780.814874,-2368.659014,-9474.636058,-1072.533697
780.815198,-2442.679609,-8956.491898,-1378.971896
780.815522,-1924.535449,-9548.656652,-1762.019645
780.815846,-666.185348,-9622.677246,-919.314598
780.816171,814.226536,-9252.574275,-383.047749
780.816495,2220.617826,-8956.491898,0.000000
780.816819,2960.823768,-8882.471304,0.000000
780.817143,2516.700203,-9474.636058,842.705048
780.817467,2294.638420,-9770.718434,1225.752797
780.817791,518.144159,-10214.842000,229.828649
780.818115,-444.123565,-10140.821405,0.000000
780.818439,-1406.391290,-10362.883188,0.000000
780.818763,-1702.473667,-10288.862594,-383.047749
780.819087,-1480.411884,-9770.718434,-536.266849
