#time,accel_x,accel_y,accel_z
653.362496,592.164754,-9474.636058,229.828649
653.362820,148.041188,-9178.553681,76.609550
653.363144,518.144159,-9548.656652,0.000000
653.363468,148.041188,-9696.697840,-153.219100
653.363793,148.041188,-9770.718434,-229.828649
653.364117,0.000000,-9770.718434,-229.828649
653.364441,-296.082377,-9474.636058,0.000000
653.364765,-222.061783,-9696.697840,229.828649
653.365089,-740.205942,-9400.615463,-306.438199
653.365414,-222.061783,-9474.636058,-766.095498
653.365738,444.123565,-9844.739029,-612.876398
653.366062,0.000000,-9252.574275,0.000000
653.366386,222.061783,-9622.677246,0.000000
653.366710,74.020594,-9696.697840,0.000000
653.367035,0.000000,-9770.718434,0.000000
653.367359,0.000000,-9474.636058,0.000000
653.367683,-296.082377,-9622.677246,0.000000
653.368007,-148.041188,-9548.656652,-153.219100
653.368331,-222.061783,-9622.677246,-459.657299
653.368656,-370.102971,-9770.718434,76.609550
653.368980,-370.102971,-9844.739029,0.000000
653.369304,-222.061783,-9474.636058,76.609550
653.369628,0.000000,-9622.677246,153.219100
653.369952,0.000000,-9252.574275,-76.609550
653.370277,370.102971,-9548.656652,0.000000
653.370601,222.061783,-9696.697840,76.609550
653.370925,740.205942,-10066.800811,153.219100
653.371249,74.020594,-10288.862594,0.000000
653.371573,-814.226536,-10436.903782,-153.219100
653.371898,-1628.453072,-9844.739029,0.000000
653.372222,-1554.432478,-9622.677246,76.609550
653.372546,-592.164754,-9474.636058,0.000000
653.372870,592.164754,-9770.718434,995.924147
653.373194,1998.556043,-9474.636058,842.705048
653.373519,1924.535449,-9178.553681,842.705048
653.373843,1480.411884,-9326.594869,383.047749
653.374167,740.205942,-9474.636058,0.000000
653.374491,148.041188,-9474.636058,-383.047749
653.374815,-222.061783,-9622.677246,-536.266849
653.375140,-962.267725,-9918.759623,-612.876398
653.375464,-740.205942,-9844.739029,153.219100
653.375788,-222.061783,-9992.780217,306.438199
653.376112,1036.288319,-9992.780217,612.876398
653.376436,2294.638420,-9918.759623,1302.362347
653.376761,2738.761985,-9548.656652,1608.800546
653.377085,3330.926739,-9326.594869,1838.629195
653.377409,2812.782580,-9548.656652,1378.971896
653.377733,2368.659014,-9104.533087,1225.752797
653.378058,1924.535449,-9030.512492,612.876398
653.378382,740.205942,-9548.656652,0.000000
653.378706,0.000000,-9770.718434,-536.266849
653.379030,-518.144159,-9696.697840,-689.485948
653.379354,-148.041188,-9326.594869,0.000000
653.379679,1184.329507,-9844.739029,1072.533697
653.380003,3256.906145,-9400.615463,2145.067394
653.380327,4737.318029,-9992.780217,2604.724693
653.380651,5181.441594,-9844.739029,2911.162892
653.380975,5181.441594,-10066.800811,2911.162892
653.381300,4663.297435,-10510.924376,2681.334243
653.381624,3775.050304,-10288.862594,2374.896044
653.381948,2738.761985,-9992.780217,1685.410096
653.382272,1776.494261,-10362.883188,1225.752797
653.382596,444.123565,-10658.965565,76.609550
653.382921,444.123565,-10807.006753,76.609550
653.383245,1036.288319,-10140.821405,1685.410096
653.383569,2590.720797,-9622.677246,2451.505594
653.383893,3997.112087,-9400.615463,3140.991542
653.384217,4589.276840,-9474.636058,4213.525239
653.384542,4737.318029,-10066.800811,4903.011187
653.384866,4367.215058,-10362.883188,5056.230287
653.385190,2664.741391,-9474.636058,4519.963438
653.385514,1036.288319,-9326.594869,3294.210641
653.385838,-370.102971,-9104.533087,2757.943793
653.386163,-1924.535449,-8586.388927,2374.896044
653.386487,-1998.556043,-8216.285956,2298.286494
653.386811,-1110.308913,-7402.059420,2068.457845
653.387135,-370.102971,-6735.874072,1915.238745
653.387459,740.205942,-6957.935855,2221.676944
653.387784,1850.514855,-6291.750507,2987.772442
653.388108,3256.906145,-7105.977043,3830.477490
653.388432,4219.173869,-8290.306550,4366.744339
653.388756,4737.318029,-9474.636058,4749.792088
653.389080,4811.338623,-10807.006753,5209.449386
653.389405,3997.112087,-11473.192101,4596.572988
653.389729,2146.597232,-12435.459826,3294.210641
653.390053,0.000000,-12509.480420,3064.381992
653.390377,-1998.556043,-11843.295072,1532.190996
653.390701,-2368.659014,-10881.027347,1149.143247
653.391026,-1480.411884,-9400.615463,919.314598
653.391350,518.144159,-8364.327145,1225.752797
653.391674,2146.597232,-7698.141797,1378.971896
653.391998,3997.112087,-7254.018232,919.314598
653.392322,4737.318029,-7105.977043,1225.752797
653.392647,4811.338623,-8586.388927,1838.629195
653.392971,4441.235652,-10214.842000,2298.286494
653.393295,3034.844362,-12065.356855,2757.943793
653.393619,1480.411884,-12287.418637,2528.115143
653.393943,444.123565,-11769.274478,2298.286494
653.394268,0.000000,-11325.150913,1608.800546
653.394592,962.267725,-11325.150913,689.485948
653.394916,1628.453072,-10214.842000,536.266849
653.395240,2368.659014,-9474.636058,0.000000
653.395564,2812.782580,-8734.430116,306.438199
653.395889,2664.741391,-8586.388927,0.000000
653.396213,2072.576638,-8438.347739,-612.876398
653.396537,1924.535449,-8290.306550,-919.314598
653.396861,2442.679609,-8364.327145,-229.828649
653.397185,4367.215058,-9844.739029,536.266849
653.397510,6291.750507,-11473.192101,1838.629195
653.397834,6809.894666,-12509.480420,2681.334243
653.398158,4959.379811,-12805.562797,2221.676944
653.398482,2146.597232,-12287.418637,1149.143247
653.398806,-1110.308913,-11251.130318,689.485948
653.399131,-2664.741391,-10807.006753,229.828649
653.399455,-1480.411884,-9918.759623,383.047749
653.399779,592.164754,-8512.368333,612.876398
653.400103,1628.453072,-8068.244768,1149.143247
653.400427,1702.473667,-7254.018232,612.876398
653.400752,1480.411884,-6439.791695,0.000000
653.401076,1628.453072,-5477.523971,0.000000
653.401400,2368.659014,-5995.668130,766.095498
653.401724,3775.050304,-7772.162391,536.266849
653.402048,4367.215058,-9770.718434,2604.724693
653.402373,4219.173869,-11399.171507,2145.067394
653.402697,2368.659014,-10955.047942,2145.067394
653.403021,592.164754,-10288.862594,1991.848295
653.403345,0.000000,-10436.903782,2221.676944
653.403669,222.061783,-11029.068536,2528.115143
653.403994,518.144159,-10732.986159,2298.286494
653.404318,296.082377,-10288.862594,2221.676944
653.404642,0.000000,-9400.615463,2221.676944
653.404966,1036.288319,-8290.306550,1149.143247
653.405290,2516.700203,-7550.100608,1608.800546
653.405615,3552.988522,-8660.409521,2145.067394
653.405939,2812.782580,-9548.656652,1608.800546
653.406263,888.247130,-9918.759623,1072.533697
653.406587,-518.144159,-9770.718434,1072.533697
653.406911,0.000000,-9770.718434,1378.971896
653.407236,2368.659014,-11621.233289,3217.601092
653.407560,4441.235652,-11843.295072,4060.306139
653.407884,4663.297435,-10807.006753,4136.915689
653.408208,3627.009116,-10066.800811,3753.867940
653.408532,3627.009116,-10288.862594,3983.696590
653.408857,3701.029710,-11473.192101,4443.353888
653.409181,2368.659014,-11251.130318,4290.134789
653.409505,1184.329507,-9474.636058,3524.039291
653.409829,-222.061783,-7624.121203,1838.629195
653.410153,1184.329507,-7920.203579,1149.143247
653.410478,2146.597232,-8956.491898,1225.752797
653.410802,2442.679609,-8512.368333,1532.190996
653.411126,2812.782580,-7550.100608,1838.629195
653.411450,3478.967927,-7550.100608,2604.724693
653.411774,4515.256246,-8808.450710,3600.648841
653.412099,4737.318029,-10140.821405,4519.963438
653.412423,3997.112087,-10066.800811,4749.792088
653.412747,3627.009116,-9844.739029,4826.401637
653.413071,3108.864956,-9992.780217,4519.963438
653.413395,3256.906145,-10436.903782,4749.792088
653.413720,3701.029710,-11029.068536,4903.011187
653.414044,3552.988522,-9844.739029,4136.915689
653.414368,2146.597232,-9400.615463,2528.115143
653.414692,-888.247130,-8216.285956,1225.752797
653.415016,-2442.679609,-8216.285956,-689.485948
653.415341,-1998.556043,-8808.450710,153.219100
653.415665,222.061783,-8438.347739,459.657299
653.415989,2146.597232,-8290.306550,459.657299
653.416313,3478.967927,-8956.491898,1608.800546
653.416637,5329.482782,-9622.677246,3370.820191
653.416962,5847.626942,-9474.636058,3753.867940
653.417286,4885.359217,-10584.944971,3677.258390
653.417610,3404.947333,-10732.986159,4290.134789
653.417934,1998.556043,-11991.336260,4366.744339
653.418258,2516.700203,-11547.212695,3753.867940
653.418583,2220.617826,-9474.636058,2911.162892
653.418907,1110.308913,-9474.636058,2068.457845
653.419231,0.000000,-10362.883188,229.828649
653.419555,-962.267725,-9178.553681,-459.657299
653.419879,-2072.576638,-7550.100608,-1149.143247
653.420204,-2442.679609,-7846.182985,-1072.533697
653.420528,-1184.329507,-8438.347739,-1378.971896
653.420852,1258.350101,-8808.450710,-459.657299
653.421176,3627.009116,-9030.512492,1685.410096
653.421500,6143.709319,-9622.677246,2068.457845
653.421825,6513.812290,-10732.986159,2068.457845
653.422149,5033.400406,-11251.130318,3064.381992
653.422473,4441.235652,-10436.903782,3983.696590
653.422799,4071.132681,-11547.212695,3600.648841
653.423124,2442.679609,-13693.809927,3447.429741
653.423448,888.247130,-13027.624579,1915.238745
653.423772,222.061783,-10214.842000,612.876398
653.424097,-592.164754,-8808.450710,536.266849
653.424421,-1924.535449,-10214.842000,-612.876398
653.424745,-1480.411884,-9474.636058,-689.485948
653.425070,-518.144159,-6291.750507,-1608.800546
653.425394,0.000000,-6661.853478,-1455.581446
653.425718,1110.308913,-8364.327145,-1302.362347
653.426043,2590.720797,-8364.327145,-689.485948
653.426367,4071.132681,-8512.368333,2528.115143
653.426691,5995.668130,-9326.594869,4443.353888
653.427016,7846.182985,-9770.718434,3983.696590
653.427340,6513.812290,-10362.883188,4596.572988
653.427664,3256.906145,-11399.171507,4290.134789
653.427989,1332.370696,-11769.274478,2681.334243
653.428313,-666.185348,-10807.006753,995.924147
653.428637,-2516.700203,-9770.718434,766.095498
653.428962,-2146.597232,-9918.759623,766.095498
653.429286,148.041188,-9918.759623,229.828649
653.429610,2146.597232,-9178.553681,0.000000
653.429934,1776.494261,-8364.327145,-306.438199
653.430259,1924.535449,-8216.285956,-1225.752797
653.430583,3034.844362,-8882.471304,-306.438199
653.430907,4737.318029,-9474.636058,1302.362347
653.431232,5921.647536,-9474.636058,2298.286494
653.431556,5255.462188,-11177.109724,3677.258390
653.431880,4071.132681,-11029.068536,3677.258390
653.432205,4441.235652,-9770.718434,4213.525239
653.432529,3552.988522,-10436.903782,4213.525239
653.432853,2442.679609,-10881.027347,3677.258390
653.433178,1406.391290,-10066.800811,3064.381992
653.433502,148.041188,-10288.862594,1838.629195
653.433826,-1036.288319,-7920.203579,459.657299
653.434151,-1406.391290,-7105.977043,383.047749
653.434475,-814.226536,-9622.677246,536.266849
653.434799,-518.144159,-10140.821405,229.828649
653.435124,-370.102971,-8808.450710,459.657299
653.435448,444.123565,-8438.347739,1072.533697
653.435772,1480.411884,-8734.430116,1455.581446
653.436096,2960.823768,-9696.697840,2681.334243
653.436421,4145.153275,-8734.430116,3907.087040
653.436745,3997.112087,-8142.265362,4290.134789
653.437069,4367.215058,-9104.533087,4519.963438
653.437394,4589.276840,-9474.636058,5592.497135
653.437718,4589.276840,-9918.759623,5822.325785
653.438042,3034.844362,-9252.574275,4596.572988
653.438367,666.185348,-8808.450710,4136.915689
653.438691,-814.226536,-8956.491898,3064.381992
653.439015,-666.185348,-8956.491898,1378.971896
653.439340,-518.144159,-9622.677246,1225.752797
653.439664,-370.102971,-9696.697840,689.485948
653.439988,-370.102971,-9474.636058,0.000000
653.440313,-666.185348,-9844.739029,153.219100
653.440637,-666.185348,-9918.759623,0.000000
653.440961,-148.041188,-9178.553681,842.705048
653.441286,592.164754,-8956.491898,919.314598
653.441610,1554.432478,-9474.636058,1838.629195
653.441934,4293.194464,-10140.821405,3753.867940
653.442259,6735.874072,-10362.883188,4903.011187
653.442583,7328.038826,-9992.780217,4903.011187
653.442907,5625.565159,-10510.924376,4826.401637
653.443231,3849.070898,-10584.944971,3447.429741
653.443556,1850.514855,-8734.430116,1685.410096
653.443880,-814.226536,-7772.162391,-459.657299
653.444204,-3552.988522,-8734.430116,-1378.971896
653.444529,-4885.359217,-9548.656652,-1532.190996
653.444853,-4811.338623,-10510.924376,-1378.971896
653.445177,-3849.070898,-9918.759623,-689.485948
653.445502,-2368.659014,-9104.533087,-1378.971896
653.445826,74.020594,-7698.141797,-2145.067394
653.446150,2072.576638,-7920.203579,-1149.143247
653.446475,4367.215058,-9252.574275,-383.047749
653.446799,5773.606348,-10362.883188,1302.362347
653.447123,4145.153275,-10955.047942,919.314598
653.447448,2220.617826,-11177.109724,1455.581446
653.447772,2368.659014,-10362.883188,919.314598
653.448096,2368.659014,-9696.697840,0.000000
653.448421,444.123565,-10066.800811,-306.438199
653.448745,-2960.823768,-10214.842000,-1838.629195
653.449069,-3256.906145,-10214.842000,-1915.238745
653.449394,-2072.576638,-10140.821405,-1302.362347
653.449718,-1110.308913,-10288.862594,-229.828649
653.450042,-814.226536,-10881.027347,-995.924147
653.450366,-1998.556043,-9178.553681,-2374.896044
653.450691,-2664.741391,-8660.409521,-3524.039291
653.451015,-3478.967927,-9474.636058,-2834.553343
653.451339,-2664.741391,-10510.924376,-2451.505594
653.451664,-444.123565,-9326.594869,-995.924147
653.451988,1850.514855,-8734.430116,0.000000
653.452312,3330.926739,-9696.697840,0.000000
653.452637,2886.803174,-10140.821405,0.000000
653.452961,2146.597232,-9992.780217,153.219100
653.453285,1628.453072,-9400.615463,459.657299
653.453610,1702.473667,-9474.636058,842.705048
653.453934,1184.329507,-10288.862594,1991.848295
653.454258,148.041188,-11251.130318,2298.286494
653.454583,-1110.308913,-10807.006753,1532.190996
653.454907,-2368.659014,-10362.883188,-1455.581446
653.455231,-3849.070898,-9474.636058,-2298.286494
653.455556,-5033.400406,-9474.636058,-2757.943793
653.455880,-5181.441594,-10066.800811,-2604.724693
653.456204,-4737.318029,-9474.636058,-2374.896044
653.456528,-3330.926739,-9178.553681,-2374.896044
653.456853,-1776.494261,-8734.430116,-1455.581446
653.457177,148.041188,-8734.430116,-1072.533697
653.457501,1924.535449,-7624.121203,-536.266849
653.457826,3552.988522,-8512.368333,1302.362347
653.458150,4959.379811,-11029.068536,3064.381992
653.458474,5181.441594,-11917.315666,3294.210641
653.458799,3627.009116,-10510.924376,4366.744339
653.459123,592.164754,-9474.636058,2528.115143
653.459447,-962.267725,-9326.594869,0.000000
653.459772,-4071.132681,-9474.636058,-1302.362347
653.460096,-5329.482782,-8808.450710,-2451.505594
653.460420,-4071.132681,-8216.285956,-2451.505594
653.460745,-2072.576638,-8660.409521,-1532.190996
653.461069,-222.061783,-9474.636058,229.828649
653.461393,740.205942,-9770.718434,0.000000
653.461718,1480.411884,-8512.368333,-766.095498
653.462042,814.226536,-8808.450710,0.000000
653.462366,2294.638420,-11473.192101,689.485948
653.462691,3849.070898,-12953.603985,2145.067394
653.463015,4071.132681,-10955.047942,2145.067394
653.463339,4071.132681,-8734.430116,1838.629195
653.463663,2886.803174,-8364.327145,842.705048
653.463988,1628.453072,-11325.150913,229.828649
653.464312,222.061783,-12213.398043,1685.410096
653.464636,-592.164754,-9622.677246,1608.800546
653.464961,-1850.514855,-7402.059420,306.438199
653.465285,-3627.009116,-7179.997637,-842.705048
653.465609,-3404.947333,-8216.285956,-306.438199
653.465934,-1332.370696,-8290.306550,153.219100
653.466258,-1184.329507,-7698.141797,-306.438199
653.466582,-962.267725,-7105.977043,-306.438199
653.466907,-444.123565,-7624.121203,-306.438199
653.467231,888.247130,-9622.677246,153.219100
653.467555,2220.617826,-10362.883188,1225.752797
653.467880,3034.844362,-10140.821405,995.924147
653.468204,2368.659014,-11103.089130,995.924147
653.468528,1110.308913,-11547.212695,1072.533697
653.468853,1850.514855,-10658.965565,1838.629195
653.469177,2812.782580,-10584.944971,3294.210641
653.469501,2516.700203,-11769.274478,2374.896044
653.469826,0.000000,-11769.274478,1991.848295
653.470150,-2072.576638,-9696.697840,383.047749
653.470474,-2664.741391,-8586.388927,76.609550
653.470798,-1184.329507,-9622.677246,0.000000
653.471123,-1628.453072,-9918.759623,0.000000
653.471447,-3256.906145,-10214.842000,-842.705048
653.471771,-3701.029710,-8512.368333,-229.828649
653.472096,-3330.926739,-8586.388927,-306.438199
653.472420,-1702.473667,-9474.636058,-919.314598
653.472744,-296.082377,-9104.533087,-919.314598
653.473069,1406.391290,-8438.347739,-306.438199
653.473393,2220.617826,-9326.594869,0.000000
653.473717,2294.638420,-10066.800811,1149.143247
653.474042,2442.679609,-8956.491898,2068.457845
653.474366,2516.700203,-9178.553681,1532.190996
653.474690,2368.659014,-9622.677246,1149.143247
653.475015,1258.350101,-9252.574275,306.438199
653.475339,74.020594,-9030.512492,-995.924147
653.475663,-1258.350101,-10214.842000,-919.314598
653.475988,-2072.576638,-10362.883188,-995.924147
653.476312,-1184.329507,-10214.842000,-1149.143247
653.476636,-1184.329507,-8956.491898,-2068.457845
653.476961,-2072.576638,-9474.636058,-2298.286494
653.477285,-2442.679609,-10584.944971,-2451.505594
653.477609,-1258.350101,-10584.944971,-2528.115143
653.477933,-444.123565,-11029.068536,-1532.190996
653.478258,518.144159,-11399.171507,-919.314598
653.478582,1628.453072,-11695.253884,-995.924147
653.478906,1184.329507,-10584.944971,306.438199
653.479231,2368.659014,-11029.068536,-689.485948
653.479555,2072.576638,-11769.274478,-459.657299
653.479879,1332.370696,-11325.150913,-919.314598
653.480204,-444.123565,-11399.171507,383.047749
653.480528,-1480.411884,-10140.821405,153.219100
653.480852,0.000000,-7698.141797,-1149.143247
653.481177,-962.267725,-7994.224174,-459.657299
653.481501,0.000000,-8364.327145,-1072.533697
653.481825,888.247130,-7476.080014,-1762.019645
653.482150,0.000000,-8512.368333,0.000000
653.482474,-370.102971,-8882.471304,0.000000
653.482798,-1036.288319,-8882.471304,-229.828649
653.483123,-1480.411884,-8438.347739,-1072.533697
653.483447,-962.267725,-7994.224174,-919.314598
653.483771,444.123565,-9696.697840,0.000000
653.484095,814.226536,-11029.068536,306.438199
653.484420,740.205942,-11399.171507,1685.410096
653.484744,1480.411884,-10510.924376,1302.362347
653.485068,2146.597232,-9548.656652,1072.533697
653.485393,1702.473667,-10140.821405,536.266849
653.485717,-444.123565,-10436.903782,383.047749
653.486041,-1480.411884,-8956.491898,536.266849
653.486366,-2368.659014,-9400.615463,-306.438199
653.486690,-2072.576638,-9622.677246,153.219100
653.487014,-1258.350101,-9844.739029,995.924147
653.487339,-1110.308913,-9770.718434,766.095498
653.487663,-1628.453072,-8438.347739,0.000000
653.487987,-1850.514855,-7254.018232,-766.095498
653.488312,-1924.535449,-7846.182985,-229.828649
653.488636,-444.123565,-8734.430116,306.438199
653.488960,962.267725,-9548.656652,2068.457845
653.489285,1480.411884,-9474.636058,1455.581446
653.489609,1406.391290,-9474.636058,459.657299
653.489933,222.061783,-10066.800811,536.266849
653.490258,740.205942,-9474.636058,536.266849
653.490582,1184.329507,-9474.636058,-536.266849
653.490906,740.205942,-10436.903782,612.876398
653.491230,1332.370696,-11399.171507,612.876398
653.491555,1998.556043,-12213.398043,766.095498
653.491879,2368.659014,-11991.336260,1685.410096
653.492203,1036.288319,-11473.192101,1532.190996
653.492528,-962.267725,-11325.150913,229.828649
653.492852,-3330.926739,-9992.780217,-689.485948
653.493176,-3256.906145,-9400.615463,-766.095498
653.493501,-1850.514855,-9992.780217,-995.924147
653.493825,-518.144159,-9770.718434,-612.876398
653.494149,222.061783,-9770.718434,689.485948
653.494474,444.123565,-8956.491898,459.657299
653.494798,592.164754,-7920.203579,0.000000
653.495122,296.082377,-7328.038826,0.000000
653.495447,-222.061783,-8438.347739,76.609550
653.495771,0.000000,-9548.656652,919.314598
653.496095,592.164754,-8068.244768,1072.533697
653.496420,2368.659014,-7994.224174,1532.190996
653.496744,2886.803174,-8586.388927,1685.410096
653.497068,2368.659014,-9178.553681,153.219100
653.497393,740.205942,-8882.471304,-383.047749
653.497717,0.000000,-8734.430116,-229.828649
653.498041,-444.123565,-9474.636058,-383.047749
653.498365,-1184.329507,-10140.821405,306.438199
653.498690,-2072.576638,-10658.965565,1149.143247
653.499014,-1850.514855,-11103.089130,229.828649
653.499338,-1036.288319,-11103.089130,-459.657299
653.499663,-444.123565,-10658.965565,-229.828649
653.499987,-148.041188,-10214.842000,0.000000
653.500311,-962.267725,-9844.739029,76.609550
653.500636,0.000000,-9178.553681,306.438199
653.500960,-370.102971,-10510.924376,0.000000
653.501284,-1110.308913,-11103.089130,-153.219100
653.501609,-962.267725,-10066.800811,-612.876398
653.501933,-296.082377,-9326.594869,229.828649
653.502257,148.041188,-8142.265362,-229.828649
653.502582,962.267725,-7105.977043,0.000000
653.502906,1110.308913,-8956.491898,1149.143247
653.503230,1924.535449,-8586.388927,995.924147
653.503555,3182.885551,-7994.224174,0.000000
653.503879,2368.659014,-7698.141797,306.438199
653.504203,0.000000,-8216.285956,-229.828649
653.504527,-1702.473667,-8660.409521,-1685.410096
653.504852,-1998.556043,-8290.306550,-1608.800546
653.505176,-888.247130,-8808.450710,-1455.581446
653.505500,370.102971,-10436.903782,-995.924147
653.505825,1406.391290,-11251.130318,-919.314598
653.506149,2072.576638,-10510.924376,-383.047749
653.506473,1628.453072,-10955.047942,-995.924147
653.506798,-296.082377,-12509.480420,-1072.533697
653.507122,-2368.659014,-13323.706956,-1072.533697
653.507446,-2146.597232,-12287.418637,0.000000
653.507771,-1258.350101,-11843.295072,76.609550
653.508095,444.123565,-11843.295072,0.000000
653.508419,74.020594,-11547.212695,0.000000
653.508744,-962.267725,-11029.068536,-612.876398
653.509068,-740.205942,-9474.636058,-1302.362347
653.509392,-1480.411884,-9474.636058,-689.485948
653.509717,-2146.597232,-9548.656652,-689.485948
653.510041,-2368.659014,-9252.574275,-1302.362347
653.510365,-1480.411884,-7031.956449,-766.095498
653.510690,-740.205942,-6587.832884,-306.438199
653.511014,370.102971,-7772.162391,-842.705048
653.511338,888.247130,-9474.636058,-229.828649
653.511662,1480.411884,-9326.594869,1762.019645
653.511987,3330.926739,-8734.430116,2528.115143
653.512311,3849.070898,-9326.594869,1072.533697
653.512635,1998.556043,-9770.718434,1762.019645
653.512960,-740.205942,-9844.739029,306.438199
653.513284,-1258.350101,-9622.677246,229.828649
653.513608,-1036.288319,-10362.883188,383.047749
653.513933,-962.267725,-10807.006753,306.438199
653.514257,-666.185348,-10955.047942,689.485948
653.514581,0.000000,-9326.594869,459.657299
653.514906,0.000000,-8216.285956,-306.438199
653.515230,-1036.288319,-9622.677246,383.047749
653.515554,-1628.453072,-10214.842000,689.485948
653.515879,-1924.535449,-10140.821405,842.705048
653.516203,-1924.535449,-8290.306550,1225.752797
653.516527,-1184.329507,-8216.285956,1685.410096
653.516852,-148.041188,-8956.491898,995.924147
653.517176,148.041188,-8734.430116,1072.533697
653.517500,1258.350101,-7402.059420,1762.019645
653.517825,2072.576638,-7105.977043,689.485948
653.518149,2368.659014,-7328.038826,0.000000
653.518473,1406.391290,-8290.306550,229.828649
653.518797,1406.391290,-9252.574275,689.485948
653.519122,1628.453072,-9104.533087,153.219100
653.519446,666.185348,-9474.636058,-995.924147
653.519770,148.041188,-10288.862594,842.705048
653.520095,1184.329507,-11325.150913,919.314598
653.520419,2368.659014,-11695.253884,0.000000
653.520743,1110.308913,-11991.336260,0.000000
653.521068,518.144159,-12139.377449,0.000000
653.521392,666.185348,-12879.583391,-153.219100
653.521716,0.000000,-12213.398043,0.000000
653.522041,-740.205942,-11399.171507,229.828649
653.522365,-1480.411884,-11251.130318,-1302.362347
653.522689,-1554.432478,-11399.171507,-919.314598
653.523014,-1406.391290,-10881.027347,-229.828649
653.523338,0.000000,-10288.862594,0.000000
653.523662,296.082377,-9030.512492,-1225.752797
653.523986,-370.102971,-9178.553681,-153.219100
653.524311,296.082377,-9770.718434,995.924147
653.524635,1184.329507,-8882.471304,0.000000
653.524959,0.000000,-6735.874072,-229.828649
653.525283,-1554.432478,-5847.626942,-536.266849
653.525608,-1332.370696,-7328.038826,-689.485948
653.525932,-962.267725,-8808.450710,-689.485948
653.526256,-518.144159,-8364.327145,536.266849
653.526580,-740.205942,-7920.203579,-153.219100
653.526904,-148.041188,-8364.327145,-1532.190996
653.527229,-814.226536,-10214.842000,-536.266849
653.527553,-296.082377,-11399.171507,0.000000
653.527877,-148.041188,-10955.047942,-842.705048
653.528201,-1184.329507,-9992.780217,-1072.533697
653.528526,-1480.411884,-10066.800811,-1149.143247
653.528850,-148.041188,-10140.821405,-689.485948
653.529174,814.226536,-11029.068536,0.000000
653.529498,444.123565,-11029.068536,0.000000
653.529823,0.000000,-9844.739029,153.219100
653.530147,-666.185348,-10214.842000,0.000000
653.530471,-1480.411884,-10066.800811,-383.047749
653.530795,-1480.411884,-9104.533087,-306.438199
653.531120,-2072.576638,-8586.388927,0.000000
653.531444,-2368.659014,-8882.471304,-612.876398
653.531768,-1628.453072,-6883.915261,-1608.800546
653.532092,0.000000,-6291.750507,-689.485948
653.532417,1110.308913,-7254.018232,-842.705048
653.532741,1110.308913,-9474.636058,-1838.629195
653.533065,222.061783,-9696.697840,-1378.971896
653.533389,74.020594,-8438.347739,-1225.752797
653.533714,370.102971,-8956.491898,-1838.629195
653.534038,740.205942,-10955.047942,-383.047749
653.534362,1480.411884,-11917.315666,0.000000
653.534686,2664.741391,-12657.521608,766.095498
653.535010,3034.844362,-12657.521608,459.657299
653.535335,2812.782580,-11547.212695,0.000000
653.535659,2960.823768,-11843.295072,536.266849
653.535983,3034.844362,-12879.583391,1149.143247
653.536307,2220.617826,-12509.480420,766.095498
653.536632,0.000000,-10658.965565,-536.266849
653.536956,-2146.597232,-9104.533087,-2374.896044
653.537280,-2886.803174,-9474.636058,-1455.581446
653.537604,-1480.411884,-9474.636058,-612.876398
653.537929,-592.164754,-9030.512492,-689.485948
653.538253,-1554.432478,-8364.327145,-766.095498
653.538577,-1184.329507,-7920.203579,-536.266849
653.538901,1110.308913,-8290.306550,229.828649
653.539226,1850.514855,-9400.615463,1455.581446
653.539550,0.000000,-8660.409521,919.314598
653.539874,-2146.597232,-7920.203579,919.314598
653.540198,-3182.885551,-9030.512492,612.876398
653.540523,-592.164754,-9252.574275,1225.752797
653.540847,2368.659014,-9400.615463,2068.457845
653.541171,2442.679609,-9326.594869,1608.800546
653.541495,666.185348,-10140.821405,1302.362347
653.541820,296.082377,-10510.924376,689.485948
653.542144,1036.288319,-10436.903782,995.924147
653.542468,0.000000,-10066.800811,1072.533697
653.542792,-1998.556043,-9844.739029,919.314598
653.543116,-2294.638420,-8512.368333,383.047749
653.543441,-1850.514855,-8956.491898,689.485948
653.543765,-888.247130,-9622.677246,229.828649
653.544089,-370.102971,-9104.533087,995.924147
653.544413,-592.164754,-9548.656652,689.485948
653.544738,74.020594,-8882.471304,1838.629195
653.545062,370.102971,-8216.285956,995.924147
653.545386,-740.205942,-8882.471304,1149.143247
653.545710,-1924.535449,-9770.718434,766.095498
653.546035,-1554.432478,-9474.636058,536.266849
653.546359,962.267725,-8882.471304,1532.190996
653.546683,2738.761985,-8364.327145,1455.581446
653.547007,2590.720797,-8882.471304,1762.019645
653.547332,1776.494261,-9030.512492,1225.752797
653.547656,1332.370696,-9548.656652,383.047749
653.547980,962.267725,-9696.697840,0.000000
653.548304,296.082377,-9400.615463,153.219100
653.548629,-296.082377,-10362.883188,306.438199
653.548953,-740.205942,-10362.883188,0.000000
653.549277,-962.267725,-9696.697840,-689.485948
653.549601,-2220.617826,-9548.656652,-1072.533697
653.549926,-2738.761985,-10955.047942,-689.485948
653.550250,-2146.597232,-11547.212695,-2068.457845
653.550574,-814.226536,-9844.739029,-1225.752797
653.550898,-444.123565,-9326.594869,-1608.800546
653.551223,0.000000,-10362.883188,-1378.971896
653.551547,-296.082377,-11769.274478,-1532.190996
653.551871,-888.247130,-10510.924376,-2221.676944
653.552195,-888.247130,-8586.388927,-1302.362347
653.552519,-370.102971,-9252.574275,-1378.971896
653.552844,740.205942,-10732.986159,-1072.533697
653.553168,2442.679609,-11029.068536,153.219100
653.553492,3701.029710,-10436.903782,-689.485948
653.553816,3034.844362,-9548.656652,-995.924147
653.554141,1554.432478,-9696.697840,-689.485948
653.554465,740.205942,-10066.800811,-1149.143247
653.554789,592.164754,-9918.759623,-842.705048
653.555113,962.267725,-9844.739029,-536.266849
653.555438,814.226536,-10362.883188,-229.828649
653.555762,74.020594,-10436.903782,-1072.533697
653.556086,-444.123565,-9474.636058,-1915.238745
653.556410,0.000000,-9548.656652,-1378.971896
653.556735,1110.308913,-10288.862594,-229.828649
653.557059,1406.391290,-11325.150913,306.438199
653.557383,-296.082377,-10362.883188,612.876398
653.557707,-1850.514855,-9030.512492,-842.705048
653.558032,-2368.659014,-8290.306550,-1838.629195
653.558356,-1998.556043,-9474.636058,-1608.800546
653.558680,-1702.473667,-10214.842000,-612.876398
653.559004,-1184.329507,-9252.574275,536.266849
653.559329,-222.061783,-7254.018232,536.266849
653.559653,-888.247130,-7105.977043,0.000000
653.559977,-1480.411884,-8364.327145,153.219100
653.560301,-1184.329507,-7402.059420,0.000000
653.560625,-740.205942,-7550.100608,153.219100
653.560950,-1110.308913,-7994.224174,0.000000
653.561274,-1036.288319,-8808.450710,766.095498
653.561598,-1110.308913,-9622.677246,995.924147
653.561922,-444.123565,-9178.553681,-229.828649
653.562247,-296.082377,-8734.430116,-766.095498
653.562571,-814.226536,-9252.574275,-612.876398
653.562895,-592.164754,-11325.150913,-153.219100
653.563219,592.164754,-10881.027347,-229.828649
653.563544,1406.391290,-9844.739029,76.609550
653.563868,592.164754,-10881.027347,919.314598
653.564192,-222.061783,-12287.418637,-153.219100
653.564516,-962.267725,-11621.233289,-153.219100
653.564841,148.041188,-10066.800811,612.876398
653.565165,1776.494261,-11251.130318,536.266849
653.565489,1480.411884,-12435.459826,536.266849
653.565813,592.164754,-12139.377449,842.705048
653.566138,222.061783,-9918.759623,995.924147
653.566462,444.123565,-9696.697840,-229.828649
653.566786,-1110.308913,-10140.821405,-459.657299
653.567110,-1776.494261,-10288.862594,-459.657299
653.567435,-1184.329507,-8956.491898,-536.266849
653.567759,518.144159,-7772.162391,-229.828649
653.568083,1258.350101,-8660.409521,-229.828649
653.568407,1554.432478,-9844.739029,536.266849
653.568731,1332.370696,-10214.842000,612.876398
653.569056,1850.514855,-9326.594869,766.095498
653.569380,962.267725,-8660.409521,612.876398
653.569704,1110.308913,-9474.636058,919.314598
653.570028,962.267725,-11547.212695,1072.533697
653.570353,444.123565,-11103.089130,1378.971896
653.570677,592.164754,-10140.821405,1532.190996
653.571001,666.185348,-10066.800811,459.657299
653.571325,444.123565,-9918.759623,766.095498
653.571650,1036.288319,-9030.512492,459.657299
653.571974,444.123565,-9104.533087,0.000000
653.572298,-1258.350101,-9770.718434,-459.657299
653.572622,-2516.700203,-9696.697840,-689.485948
653.572947,-2812.782580,-9992.780217,-383.047749
653.573271,-2220.617826,-9400.615463,153.219100
653.573595,-1332.370696,-7920.203579,0.000000
653.573919,-1258.350101,-8068.244768,-536.266849
653.574244,-1258.350101,-8438.347739,842.705048
653.574568,0.000000,-8216.285956,1072.533697
653.574892,1924.535449,-7698.141797,1225.752797
653.575216,2664.741391,-7179.997637,1608.800546
653.575541,2368.659014,-8068.244768,2451.505594
653.575865,1998.556043,-8882.471304,1378.971896
653.576189,592.164754,-7920.203579,919.314598
653.576513,-592.164754,-8364.327145,383.047749
653.576838,-296.082377,-8660.409521,1072.533697
653.577162,444.123565,-9992.780217,536.266849
653.577486,592.164754,-9474.636058,-919.314598
653.577810,222.061783,-9030.512492,-383.047749
653.578134,222.061783,-10066.800811,-1225.752797
653.578459,74.020594,-11547.212695,-766.095498
653.578783,-370.102971,-10807.006753,-306.438199
653.579107,-1554.432478,-8512.368333,-919.314598
653.579431,-1332.370696,-8586.388927,-766.095498
653.579756,0.000000,-10658.965565,-459.657299
653.580080,1036.288319,-11917.315666,-306.438199
653.580404,1258.350101,-10955.047942,-153.219100
653.580728,296.082377,-9622.677246,-1225.752797
653.581053,-1184.329507,-9992.780217,-1532.190996
653.581377,-1924.535449,-11399.171507,-1072.533697
653.581701,-1998.556043,-11917.315666,-995.924147
653.582025,-1554.432478,-10658.965565,-1685.410096
653.582350,-1702.473667,-10658.965565,-2298.286494
653.582674,-1406.391290,-11029.068536,-2221.676944
653.582998,-740.205942,-11325.150913,-2451.505594
653.583322,-962.267725,-11103.089130,-2528.115143
653.583647,-592.164754,-10955.047942,-2451.505594
653.583971,962.267725,-11769.274478,-1991.848295
653.584295,1258.350101,-12139.377449,-1838.629195
653.584619,1406.391290,-11621.233289,0.000000
653.584944,1850.514855,-10584.944971,-766.095498
653.585268,1480.411884,-10732.986159,-1302.362347
653.585592,666.185348,-11843.295072,-919.314598
653.585916,814.226536,-11325.150913,-612.876398
653.586240,1776.494261,-9548.656652,-306.438199
653.586565,1850.514855,-8808.450710,0.000000
653.586889,444.123565,-9252.574275,0.000000
653.587213,-1184.329507,-9474.636058,-536.266849
653.587537,-2960.823768,-8068.244768,-1378.971896
653.587862,-3775.050304,-7105.977043,-1915.238745
653.588186,-3108.864956,-7254.018232,-995.924147
653.588510,-1702.473667,-7254.018232,0.000000
653.588834,-444.123565,-7179.997637,766.095498
653.589159,444.123565,-6069.688724,1225.752797
653.589483,1480.411884,-6587.832884,1072.533697
653.589807,814.226536,-8216.285956,689.485948
653.590131,-592.164754,-8290.306550,383.047749
653.590456,-1480.411884,-7994.224174,1455.581446
653.590780,-1184.329507,-8882.471304,1455.581446
653.591104,370.102971,-8512.368333,383.047749
653.591428,444.123565,-8882.471304,1455.581446
653.591753,1184.329507,-8882.471304,919.314598
653.592077,2960.823768,-8808.450710,0.000000
653.592401,2886.803174,-9030.512492,153.219100
653.592725,2442.679609,-9844.739029,766.095498
653.593050,2072.576638,-10584.944971,842.705048
653.593374,962.267725,-10732.986159,0.000000
653.593698,-1110.308913,-10510.924376,383.047749
653.594022,-1184.329507,-10881.027347,229.828649
653.594346,-370.102971,-11251.130318,-383.047749
653.594671,444.123565,-11547.212695,1532.190996
653.594995,444.123565,-10732.986159,1072.533697
653.595319,-444.123565,-10436.903782,76.609550
653.595643,-1184.329507,-10436.903782,0.000000
653.595968,-1036.288319,-10362.883188,306.438199
653.596292,0.000000,-11843.295072,689.485948
653.596616,0.000000,-10584.944971,-229.828649
653.596940,-962.267725,-10066.800811,-383.047749
653.597265,-1998.556043,-11769.274478,0.000000
653.597589,296.082377,-11843.295072,0.000000
653.597913,1628.453072,-10955.047942,306.438199
653.598237,1480.411884,-10510.924376,459.657299
653.598562,1036.288319,-10066.800811,0.000000
653.598886,1258.350101,-10658.965565,0.000000
653.599210,888.247130,-10584.944971,612.876398
653.599534,-222.061783,-9844.739029,536.266849
653.599859,-962.267725,-9400.615463,0.000000
653.600183,-296.082377,-9252.574275,995.924147
653.600507,1184.329507,-9030.512492,1915.238745
653.600831,1628.453072,-8512.368333,1302.362347
653.601156,444.123565,-8068.244768,842.705048
653.601480,-1702.473667,-8364.327145,153.219100
653.601804,-1702.473667,-8364.327145,-383.047749
653.602128,-1628.453072,-8512.368333,-229.828649
653.602452,-1628.453072,-8290.306550,153.219100
653.602777,-1628.453072,-8660.409521,919.314598
653.603101,-370.102971,-9474.636058,995.924147
653.603425,296.082377,-8512.368333,1149.143247
653.603749,740.205942,-7402.059420,842.705048
653.604074,-370.102971,-7772.162391,-689.485948
653.604398,-1184.329507,-8586.388927,-766.095498
653.604722,-148.041188,-7920.203579,-229.828649
653.605046,814.226536,-8734.430116,76.609550
653.605371,1184.329507,-9104.533087,1072.533697
653.605695,1332.370696,-9326.594869,612.876398
653.606019,1480.411884,-9548.656652,1225.752797
653.606343,1110.308913,-8808.450710,-536.266849
653.606668,0.000000,-8512.368333,-1608.800546
653.606992,0.000000,-9326.594869,-459.657299
653.607316,1036.288319,-11399.171507,-383.047749
653.607640,1332.370696,-11177.109724,0.000000
653.607965,592.164754,-9548.656652,-306.438199
653.608289,-740.205942,-9252.574275,-2221.676944
653.608613,-1850.514855,-11325.150913,-2681.334243
653.608937,-1184.329507,-10955.047942,-2681.334243
653.609262,-888.247130,-10584.944971,-1685.410096
653.609586,-814.226536,-11029.068536,-1149.143247
653.609910,-888.247130,-11917.315666,-383.047749
653.610234,0.000000,-11769.274478,-612.876398
653.610559,518.144159,-10807.006753,-536.266849
653.610883,888.247130,-11029.068536,-1455.581446
653.611207,888.247130,-11103.089130,-1608.800546
653.611531,0.000000,-11991.336260,-459.657299
653.611855,518.144159,-11325.150913,0.000000
653.612180,592.164754,-10362.883188,-612.876398
653.612504,444.123565,-10066.800811,-536.266849
653.612828,888.247130,-10807.006753,-1302.362347
653.613152,592.164754,-10658.965565,-1991.848295
653.613477,1036.288319,-9696.697840,-1072.533697
653.613801,814.226536,-9696.697840,-612.876398
653.614125,444.123565,-10066.800811,-842.705048
653.614449,-1184.329507,-9252.574275,-919.314598
653.614774,-1776.494261,-7624.121203,-1072.533697
653.615098,-1776.494261,-7772.162391,-2068.457845
653.615422,-1998.556043,-8216.285956,-1149.143247
653.615746,-1850.514855,-8956.491898,-1608.800546
653.616071,-1554.432478,-8660.409521,-306.438199
653.616395,-592.164754,-8734.430116,0.000000
653.616719,-740.205942,-8956.491898,0.000000
653.617043,-2072.576638,-8660.409521,0.000000
653.617368,-1850.514855,-8438.347739,-229.828649
653.617692,-296.082377,-9030.512492,-153.219100
653.618016,1110.308913,-9400.615463,-536.266849
653.618340,1110.308913,-9992.780217,383.047749
653.618665,666.185348,-10288.862594,842.705048
653.618989,592.164754,-9104.533087,-459.657299
653.619313,148.041188,-9326.594869,-1072.533697
653.619637,-222.061783,-9548.656652,-1072.533697
653.619961,0.000000,-10288.862594,-383.047749
653.620286,0.000000,-10658.965565,153.219100
653.620610,0.000000,-9252.574275,0.000000
653.620934,-1110.308913,-7698.141797,-1302.362347
653.621258,-1332.370696,-8734.430116,-842.705048
653.621583,-740.205942,-10140.821405,-76.609550
653.621907,1110.308913,-9252.574275,919.314598
653.622231,1776.494261,-8660.409521,1072.533697
653.622555,740.205942,-8586.388927,1225.752797
653.622880,0.000000,-10436.903782,383.047749
653.623204,518.144159,-10658.965565,689.485948
653.623528,740.205942,-9992.780217,383.047749
653.623852,0.000000,-8956.491898,-229.828649
653.624176,-592.164754,-9844.739029,76.609550
653.624500,0.000000,-11251.130318,842.705048
653.624824,1776.494261,-10658.965565,689.485948
653.625148,1702.473667,-9918.759623,459.657299
653.625472,740.205942,-10658.965565,459.657299
653.625796,74.020594,-10881.027347,0.000000
653.626120,0.000000,-11029.068536,1455.581446
653.626444,1406.391290,-10732.986159,2911.162892
653.626768,888.247130,-10510.924376,2221.676944
653.627092,-1036.288319,-11251.130318,1532.190996
653.627416,-1998.556043,-10584.944971,153.219100
653.627740,-740.205942,-9178.553681,459.657299
653.628064,962.267725,-9918.759623,1149.143247
653.628388,1332.370696,-10881.027347,1532.190996
653.628712,148.041188,-9844.739029,536.266849
653.629036,-1184.329507,-8290.306550,153.219100
653.629360,-1628.453072,-8216.285956,-995.924147
653.629684,-814.226536,-9326.594869,-689.485948
653.630008,0.000000,-10510.924376,459.657299
653.630332,592.164754,-9030.512492,1302.362347
653.630656,666.185348,-7476.080014,1072.533697
653.630980,370.102971,-7254.018232,689.485948
653.631304,0.000000,-9326.594869,1378.971896
653.631628,0.000000,-9918.759623,995.924147
653.631952,148.041188,-8438.347739,1072.533697
653.632276,-444.123565,-7476.080014,919.314598
653.632600,-592.164754,-7994.224174,229.828649
653.632924,-1628.453072,-8438.347739,306.438199
653.633248,-1554.432478,-8660.409521,76.609550
653.633572,0.000000,-8956.491898,0.000000
653.633897,962.267725,-9400.615463,0.000000
653.634221,1184.329507,-9400.615463,0.000000
653.634545,1628.453072,-8586.388927,-306.438199
653.634869,1850.514855,-8734.430116,-766.095498
653.635193,444.123565,-9474.636058,-2298.286494
653.635517,-1406.391290,-9770.718434,-1685.410096
653.635841,-1406.391290,-10066.800811,-1685.410096
653.636165,814.226536,-9548.656652,-612.876398
653.636489,1850.514855,-9474.636058,-766.095498
653.636813,962.267725,-9844.739029,-1072.533697
653.637137,-296.082377,-11029.068536,-612.876398
653.637461,0.000000,-11399.171507,-919.314598
653.637785,1036.288319,-10436.903782,-689.485948
653.638109,296.082377,-9770.718434,-919.314598
653.638433,-1554.432478,-10436.903782,-1149.143247
653.638757,-2368.659014,-11843.295072,-1302.362347
653.639081,-1554.432478,-11473.192101,-1532.190996
653.639405,-518.144159,-10288.862594,-1378.971896
653.639729,74.020594,-10436.903782,-612.876398
653.640053,148.041188,-11547.212695,-1302.362347
653.640377,1036.288319,-11547.212695,-536.266849
653.640701,296.082377,-11621.233289,-1149.143247
653.641025,-740.205942,-11843.295072,-1608.800546
653.641349,-2516.700203,-11769.274478,-1838.629195
653.641673,-2590.720797,-10510.924376,-1685.410096
653.641997,-1332.370696,-9770.718434,-766.095498
653.642321,-148.041188,-10066.800811,-1072.533697
653.642645,-296.082377,-9696.697840,-1302.362347
653.642969,-518.144159,-9474.636058,-306.438199
653.643293,666.185348,-8364.327145,-459.657299
653.643617,1036.288319,-7476.080014,-1302.362347
653.643941,-296.082377,-7402.059420,-842.705048
653.644265,-1850.514855,-8290.306550,-766.095498
653.644589,-1110.308913,-9474.636058,-229.828649
653.644913,148.041188,-8364.327145,-536.266849
653.645237,1184.329507,-6957.935855,76.609550
653.645561,740.205942,-7994.224174,-153.219100
653.645885,-74.020594,-9696.697840,-612.876398
653.646209,148.041188,-9474.636058,-383.047749
653.646533,1036.288319,-8882.471304,-536.266849
653.646857,370.102971,-9622.677246,383.047749
653.647181,0.000000,-10881.027347,-383.047749
653.647505,-148.041188,-10955.047942,0.000000
653.647829,-666.185348,-10584.944971,229.828649
653.648153,-592.164754,-10066.800811,-919.314598
653.648477,222.061783,-9622.677246,-766.095498
653.648801,962.267725,-9992.780217,229.828649
653.649125,2886.803174,-10510.924376,689.485948
653.649449,3775.050304,-10214.842000,306.438199
653.649773,1628.453072,-9770.718434,766.095498
653.650097,-518.144159,-10140.821405,-229.828649
653.650421,-1702.473667,-9474.636058,-459.657299
653.650745,-1628.453072,-8734.430116,-1225.752797
653.651069,-1776.494261,-8956.491898,383.047749
653.651393,-1998.556043,-9992.780217,612.876398
653.651717,-1480.411884,-9622.677246,383.047749
653.652041,222.061783,-8438.347739,1378.971896
653.652365,666.185348,-8660.409521,229.828649
653.652689,148.041188,-8586.388927,-306.438199
653.653013,-1184.329507,-9918.759623,306.438199
653.653337,0.000000,-10140.821405,919.314598
653.653661,1776.494261,-10066.800811,1378.971896
653.653985,1776.494261,-9844.739029,1072.533697
653.654309,0.000000,-9844.739029,995.924147
653.654633,-592.164754,-10214.842000,306.438199
653.654957,592.164754,-11695.253884,689.485948
653.655281,592.164754,-12213.398043,1685.410096
653.655605,-666.185348,-12879.583391,1991.848295
653.655929,-2368.659014,-11251.130318,1072.533697
653.656253,-2516.700203,-10362.883188,1149.143247
653.656577,-1850.514855,-10140.821405,76.609550
653.656901,-1702.473667,-10214.842000,-383.047749
653.657225,-1702.473667,-9474.636058,383.047749
653.657549,0.000000,-7772.162391,919.314598
653.657873,1406.391290,-7550.100608,1149.143247
653.658197,1776.494261,-7402.059420,689.485948
653.658521,666.185348,-7846.182985,-153.219100
653.658845,0.000000,-9030.512492,76.609550
653.659169,296.082377,-9474.636058,995.924147
653.659493,1184.329507,-8956.491898,1149.143247
653.659817,1406.391290,-8216.285956,1762.019645
653.660141,1110.308913,-8216.285956,1838.629195
653.660465,1480.411884,-8586.388927,1302.362347
653.660790,2294.638420,-9030.512492,0.000000
653.661114,962.267725,-8290.306550,-612.876398
653.661438,0.000000,-8438.347739,-459.657299
653.661762,74.020594,-9178.553681,229.828649
653.662086,518.144159,-9548.656652,-153.219100
653.662410,-222.061783,-8956.491898,-689.485948
653.662734,-1184.329507,-8956.491898,-766.095498
653.663058,-814.226536,-10881.027347,-536.266849
653.663382,1554.432478,-12139.377449,1149.143247
653.663706,2590.720797,-11325.150913,612.876398
653.664030,1184.329507,-9474.636058,-766.095498
653.664354,-2072.576638,-9252.574275,-2451.505594
653.664678,-3330.926739,-9770.718434,-2757.943793
653.665002,-1998.556043,-10436.903782,-1455.581446
653.665326,296.082377,-11103.089130,0.000000
653.665650,370.102971,-10510.924376,842.705048
653.665974,740.205942,-9474.636058,995.924147
653.666298,1184.329507,-8734.430116,383.047749
653.666622,740.205942,-9326.594869,-1838.629195
653.666946,-1110.308913,-9992.780217,-1838.629195
653.667270,-2072.576638,-11103.089130,-995.924147
653.667594,0.000000,-10955.047942,-76.609550
653.667918,1924.535449,-10807.006753,229.828649
653.668242,1258.350101,-10214.842000,-306.438199
653.668566,-1258.350101,-9992.780217,-1378.971896
653.668890,-2442.679609,-10288.862594,-3140.991542
653.669214,-1924.535449,-10436.903782,-1838.629195
653.669538,-148.041188,-11251.130318,-1225.752797
653.669862,888.247130,-10807.006753,-229.828649
653.670186,814.226536,-10881.027347,459.657299
653.670510,1036.288319,-10881.027347,766.095498
653.670834,814.226536,-10066.800811,-1378.971896
653.671158,-1184.329507,-9326.594869,-1915.238745
653.671482,-3182.885551,-9326.594869,-1378.971896
653.671806,-1776.494261,-9474.636058,-612.876398
653.672130,592.164754,-9104.533087,459.657299
653.672454,1036.288319,-9326.594869,842.705048
653.672778,148.041188,-8808.450710,-689.485948
653.673102,-1036.288319,-8512.368333,-1455.581446
653.673426,-1554.432478,-7328.038826,-1685.410096
653.673750,-962.267725,-7624.121203,-842.705048
653.674074,74.020594,-9104.533087,766.095498
653.674398,518.144159,-9326.594869,229.828649
653.674722,1036.288319,-7698.141797,0.000000
653.675046,666.185348,-7550.100608,-76.609550
653.675370,1036.288319,-9622.677246,0.000000
653.675694,444.123565,-10658.965565,-383.047749
653.676018,444.123565,-9400.615463,0.000000
653.676342,370.102971,-9030.512492,229.828649
653.676666,592.164754,-10584.944971,-995.924147
653.676990,74.020594,-11325.150913,-306.438199
653.677314,-592.164754,-11695.253884,612.876398
653.677638,-592.164754,-10732.986159,-306.438199
653.677962,-518.144159,-9992.780217,-1302.362347
653.678286,-814.226536,-9992.780217,-689.485948
653.678610,-222.061783,-11695.253884,383.047749
653.678934,518.144159,-12361.439231,76.609550
653.679258,74.020594,-9844.739029,0.000000
653.679582,-370.102971,-9178.553681,153.219100
653.679906,-518.144159,-10584.944971,229.828649
653.680230,-148.041188,-10510.924376,0.000000
653.680554,-296.082377,-8956.491898,536.266849
653.680878,-296.082377,-7994.224174,842.705048
653.681202,-222.061783,-8956.491898,229.828649
653.681526,0.000000,-9400.615463,536.266849
653.681850,1258.350101,-8438.347739,2604.724693
653.682174,2738.761985,-8438.347739,1378.971896
653.682498,2220.617826,-8808.450710,306.438199
653.682822,-740.205942,-9474.636058,306.438199
653.683146,-2072.576638,-9474.636058,1072.533697
653.683470,-296.082377,-8808.450710,842.705048
653.683794,592.164754,-9622.677246,995.924147
653.684118,0.000000,-10214.842000,1532.190996
653.684442,518.144159,-10658.965565,1302.362347
653.684766,1628.453072,-10658.965565,1608.800546
653.685090,1332.370696,-9770.718434,76.609550
653.685414,-740.205942,-8734.430116,76.609550
653.685738,-2664.741391,-9844.739029,-153.219100
653.686062,-2664.741391,-10881.027347,153.219100
653.686386,0.000000,-9696.697840,689.485948
653.686710,1924.535449,-8808.450710,1225.752797
653.687034,1258.350101,-9770.718434,612.876398
653.687358,222.061783,-10584.944971,689.485948
653.687683,518.144159,-9400.615463,1149.143247
653.688007,592.164754,-8290.306550,842.705048
653.688331,-962.267725,-8068.244768,306.438199
653.688655,-2590.720797,-9252.574275,-229.828649
653.688979,-1628.453072,-7772.162391,76.609550
653.689303,296.082377,-7254.018232,-842.705048
653.689627,370.102971,-7772.162391,-612.876398
653.689951,222.061783,-9474.636058,-459.657299
653.690275,1332.370696,-9992.780217,-995.924147
653.690599,1998.556043,-9474.636058,536.266849
653.690923,2368.659014,-9622.677246,536.266849
653.691247,1480.411884,-10732.986159,-383.047749
653.691571,370.102971,-11547.212695,-2068.457845
653.691895,-370.102971,-10658.965565,-1302.362347
653.692219,518.144159,-10955.047942,-2068.457845
653.692543,814.226536,-11399.171507,-1225.752797
653.692867,148.041188,-12287.418637,383.047749
653.693191,148.041188,-11843.295072,0.000000
653.693515,74.020594,-10066.800811,-1225.752797
653.693839,-1332.370696,-9696.697840,-2298.286494
653.694163,-2368.659014,-10510.924376,-3140.991542
653.694487,-2072.576638,-10732.986159,-2757.943793
653.694811,-1036.288319,-10066.800811,-1838.629195
653.695135,-1184.329507,-9992.780217,-229.828649
653.695459,-740.205942,-9622.677246,229.828649
653.695783,-370.102971,-9918.759623,-842.705048
653.696107,-888.247130,-8660.409521,-1149.143247
653.696431,-444.123565,-8364.327145,-689.485948
653.696755,222.061783,-9918.759623,-229.828649
653.697079,444.123565,-11399.171507,0.000000
653.697403,888.247130,-10584.944971,1532.190996
653.697727,2368.659014,-9030.512492,1915.238745
653.698051,2368.659014,-9474.636058,612.876398
653.698375,740.205942,-9474.636058,-536.266849
653.698699,-296.082377,-9992.780217,-306.438199
653.699023,-444.123565,-9918.759623,306.438199
653.699347,740.205942,-9474.636058,-306.438199
653.699671,592.164754,-9474.636058,306.438199
653.699995,222.061783,-9548.656652,459.657299
653.700319,370.102971,-8734.430116,-536.266849
653.700643,-296.082377,-8438.347739,-459.657299
653.700967,-1258.350101,-8882.471304,536.266849
653.701291,-1554.432478,-9770.718434,612.876398
653.701615,-1554.432478,-9844.739029,689.485948
653.701939,-1036.288319,-8438.347739,1762.019645
653.702263,0.000000,-7476.080014,919.314598
653.702587,370.102971,-8660.409521,766.095498
653.702911,148.041188,-8512.368333,766.095498
653.703235,518.144159,-7550.100608,1225.752797
653.703559,740.205942,-7179.997637,689.485948
653.703883,814.226536,-8734.430116,0.000000
653.704207,-148.041188,-9918.759623,-306.438199
653.704531,-888.247130,-9548.656652,0.000000
653.704855,518.144159,-8586.388927,-842.705048
653.705179,1110.308913,-9992.780217,-459.657299
653.705503,1036.288319,-11547.212695,-383.047749
653.705827,1110.308913,-12287.418637,76.609550
653.706151,296.082377,-11843.295072,0.000000
653.706475,0.000000,-11473.192101,-229.828649
653.706799,-444.123565,-10881.027347,-229.828649
653.707123,-1628.453072,-11621.233289,-229.828649
653.707447,-2220.617826,-11325.150913,-383.047749
653.707771,-1628.453072,-10288.862594,-229.828649
653.708095,-222.061783,-11251.130318,-459.657299
653.708419,-1110.308913,-12509.480420,-459.657299
653.708743,-1554.432478,-9992.780217,-612.876398
653.709067,-1110.308913,-7846.182985,459.657299
653.709391,-370.102971,-9474.636058,-153.219100
653.709715,-370.102971,-10214.842000,-1072.533697
653.710039,-1184.329507,-9992.780217,-459.657299
653.710363,-814.226536,-9474.636058,306.438199
653.710687,814.226536,-8808.450710,229.828649
653.711011,1628.453072,-8364.327145,0.000000
653.711335,1110.308913,-8660.409521,612.876398
653.711659,1480.411884,-9400.615463,1072.533697
653.711983,2294.638420,-9326.594869,842.705048
653.712307,2146.597232,-8438.347739,612.876398
653.712631,444.123565,-9252.574275,1072.533697
653.712955,-370.102971,-9918.759623,766.095498
653.713279,-518.144159,-9474.636058,1072.533697
653.713603,-962.267725,-9770.718434,919.314598
653.713927,-444.123565,-9770.718434,766.095498
653.714251,0.000000,-9474.636058,0.000000
653.714576,222.061783,-9474.636058,0.000000
653.714900,666.185348,-8808.450710,153.219100
653.715224,-592.164754,-9474.636058,0.000000
653.715548,-1850.514855,-10214.842000,-229.828649
653.715872,-962.267725,-9696.697840,76.609550
653.716196,814.226536,-8734.430116,459.657299
653.716520,1480.411884,-7328.038826,-306.438199
653.716844,518.144159,-8586.388927,689.485948
653.717168,74.020594,-8956.491898,153.219100
653.717492,740.205942,-7994.224174,-306.438199
653.717816,1258.350101,-7920.203579,76.609550
653.718140,2072.576638,-8142.265362,536.266849
653.718464,2368.659014,-9030.512492,919.314598
653.718788,1258.350101,-9252.574275,153.219100
653.719112,-814.226536,-8808.450710,306.438199
653.719436,-2294.638420,-9252.574275,-842.705048
653.719760,-2442.679609,-9474.636058,-1991.848295
653.720084,-1998.556043,-11399.171507,-842.705048
653.720408,370.102971,-10955.047942,-1532.190996
653.720732,2220.617826,-10510.924376,-1915.238745
653.721056,1628.453072,-11695.253884,-612.876398
653.721380,666.185348,-13323.706956,-842.705048
653.721704,370.102971,-13841.851115,-1149.143247
653.722028,-1184.329507,-12139.377449,-995.924147
653.722352,-592.164754,-11917.315666,0.000000
653.722676,74.020594,-12657.521608,-842.705048
653.723000,0.000000,-11991.336260,-766.095498
653.723324,0.000000,-10288.862594,0.000000
653.723648,-444.123565,-9918.759623,-612.876398
653.723972,-814.226536,-10066.800811,-1225.752797
653.724296,-2738.761985,-10066.800811,-1378.971896
653.724620,-3552.988522,-8956.491898,-612.876398
653.724944,-2072.576638,-7772.162391,-1149.143247
653.725268,-666.185348,-8364.327145,-1072.533697
653.725592,0.000000,-8956.491898,229.828649
653.725917,1036.288319,-8956.491898,536.266849
653.726241,1406.391290,-8586.388927,919.314598
653.726565,1332.370696,-9252.574275,919.314598
653.726889,1258.350101,-10288.862594,1072.533697
653.727213,740.205942,-9696.697840,919.314598
653.727537,370.102971,-9474.636058,1455.581446
653.727861,370.102971,-9104.533087,1302.362347
653.728185,592.164754,-8882.471304,1225.752797
653.728510,74.020594,-10658.965565,1608.800546
653.728834,-1332.370696,-9696.697840,689.485948
653.729158,-1850.514855,-6587.832884,383.047749
653.729482,-2738.761985,-6661.853478,153.219100
653.729806,-2738.761985,-8734.430116,-766.095498
653.730130,-2442.679609,-10140.821405,-306.438199
653.730454,-444.123565,-8660.409521,919.314598
653.730778,888.247130,-7105.977043,842.705048
653.731102,74.020594,-8734.430116,612.876398
653.731427,222.061783,-8586.388927,1072.533697
653.731751,2368.659014,-8068.244768,1762.019645
653.732075,3849.070898,-8068.244768,1378.971896
653.732399,3182.885551,-7624.121203,306.438199
653.732723,1406.391290,-8660.409521,689.485948
653.733047,814.226536,-11177.109724,919.314598
653.733371,814.226536,-10807.006753,842.705048
653.733695,1184.329507,-9400.615463,306.438199
653.734020,-592.164754,-8882.471304,459.657299
653.734344,-2072.576638,-10732.986159,-1378.971896
653.734668,-1332.370696,-11399.171507,-1455.581446
653.734992,296.082377,-11029.068536,0.000000
653.735316,1036.288319,-12065.356855,76.609550
653.735640,444.123565,-12361.439231,-459.657299
653.735964,-148.041188,-12065.356855,-383.047749
653.736288,592.164754,-10510.924376,-919.314598
653.736612,1628.453072,-10732.986159,-1225.752797
653.736937,74.020594,-11991.336260,-459.657299
653.737261,-962.267725,-12139.377449,-229.828649
653.737585,518.144159,-9918.759623,-306.438199
653.737909,1184.329507,-9770.718434,153.219100
653.738233,1184.329507,-9548.656652,-383.047749
653.738557,592.164754,-10510.924376,-919.314598
653.738881,-740.205942,-9918.759623,-689.485948
653.739205,-1110.308913,-8956.491898,-1072.533697
653.739530,-1924.535449,-8660.409521,-689.485948
653.739854,-3182.885551,-9252.574275,-383.047749
653.740178,-3256.906145,-8956.491898,-536.266849
653.740502,-1480.411884,-7920.203579,229.828649
653.740826,592.164754,-8290.306550,-536.266849
653.741150,1480.411884,-8808.450710,1378.971896
653.741474,1184.329507,-9548.656652,229.828649
653.741798,888.247130,-9770.718434,1685.410096
653.742123,814.226536,-9622.677246,1608.800546
653.742447,-296.082377,-9770.718434,536.266849
653.742771,-1924.535449,-9770.718434,1072.533697
653.743095,-1406.391290,-9178.553681,842.705048
653.743419,740.205942,-8660.409521,229.828649
653.743743,518.144159,-8216.285956,0.000000
653.744067,-1406.391290,-8586.388927,842.705048
653.744391,-2590.720797,-9474.636058,-153.219100
653.744715,-2590.720797,-7550.100608,-689.485948
653.745040,-2738.761985,-6883.915261,-306.438199
653.745364,-3034.844362,-7254.018232,-995.924147
653.745688,-1998.556043,-8142.265362,-612.876398
653.746012,0.000000,-7179.997637,229.828649
653.746336,2368.659014,-7328.038826,383.047749
653.746660,2442.679609,-7179.997637,229.828649
653.746984,2220.617826,-8660.409521,766.095498
653.747308,1110.308913,-9992.780217,229.828649
653.747633,592.164754,-9622.677246,-766.095498
653.747957,592.164754,-9622.677246,-995.924147
653.748281,444.123565,-11399.171507,-229.828649
653.748605,1258.350101,-13323.706956,0.000000
653.748929,2294.638420,-11251.130318,-383.047749
653.749253,1850.514855,-9474.636058,-766.095498
653.749577,74.020594,-11029.068536,-1838.629195
653.749901,-962.267725,-12805.562797,-2298.286494
653.750225,-2220.617826,-12657.521608,-2068.457845
653.750550,-2072.576638,-11103.089130,-1608.800546
653.750874,-888.247130,-11177.109724,-1991.848295
653.751198,0.000000,-12065.356855,-995.924147
653.751522,0.000000,-12953.603985,-536.266849
653.751846,444.123565,-12065.356855,0.000000
653.752170,740.205942,-10584.944971,-612.876398
653.752494,592.164754,-10066.800811,-306.438199
653.752818,296.082377,-11029.068536,-306.438199
653.753143,1702.473667,-10955.047942,229.828649
653.753467,2886.803174,-10066.800811,306.438199
653.753791,2516.700203,-8956.491898,0.000000
653.754115,1036.288319,-8734.430116,76.609550
653.754439,-740.205942,-9252.574275,306.438199
653.754763,-814.226536,-7698.141797,-306.438199
653.755087,-370.102971,-7846.182985,0.000000
653.755411,0.000000,-9326.594869,689.485948
653.755735,0.000000,-10732.986159,1532.190996
653.756060,0.000000,-9992.780217,1072.533697
653.756384,-370.102971,-7402.059420,919.314598
653.756708,-296.082377,-6587.832884,0.000000
653.757032,-814.226536,-8290.306550,153.219100
653.757356,-1406.391290,-8586.388927,0.000000
653.757680,-1332.370696,-7624.121203,1302.362347
653.758004,-370.102971,-7994.224174,2528.115143
653.758328,296.082377,-8956.491898,1685.410096
653.758653,-370.102971,-8808.450710,306.438199
653.758977,-2146.597232,-7402.059420,689.485948
653.759301,-1702.473667,-7846.182985,1225.752797
653.759625,-740.205942,-7920.203579,1072.533697
653.759949,-1184.329507,-8290.306550,2374.896044
653.760273,-592.164754,-7698.141797,1915.238745
653.760597,444.123565,-7328.038826,1072.533697
653.760921,222.061783,-8290.306550,536.266849
653.761246,-518.144159,-8808.450710,842.705048
653.761570,-666.185348,-9918.759623,1149.143247
653.761894,0.000000,-9474.636058,612.876398
653.762218,1036.288319,-9696.697840,0.000000
653.762542,2664.741391,-11251.130318,919.314598
653.762866,3552.988522,-12879.583391,689.485948
653.763190,3330.926739,-12213.398043,-153.219100
653.763514,1776.494261,-10881.027347,306.438199
653.763838,444.123565,-10510.924376,-536.266849
653.764163,-962.267725,-11325.150913,-1608.800546
653.764487,-1998.556043,-11843.295072,0.000000
653.764811,-1110.308913,-10658.965565,76.609550
653.765135,-666.185348,-10658.965565,-612.876398
653.765459,-2072.576638,-10732.986159,0.000000
653.765783,-2664.741391,-10584.944971,-383.047749
653.766107,-2886.803174,-9400.615463,-995.924147
653.766431,-2738.761985,-9326.594869,-1378.971896
653.766756,-1850.514855,-9104.533087,-995.924147
653.767080,0.000000,-10658.965565,-306.438199
653.767404,1628.453072,-10510.924376,0.000000
653.767728,3256.906145,-9326.594869,76.609550
653.768052,3108.864956,-9474.636058,-459.657299
653.768376,2072.576638,-10214.842000,-1149.143247
653.768700,1998.556043,-11177.109724,-689.485948
653.769024,2590.720797,-10436.903782,76.609550
653.769348,2738.761985,-9992.780217,229.828649
653.769673,1480.411884,-9992.780217,-306.438199
653.769997,74.020594,-10584.944971,306.438199
653.770321,-740.205942,-10288.862594,76.609550
653.770645,-1258.350101,-9770.718434,-536.266849
653.770969,-2072.576638,-8512.368333,-995.924147
653.771293,-2886.803174,-7920.203579,-1378.971896
653.771617,-1998.556043,-8142.265362,-306.438199
653.771941,-518.144159,-7698.141797,76.609550
653.772266,0.000000,-7624.121203,-612.876398
653.772590,-1628.453072,-7994.224174,-383.047749
653.772914,-2220.617826,-9104.533087,-536.266849
653.773238,-1036.288319,-8660.409521,-766.095498
653.773562,74.020594,-7179.997637,-1302.362347
653.773886,814.226536,-6957.935855,-689.485948
653.774210,814.226536,-8142.265362,-229.828649
653.774534,1406.391290,-8068.244768,-306.438199
653.774859,2146.597232,-8216.285956,995.924147
653.775183,1406.391290,-9400.615463,995.924147
653.775507,296.082377,-9844.739029,0.000000
653.775831,-1554.432478,-9844.739029,-383.047749
653.776155,-1332.370696,-8956.491898,-153.219100
653.776479,-296.082377,-8660.409521,-1225.752797
653.776803,1184.329507,-10510.924376,-229.828649
653.777127,1110.308913,-11769.274478,-229.828649
653.777451,1036.288319,-11177.109724,-612.876398
653.777776,-296.082377,-10807.006753,-1378.971896
653.778100,-1628.453072,-11473.192101,-2451.505594
653.778424,-1110.308913,-13101.645173,-1149.143247
653.778748,-740.205942,-13397.727550,-1378.971896
653.779072,-518.144159,-11769.274478,-306.438199
653.779396,-814.226536,-11399.171507,-229.828649
653.779720,-518.144159,-12213.398043,459.657299
653.780044,296.082377,-13101.645173,459.657299
653.780369,-296.082377,-11177.109724,153.219100
653.780693,-1184.329507,-8216.285956,919.314598
653.781017,-1258.350101,-9400.615463,689.485948
653.781341,-1480.411884,-10732.986159,-383.047749
653.781665,-1924.535449,-9548.656652,-689.485948
653.781989,-1406.391290,-7476.080014,612.876398
653.782313,296.082377,-8216.285956,0.000000
653.782637,1628.453072,-9400.615463,306.438199
653.782961,2368.659014,-9252.574275,1225.752797
653.783286,2368.659014,-7846.182985,1838.629195
653.783610,2072.576638,-8660.409521,995.924147
653.783934,1110.308913,-10214.842000,1225.752797
653.784258,814.226536,-10362.883188,612.876398
653.784582,444.123565,-9770.718434,1072.533697
653.784906,1332.370696,-9400.615463,1915.238745
653.785230,1998.556043,-9474.636058,1915.238745
653.785554,1332.370696,-9030.512492,1608.800546
653.785879,0.000000,-8068.244768,919.314598
653.786203,-592.164754,-7994.224174,1838.629195
653.786527,-814.226536,-7624.121203,-995.924147
653.786851,-2664.741391,-6957.935855,-306.438199
653.787175,-3701.029710,-8364.327145,919.314598
653.787499,-2516.700203,-8956.491898,536.266849
653.787823,-1480.411884,-8142.265362,995.924147
653.788147,-1110.308913,-6439.791695,383.047749
653.788472,-888.247130,-7179.997637,0.000000
653.788796,518.144159,-9326.594869,0.000000
653.789120,2368.659014,-9474.636058,766.095498
653.789444,3701.029710,-9252.574275,1685.410096
653.789768,3182.885551,-9844.739029,1225.752797
653.790092,1850.514855,-11029.068536,459.657299
653.790416,740.205942,-11473.192101,1532.190996
653.790740,1924.535449,-11251.130318,229.828649
653.791064,1554.432478,-11177.109724,-153.219100
653.791389,-222.061783,-10732.986159,-689.485948
653.791713,-1702.473667,-10436.903782,-306.438199
653.792037,-888.247130,-10436.903782,-1072.533697
653.792361,-740.205942,-10807.006753,-1915.238745
653.792685,-1998.556043,-11177.109724,-1225.752797
653.793009,-2146.597232,-11399.171507,-1532.190996
653.793333,-1776.494261,-10658.965565,-1608.800546
653.793657,-1184.329507,-10436.903782,-153.219100
653.793982,-592.164754,-11177.109724,-229.828649
653.794306,-592.164754,-11621.233289,-536.266849
653.794630,148.041188,-11621.233289,-306.438199
653.794954,2146.597232,-10955.047942,306.438199
653.795278,3701.029710,-10288.862594,0.000000
653.795602,2664.741391,-10140.821405,-459.657299
653.795926,74.020594,-9548.656652,-689.485948
653.796250,-740.205942,-8364.327145,-766.095498
653.796574,0.000000,-8142.265362,-995.924147
653.796899,0.000000,-8956.491898,-459.657299
653.797223,-370.102971,-8956.491898,-766.095498
653.797547,-666.185348,-7402.059420,-1302.362347
653.797871,-1554.432478,-7624.121203,-1608.800546
653.798195,-2220.617826,-9474.636058,-1149.143247
653.798519,-1554.432478,-10881.027347,-766.095498
653.798843,-1332.370696,-9474.636058,-689.485948
653.799167,-1628.453072,-8956.491898,0.000000
653.799492,-2220.617826,-8956.491898,-1149.143247
653.799816,-962.267725,-9400.615463,-1532.190996
653.800140,-296.082377,-10362.883188,0.000000
653.800464,1184.329507,-10288.862594,612.876398
653.800788,3108.864956,-10066.800811,306.438199
653.801112,2886.803174,-9622.677246,1455.581446
653.801436,2220.617826,-10584.944971,1149.143247
653.801760,444.123565,-9992.780217,-306.438199
653.802084,-1776.494261,-7550.100608,-2145.067394
653.802409,-3182.885551,-7402.059420,-1608.800546
653.802733,-2294.638420,-9326.594869,-536.266849
653.803057,148.041188,-9474.636058,229.828649
653.803381,1480.411884,-7624.121203,1149.143247
653.803705,1332.370696,-7254.018232,229.828649
653.804029,0.000000,-7550.100608,-1532.190996
653.804353,-592.164754,-9474.636058,-1378.971896
653.804677,-962.267725,-9622.677246,-229.828649
653.805002,-370.102971,-8882.471304,0.000000
653.805326,0.000000,-9474.636058,-229.828649
653.805650,592.164754,-10881.027347,-306.438199
653.805974,1924.535449,-10955.047942,-766.095498
653.806298,3404.947333,-10881.027347,-153.219100
653.806622,3108.864956,-12139.377449,-536.266849
653.806946,1702.473667,-13175.665768,-306.438199
653.807270,444.123565,-13471.748144,766.095498
653.807595,-296.082377,-12657.521608,1072.533697
653.807919,-962.267725,-12065.356855,0.000000
653.808243,-2812.782580,-11177.109724,229.828649
653.808567,-3849.070898,-10955.047942,0.000000
653.808891,-2960.823768,-9844.739029,-153.219100
653.809215,-1554.432478,-8068.244768,76.609550
653.809539,-1184.329507,-8216.285956,383.047749
653.809863,-2146.597232,-9326.594869,306.438199
653.810187,-2294.638420,-9474.636058,229.828649
653.810512,-740.205942,-8068.244768,383.047749
653.810836,592.164754,-7698.141797,766.095498
653.811160,1036.288319,-8068.244768,1302.362347
653.811484,0.000000,-9104.533087,1532.190996
653.811808,1110.308913,-8882.471304,1991.848295
653.812132,2442.679609,-8364.327145,1915.238745
653.812456,2960.823768,-8956.491898,1149.143247
653.812780,1776.494261,-9844.739029,1685.410096
653.813105,1406.391290,-10584.944971,1149.143247
653.813429,1332.370696,-9548.656652,1532.190996
653.813753,74.020594,-9400.615463,842.705048
653.814077,-1776.494261,-9326.594869,76.609550
653.814401,-2960.823768,-8882.471304,-689.485948
653.814725,-2368.659014,-8586.388927,-459.657299
653.815049,-962.267725,-9178.553681,76.609550
653.815373,-296.082377,-9400.615463,153.219100
653.815697,-1406.391290,-9622.677246,306.438199
653.816022,-1628.453072,-9622.677246,229.828649
653.816346,-592.164754,-9474.636058,919.314598
653.816670,74.020594,-9548.656652,-306.438199
653.816994,0.000000,-9252.574275,612.876398
653.817318,592.164754,-8660.409521,0.000000
653.817642,1924.535449,-8660.409521,459.657299
653.817966,2886.803174,-9030.512492,229.828649
653.818290,1776.494261,-9696.697840,153.219100
653.818615,740.205942,-9548.656652,-536.266849
653.818939,444.123565,-9030.512492,-995.924147
653.819263,1258.350101,-9548.656652,-536.266849
653.819587,1702.473667,-10732.986159,-306.438199
653.819911,1110.308913,-10955.047942,-536.266849
653.820235,370.102971,-10510.924376,-766.095498
653.820559,592.164754,-9548.656652,-995.924147
653.820883,148.041188,-9474.636058,-1915.238745
653.821208,-962.267725,-10436.903782,-2451.505594
653.821532,-1258.350101,-11177.109724,-842.705048
653.821856,148.041188,-11473.192101,-842.705048
653.822180,1184.329507,-11695.253884,-612.876398
653.822504,1036.288319,-11251.130318,0.000000
653.822828,888.247130,-11251.130318,306.438199
653.823152,-296.082377,-10807.006753,-612.876398
653.823476,-962.267725,-10140.821405,-612.876398
653.823800,-1702.473667,-10584.944971,0.000000
653.824125,-962.267725,-10807.006753,459.657299
653.824449,148.041188,-9918.759623,0.000000
653.824773,0.000000,-7846.182985,-995.924147
653.825097,-888.247130,-6957.935855,-1532.190996
653.825421,-1480.411884,-9326.594869,-1149.143247
653.825745,-888.247130,-11843.295072,0.000000
653.826069,-444.123565,-9400.615463,153.219100
653.826393,-518.144159,-7105.977043,459.657299
653.826717,-1036.288319,-7402.059420,-229.828649
653.827041,-814.226536,-10510.924376,-459.657299
653.827365,370.102971,-12139.377449,536.266849
653.827689,1554.432478,-9696.697840,689.485948
653.828013,1998.556043,-8586.388927,1072.533697
653.828337,888.247130,-9030.512492,1072.533697
653.828661,518.144159,-10140.821405,1532.190996
653.828985,370.102971,-10140.821405,383.047749
653.829309,518.144159,-9622.677246,0.000000
653.829633,-148.041188,-9178.553681,-536.266849
653.829957,-740.205942,-9844.739029,76.609550
653.830281,-592.164754,-9326.594869,0.000000
653.830605,-370.102971,-8068.244768,306.438199
653.830929,-1036.288319,-7994.224174,-306.438199
653.831253,-2368.659014,-9474.636058,-689.485948
653.831577,-3478.967927,-10436.903782,-153.219100
653.831901,-2960.823768,-7698.141797,-536.266849
653.832225,-1480.411884,-6883.915261,306.438199
653.832549,296.082377,-8808.450710,459.657299
653.832873,1850.514855,-11473.192101,1149.143247
653.833197,2220.617826,-11399.171507,1685.410096
653.833521,2368.659014,-8660.409521,995.924147
653.833845,2812.782580,-7550.100608,229.828649
653.834169,2960.823768,-10436.903782,-612.876398
653.834493,2220.617826,-11547.212695,-842.705048
653.834817,1554.432478,-10214.842000,-1072.533697
653.835141,888.247130,-10658.965565,-536.266849
653.835466,370.102971,-10732.986159,0.000000
653.835790,-222.061783,-11547.212695,-612.876398
653.836114,-370.102971,-10658.965565,383.047749
653.836438,-296.082377,-9696.697840,-919.314598
653.836762,-296.082377,-9548.656652,-1149.143247
653.837086,-1776.494261,-10732.986159,-1072.533697
653.837410,-2072.576638,-11029.068536,-383.047749
653.837734,-1480.411884,-10436.903782,459.657299
653.838058,-592.164754,-9918.759623,-612.876398
653.838382,-962.267725,-9770.718434,-842.705048
653.838706,-1184.329507,-10362.883188,-383.047749
653.839030,-444.123565,-11029.068536,229.828649
653.839354,1554.432478,-10510.924376,383.047749
653.839678,2368.659014,-8808.450710,-383.047749
653.840002,1184.329507,-9548.656652,842.705048
653.840326,666.185348,-11399.171507,306.438199
653.840650,296.082377,-10510.924376,76.609550
653.840974,222.061783,-9252.574275,153.219100
653.841298,-444.123565,-8734.430116,-153.219100
653.841622,-1406.391290,-9548.656652,0.000000
653.841946,-1850.514855,-8882.471304,306.438199
653.842270,-1036.288319,-7476.080014,1072.533697
653.842594,0.000000,-7476.080014,612.876398
653.842918,-370.102971,-7846.182985,306.438199
653.843242,-222.061783,-7698.141797,536.266849
653.843566,222.061783,-7328.038826,536.266849
653.843890,518.144159,-7476.080014,153.219100
653.844214,-296.082377,-8734.430116,995.924147
653.844538,-222.061783,-9992.780217,1302.362347
653.844862,1184.329507,-9326.594869,229.828649
653.845186,1924.535449,-9104.533087,-229.828649
653.845510,1406.391290,-9252.574275,76.609550
653.845834,814.226536,-9918.759623,229.828649
653.846158,0.000000,-9400.615463,229.828649
653.846482,-1184.329507,-9326.594869,383.047749
653.846806,-2220.617826,-9326.594869,459.657299
653.847130,-2442.679609,-9992.780217,-1532.190996
653.847454,-2738.761985,-9696.697840,-766.095498
653.847778,-1628.453072,-9474.636058,-306.438199
653.848102,-148.041188,-9770.718434,-689.485948
653.848426,222.061783,-10140.821405,0.000000
653.848750,-592.164754,-10436.903782,229.828649
653.849075,74.020594,-10807.006753,76.609550
653.849399,1480.411884,-11325.150913,-995.924147
653.849723,1332.370696,-11547.212695,-1225.752797
653.850047,-444.123565,-11103.089130,-1072.533697
653.850371,-666.185348,-10362.883188,-1532.190996
653.850695,370.102971,-10955.047942,-1685.410096
653.851019,1110.308913,-11399.171507,-1225.752797
653.851343,0.000000,-10732.986159,-1608.800546
653.851667,-1406.391290,-10288.862594,-1991.848295
653.851991,-1184.329507,-10066.800811,-1455.581446
653.852315,-1258.350101,-10288.862594,-1378.971896
653.852639,-1924.535449,-10807.006753,-1608.800546
653.852963,-2886.803174,-10807.006753,-1378.971896
653.853287,-1776.494261,-9770.718434,-1072.533697
653.853611,1036.288319,-9770.718434,-306.438199
653.853935,3182.885551,-9844.739029,766.095498
653.854259,2664.741391,-10140.821405,536.266849
653.854583,1850.514855,-10214.842000,-153.219100
653.854907,1184.329507,-10214.842000,0.000000
653.855231,888.247130,-10436.903782,-842.705048
653.855555,148.041188,-10658.965565,-842.705048
653.855879,-296.082377,-10807.006753,-229.828649
653.856203,444.123565,-11029.068536,153.219100
653.856527,74.020594,-10066.800811,-306.438199
653.856851,0.000000,-9400.615463,-153.219100
653.857175,-518.144159,-8734.430116,-306.438199
653.857499,0.000000,-8512.368333,383.047749
653.857823,592.164754,-8142.265362,229.828649
653.858147,888.247130,-7846.182985,306.438199
653.858471,0.000000,-7402.059420,1378.971896
653.858795,-370.102971,-7402.059420,383.047749
653.859119,0.000000,-7031.956449,-229.828649
653.859443,-222.061783,-7328.038826,-383.047749
653.859767,0.000000,-7624.121203,-229.828649
653.860091,740.205942,-8956.491898,842.705048
653.860415,2072.576638,-9548.656652,1378.971896
653.860739,2664.741391,-8290.306550,1149.143247
653.861063,1998.556043,-8364.327145,995.924147
653.861387,-222.061783,-10140.821405,612.876398
653.861711,-2146.597232,-10140.821405,-536.266849
653.862035,-1850.514855,-8512.368333,-842.705048
653.862360,-1332.370696,-8734.430116,459.657299
653.862684,-888.247130,-10288.862594,229.828649
653.863008,-592.164754,-11103.089130,1378.971896
653.863332,0.000000,-10288.862594,1455.581446
653.863656,222.061783,-11177.109724,-153.219100
653.863980,-444.123565,-10955.047942,-1608.800546
653.864304,-1406.391290,-11103.089130,-383.047749
653.864628,-1332.370696,-11103.089130,536.266849
653.864952,-444.123565,-11029.068536,153.219100
653.865276,-1036.288319,-10436.903782,459.657299
653.865600,-1554.432478,-10066.800811,-383.047749
653.865924,-814.226536,-9992.780217,-306.438199
653.866248,518.144159,-10066.800811,153.219100
653.866572,518.144159,-9474.636058,689.485948
653.866896,-888.247130,-10066.800811,766.095498
653.867220,-2146.597232,-10510.924376,0.000000
653.867544,-2072.576638,-9770.718434,0.000000
653.867868,-1480.411884,-9622.677246,0.000000
653.868192,-444.123565,-9844.739029,153.219100
653.868516,74.020594,-10066.800811,612.876398
653.868840,1406.391290,-9992.780217,383.047749
653.869164,2220.617826,-9622.677246,612.876398
653.869488,2886.803174,-10362.883188,0.000000
653.869812,2516.700203,-11177.109724,306.438199
653.870136,2146.597232,-11399.171507,689.485948
653.870460,1850.514855,-10955.047942,766.095498
653.870784,1258.350101,-9918.759623,0.000000
653.871108,0.000000,-9030.512492,-842.705048
653.871432,-1036.288319,-9030.512492,-919.314598
653.871756,74.020594,-9178.553681,-1225.752797
653.872080,1110.308913,-8586.388927,-612.876398
653.872404,666.185348,-7698.141797,536.266849
653.872728,-370.102971,-7550.100608,1302.362347
653.873052,-296.082377,-8512.368333,383.047749
653.873376,-2072.576638,-7105.977043,229.828649
653.873700,-1850.514855,-6661.853478,-536.266849
653.874024,-1036.288319,-7254.018232,-1608.800546
653.874348,74.020594,-8142.265362,-459.657299
653.874672,2146.597232,-8734.430116,689.485948
653.874996,4589.276840,-9474.636058,842.705048
653.875320,4293.194464,-9992.780217,-306.438199
653.875644,1628.453072,-10955.047942,459.657299
653.875969,74.020594,-11325.150913,-1225.752797
653.876293,-296.082377,-10732.986159,-1991.848295
653.876617,-962.267725,-10732.986159,-2068.457845
653.876941,-1406.391290,-10658.965565,-1302.362347
653.877265,-1628.453072,-12065.356855,-1608.800546
653.877589,-1628.453072,-10955.047942,-766.095498
653.877913,-1480.411884,-9474.636058,-1225.752797
653.878237,-1998.556043,-9844.739029,-2068.457845
653.878561,-3108.864956,-10955.047942,-1532.190996
653.878885,-2960.823768,-10732.986159,-1762.019645
653.879209,-2294.638420,-9104.533087,-919.314598
653.879533,-1776.494261,-8956.491898,-995.924147
653.879857,-2220.617826,-10214.842000,-995.924147
653.880181,-1480.411884,-10288.862594,-153.219100
653.880505,148.041188,-9178.553681,536.266849
653.880829,2294.638420,-9400.615463,-536.266849
653.881153,1110.308913,-9992.780217,-766.095498
653.881477,-2146.597232,-10584.944971,-1225.752797
653.881801,-3330.926739,-10955.047942,-1455.581446
653.882125,-3701.029710,-10807.006753,-2221.676944
653.882449,-3923.091493,-10066.800811,-2834.553343
653.882773,-4145.153275,-9030.512492,-2221.676944
653.883097,-3108.864956,-9326.594869,-2451.505594
653.883421,-962.267725,-8808.450710,-1685.410096
653.883745,888.247130,-7846.182985,-995.924147
653.884069,1850.514855,-8808.450710,-612.876398
653.884393,1628.453072,-10288.862594,0.000000
653.884717,1036.288319,-11177.109724,0.000000
653.885041,-666.185348,-10362.883188,-153.219100
653.885365,-2738.761985,-10510.924376,-1532.190996
653.885689,-4515.256246,-11103.089130,-1838.629195
653.886013,-4441.235652,-11251.130318,-2374.896044
653.886337,-4293.194464,-9696.697840,-2604.724693
653.886661,-3775.050304,-8586.388927,-2528.115143
653.886985,-3404.947333,-8068.244768,-3294.210641
653.887309,-2664.741391,-7846.182985,-3064.381992
653.887633,-1332.370696,-7328.038826,-2451.505594
653.887957,-814.226536,-7772.162391,-1915.238745
653.888281,-1184.329507,-7476.080014,-1991.848295
653.888605,-1184.329507,-7254.018232,-1991.848295
653.888929,-1332.370696,-9178.553681,-1762.019645
653.889253,-962.267725,-10066.800811,-1838.629195
653.889578,-1480.411884,-9474.636058,-2834.553343
653.889902,-1776.494261,-9992.780217,-2681.334243
653.890226,-1998.556043,-11917.315666,-2528.115143
653.890550,-2072.576638,-13249.686362,-3600.648841
653.890874,-2442.679609,-11843.295072,-3217.601092
653.891198,-2442.679609,-10510.924376,-2681.334243
653.891522,-2146.597232,-11473.192101,-2451.505594
653.891846,-1628.453072,-11399.171507,-2451.505594
653.892170,-592.164754,-11177.109724,-1838.629195
653.892494,-740.205942,-9770.718434,-1378.971896
653.892818,-666.185348,-10066.800811,-2298.286494
653.893142,-1184.329507,-10140.821405,-2528.115143
653.893466,-1554.432478,-9474.636058,-2221.676944
653.893790,-2516.700203,-9474.636058,-2221.676944
653.894114,-3552.988522,-9104.533087,-3830.477490
653.894438,-5255.462188,-8808.450710,-4290.134789
653.894762,-5625.565159,-9992.780217,-3064.381992
653.895086,-4589.276840,-11325.150913,-3370.820191
653.895410,-3923.091493,-11399.171507,-2987.772442
653.895734,-3701.029710,-9770.718434,-1915.238745
653.896058,-2220.617826,-9918.759623,-842.705048
653.896382,-370.102971,-10955.047942,-153.219100
653.896706,666.185348,-9622.677246,0.000000
653.897030,888.247130,-7698.141797,459.657299
653.897354,1258.350101,-8956.491898,0.000000
653.897678,1332.370696,-9918.759623,-536.266849
653.898002,-296.082377,-9548.656652,-919.314598
653.898326,-1924.535449,-7402.059420,-1532.190996
653.898650,-2960.823768,-6661.853478,-1915.238745
653.898974,-4071.132681,-8438.347739,-2604.724693
653.899298,-4885.359217,-9104.533087,-2911.162892
653.899622,-6143.709319,-9474.636058,-2374.896044
653.899946,-7105.977043,-9770.718434,-2528.115143
653.900270,-6291.750507,-9326.594869,-2451.505594
653.900594,-4589.276840,-8808.450710,-1838.629195
653.900918,-3034.844362,-8586.388927,-1685.410096
653.901242,-2368.659014,-8438.347739,-1302.362347
653.901566,-1258.350101,-9252.574275,-919.314598
653.901890,0.000000,-8882.471304,-1302.362347
653.902214,1258.350101,-9178.553681,-459.657299
653.902538,1628.453072,-9326.594869,-1072.533697
653.902863,1406.391290,-9474.636058,-1991.848295
653.903187,444.123565,-11029.068536,-1838.629195
653.903511,-518.144159,-12213.398043,-2145.067394
653.903835,-2072.576638,-12213.398043,-2911.162892
653.904159,-2664.741391,-11325.150913,-2221.676944
653.904483,-2738.761985,-10214.842000,-2604.724693
653.904807,-2590.720797,-9992.780217,-2834.553343
653.905131,-3034.844362,-9622.677246,-3294.210641
653.905455,-4219.173869,-8660.409521,-3370.820191
653.905779,-4811.338623,-8290.306550,-4060.306139
653.906103,-4959.379811,-8734.430116,-2987.772442
653.906427,-3849.070898,-9326.594869,-2987.772442
653.906751,-2960.823768,-8808.450710,-3294.210641
653.907075,-2442.679609,-8734.430116,-3217.601092
653.907399,-2220.617826,-10881.027347,-2528.115143
653.907723,-1850.514855,-12287.418637,-2604.724693
653.908047,-1184.329507,-11325.150913,-2987.772442
653.908371,-1628.453072,-10584.944971,-1915.238745
653.908695,-1924.535449,-11843.295072,-2221.676944
653.909019,-1406.391290,-10881.027347,-3753.867940
653.909343,-1480.411884,-10066.800811,-3447.429741
653.909667,-2368.659014,-10510.924376,-3064.381992
653.909991,-2220.617826,-12583.501014,-2987.772442
653.910315,-1850.514855,-11473.192101,-3217.601092
653.910639,-1332.370696,-9326.594869,-2604.724693
653.910963,-1628.453072,-9104.533087,-1915.238745
653.911287,-592.164754,-9252.574275,-2528.115143
653.911611,0.000000,-9252.574275,-2987.772442
653.911935,-592.164754,-7476.080014,-1838.629195
653.912259,444.123565,-7846.182985,-1072.533697
653.912583,888.247130,-8660.409521,-1378.971896
653.912907,-592.164754,-8808.450710,-1685.410096
653.913231,-2368.659014,-8512.368333,-1149.143247
653.913555,-2590.720797,-8882.471304,-1915.238745
653.913879,-2368.659014,-8956.491898,-2911.162892
653.914203,-3849.070898,-7698.141797,-2911.162892
653.914527,-3478.967927,-8068.244768,-1685.410096
653.914851,-1554.432478,-9400.615463,-2298.286494
653.915175,-888.247130,-9844.739029,-1762.019645
653.915499,-1998.556043,-9252.574275,-995.924147
653.915823,-2886.803174,-9326.594869,-995.924147
653.916147,-2664.741391,-10288.862594,-1149.143247
653.916472,-2368.659014,-10584.944971,-1225.752797
653.916796,-2294.638420,-9844.739029,-995.924147
653.917120,-3108.864956,-11177.109724,-995.924147
653.917444,-3478.967927,-11621.233289,-1685.410096
653.917768,-2368.659014,-10584.944971,-1149.143247
653.918092,-1850.514855,-9770.718434,-1302.362347
653.918416,-3849.070898,-10288.862594,-1762.019645
653.918740,-5625.565159,-10436.903782,-2145.067394
653.919064,-5181.441594,-9696.697840,-2221.676944
653.919388,-3997.112087,-8364.327145,-2298.286494
653.919712,-3552.988522,-8512.368333,-2911.162892
653.920036,-3701.029710,-9548.656652,-2298.286494
653.920360,-2886.803174,-9918.759623,-1455.581446
653.920684,-1332.370696,-8734.430116,-1302.362347
653.921008,-888.247130,-8438.347739,-1225.752797
653.921332,-1332.370696,-9770.718434,-766.095498
653.921656,-2960.823768,-10807.006753,-1225.752797
653.921980,-2886.803174,-10955.047942,-1302.362347
653.922304,-3775.050304,-10214.842000,-2145.067394
653.922628,-3478.967927,-10140.821405,-2221.676944
653.922952,-2368.659014,-10807.006753,-1608.800546
653.923276,-1258.350101,-10658.965565,-1608.800546
653.923600,-1036.288319,-9844.739029,-1991.848295
653.923924,-1776.494261,-9178.553681,-2451.505594
653.924248,-2812.782580,-9770.718434,-2604.724693
653.924572,-2146.597232,-9844.739029,-2298.286494
653.924896,-740.205942,-8586.388927,-2374.896044
653.925220,-444.123565,-7476.080014,-3907.087040
653.925544,-2072.576638,-10510.924376,-3447.429741
653.925869,-4071.132681,-13397.727550,-2757.943793
653.926193,-3478.967927,-12583.501014,-3983.696590
653.926517,-2368.659014,-9252.574275,-3753.867940
653.926841,-1184.329507,-8216.285956,-2604.724693
653.927165,-296.082377,-8956.491898,-2374.896044
653.927489,814.226536,-9770.718434,-1991.848295
653.927813,518.144159,-8438.347739,-1608.800546
653.928137,0.000000,-7476.080014,-1685.410096
653.928462,222.061783,-7994.224174,-1532.190996
653.928786,1110.308913,-7994.224174,-1302.362347
653.929110,1554.432478,-7698.141797,-1225.752797
653.929434,666.185348,-8660.409521,-2221.676944
653.929758,-2146.597232,-11695.253884,-3140.991542
653.930082,-4663.297435,-13249.686362,-3294.210641
653.930406,-5181.441594,-12139.377449,-3753.867940
653.930731,-5329.482782,-10214.842000,-3140.991542
653.931055,-5699.585753,-9326.594869,-3600.648841
653.931379,-4589.276840,-9326.594869,-3217.601092
653.931703,-1776.494261,-9030.512492,-2221.676944
653.932027,592.164754,-8586.388927,-2145.067394
653.932351,1110.308913,-8364.327145,-1149.143247
653.932675,740.205942,-8956.491898,-1225.752797
653.932999,222.061783,-9844.739029,-1378.971896
653.933324,-1406.391290,-10362.883188,-1378.971896
653.933648,-3701.029710,-9918.759623,-1685.410096
653.933972,-4811.338623,-10362.883188,-2374.896044
653.934296,-4145.153275,-9992.780217,-2451.505594
653.934620,-2738.761985,-9548.656652,-2374.896044
653.934944,-1332.370696,-9844.739029,-2145.067394
653.935268,-962.267725,-10658.965565,-2451.505594
653.935592,-1554.432478,-10436.903782,-2145.067394
653.935917,-2738.761985,-9844.739029,-2374.896044
653.936241,-3997.112087,-9474.636058,-2451.505594
653.936565,-4737.318029,-9030.512492,-2528.115143
653.936889,-3923.091493,-9178.553681,-2451.505594
653.937213,-2664.741391,-9400.615463,-2221.676944
653.937537,-1554.432478,-9844.739029,-1762.019645
653.937861,-888.247130,-10362.883188,-1762.019645
653.938186,-1184.329507,-9474.636058,-1532.190996
653.938510,-2294.638420,-8956.491898,-2298.286494
653.938834,-3627.009116,-9474.636058,-1915.238745
653.939158,-4367.215058,-10362.883188,-2221.676944
653.939482,-4219.173869,-11029.068536,-2221.676944
653.939806,-3182.885551,-10362.883188,-1685.410096
653.940130,-2516.700203,-10362.883188,-1225.752797
653.940454,-2590.720797,-10881.027347,-1455.581446
653.940779,-3034.844362,-10510.924376,-1378.971896
653.941103,-3478.967927,-10140.821405,-1762.019645
653.941427,-3627.009116,-10955.047942,-2528.115143
653.941751,-2590.720797,-11991.336260,-2451.505594
653.942075,-666.185348,-10732.986159,-2451.505594
653.942399,666.185348,-8438.347739,-1915.238745
653.942723,740.205942,-7476.080014,-1532.190996
653.943047,148.041188,-7550.100608,-2757.943793
653.943372,-296.082377,-8216.285956,-2528.115143
653.943696,-1332.370696,-7772.162391,-2451.505594
653.944020,-1850.514855,-8512.368333,-2374.896044
653.944344,-3627.009116,-9178.553681,-2757.943793
653.944668,-5107.421000,-9918.759623,-2451.505594
653.944992,-5403.503377,-10807.006753,-2374.896044
653.945316,-4367.215058,-10955.047942,-2681.334243
653.945641,-3034.844362,-11029.068536,-1915.238745
653.945965,-1628.453072,-10658.965565,-1302.362347
653.946289,592.164754,-9770.718434,-689.485948
653.946613,2220.617826,-9178.553681,-766.095498
653.946937,2664.741391,-8882.471304,-1378.971896
653.947261,2516.700203,-9104.533087,-1378.971896
653.947585,2442.679609,-9548.656652,-1149.143247
653.947909,2368.659014,-10288.862594,-995.924147
653.948234,1110.308913,-9918.759623,-1685.410096
653.948558,-888.247130,-9770.718434,-1378.971896
653.948882,-2886.803174,-10658.965565,-2451.505594
653.949206,-5255.462188,-11399.171507,-2757.943793
653.949530,-6365.771101,-10658.965565,-3064.381992
653.949854,-6587.832884,-9400.615463,-2604.724693
653.950178,-5995.668130,-8142.265362,-2451.505594
653.950503,-4441.235652,-7994.224174,-1685.410096
653.950827,-1480.411884,-7624.121203,-995.924147
653.951151,296.082377,-7772.162391,-689.485948
653.951475,1406.391290,-8882.471304,-153.219100
653.951799,1480.411884,-9474.636058,306.438199
653.952123,1480.411884,-9400.615463,153.219100
653.952447,1036.288319,-9252.574275,-536.266849
653.952771,74.020594,-10214.842000,-1072.533697
653.953096,-1850.514855,-10807.006753,-995.924147
653.953420,-2960.823768,-11621.233289,-2298.286494
653.953744,-4515.256246,-10955.047942,-3064.381992
653.954068,-6217.729913,-9548.656652,-2681.334243
653.954392,-7254.018232,-9400.615463,-3140.991542
653.954716,-7772.162391,-8808.450710,-3753.867940
653.955040,-7476.080014,-8808.450710,-3294.210641
653.955364,-5477.523971,-8660.409521,-2221.676944
653.955689,-3182.885551,-9104.533087,-1685.410096
653.956013,-1332.370696,-9474.636058,-995.924147
653.956337,814.226536,-9474.636058,-612.876398
653.956661,1110.308913,-9992.780217,-383.047749
653.956985,1110.308913,-10807.006753,-1149.143247
653.957309,444.123565,-11399.171507,-1532.190996
653.957633,222.061783,-11251.130318,-1991.848295
653.957958,-444.123565,-10658.965565,-1991.848295
653.958282,-1554.432478,-10584.944971,-3064.381992
653.958606,-3627.009116,-10436.903782,-3294.210641
653.958930,-5773.606348,-9770.718434,-4826.401637
653.959254,-7105.977043,-9178.553681,-5209.449386
653.959578,-7698.141797,-8586.388927,-5286.058936
653.959902,-7031.956449,-8142.265362,-4673.182538
653.960226,-4219.173869,-7624.121203,-4060.306139
653.960551,-1776.494261,-7772.162391,-3600.648841
653.960875,0.000000,-8290.306550,-2145.067394
653.961199,1036.288319,-9770.718434,-2068.457845
653.961523,888.247130,-10732.986159,-1455.581446
653.961847,148.041188,-11769.274478,-1532.190996
653.962171,-592.164754,-12509.480420,-1838.629195
653.962495,-1776.494261,-12509.480420,-1991.848295
653.962819,-2368.659014,-13027.624579,-2757.943793
653.963144,-2368.659014,-13841.851115,-3370.820191
653.963468,-2294.638420,-12139.377449,-3294.210641
653.963792,-888.247130,-9844.739029,-3370.820191
653.964116,-1332.370696,-7698.141797,-3217.601092
653.964440,-962.267725,-6957.935855,-3830.477490
653.964764,-1332.370696,-6291.750507,-4290.134789
653.965088,-3108.864956,-6587.832884,-3907.087040
653.965413,-3997.112087,-7624.121203,-3140.991542
653.965737,-4219.173869,-7994.224174,-2681.334243
653.966061,-4219.173869,-7994.224174,-2757.943793
653.966385,-3701.029710,-7772.162391,-2145.067394
653.966709,-2368.659014,-8956.491898,-1762.019645
653.967033,-1110.308913,-10807.006753,-1378.971896
653.967357,-296.082377,-11843.295072,-842.705048
653.967681,0.000000,-12065.356855,-306.438199
653.968006,-444.123565,-11991.336260,-306.438199
653.968330,-1184.329507,-11695.253884,-1455.581446
653.968654,-962.267725,-10732.986159,-2068.457845
653.968978,0.000000,-9030.512492,-2911.162892
653.969302,1110.308913,-8734.430116,-2451.505594
653.969626,1480.411884,-9030.512492,-2221.676944
653.969950,814.226536,-9030.512492,-1915.238745
653.970275,-1554.432478,-8956.491898,-2451.505594
653.970599,-4515.256246,-8512.368333,-3140.991542
653.970923,-7031.956449,-8068.244768,-3217.601092
653.971247,-7476.080014,-7920.203579,-3370.820191
653.971571,-6587.832884,-9252.574275,-2451.505594
653.971895,-4959.379811,-11251.130318,-1302.362347
653.972219,-4293.194464,-12065.356855,-612.876398
653.972543,-3923.091493,-11917.315666,-229.828649
653.972868,-3552.988522,-11251.130318,-612.876398
653.973192,-2368.659014,-10362.883188,-383.047749
653.973516,-148.041188,-9992.780217,-536.266849
653.973840,2368.659014,-10214.842000,-229.828649
653.974164,3701.029710,-9918.759623,-612.876398
653.974488,3627.009116,-9548.656652,-842.705048
653.974812,2960.823768,-8512.368333,-1149.143247
653.975136,1776.494261,-7994.224174,-1302.362347
653.975461,-296.082377,-8364.327145,-2451.505594
653.975785,-4663.297435,-9400.615463,-2911.162892
653.976109,-9104.533087,-10584.944971,-3524.039291
653.976433,-10510.924376,-10658.965565,-3830.477490
653.976757,-9178.553681,-10140.821405,-3140.991542
653.977081,-7031.956449,-9030.512492,-2451.505594
653.977405,-5329.482782,-9252.574275,-1838.629195
653.977730,-4589.276840,-10140.821405,-1149.143247
653.978054,-2960.823768,-9622.677246,-1149.143247
653.978378,-888.247130,-9622.677246,0.000000
653.978702,1998.556043,-10214.842000,1302.362347
653.979026,4219.173869,-11103.089130,766.095498
653.979350,6365.771101,-9622.677246,306.438199
653.979674,6883.915261,-8142.265362,0.000000
653.979998,5181.441594,-9104.533087,-536.266849
653.980323,2072.576638,-11325.150913,-1072.533697
653.980647,-1480.411884,-10955.047942,-1762.019645
653.980971,-5699.585753,-9252.574275,-2911.162892
653.981295,-8808.450710,-8290.306550,-4136.915689
653.981619,-10955.047942,-8438.347739,-4826.401637
653.981943,-11621.233289,-8586.388927,-5515.887586
653.982267,-10807.006753,-7476.080014,-4903.011187
653.982592,-7920.203579,-6587.832884,-3600.648841
653.982916,-3478.967927,-7105.977043,-2451.505594
653.983240,-148.041188,-7846.182985,-1378.971896
653.983564,740.205942,-8512.368333,-689.485948
653.983888,2072.576638,-9696.697840,-383.047749
653.984212,4145.153275,-11917.315666,459.657299
653.984536,6809.894666,-12657.521608,459.657299
653.984860,7031.956449,-11769.274478,76.609550
653.985185,4959.379811,-11473.192101,-306.438199
653.985509,2294.638420,-13693.809927,-689.485948
653.985833,-1036.288319,-13989.892304,-2604.724693
653.986157,-3997.112087,-12361.439231,-3983.696590
653.986481,-8734.430116,-11325.150913,-3830.477490
653.986805,-10881.027347,-11325.150913,-4903.011187
653.987129,-10436.903782,-8808.450710,-6052.154434
653.987453,-9992.780217,-5477.523971,-5898.935335
653.987778,-9252.574275,-5995.668130,-4826.401637
653.988102,-7031.956449,-9400.615463,-4519.963438
653.988426,-3330.926739,-9178.553681,-3753.867940
653.988750,666.185348,-6809.894666,-1455.581446
653.989074,2812.782580,-7254.018232,-306.438199
653.989398,3256.906145,-11251.130318,-153.219100
653.989722,3404.947333,-13101.645173,-383.047749
653.990047,3256.906145,-11251.130318,-153.219100
653.990371,2294.638420,-11251.130318,-459.657299
653.990695,518.144159,-12583.501014,-1302.362347
653.991019,-1110.308913,-11843.295072,-1685.410096
653.991343,-2368.659014,-10362.883188,-2145.067394
653.991667,-4515.256246,-9400.615463,-3140.991542
653.991991,-6069.688724,-8734.430116,-4903.011187
653.992315,-6809.894666,-7994.224174,-4749.792088
653.992640,-6291.750507,-6587.832884,-3370.820191
653.992964,-4737.318029,-6587.832884,-3983.696590
653.993288,-3330.926739,-6957.935855,-4213.525239
653.993612,-3182.885551,-7254.018232,-3753.867940
653.993936,-2664.741391,-8882.471304,-2298.286494
653.994260,-1628.453072,-10881.027347,-2221.676944
653.994584,-814.226536,-11251.130318,-2451.505594
653.994908,-962.267725,-10881.027347,-153.219100
653.995233,-962.267725,-11843.295072,153.219100
653.995557,-370.102971,-12287.418637,-919.314598
653.995881,-592.164754,-11621.233289,-1608.800546
653.996205,-1110.308913,-10807.006753,-1762.019645
653.996529,-1036.288319,-9992.780217,-1762.019645
653.996853,-444.123565,-9622.677246,-2757.943793
653.997177,370.102971,-8068.244768,-2451.505594
653.997502,518.144159,-6291.750507,-2528.115143
653.997826,-888.247130,-6661.853478,-3677.258390
653.998150,-2294.638420,-8438.347739,-3524.039291
653.998474,-3034.844362,-8956.491898,-2757.943793
653.998798,-3997.112087,-8882.471304,-2834.553343
653.999122,-4737.318029,-9696.697840,-2604.724693
653.999446,-5181.441594,-10881.027347,-2374.896044
653.999770,-4885.359217,-11769.274478,-1915.238745
654.000095,-4663.297435,-12213.398043,-1762.019645
654.000419,-5107.421000,-11991.336260,-2068.457845
654.000743,-4737.318029,-10658.965565,-2528.115143
654.001067,-3182.885551,-9474.636058,-1915.238745
654.001391,0.000000,-9622.677246,-1302.362347
654.001715,1332.370696,-9992.780217,-1225.752797
654.002039,1184.329507,-10955.047942,0.000000
654.002364,592.164754,-11325.150913,-459.657299
654.002688,1332.370696,-9548.656652,-536.266849
654.003012,1036.288319,-9474.636058,-459.657299
654.003336,-740.205942,-9992.780217,-919.314598
654.003660,-3330.926739,-11251.130318,-1532.190996
654.003984,-5033.400406,-11843.295072,-1685.410096
654.004308,-5181.441594,-10658.965565,-1915.238745
654.004632,-4293.194464,-8882.471304,-1532.190996
654.004957,-4367.215058,-8364.327145,-2451.505594
654.005281,-5477.523971,-8586.388927,-1838.629195
654.005605,-4811.338623,-9104.533087,-1302.362347
654.005929,-3034.844362,-8438.347739,-1991.848295
654.006253,-1406.391290,-7179.997637,-1685.410096
654.006577,-888.247130,-6587.832884,-1532.190996
654.006901,148.041188,-7179.997637,-1608.800546
654.007225,888.247130,-8290.306550,-536.266849
654.007550,0.000000,-8882.471304,-995.924147
654.007874,-1480.411884,-9400.615463,-995.924147
654.008198,-2146.597232,-9844.739029,-1149.143247
654.008522,-1998.556043,-10288.862594,-1915.238745
654.008846,-1924.535449,-9992.780217,-1149.143247
654.009170,-3182.885551,-10436.903782,-1685.410096
654.009494,-4515.256246,-10807.006753,-2528.115143
654.009819,-4293.194464,-10732.986159,-1532.190996
654.010143,-2812.782580,-9178.553681,-1915.238745
654.010467,-1480.411884,-8216.285956,-2221.676944
654.010791,-1332.370696,-8808.450710,-842.705048
654.011115,1036.288319,-9696.697840,-1378.971896
654.011439,3404.947333,-9622.677246,-919.314598
654.011763,3108.864956,-8808.450710,-1762.019645
654.012087,1184.329507,-10214.842000,-1532.190996
654.012412,518.144159,-13027.624579,-1762.019645
654.012736,2368.659014,-14211.954086,-2068.457845
654.013060,1998.556043,-12435.459826,-1915.238745
654.013384,-1258.350101,-11843.295072,-1378.971896
654.013708,-3108.864956,-11991.336260,-1991.848295
654.014032,-3182.885551,-11251.130318,-2987.772442
654.014356,-2294.638420,-9622.677246,-3294.210641
654.014681,-148.041188,-7550.100608,-1608.800546
654.015005,1850.514855,-7624.121203,-689.485948
654.015329,2812.782580,-8882.471304,153.219100
654.015653,2146.597232,-7254.018232,229.828649
654.015977,814.226536,-7254.018232,995.924147
654.016301,-1110.308913,-9992.780217,0.000000
654.016625,-1850.514855,-10362.883188,-689.485948
654.016949,-1702.473667,-8808.450710,-229.828649
654.017274,-1924.535449,-8438.347739,-1225.752797
654.017598,-4811.338623,-10807.006753,-1072.533697
654.017922,-6365.771101,-12361.439231,-1378.971896
654.018246,-4885.359217,-10732.986159,-1915.238745
654.018570,-2812.782580,-8512.368333,-689.485948
654.018894,-1924.535449,-9030.512492,153.219100
654.019218,-1628.453072,-9770.718434,-229.828649
654.019542,-296.082377,-8586.388927,-383.047749
654.019867,1258.350101,-7624.121203,306.438199
654.020191,3478.967927,-8438.347739,383.047749
654.020515,5551.544565,-10140.821405,612.876398
654.020839,3627.009116,-9770.718434,2374.896044
654.021163,1406.391290,-8734.430116,2451.505594
654.021487,-1776.494261,-9178.553681,0.000000
654.021811,-3775.050304,-9844.739029,-1149.143247
654.022136,-4219.173869,-9326.594869,-766.095498
654.022460,-1184.329507,-9918.759623,842.705048
654.022784,814.226536,-10955.047942,1378.971896
654.023108,0.000000,-9400.615463,612.876398
654.023432,-1332.370696,-7846.182985,153.219100
654.023756,-1850.514855,-8216.285956,76.609550
654.024080,-666.185348,-9622.677246,-1378.971896
654.024404,222.061783,-9548.656652,-2068.457845
654.024729,74.020594,-9104.533087,-306.438199
654.025053,592.164754,-10140.821405,-1685.410096
654.025377,1998.556043,-11103.089130,-1838.629195
654.025701,2664.741391,-11325.150913,-306.438199
654.026025,2812.782580,-11769.274478,459.657299
654.026349,2072.576638,-12805.562797,76.609550
654.026673,2072.576638,-12139.377449,612.876398
654.026997,2368.659014,-11325.150913,1762.019645
654.027321,2886.803174,-12065.356855,612.876398
654.027645,962.267725,-11325.150913,766.095498
654.027969,-2072.576638,-10658.965565,842.705048
654.028293,-2294.638420,-9770.718434,536.266849
654.028617,-1036.288319,-8882.471304,-995.924147
654.028941,-518.144159,-7920.203579,-306.438199
654.029265,-1628.453072,-7254.018232,-1149.143247
654.029589,-2516.700203,-6661.853478,-2451.505594
654.029913,-3108.864956,-6439.791695,-2451.505594
654.030237,-1924.535449,-7328.038826,-1225.752797
654.030561,-666.185348,-7846.182985,-995.924147
654.030885,592.164754,-7624.121203,0.000000
654.031209,1480.411884,-8364.327145,1302.362347
654.031533,2220.617826,-9548.656652,2681.334243
654.031857,3034.844362,-9548.656652,2451.505594
654.032181,2590.720797,-10658.965565,3140.991542
654.032505,1406.391290,-10436.903782,3677.258390
654.032829,1850.514855,-9992.780217,1838.629195
654.033153,518.144159,-8660.409521,842.705048
654.033477,-1628.453072,-8364.327145,306.438199
654.033801,-2220.617826,-8734.430116,-995.924147
654.034125,-1850.514855,-8586.388927,-2068.457845
654.034449,-2072.576638,-8438.347739,-1608.800546
654.034773,-1332.370696,-9844.739029,-612.876398
654.035097,0.000000,-10658.965565,-306.438199
654.035421,74.020594,-10362.883188,-459.657299
654.035745,-666.185348,-9844.739029,-766.095498
654.036069,0.000000,-9918.759623,-536.266849
654.036393,1332.370696,-11547.212695,0.000000
654.036717,1776.494261,-11769.274478,919.314598
654.037041,814.226536,-10288.862594,1378.971896
654.037365,-222.061783,-9252.574275,1455.581446
654.037689,-1776.494261,-9696.697840,0.000000
654.038013,-2072.576638,-11177.109724,229.828649
654.038337,-888.247130,-11621.233289,459.657299
654.038661,148.041188,-10510.924376,0.000000
654.038985,222.061783,-9104.533087,-536.266849
654.039309,-148.041188,-9622.677246,76.609550
654.039633,148.041188,-10510.924376,-459.657299
654.039957,814.226536,-10881.027347,-1532.190996
654.040282,1110.308913,-10510.924376,-766.095498
654.040606,1406.391290,-10436.903782,-919.314598
654.040930,1184.329507,-11399.171507,-842.705048
654.041254,296.082377,-10955.047942,-919.314598
654.041578,-444.123565,-9326.594869,-842.705048
654.041902,-1036.288319,-9474.636058,-1072.533697
654.042226,-1554.432478,-10658.965565,-536.266849
654.042550,-1480.411884,-9622.677246,229.828649
654.042874,-740.205942,-8290.306550,919.314598
654.043198,148.041188,-7550.100608,612.876398
654.043522,592.164754,-8290.306550,842.705048
654.043846,0.000000,-8438.347739,536.266849
654.044170,-1480.411884,-7550.100608,-1225.752797
654.044494,-1332.370696,-5773.606348,-1378.971896
654.044818,-1110.308913,-6735.874072,-995.924147
654.045142,74.020594,-8734.430116,-919.314598
654.045466,370.102971,-9474.636058,-536.266849
654.045790,0.000000,-8956.491898,-995.924147
654.046114,-962.267725,-9030.512492,-306.438199
654.046438,-888.247130,-9844.739029,-1225.752797
654.046762,-740.205942,-10066.800811,-306.438199
654.047086,-222.061783,-9548.656652,-459.657299
654.047410,518.144159,-9474.636058,0.000000
654.047734,740.205942,-10288.862594,229.828649
654.048058,1036.288319,-10807.006753,306.438199
654.048382,1480.411884,-10658.965565,229.828649
654.048706,2072.576638,-10214.842000,76.609550
654.049030,1184.329507,-9918.759623,-306.438199
654.049354,-296.082377,-11769.274478,-459.657299
654.049678,-1554.432478,-11473.192101,-689.485948
654.050002,-1702.473667,-10881.027347,-1302.362347
654.050326,-814.226536,-10288.862594,-1302.362347
654.050650,0.000000,-10955.047942,-2145.067394
654.050974,-296.082377,-11399.171507,-1378.971896
654.051298,666.185348,-11695.253884,-689.485948
654.051622,370.102971,-10658.965565,0.000000
654.051946,-370.102971,-9992.780217,0.000000
654.052270,-1702.473667,-9918.759623,-459.657299
654.052594,-2368.659014,-9104.533087,76.609550
654.052918,-296.082377,-9252.574275,-153.219100
654.053242,740.205942,-8956.491898,0.000000
654.053566,814.226536,-9178.553681,842.705048
654.053890,1406.391290,-9844.739029,1685.410096
654.054214,1554.432478,-9770.718434,1072.533697
654.054538,814.226536,-9030.512492,0.000000
654.054862,0.000000,-9030.512492,-459.657299
654.055186,-888.247130,-10288.862594,-383.047749
654.055510,-148.041188,-10955.047942,-153.219100
654.055834,370.102971,-10658.965565,459.657299
654.056158,0.000000,-9918.759623,995.924147
654.056482,74.020594,-9326.594869,1072.533697
654.056806,-296.082377,-9400.615463,689.485948
654.057130,-148.041188,-9474.636058,229.828649
654.057454,-1110.308913,-8216.285956,536.266849
654.057778,-1850.514855,-8882.471304,1072.533697
654.058102,-2146.597232,-9104.533087,766.095498
654.058426,-1924.535449,-7179.997637,842.705048
654.058750,-1850.514855,-6365.771101,842.705048
654.059074,-962.267725,-7105.977043,0.000000
654.059398,666.185348,-7402.059420,-383.047749
654.059722,1998.556043,-7254.018232,1455.581446
654.060046,1628.453072,-7994.224174,1838.629195
654.060370,518.144159,-9548.656652,153.219100
654.060694,-592.164754,-9474.636058,-153.219100
654.061018,-888.247130,-9474.636058,0.000000
654.061342,0.000000,-10140.821405,-919.314598
654.061666,666.185348,-10288.862594,-1225.752797
654.061990,370.102971,-9326.594869,-995.924147
654.062315,370.102971,-8808.450710,-995.924147
654.062639,1258.350101,-10288.862594,-689.485948
654.062963,1332.370696,-12805.562797,229.828649
654.063287,666.185348,-14137.933492,919.314598
654.063611,74.020594,-12879.583391,612.876398
654.063935,-1258.350101,-10510.924376,842.705048
654.064259,-1480.411884,-9696.697840,-1072.533697
654.064583,-1480.411884,-10066.800811,-1225.752797
654.064907,-1776.494261,-11103.089130,-1072.533697
654.065231,-1850.514855,-11399.171507,-1532.190996
654.065555,-2072.576638,-9474.636058,-1225.752797
654.065879,-2072.576638,-8216.285956,-995.924147
654.066203,-1554.432478,-9030.512492,-1608.800546
654.066527,74.020594,-10584.944971,-919.314598
654.066851,814.226536,-9770.718434,-1072.533697
654.067175,1332.370696,-10214.842000,306.438199
654.067499,1628.453072,-10140.821405,536.266849
654.067823,2664.741391,-9992.780217,766.095498
654.068147,3330.926739,-9178.553681,1455.581446
654.068471,3182.885551,-9252.574275,383.047749
654.068795,2220.617826,-9474.636058,459.657299
654.069119,1036.288319,-10288.862594,153.219100
654.069443,666.185348,-9992.780217,612.876398
654.069767,0.000000,-8882.471304,459.657299
654.070091,-444.123565,-8364.327145,-306.438199
654.070415,-1776.494261,-9104.533087,-612.876398
654.070739,-2664.741391,-9400.615463,-1608.800546
654.071063,-2812.782580,-8512.368333,-1302.362347
654.071387,-1628.453072,-8068.244768,-536.266849
654.071711,370.102971,-8068.244768,229.828649
654.072035,1776.494261,-9992.780217,842.705048
654.072359,888.247130,-9622.677246,536.266849
654.072683,-518.144159,-7772.162391,-383.047749
654.073007,-1406.391290,-7402.059420,-1378.971896
654.073331,-1184.329507,-9252.574275,-306.438199
654.073655,1110.308913,-11029.068536,1762.019645
654.073979,2738.761985,-10288.862594,2604.724693
654.074303,2886.803174,-8808.450710,1225.752797
654.074627,1628.453072,-6883.915261,0.000000
654.074951,814.226536,-8734.430116,-919.314598
654.075275,370.102971,-11917.315666,-306.438199
654.075599,0.000000,-11769.274478,-459.657299
654.075923,-370.102971,-9104.533087,-459.657299
654.076247,-1258.350101,-9178.553681,612.876398
654.076571,-1924.535449,-11103.089130,-1378.971896
654.076895,-1110.308913,-11473.192101,-995.924147
654.077219,-1332.370696,-11103.089130,-766.095498
654.077543,-962.267725,-10955.047942,-919.314598
654.077867,-1406.391290,-11547.212695,-306.438199
654.078191,-962.267725,-11029.068536,306.438199
654.078515,-222.061783,-9918.759623,766.095498
654.078839,74.020594,-10584.944971,-306.438199
654.079163,-1776.494261,-11251.130318,-766.095498
654.079487,-1924.535449,-10436.903782,0.000000
654.079811,-370.102971,-9770.718434,1532.190996
654.080135,592.164754,-9030.512492,1378.971896
654.080459,962.267725,-8882.471304,612.876398
654.080783,-370.102971,-10436.903782,229.828649
654.081107,-888.247130,-10214.842000,0.000000
654.081431,-1036.288319,-8586.388927,-1302.362347
654.081755,-1702.473667,-7402.059420,-995.924147
654.082079,-1110.308913,-8068.244768,306.438199
654.082403,666.185348,-9918.759623,766.095498
654.082727,2738.761985,-10288.862594,689.485948
654.083051,2960.823768,-8808.450710,689.485948
654.083375,2812.782580,-8216.285956,689.485948
654.083699,3478.967927,-8808.450710,766.095498
654.084023,4071.132681,-9696.697840,1608.800546
654.084348,3182.885551,-10510.924376,1915.238745
654.084672,814.226536,-10214.842000,1378.971896
654.084996,-1332.370696,-10658.965565,459.657299
654.085320,-2072.576638,-9918.759623,306.438199
654.085644,-1406.391290,-8956.491898,0.000000
654.085968,-592.164754,-8142.265362,0.000000
654.086292,-518.144159,-9104.533087,306.438199
654.086616,-666.185348,-10362.883188,766.095498
654.086940,148.041188,-8808.450710,536.266849
654.087264,-444.123565,-7476.080014,-306.438199
654.087588,-1924.535449,-7105.977043,-919.314598
654.087912,-1998.556043,-7846.182985,-1455.581446
654.088236,-962.267725,-8586.388927,0.000000
654.088560,-296.082377,-9178.553681,1302.362347
654.088884,518.144159,-9474.636058,919.314598
654.089208,1332.370696,-9400.615463,689.485948
654.089532,1998.556043,-9474.636058,153.219100
654.089856,2886.803174,-9844.739029,919.314598
654.090180,2368.659014,-10807.006753,459.657299
654.090504,296.082377,-10658.965565,-153.219100
654.090828,-2368.659014,-9178.553681,-306.438199
654.091152,-2220.617826,-9326.594869,-306.438199
654.091476,-1776.494261,-10436.903782,-919.314598
654.091800,-1184.329507,-10436.903782,-766.095498
654.092124,-1628.453072,-9548.656652,-689.485948
654.092448,-1480.411884,-10288.862594,-1072.533697
654.092772,-592.164754,-9918.759623,-2145.067394
654.093096,-444.123565,-9474.636058,-612.876398
654.093420,-1258.350101,-11103.089130,0.000000
654.093744,-1628.453072,-11843.295072,-536.266849
654.094068,-2886.803174,-9548.656652,-1072.533697
654.094392,-2368.659014,-8290.306550,-689.485948
654.094716,0.000000,-9770.718434,-536.266849
654.095040,1776.494261,-12213.398043,76.609550
654.095364,2294.638420,-12731.542202,766.095498
654.095688,1628.453072,-11103.089130,-459.657299
654.096012,0.000000,-10362.883188,-689.485948
654.096336,-962.267725,-10658.965565,-919.314598
654.096660,0.000000,-11251.130318,-1838.629195
654.096984,0.000000,-10807.006753,-1378.971896
654.097308,74.020594,-9992.780217,-766.095498
654.097632,148.041188,-9918.759623,-689.485948
654.097956,814.226536,-9400.615463,-1302.362347
654.098280,1480.411884,-8290.306550,-995.924147
654.098604,1850.514855,-9030.512492,76.609550
654.098928,888.247130,-10140.821405,0.000000
654.099252,-296.082377,-10214.842000,459.657299
654.099576,-1406.391290,-8660.409521,459.657299
654.099900,-1628.453072,-7402.059420,-689.485948
654.100224,-1924.535449,-7328.038826,-689.485948
654.100548,-1036.288319,-8734.430116,-995.924147
654.100872,0.000000,-9770.718434,229.828649
654.101196,2220.617826,-8290.306550,1838.629195
654.101520,2960.823768,-7476.080014,1149.143247
654.101844,1776.494261,-8512.368333,766.095498
654.102168,0.000000,-9474.636058,383.047749
654.102492,-518.144159,-9622.677246,306.438199
654.102816,-740.205942,-9474.636058,76.609550
654.103140,-592.164754,-8142.265362,-153.219100
654.103464,-740.205942,-7105.977043,153.219100
654.103788,-296.082377,-7772.162391,0.000000
654.104112,-370.102971,-8364.327145,-459.657299
654.104436,-444.123565,-8512.368333,-536.266849
654.104760,-74.020594,-9696.697840,459.657299
654.105084,370.102971,-10510.924376,689.485948
654.105408,1924.535449,-9104.533087,689.485948
654.105732,1850.514855,-9400.615463,0.000000
654.106056,814.226536,-10881.027347,153.219100
654.106381,-222.061783,-12213.398043,-689.485948
654.106705,-370.102971,-12139.377449,612.876398
654.107029,888.247130,-11547.212695,536.266849
654.107353,2146.597232,-10807.006753,766.095498
654.107677,1554.432478,-11177.109724,306.438199
654.108001,370.102971,-11843.295072,-536.266849
654.108325,-1258.350101,-10881.027347,-766.095498
654.108649,-2072.576638,-10807.006753,-995.924147
654.108973,-3182.885551,-10362.883188,-153.219100
654.109297,-3108.864956,-9844.739029,-842.705048
654.109621,-2738.761985,-9844.739029,229.828649
654.109945,-1480.411884,-10066.800811,612.876398
654.110269,0.000000,-11029.068536,766.095498
654.110593,666.185348,-11917.315666,1072.533697
654.110917,1184.329507,-10066.800811,842.705048
654.111241,2072.576638,-8438.347739,306.438199
654.111565,1554.432478,-9178.553681,229.828649
654.111889,888.247130,-10140.821405,766.095498
654.112213,592.164754,-10510.924376,1532.190996
654.112537,814.226536,-8512.368333,919.314598
654.112861,1258.350101,-7698.141797,689.485948
654.113185,1332.370696,-8882.471304,842.705048
654.113509,1036.288319,-9252.574275,383.047749
654.113833,-666.185348,-8734.430116,-229.828649
654.114157,-2442.679609,-6883.915261,229.828649
654.114481,-2664.741391,-6513.812290,766.095498
654.114805,-1628.453072,-8290.306550,0.000000
654.115129,-1258.350101,-8216.285956,1685.410096
654.115453,-1480.411884,-6957.935855,1455.581446
654.115777,-1184.329507,-6513.812290,76.609550
654.116101,-1924.535449,-7105.977043,0.000000
654.116425,-888.247130,-8660.409521,459.657299
654.116749,444.123565,-9030.512492,689.485948
654.117073,592.164754,-9030.512492,153.219100
654.117397,296.082377,-8586.388927,229.828649
654.117721,296.082377,-9770.718434,-306.438199
654.118045,296.082377,-10658.965565,-766.095498
654.118369,814.226536,-9770.718434,-1072.533697
654.118693,666.185348,-9844.739029,-1149.143247
654.119017,666.185348,-11325.150913,-612.876398
654.119341,1554.432478,-12139.377449,-459.657299
654.119665,2146.597232,-11621.233289,0.000000
654.119989,1850.514855,-10807.006753,-766.095498
654.120313,962.267725,-10881.027347,-995.924147
654.120637,-888.247130,-12435.459826,-842.705048
654.120961,-2664.741391,-12139.377449,-995.924147
654.121285,-2738.761985,-10584.944971,-1225.752797
654.121609,-1554.432478,-9474.636058,-1608.800546
654.121933,-148.041188,-10436.903782,-1685.410096
654.122257,740.205942,-11473.192101,-1608.800546
654.122581,1184.329507,-10955.047942,-1532.190996
654.122905,1184.329507,-9104.533087,-1608.800546
654.123229,222.061783,-9474.636058,-1608.800546
654.123553,0.000000,-11399.171507,-1608.800546
654.123877,-518.144159,-12139.377449,-612.876398
654.124201,-592.164754,-11547.212695,-689.485948
654.124525,0.000000,-10214.842000,-153.219100
654.124849,74.020594,-10732.986159,-689.485948
654.125173,0.000000,-10807.006753,-995.924147
654.125497,740.205942,-9030.512492,383.047749
654.125821,1332.370696,-9474.636058,995.924147
654.126145,1480.411884,-10510.924376,1378.971896
654.126469,0.000000,-9400.615463,306.438199
654.126794,-888.247130,-6809.894666,-229.828649
654.127118,-740.205942,-6217.729913,-459.657299
654.127442,74.020594,-8290.306550,-1532.190996
654.127766,148.041188,-9252.574275,-383.047749
654.128090,518.144159,-8142.265362,612.876398
654.128414,1258.350101,-7105.977043,919.314598
654.128738,2146.597232,-6661.853478,995.924147
654.129062,814.226536,-8290.306550,612.876398
654.129386,-1332.370696,-9030.512492,76.609550
654.129710,-2516.700203,-7772.162391,766.095498
654.130034,-2072.576638,-7254.018232,1225.752797
654.130358,-2146.597232,-7031.956449,1378.971896
654.130682,-888.247130,-8586.388927,1302.362347
654.131006,0.000000,-8142.265362,1532.190996
654.131330,666.185348,-8438.347739,1149.143247
654.131654,0.000000,-8512.368333,-612.876398
654.131978,-1332.370696,-8734.430116,-536.266849
654.132302,-1628.453072,-10066.800811,1149.143247
654.132626,74.020594,-10955.047942,612.876398
654.132950,518.144159,-11695.253884,153.219100
654.133274,296.082377,-11843.295072,229.828649
654.133598,1036.288319,-11473.192101,-842.705048
654.133922,2294.638420,-11769.274478,-306.438199
654.134247,2590.720797,-12879.583391,612.876398
654.134571,1406.391290,-12139.377449,919.314598
654.134895,-1110.308913,-11843.295072,-76.609550
654.135219,-3330.926739,-10955.047942,-459.657299
654.135543,-2886.803174,-10362.883188,-1378.971896
654.135867,-962.267725,-9992.780217,-995.924147
654.136191,-888.247130,-10436.903782,-766.095498
654.136515,-1554.432478,-11177.109724,-459.657299
654.136839,-1184.329507,-9992.780217,-153.219100
654.137163,444.123565,-8216.285956,-1072.533697
654.137487,814.226536,-9030.512492,-306.438199
654.137811,296.082377,-9992.780217,-612.876398
654.138135,592.164754,-10436.903782,-995.924147
654.138459,222.061783,-10288.862594,-766.095498
654.138783,444.123565,-10436.903782,-229.828649
654.139107,518.144159,-11399.171507,153.219100
654.139431,1332.370696,-11473.192101,919.314598
654.139755,1924.535449,-10881.027347,1991.848295
654.140079,3108.864956,-10584.944971,1378.971896
654.140403,2664.741391,-8956.491898,842.705048
654.140727,-148.041188,-9326.594869,689.485948
654.141051,-1702.473667,-9030.512492,383.047749
654.141375,-888.247130,-8734.430116,-229.828649
654.141700,-518.144159,-7920.203579,-306.438199
654.142024,-2072.576638,-6883.915261,766.095498
654.142348,-1850.514855,-7105.977043,1149.143247
654.142672,-444.123565,-6957.935855,383.047749
654.142996,1184.329507,-7179.997637,459.657299
654.143320,1480.411884,-8216.285956,0.000000
654.143644,1110.308913,-8956.491898,612.876398
654.143968,1776.494261,-8290.306550,1378.971896
654.144292,2146.597232,-7254.018232,1149.143247
654.144616,1776.494261,-7031.956449,2221.676944
654.144940,962.267725,-9104.533087,1608.800546
654.145264,370.102971,-8586.388927,1302.362347
654.145588,0.000000,-8142.265362,842.705048
654.145912,-666.185348,-7846.182985,-612.876398
654.146236,-1554.432478,-8216.285956,-383.047749
654.146560,-1110.308913,-9400.615463,-229.828649
654.146884,0.000000,-10066.800811,-306.438199
654.147208,-444.123565,-10881.027347,-229.828649
654.147532,-1184.329507,-10732.986159,-229.828649
654.147856,-1406.391290,-10807.006753,-1149.143247
654.148180,-666.185348,-11473.192101,-1225.752797
654.148504,-296.082377,-12065.356855,-2145.067394
654.148828,-444.123565,-11991.336260,-1685.410096
654.149153,-444.123565,-12879.583391,-383.047749
654.149477,740.205942,-13619.789333,689.485948
654.149801,1924.535449,-13175.665768,1302.362347
654.150125,2072.576638,-12361.439231,306.438199
654.150449,0.000000,-11547.212695,-383.047749
654.150773,-1406.391290,-11473.192101,-1455.581446
654.151097,-1924.535449,-10584.944971,-1608.800546
654.151421,-2220.617826,-10436.903782,-1608.800546
654.151745,-1702.473667,-9474.636058,0.000000
654.152069,-592.164754,-9326.594869,0.000000
654.152393,-740.205942,-9252.574275,-1378.971896
654.152717,-2294.638420,-9104.533087,-1532.190996
654.153041,-2886.803174,-8734.430116,-1991.848295
654.153365,-1702.473667,-9252.574275,-2298.286494
654.153689,-1480.411884,-9178.553681,-689.485948
654.154013,-370.102971,-8882.471304,229.828649
654.154337,1036.288319,-8808.450710,1302.362347
654.154661,2368.659014,-9696.697840,842.705048
654.154985,2812.782580,-10288.862594,229.828649
654.155309,2960.823768,-8660.409521,995.924147
654.155633,3256.906145,-8586.388927,536.266849
654.155957,2738.761985,-9992.780217,1149.143247
654.156281,1628.453072,-10214.842000,1378.971896
654.156606,444.123565,-8438.347739,689.485948
654.156930,-666.185348,-7105.977043,-229.828649
654.157254,-1332.370696,-7105.977043,-995.924147
654.157578,0.000000,-7846.182985,-766.095498
654.157902,814.226536,-9104.533087,-229.828649
654.158226,0.000000,-8068.244768,153.219100
654.158550,-1480.411884,-7105.977043,-612.876398
654.158874,-2368.659014,-6291.750507,-306.438199
654.159198,-1998.556043,-8290.306550,306.438199
654.159522,-1110.308913,-9326.594869,536.266849
654.159846,-592.164754,-8068.244768,76.609550
654.160170,-518.144159,-7254.018232,153.219100
654.160494,296.082377,-9400.615463,1455.581446
654.160818,2146.597232,-10955.047942,1149.143247
654.161142,2368.659014,-10510.924376,1378.971896
654.161466,1332.370696,-8808.450710,153.219100
654.161790,-444.123565,-9696.697840,-229.828649
654.162114,-888.247130,-11991.336260,-995.924147
654.162438,148.041188,-11769.274478,-766.095498
654.162762,370.102971,-11325.150913,76.609550
654.163086,0.000000,-11547.212695,-536.266849
654.163410,-1036.288319,-12139.377449,-1915.238745
654.163734,-1850.514855,-11843.295072,-1532.190996
654.164058,-2220.617826,-11251.130318,-1072.533697
654.164383,-1628.453072,-11029.068536,-1532.190996
654.164707,-1924.535449,-11399.171507,-689.485948
654.165031,-1702.473667,-11547.212695,0.000000
654.165355,-888.247130,-11399.171507,0.000000
654.165679,0.000000,-10807.006753,0.000000
654.166003,1628.453072,-9326.594869,153.219100
654.166327,2368.659014,-9622.677246,0.000000
654.166651,666.185348,-9770.718434,0.000000
654.166975,592.164754,-9770.718434,536.266849
654.167299,592.164754,-10584.944971,306.438199
654.167623,-370.102971,-10955.047942,0.000000
654.167947,-1110.308913,-10140.821405,-1225.752797
654.168271,-1258.350101,-8290.306550,-1225.752797
654.168595,0.000000,-8512.368333,-995.924147
654.168919,1184.329507,-9992.780217,306.438199
654.169243,1776.494261,-10658.965565,229.828649
654.169567,888.247130,-9474.636058,383.047749
654.169891,1036.288319,-8734.430116,459.657299
654.170215,1776.494261,-9474.636058,459.657299
654.170539,1628.453072,-9918.759623,459.657299
654.170863,444.123565,-8882.471304,919.314598
