#time,accel_x,accel_y,accel_z
449.998166,2146.597232,-10362.883188,2068.457845
449.998490,1628.453072,-12213.398043,3600.648841
449.998814,-740.205942,-12213.398043,2451.505594
449.999138,-3701.029710,-10658.965565,383.047749
449.999462,-5477.523971,-8364.327145,-766.095498
449.999786,-4737.318029,-7846.182985,-536.266849
450.000110,-2960.823768,-8068.244768,383.047749
450.000434,-1036.288319,-7402.059420,2374.896044
450.000758,2072.576638,-6217.729913,2068.457845
450.001082,4293.194464,-6217.729913,1762.019645
450.001406,5329.482782,-7105.977043,1455.581446
450.001730,5995.668130,-9696.697840,1532.190996
450.002054,5847.626942,-12731.542202,1302.362347
450.002378,4737.318029,-13175.665768,383.047749
450.002702,3034.844362,-12213.398043,0.000000
450.003026,1110.308913,-11843.295072,-459.657299
450.003350,296.082377,-11917.315666,-766.095498
450.003674,-740.205942,-11991.336260,-842.705048
450.003998,-592.164754,-11547.212695,-229.828649
450.004322,222.061783,-10436.903782,459.657299
450.004646,296.082377,-9474.636058,995.924147
450.004970,444.123565,-8586.388927,1302.362347
450.005294,1184.329507,-8438.347739,995.924147
450.005618,1924.535449,-9326.594869,842.705048
450.005942,2220.617826,-10288.862594,919.314598
450.006266,3108.864956,-10658.965565,1072.533697
450.006590,3701.029710,-10288.862594,766.095498
450.006914,4441.235652,-10362.883188,229.828649
450.007238,3701.029710,-11103.089130,0.000000
450.007562,2886.803174,-11547.212695,0.000000
450.007886,2590.720797,-10658.965565,919.314598
450.008210,2812.782580,-9326.594869,1302.362347
450.008534,3552.988522,-8586.388927,2834.553343
450.008858,4367.215058,-8660.409521,2681.334243
450.009182,4219.173869,-8882.471304,3064.381992
450.009506,4071.132681,-8882.471304,3447.429741
450.009830,3552.988522,-8882.471304,2987.772442
450.010154,2664.741391,-8660.409521,3140.991542
450.010478,2516.700203,-9400.615463,3140.991542
450.010802,2294.638420,-9400.615463,3294.210641
450.011126,2072.576638,-10362.883188,3064.381992
450.011450,1406.391290,-11325.150913,2604.724693
450.011774,1184.329507,-11547.212695,2451.505594
450.012099,1776.494261,-10658.965565,2987.772442
450.012423,2294.638420,-9178.553681,3677.258390
450.012747,2812.782580,-8068.244768,3677.258390
450.013071,2960.823768,-7328.038826,4596.572988
450.013395,3330.926739,-6957.935855,4136.915689
450.013719,4515.256246,-6883.915261,4596.572988
450.014043,5255.462188,-7105.977043,4596.572988
450.014367,5181.441594,-6809.894666,4749.792088
450.014691,4145.153275,-6957.935855,4290.134789
450.015015,2368.659014,-8216.285956,4060.306139
450.015339,-296.082377,-10066.800811,3294.210641
450.015663,-3034.844362,-11103.089130,2757.943793
450.015987,-4071.132681,-11991.336260,2911.162892
450.016311,-3849.070898,-10584.944971,2757.943793
450.016635,-1554.432478,-9474.636058,3294.210641
450.016959,1258.350101,-8956.491898,3677.258390
450.017283,3627.009116,-8586.388927,3983.696590
450.017607,4293.194464,-8364.327145,4596.572988
450.017931,4441.235652,-8364.327145,3294.210641
450.018255,3404.947333,-8068.244768,1838.629195
450.018579,1850.514855,-8956.491898,1072.533697
450.018903,-148.041188,-9548.656652,766.095498
450.019227,-1554.432478,-10362.883188,459.657299
450.019551,-1850.514855,-10955.047942,229.828649
450.019875,-518.144159,-10658.965565,536.266849
450.020199,740.205942,-10807.006753,995.924147
450.020523,1406.391290,-11621.233289,1762.019645
450.020847,1554.432478,-11917.315666,1838.629195
450.021171,592.164754,-11621.233289,1608.800546
450.021495,-370.102971,-10955.047942,459.657299
450.021819,-1110.308913,-10066.800811,229.828649
450.022143,0.000000,-9252.574275,153.219100
450.022467,2368.659014,-8956.491898,0.000000
450.022791,3552.988522,-9400.615463,-995.924147
450.023115,3552.988522,-9178.553681,-1915.238745
450.023439,2294.638420,-9474.636058,-2451.505594
450.023763,1332.370696,-9770.718434,-2681.334243
450.024087,370.102971,-9474.636058,-2298.286494
450.024411,666.185348,-9992.780217,-1378.971896
450.024735,1850.514855,-10066.800811,-306.438199
450.025059,3182.885551,-10510.924376,229.828649
450.025383,3404.947333,-10955.047942,229.828649
450.025707,1998.556043,-11695.253884,-689.485948
450.026031,-1924.535449,-10658.965565,-1378.971896
450.026355,-4737.318029,-10214.842000,-1915.238745
450.026679,-5255.462188,-9548.656652,-2068.457845
450.027003,-3701.029710,-8956.491898,-2451.505594
450.027327,-962.267725,-8956.491898,-2374.896044
450.027651,1332.370696,-8808.450710,-2298.286494
450.027975,2516.700203,-8512.368333,-2374.896044
450.028300,3034.844362,-7920.203579,-2068.457845
450.028624,2368.659014,-7550.100608,-1378.971896
450.028948,2516.700203,-8660.409521,-689.485948
450.029272,2960.823768,-9992.780217,-383.047749
450.029596,3034.844362,-11029.068536,-229.828649
450.029920,1406.391290,-11843.295072,-306.438199
450.030244,-1406.391290,-12287.418637,-919.314598
450.030568,-3627.009116,-11029.068536,-1685.410096
450.030892,-5033.400406,-9548.656652,-2068.457845
450.031216,-5477.523971,-8512.368333,-1455.581446
450.031540,-3775.050304,-8956.491898,-766.095498
450.031864,-1628.453072,-9178.553681,-229.828649
450.032188,444.123565,-8882.471304,0.000000
450.032512,1332.370696,-8142.265362,76.609550
450.032836,1998.556043,-7920.203579,-536.266849
450.033161,2664.741391,-7846.182985,76.609550
450.033485,2886.803174,-8216.285956,383.047749
450.033809,2960.823768,-9622.677246,1149.143247
450.034133,814.226536,-11769.274478,459.657299
450.034457,-2146.597232,-12879.583391,0.000000
450.034781,-5033.400406,-12361.439231,-612.876398
450.035106,-6143.709319,-11251.130318,-612.876398
450.035430,-5403.503377,-10066.800811,-612.876398
450.035754,-3478.967927,-8956.491898,612.876398
450.036078,-148.041188,-8956.491898,2068.457845
450.036402,1776.494261,-8734.430116,1915.238745
450.036726,2220.617826,-9326.594869,2298.286494
450.037051,1332.370696,-8956.491898,1608.800546
450.037375,444.123565,-8438.347739,842.705048
450.037699,962.267725,-8734.430116,0.000000
450.038023,2072.576638,-9548.656652,459.657299
450.038347,2812.782580,-10881.027347,229.828649
450.038671,2664.741391,-12361.439231,612.876398
450.038996,962.267725,-12509.480420,689.485948
450.039320,-1184.329507,-11177.109724,229.828649
450.039644,-2738.761985,-9622.677246,306.438199
450.039968,-2812.782580,-8956.491898,689.485948
450.040292,-518.144159,-8956.491898,1225.752797
450.040616,1628.453072,-8808.450710,1608.800546
450.040941,2442.679609,-8660.409521,2221.676944
450.041265,1924.535449,-7920.203579,1915.238745
450.041589,1332.370696,-7550.100608,1149.143247
450.041913,962.267725,-7476.080014,536.266849
450.042237,814.226536,-8216.285956,0.000000
450.042561,592.164754,-9178.553681,0.000000
450.042886,74.020594,-10732.986159,-383.047749
450.043210,-518.144159,-11325.150913,-229.828649
450.043534,-1110.308913,-10881.027347,0.000000
450.043858,-1184.329507,-9474.636058,306.438199
450.044182,-888.247130,-8660.409521,536.266849
450.044506,222.061783,-8586.388927,459.657299
450.044831,1332.370696,-9104.533087,1149.143247
450.045155,1480.411884,-9252.574275,1149.143247
450.045479,1480.411884,-9178.553681,1149.143247
450.045803,1036.288319,-8068.244768,842.705048
450.046127,1184.329507,-7994.224174,306.438199
450.046451,1554.432478,-8586.388927,-306.438199
450.046776,1850.514855,-9326.594869,-842.705048
450.047100,1184.329507,-10584.944971,-919.314598
450.047424,0.000000,-11473.192101,-995.924147
450.047748,-814.226536,-11621.233289,-612.876398
450.048072,-962.267725,-10362.883188,-689.485948
450.048396,-1110.308913,-9622.677246,-459.657299
450.048721,296.082377,-10140.821405,0.000000
450.049045,1480.411884,-10658.965565,689.485948
450.049369,1332.370696,-11103.089130,995.924147
450.049693,222.061783,-10362.883188,995.924147
450.050017,-518.144159,-8882.471304,153.219100
450.050341,-1184.329507,-8216.285956,-459.657299
450.050666,-740.205942,-8660.409521,-229.828649
450.050990,148.041188,-9400.615463,-766.095498
450.051314,222.061783,-10214.842000,-919.314598
450.051638,-1036.288319,-11103.089130,-1149.143247
450.051962,-2442.679609,-10955.047942,-1608.800546
450.052286,-3256.906145,-9844.739029,-1455.581446
450.052611,-3182.885551,-9770.718434,-919.314598
450.052935,-1850.514855,-9622.677246,-689.485948
450.053259,-740.205942,-10214.842000,-306.438199
450.053583,-148.041188,-10288.862594,-153.219100
450.053907,-740.205942,-9844.739029,0.000000
450.054231,-1036.288319,-9326.594869,-612.876398
450.054556,-1110.308913,-8364.327145,-612.876398
450.054880,296.082377,-8586.388927,76.609550
450.055204,1184.329507,-8734.430116,-1302.362347
450.055528,1628.453072,-9622.677246,-1072.533697
450.055852,592.164754,-10510.924376,-689.485948
450.056176,-740.205942,-11399.171507,-1302.362347
450.056501,-1480.411884,-11251.130318,-1762.019645
450.056825,-2072.576638,-10584.944971,-1225.752797
450.057149,-1258.350101,-10066.800811,-1072.533697
450.057473,-296.082377,-9992.780217,-536.266849
450.057797,-296.082377,-10288.862594,-306.438199
450.058121,-592.164754,-9992.780217,-459.657299
450.058446,-1110.308913,-9252.574275,-766.095498
450.058770,-814.226536,-8586.388927,-842.705048
450.059094,370.102971,-7846.182985,-306.438199
450.059418,2072.576638,-8142.265362,-689.485948
450.059742,2590.720797,-9030.512492,-689.485948
450.060066,1258.350101,-9992.780217,-1225.752797
450.060391,-296.082377,-10510.924376,-919.314598
450.060715,-1406.391290,-10066.800811,-1532.190996
450.061039,-1184.329507,-9992.780217,-1072.533697
450.061363,-296.082377,-9770.718434,-536.266849
450.061687,888.247130,-10362.883188,-383.047749
450.062011,1184.329507,-9992.780217,229.828649
450.062336,1110.308913,-10584.944971,0.000000
450.062660,148.041188,-9918.759623,153.219100
450.062984,-370.102971,-9030.512492,-229.828649
450.063308,0.000000,-8290.306550,0.000000
450.063632,1110.308913,-8438.347739,0.000000
450.063956,2442.679609,-9030.512492,229.828649
450.064281,2442.679609,-10362.883188,306.438199
450.064605,1406.391290,-10955.047942,459.657299
450.064929,0.000000,-9918.759623,0.000000
450.065253,-666.185348,-10658.965565,-153.219100
450.065577,-888.247130,-9770.718434,229.828649
450.065901,-518.144159,-10066.800811,612.876398
450.066226,0.000000,-10584.944971,1225.752797
450.066550,296.082377,-10436.903782,842.705048
450.066874,148.041188,-9400.615463,1455.581446
450.067198,222.061783,-8882.471304,919.314598
450.067522,1036.288319,-8290.306550,1378.971896
450.067846,1850.514855,-7846.182985,1072.533697
450.068171,2072.576638,-8142.265362,1608.800546
450.068495,1184.329507,-9178.553681,1302.362347
450.068819,-148.041188,-10288.862594,1225.752797
450.069143,-1554.432478,-10436.903782,842.705048
450.069467,-1850.514855,-9326.594869,612.876398
450.069791,-2220.617826,-9252.574275,1302.362347
450.070116,-1850.514855,-8586.388927,919.314598
450.070440,-1110.308913,-9104.533087,1149.143247
450.070764,-518.144159,-9622.677246,1302.362347
450.071088,-1110.308913,-9548.656652,1455.581446
450.071412,-1480.411884,-9104.533087,1225.752797
450.071736,-370.102971,-8512.368333,995.924147
450.072061,740.205942,-7994.224174,1455.581446
450.072385,1850.514855,-8216.285956,1225.752797
450.072709,1924.535449,-9030.512492,995.924147
450.073033,1184.329507,-10510.924376,459.657299
450.073357,0.000000,-11251.130318,842.705048
450.073681,-1184.329507,-10807.006753,0.000000
450.074006,-1332.370696,-10436.903782,0.000000
450.074330,-740.205942,-10214.842000,0.000000
450.074654,-222.061783,-10436.903782,0.000000
450.074978,0.000000,-10584.944971,306.438199
450.075302,-370.102971,-10436.903782,0.000000
450.075626,-592.164754,-9178.553681,0.000000
450.075951,0.000000,-8586.388927,0.000000
450.076275,962.267725,-8512.368333,0.000000
450.076599,2220.617826,-9104.533087,76.609550
450.076923,2072.576638,-9548.656652,-383.047749
450.077247,740.205942,-10362.883188,-1072.533697
450.077571,-888.247130,-10955.047942,-1455.581446
450.077896,-2072.576638,-9992.780217,-1378.971896
450.078220,-1628.453072,-10214.842000,-1378.971896
450.078544,-740.205942,-10214.842000,-1225.752797
450.078868,-518.144159,-10362.883188,-1072.533697
450.079192,-222.061783,-10658.965565,-1149.143247
450.079516,-518.144159,-10288.862594,-995.924147
450.079841,-444.123565,-10066.800811,-1302.362347
450.080165,0.000000,-8956.491898,-1532.190996
450.080489,1036.288319,-8586.388927,-995.924147
450.080813,2294.638420,-8956.491898,-536.266849
450.081137,2590.720797,-9474.636058,-842.705048
450.081461,1924.535449,-10288.862594,-1225.752797
450.081786,148.041188,-10881.027347,-1455.581446
450.082110,-1184.329507,-10436.903782,-1915.238745
450.082434,-1184.329507,-9474.636058,-1685.410096
450.082758,-666.185348,-9844.739029,-536.266849
450.083082,74.020594,-9992.780217,-842.705048
450.083406,740.205942,-10436.903782,-766.095498
450.083731,0.000000,-10214.842000,-842.705048
450.084055,-592.164754,-9844.739029,-995.924147
450.084379,-296.082377,-8882.471304,-842.705048
450.084703,518.144159,-7920.203579,0.000000
450.085027,1998.556043,-8438.347739,76.609550
450.085351,2664.741391,-9474.636058,306.438199
450.085676,1850.514855,-10584.944971,0.000000
450.086000,0.000000,-11325.150913,-306.438199
450.086324,-1924.535449,-10955.047942,-842.705048
450.086648,-2368.659014,-10066.800811,-919.314598
450.086972,-1776.494261,-9844.739029,-153.219100
450.087296,-814.226536,-9918.759623,0.000000
450.087621,0.000000,-10214.842000,-153.219100
450.087945,0.000000,-10436.903782,76.609550
450.088269,0.000000,-9770.718434,536.266849
450.088593,-222.061783,-9178.553681,383.047749
450.088917,0.000000,-8586.388927,919.314598
450.089241,592.164754,-8438.347739,1225.752797
450.089566,1480.411884,-8660.409521,1378.971896
450.089890,2072.576638,-10140.821405,1225.752797
450.090214,1036.288319,-10807.006753,919.314598
450.090538,-370.102971,-10584.944971,153.219100
450.090862,-1184.329507,-10288.862594,306.438199
450.091186,-1406.391290,-9770.718434,459.657299
450.091511,-740.205942,-9622.677246,1072.533697
450.091835,148.041188,-9918.759623,1072.533697
450.092159,222.061783,-10288.862594,612.876398
450.092483,0.000000,-9770.718434,1455.581446
450.092807,0.000000,-8956.491898,689.485948
450.093131,296.082377,-8068.244768,995.924147
450.093456,666.185348,-7772.162391,995.924147
450.093780,1036.288319,-8142.265362,919.314598
450.094104,888.247130,-9030.512492,766.095498
450.094428,0.000000,-10362.883188,689.485948
450.094752,-1332.370696,-10362.883188,612.876398
450.095076,-2368.659014,-9474.636058,229.828649
450.095401,-2442.679609,-8586.388927,842.705048
450.095725,-1998.556043,-9104.533087,612.876398
450.096049,-666.185348,-9474.636058,842.705048
450.096373,-296.082377,-9844.739029,995.924147
450.096697,-370.102971,-9548.656652,459.657299
450.097022,-444.123565,-8660.409521,383.047749
450.097346,-444.123565,-8290.306550,0.000000
450.097670,296.082377,-7772.162391,229.828649
450.097994,1110.308913,-8586.388927,76.609550
450.098318,2220.617826,-9474.636058,76.609550
450.098642,1924.535449,-10510.924376,76.609550
450.098967,666.185348,-11103.089130,-153.219100
450.099291,0.000000,-11103.089130,-612.876398
450.099615,-592.164754,-10436.903782,-383.047749
450.099939,-962.267725,-9992.780217,-689.485948
450.100263,222.061783,-10807.006753,0.000000
450.100587,444.123565,-11769.274478,0.000000
450.100912,148.041188,-11029.068536,-229.828649
450.101236,0.000000,-9992.780217,-612.876398
450.101560,74.020594,-9178.553681,-612.876398
450.101884,740.205942,-8882.471304,-383.047749
450.102208,2072.576638,-9252.574275,-229.828649
450.102532,2146.597232,-9252.574275,-153.219100
450.102857,1184.329507,-10288.862594,-919.314598
450.103181,-518.144159,-11103.089130,-1302.362347
450.103505,-2072.576638,-10510.924376,-1838.629195
450.103829,-2220.617826,-9918.759623,-1762.019645
450.104153,-1776.494261,-9696.697840,-842.705048
450.104477,-1036.288319,-9770.718434,-612.876398
450.104802,-518.144159,-9696.697840,0.000000
450.105126,-1258.350101,-9548.656652,-383.047749
450.105450,-1184.329507,-9178.553681,-1072.533697
450.105774,-814.226536,-8142.265362,-1149.143247
450.106098,0.000000,-7476.080014,-842.705048
450.106422,1332.370696,-7772.162391,-842.705048
450.106747,2368.659014,-7994.224174,-689.485948
450.107071,2294.638420,-9400.615463,-536.266849
450.107395,740.205942,-10510.924376,-1302.362347
450.107719,0.000000,-11029.068536,-1685.410096
450.108043,-1184.329507,-10658.965565,-1762.019645
450.108367,-962.267725,-10584.944971,-919.314598
450.108692,-296.082377,-10955.047942,-536.266849
450.109016,0.000000,-11103.089130,-459.657299
450.109340,0.000000,-11177.109724,-383.047749
450.109664,370.102971,-10288.862594,-459.657299
450.109988,0.000000,-9474.636058,-306.438199
450.110312,962.267725,-8808.450710,0.000000
450.110637,1924.535449,-9104.533087,383.047749
450.110961,2442.679609,-9326.594869,0.000000
450.111285,1850.514855,-10362.883188,0.000000
450.111609,0.000000,-11547.212695,-383.047749
450.111933,-1258.350101,-11547.212695,-1072.533697
450.112257,-1850.514855,-9918.759623,-766.095498
450.112582,-1924.535449,-9696.697840,0.000000
450.112906,-1184.329507,-9844.739029,229.828649
450.113230,0.000000,-10436.903782,766.095498
450.113554,444.123565,-10510.924376,1072.533697
450.113878,74.020594,-9696.697840,1149.143247
450.114202,-592.164754,-8660.409521,689.485948
450.114527,-444.123565,-7698.141797,383.047749
450.114851,148.041188,-7846.182985,1378.971896
450.115175,962.267725,-8290.306550,995.924147
450.115499,1332.370696,-8808.450710,1225.752797
450.115823,148.041188,-10066.800811,766.095498
450.116147,-1110.308913,-10881.027347,459.657299
450.116472,-1776.494261,-9992.780217,383.047749
450.116796,-2220.617826,-9622.677246,306.438199
450.117120,-1924.535449,-9474.636058,153.219100
450.117444,-1258.350101,-9992.780217,919.314598
450.117768,-370.102971,-10214.842000,1455.581446
450.118092,0.000000,-9770.718434,1608.800546
450.118417,-444.123565,-8956.491898,1072.533697
450.118741,74.020594,-8068.244768,995.924147
450.119065,740.205942,-7476.080014,1378.971896
450.119389,1776.494261,-7920.203579,1378.971896
450.119713,2220.617826,-8290.306550,1149.143247
450.120037,888.247130,-9474.636058,76.609550
450.120362,-370.102971,-10288.862594,-229.828649
450.120686,-1110.308913,-9474.636058,-306.438199
450.121010,-1480.411884,-9030.512492,0.000000
450.121334,-814.226536,-9178.553681,383.047749
450.121658,-444.123565,-9474.636058,383.047749
450.121982,0.000000,-9696.697840,383.047749
450.122307,-444.123565,-9622.677246,153.219100
450.122631,148.041188,-9622.677246,0.000000
450.122955,370.102971,-9104.533087,-153.219100
450.123279,296.082377,-8586.388927,-229.828649
450.123603,1702.473667,-9104.533087,0.000000
450.123927,2368.659014,-9770.718434,-153.219100
450.124252,2072.576638,-10807.006753,-383.047749
450.124576,592.164754,-11547.212695,-1072.533697
450.124900,-592.164754,-11621.233289,-1378.971896
450.125224,-962.267725,-10955.047942,-1149.143247
450.125548,-1258.350101,-10807.006753,-1225.752797
450.125872,-592.164754,-10732.986159,-995.924147
450.126197,148.041188,-11029.068536,-612.876398
450.126521,592.164754,-11177.109724,-536.266849
450.126845,296.082377,-10066.800811,-842.705048
450.127169,296.082377,-8660.409521,-919.314598
450.127493,814.226536,-8068.244768,-1302.362347
450.127817,2072.576638,-8808.450710,-153.219100
450.128142,2368.659014,-9400.615463,-689.485948
450.128466,1924.535449,-9918.759623,-536.266849
450.128790,222.061783,-10732.986159,-1225.752797
450.129114,-1406.391290,-10732.986159,-1302.362347
450.129438,-2294.638420,-9770.718434,-2298.286494
450.129762,-2146.597232,-9178.553681,-2145.067394
450.130087,-1554.432478,-9474.636058,-1532.190996
450.130411,-222.061783,-10214.842000,-306.438199
450.130735,-592.164754,-10214.842000,-229.828649
450.131059,-962.267725,-9474.636058,-306.438199
450.131383,-1110.308913,-8364.327145,-536.266849
450.131707,-592.164754,-8290.306550,-229.828649
450.132032,444.123565,-8068.244768,0.000000
450.132356,1332.370696,-8438.347739,0.000000
450.132680,1184.329507,-9104.533087,-536.266849
450.133004,-148.041188,-10140.821405,-383.047749
450.133328,-1480.411884,-10436.903782,-842.705048
450.133652,-2072.576638,-9844.739029,-1149.143247
450.133977,-1924.535449,-9326.594869,-689.485948
450.134301,-1110.308913,-9548.656652,0.000000
450.134625,0.000000,-10214.842000,-229.828649
450.134949,814.226536,-10584.944971,459.657299
450.135273,370.102971,-10362.883188,689.485948
450.135597,296.082377,-9326.594869,459.657299
450.135922,518.144159,-8438.347739,383.047749
450.136246,1184.329507,-8734.430116,689.485948
450.136570,2368.659014,-9474.636058,306.438199
450.136894,2738.761985,-10214.842000,383.047749
450.137218,1332.370696,-11177.109724,842.705048
450.137543,-1110.308913,-11103.089130,-153.219100
450.137867,-2072.576638,-10881.027347,-612.876398
450.138191,-2664.741391,-10140.821405,-306.438199
450.138515,-2220.617826,-10066.800811,153.219100
450.138839,-1184.329507,-10362.883188,689.485948
450.139164,-666.185348,-9474.636058,1149.143247
450.139488,-148.041188,-9844.739029,919.314598
450.139812,-222.061783,-9104.533087,306.438199
450.140136,-592.164754,-8142.265362,536.266849
450.140461,-296.082377,-8142.265362,536.266849
450.140785,74.020594,-8364.327145,689.485948
450.141109,814.226536,-9030.512492,383.047749
450.141433,518.144159,-9918.759623,383.047749
450.141757,-666.185348,-10584.944971,306.438199
450.142082,-666.185348,-10658.965565,0.000000
450.142406,-1184.329507,-9474.636058,536.266849
450.142730,-444.123565,-9548.656652,995.924147
450.143054,0.000000,-10214.842000,1149.143247
450.143378,666.185348,-10732.986159,1302.362347
450.143703,444.123565,-10140.821405,1225.752797
450.144027,0.000000,-9178.553681,459.657299
450.144351,0.000000,-8660.409521,153.219100
450.144675,592.164754,-7846.182985,153.219100
450.144999,1850.514855,-8364.327145,1072.533697
450.145324,2442.679609,-8956.491898,229.828649
450.145648,1850.514855,-9992.780217,76.609550
450.145972,592.164754,-10658.965565,-306.438199
450.146296,-666.185348,-10214.842000,-766.095498
450.146620,-1702.473667,-9400.615463,-612.876398
450.146945,-1480.411884,-9474.636058,-1072.533697
450.147269,-1110.308913,-9400.615463,-995.924147
450.147593,148.041188,-9992.780217,0.000000
450.147917,-148.041188,-10066.800811,-153.219100
450.148241,-444.123565,-9548.656652,-383.047749
450.148566,-518.144159,-8660.409521,-842.705048
450.148890,74.020594,-8438.347739,-766.095498
450.149214,814.226536,-8438.347739,0.000000
450.149538,2294.638420,-8660.409521,-459.657299
450.149862,2516.700203,-9844.739029,-459.657299
450.150187,1258.350101,-11177.109724,-842.705048
450.150511,-222.061783,-11547.212695,-1225.752797
450.150835,-1110.308913,-10807.006753,-1762.019645
450.151159,-1702.473667,-10436.903782,-1225.752797
450.151483,-1184.329507,-10510.924376,-1455.581446
450.151808,-592.164754,-10955.047942,-766.095498
450.152132,0.000000,-11251.130318,-612.876398
450.152456,0.000000,-10881.027347,-536.266849
450.152780,0.000000,-9918.759623,-842.705048
450.153105,444.123565,-8882.471304,-612.876398
450.153429,1554.432478,-8586.388927,-153.219100
450.153753,2590.720797,-9252.574275,0.000000
450.154077,3108.864956,-10140.821405,383.047749
450.154401,1184.329507,-10436.903782,-536.266849
450.154726,-666.185348,-10658.965565,-229.828649
450.155050,-1998.556043,-10140.821405,-536.266849
450.155374,-2220.617826,-9474.636058,-383.047749
450.155698,-1332.370696,-9400.615463,153.219100
450.156022,-888.247130,-9178.553681,153.219100
450.156347,0.000000,-9030.512492,459.657299
450.156671,-1036.288319,-9030.512492,689.485948
450.156995,-1184.329507,-8586.388927,306.438199
450.157319,-1110.308913,-7476.080014,919.314598
450.157643,-296.082377,-7254.018232,766.095498
450.157968,1036.288319,-7179.997637,995.924147
450.158292,1554.432478,-7920.203579,612.876398
450.158616,370.102971,-8660.409521,76.609550
450.158940,-962.267725,-10140.821405,536.266849
450.159264,-2368.659014,-10066.800811,-689.485948
450.159589,-2664.741391,-9622.677246,0.000000
450.159913,-2516.700203,-9326.594869,229.828649
450.160237,-1406.391290,-9696.697840,153.219100
450.160561,-444.123565,-10214.842000,536.266849
450.160885,-296.082377,-10214.842000,459.657299
450.161210,-518.144159,-9178.553681,459.657299
450.161534,-370.102971,-8808.450710,153.219100
450.161858,1036.288319,-8734.430116,153.219100
450.162182,2442.679609,-9030.512492,536.266849
450.162506,3256.906145,-9918.759623,306.438199
450.162831,2368.659014,-10732.986159,0.000000
450.163155,222.061783,-11769.274478,-842.705048
450.163479,-962.267725,-11621.233289,-689.485948
450.163803,-1184.329507,-10955.047942,-1302.362347
450.164127,-740.205942,-10436.903782,-919.314598
450.164452,370.102971,-10732.986159,-459.657299
450.164776,74.020594,-10807.006753,-383.047749
450.165100,-296.082377,-10955.047942,-459.657299
450.165424,-1184.329507,-10288.862594,-1225.752797
450.165749,-1184.329507,-9104.533087,-919.314598
450.166073,-592.164754,-8512.368333,-459.657299
450.166397,888.247130,-8512.368333,-153.219100
450.166721,2368.659014,-8882.471304,76.609550
450.167045,2368.659014,-10066.800811,0.000000
450.167370,814.226536,-10807.006753,-766.095498
450.167694,-814.226536,-10881.027347,-995.924147
450.168018,-1258.350101,-10436.903782,-1072.533697
450.168342,-1406.391290,-9770.718434,-612.876398
450.168666,-444.123565,-9548.656652,153.219100
450.168991,592.164754,-9844.739029,-383.047749
450.169315,740.205942,-10066.800811,0.000000
450.169639,370.102971,-9622.677246,0.000000
450.169963,148.041188,-8734.430116,0.000000
450.170287,592.164754,-7846.182985,229.828649
450.170612,1850.514855,-7476.080014,689.485948
450.170936,2812.782580,-7772.162391,689.485948
450.171260,3182.885551,-8882.471304,229.828649
450.171584,1184.329507,-9548.656652,229.828649
450.171908,-1110.308913,-10066.800811,-153.219100
450.172233,-2368.659014,-9474.636058,-383.047749
450.172557,-2368.659014,-8956.491898,0.000000
450.172881,-1554.432478,-9178.553681,0.000000
450.173205,-296.082377,-9474.636058,306.438199
450.173529,-518.144159,-9770.718434,612.876398
450.173854,-962.267725,-10066.800811,153.219100
450.174178,-1406.391290,-9474.636058,0.000000
450.174502,-592.164754,-8882.471304,459.657299
450.174826,0.000000,-8364.327145,842.705048
450.175150,1110.308913,-8882.471304,1149.143247
450.175475,2146.597232,-9696.697840,995.924147
450.175799,1258.350101,-10510.924376,766.095498
450.176123,0.000000,-11029.068536,459.657299
450.176447,-1332.370696,-9918.759623,536.266849
450.176772,-1406.391290,-9918.759623,-153.219100
450.177096,-1036.288319,-9918.759623,459.657299
450.177420,0.000000,-10214.842000,612.876398
450.177744,148.041188,-10510.924376,842.705048
450.178068,-148.041188,-10214.842000,689.485948
450.178393,-222.061783,-9696.697840,153.219100
450.178717,-592.164754,-8216.285956,459.657299
450.179041,444.123565,-8216.285956,536.266849
450.179365,1850.514855,-8512.368333,766.095498
450.179689,2516.700203,-9474.636058,383.047749
450.180014,1332.370696,-10214.842000,0.000000
450.180338,-592.164754,-11029.068536,76.609550
450.180662,-1406.391290,-11029.068536,-306.438199
450.180986,-1850.514855,-10214.842000,-306.438199
450.181310,-592.164754,-10658.965565,0.000000
450.181635,74.020594,-10658.965565,153.219100
450.181959,666.185348,-11251.130318,383.047749
450.182283,296.082377,-11325.150913,229.828649
450.182607,-74.020594,-10510.924376,306.438199
450.182931,-666.185348,-9474.636058,-536.266849
450.183256,-592.164754,-8882.471304,-919.314598
450.183580,74.020594,-8882.471304,0.000000
450.183904,740.205942,-8512.368333,-536.266849
450.184228,296.082377,-9252.574275,-612.876398
450.184552,-1110.308913,-10140.821405,-995.924147
450.184877,-2220.617826,-10066.800811,-1302.362347
450.185201,-1702.473667,-9474.636058,-766.095498
450.185525,-1332.370696,-9030.512492,-383.047749
450.185849,-1036.288319,-8882.471304,-1072.533697
450.186173,-370.102971,-9030.512492,-536.266849
450.186498,-740.205942,-9474.636058,-383.047749
450.186822,-962.267725,-9474.636058,0.000000
450.187146,-370.102971,-8956.491898,0.000000
450.187470,444.123565,-8216.285956,0.000000
450.187794,1850.514855,-7698.141797,0.000000
450.188119,2220.617826,-7698.141797,0.000000
450.188443,1776.494261,-9474.636058,-536.266849
450.188767,592.164754,-10732.986159,-689.485948
450.189091,-1036.288319,-10732.986159,-1072.533697
450.189416,-1850.514855,-10066.800811,-1072.533697
450.189740,-1702.473667,-9622.677246,-536.266849
450.190064,-592.164754,-9770.718434,0.000000
450.190388,148.041188,-10436.903782,0.000000
450.190712,74.020594,-10362.883188,-306.438199
450.191037,0.000000,-9992.780217,229.828649
450.191361,0.000000,-9696.697840,0.000000
450.191685,592.164754,-8882.471304,0.000000
450.192009,1332.370696,-8586.388927,76.609550
450.192333,2294.638420,-9104.533087,-306.438199
450.192658,2294.638420,-9770.718434,-612.876398
450.192982,1258.350101,-10584.944971,-689.485948
450.193306,0.000000,-11029.068536,-1072.533697
450.193630,-444.123565,-10584.944971,-842.705048
450.193954,-666.185348,-10584.944971,-229.828649
450.194279,-296.082377,-10658.965565,0.000000
450.194603,0.000000,-10807.006753,0.000000
450.194927,0.000000,-11029.068536,229.828649
450.195251,370.102971,-10436.903782,689.485948
450.195575,222.061783,-9474.636058,459.657299
450.195900,888.247130,-9030.512492,995.924147
450.196224,1110.308913,-8956.491898,153.219100
450.196548,1480.411884,-9474.636058,612.876398
450.196872,1406.391290,-10214.842000,229.828649
450.197196,0.000000,-11029.068536,0.000000
450.197521,-1554.432478,-11547.212695,0.000000
450.197845,-2294.638420,-10584.944971,-1455.581446
450.198169,-2220.617826,-9548.656652,-229.828649
450.198493,-1850.514855,-9474.636058,0.000000
450.198817,-814.226536,-9844.739029,689.485948
450.199142,0.000000,-10066.800811,842.705048
450.199466,-222.061783,-9918.759623,536.266849
450.199790,-592.164754,-9252.574275,766.095498
450.200114,-296.082377,-8068.244768,459.657299
450.200438,296.082377,-7772.162391,689.485948
450.200763,1850.514855,-7994.224174,1302.362347
450.201087,2294.638420,-7846.182985,919.314598
450.201411,1702.473667,-8660.409521,229.828649
450.201735,222.061783,-9844.739029,536.266849
450.202060,-1406.391290,-9770.718434,-229.828649
450.202384,-2220.617826,-9252.574275,-459.657299
450.202708,-2590.720797,-9030.512492,0.000000
450.203032,-2294.638420,-9178.553681,0.000000
450.203356,-1480.411884,-9474.636058,229.828649
450.203681,-1258.350101,-9400.615463,0.000000
450.204005,-1258.350101,-8956.491898,0.000000
450.204329,-444.123565,-8660.409521,-383.047749
450.204653,370.102971,-8438.347739,229.828649
450.204977,1554.432478,-8586.388927,536.266849
450.205302,2368.659014,-9252.574275,153.219100
450.205626,2146.597232,-10436.903782,306.438199
450.205950,666.185348,-11399.171507,-229.828649
450.206274,-666.185348,-11547.212695,-689.485948
450.206598,-1036.288319,-11029.068536,-612.876398
450.206923,-1332.370696,-10436.903782,-766.095498
450.207247,-444.123565,-10436.903782,-612.876398
450.207571,444.123565,-10510.924376,-306.438199
450.207895,814.226536,-10955.047942,306.438199
450.208219,666.185348,-10362.883188,-383.047749
450.208544,74.020594,-9326.594869,-153.219100
450.208868,592.164754,-8364.327145,-153.219100
450.209192,1258.350101,-8068.244768,0.000000
450.209516,2072.576638,-8808.450710,0.000000
450.209840,2220.617826,-9696.697840,-459.657299
450.210165,518.144159,-10807.006753,-689.485948
450.210489,-888.247130,-10807.006753,-1072.533697
450.210813,-2072.576638,-9770.718434,-1532.190996
450.211137,-1924.535449,-9770.718434,-1225.752797
450.211461,-1480.411884,-9770.718434,-383.047749
450.211786,-666.185348,-9992.780217,-383.047749
450.212110,-296.082377,-10362.883188,-153.219100
450.212434,-370.102971,-10214.842000,-153.219100
450.212758,-222.061783,-9178.553681,-153.219100
450.213082,222.061783,-8216.285956,0.000000
450.213407,740.205942,-7994.224174,229.828649
450.213731,2368.659014,-8512.368333,-306.438199
450.214055,2664.741391,-9548.656652,-459.657299
450.214379,1628.453072,-10807.006753,-229.828649
450.214704,0.000000,-11103.089130,-612.876398
450.215028,-1480.411884,-10510.924376,-459.657299
450.215352,-2146.597232,-9770.718434,-459.657299
450.215676,-1702.473667,-9918.759623,-689.485948
450.216000,-518.144159,-10140.821405,-383.047749
450.216325,296.082377,-10584.944971,-229.828649
450.216649,296.082377,-9918.759623,0.000000
450.216973,0.000000,-9178.553681,0.000000
450.217297,0.000000,-8808.450710,0.000000
450.217621,666.185348,-8290.306550,153.219100
450.217946,1628.453072,-8142.265362,0.000000
450.218270,2294.638420,-9252.574275,459.657299
450.218594,1184.329507,-9918.759623,-306.438199
450.218918,-296.082377,-10807.006753,-383.047749
450.219242,-1554.432478,-10732.986159,-612.876398
450.219567,-1998.556043,-10140.821405,-536.266849
450.219891,-1850.514855,-9918.759623,0.000000
450.220215,-1258.350101,-10140.821405,153.219100
450.220539,-296.082377,-10510.924376,689.485948
450.220863,-888.247130,-9918.759623,459.657299
450.221188,-814.226536,-9178.553681,536.266849
450.221512,-592.164754,-8512.368333,306.438199
450.221836,148.041188,-8068.244768,689.485948
450.222160,1776.494261,-8142.265362,1072.533697
450.222484,2368.659014,-8586.388927,612.876398
450.222809,2072.576638,-9474.636058,689.485948
450.223133,444.123565,-10807.006753,153.219100
450.223457,-1628.453072,-10807.006753,0.000000
450.223781,-2516.700203,-9844.739029,-153.219100
450.224105,-2442.679609,-9474.636058,0.000000
450.224430,-1776.494261,-9548.656652,306.438199
450.224754,-148.041188,-9844.739029,689.485948
450.225078,0.000000,-9918.759623,383.047749
450.225402,0.000000,-9474.636058,383.047749
450.225726,-1036.288319,-8364.327145,459.657299
450.226051,-222.061783,-8068.244768,612.876398
450.226375,666.185348,-7994.224174,689.485948
450.226699,1702.473667,-8586.388927,766.095498
450.227023,1702.473667,-9622.677246,459.657299
450.227348,592.164754,-10510.924376,0.000000
450.227672,-518.144159,-10955.047942,-459.657299
450.227996,-1406.391290,-10436.903782,0.000000
450.228320,-1480.411884,-9770.718434,-383.047749
450.228644,-1110.308913,-10214.842000,-306.438199
450.228969,-740.205942,-10140.821405,0.000000
450.229293,0.000000,-10436.903782,0.000000
450.229617,148.041188,-10288.862594,0.000000
450.229941,666.185348,-9844.739029,306.438199
450.230265,1702.473667,-9252.574275,0.000000
450.230590,2368.659014,-8808.450710,306.438199
450.230914,2368.659014,-8808.450710,-229.828649
450.231238,2072.576638,-9918.759623,-229.828649
450.231562,666.185348,-11029.068536,-842.705048
450.231886,-666.185348,-11695.253884,-1149.143247
450.232211,-1332.370696,-10955.047942,-1225.752797
450.232535,-1628.453072,-10066.800811,-1455.581446
450.232859,-740.205942,-9548.656652,-1225.752797
450.233183,444.123565,-9918.759623,-459.657299
450.233507,444.123565,-10362.883188,-536.266849
450.233832,0.000000,-10140.821405,-229.828649
450.234156,-740.205942,-9548.656652,-612.876398
450.234480,-222.061783,-8734.430116,-229.828649
450.234804,1036.288319,-8216.285956,0.000000
450.235128,2368.659014,-8512.368333,229.828649
450.235453,2516.700203,-8956.491898,-459.657299
450.235777,1776.494261,-9622.677246,-536.266849
450.236101,296.082377,-10362.883188,-919.314598
450.236425,-1258.350101,-9918.759623,-1225.752797
450.236749,-1702.473667,-9770.718434,-1149.143247
450.237074,-1776.494261,-9622.677246,-612.876398
450.237398,-1110.308913,-9918.759623,-229.828649
450.237722,74.020594,-10584.944971,0.000000
450.238046,0.000000,-9992.780217,459.657299
450.238370,-74.020594,-9548.656652,229.828649
450.238695,222.061783,-8586.388927,0.000000
450.239019,962.267725,-8364.327145,229.828649
450.239343,1850.514855,-8808.450710,306.438199
450.239667,2368.659014,-9474.636058,306.438199
450.239992,1554.432478,-10362.883188,0.000000
450.240316,-296.082377,-10732.986159,-229.828649
450.240640,-1924.535449,-9918.759623,-1225.752797
450.240964,-2146.597232,-9474.636058,-842.705048
450.241288,-1258.350101,-9326.594869,-459.657299
450.241613,-518.144159,-9474.636058,306.438199
450.241937,-148.041188,-9770.718434,229.828649
450.242261,-222.061783,-10140.821405,306.438199
450.242585,-1184.329507,-9326.594869,536.266849
450.242909,-1258.350101,-8660.409521,383.047749
450.243234,-444.123565,-8586.388927,153.219100
450.243558,666.185348,-8142.265362,383.047749
450.243882,2146.597232,-9030.512492,766.095498
450.244206,2220.617826,-10362.883188,612.876398
450.244530,1036.288319,-11325.150913,383.047749
450.244855,-518.144159,-11103.089130,153.219100
450.245179,-1776.494261,-10362.883188,-536.266849
450.245503,-1924.535449,-10732.986159,-153.219100
450.245827,-1332.370696,-10658.965565,76.609550
450.246151,-666.185348,-10955.047942,306.438199
450.246476,-518.144159,-10732.986159,459.657299
450.246800,-518.144159,-9696.697840,383.047749
450.247124,-370.102971,-8734.430116,76.609550
450.247448,-148.041188,-7920.203579,306.438199
450.247772,592.164754,-8068.244768,536.266849
450.248097,1702.473667,-8438.347739,459.657299
450.248421,1036.288319,-9252.574275,229.828649
450.248745,-666.185348,-9844.739029,-153.219100
450.249069,-2294.638420,-10362.883188,-995.924147
450.249393,-3330.926739,-9474.636058,-1149.143247
450.249718,-2738.761985,-9104.533087,-1302.362347
450.250042,-1850.514855,-9030.512492,-689.485948
450.250366,-666.185348,-9474.636058,-153.219100
450.250690,-296.082377,-9918.759623,-229.828649
450.251014,-222.061783,-9992.780217,-383.047749
450.251339,-370.102971,-9548.656652,-459.657299
450.251663,148.041188,-8882.471304,-1225.752797
450.251987,1406.391290,-8364.327145,-383.047749
450.252311,2812.782580,-8586.388927,-306.438199
450.252635,3256.906145,-9696.697840,0.000000
450.252960,2516.700203,-11325.150913,-229.828649
450.253284,962.267725,-11843.295072,-689.485948
450.253608,-370.102971,-11621.233289,-842.705048
450.253932,-1036.288319,-10732.986159,-1302.362347
450.254256,-962.267725,-9992.780217,-995.924147
450.254581,-518.144159,-10140.821405,-995.924147
450.254905,0.000000,-10436.903782,-306.438199
450.255229,-296.082377,-10288.862594,-306.438199
450.255553,-296.082377,-9474.636058,-459.657299
450.255878,296.082377,-8438.347739,-612.876398
450.256202,1480.411884,-7846.182985,0.000000
450.256526,2516.700203,-8364.327145,0.000000
450.256850,2812.782580,-9104.533087,-229.828649
450.257174,1406.391290,-9992.780217,-689.485948
450.257499,-222.061783,-10881.027347,-459.657299
450.257823,-1924.535449,-10584.944971,-1149.143247
450.258147,-2146.597232,-9918.759623,-842.705048
450.258471,-1702.473667,-9918.759623,-612.876398
450.258795,-1036.288319,-9992.780217,-612.876398
450.259120,-222.061783,-9992.780217,-229.828649
450.259444,-222.061783,-10584.944971,0.000000
450.259768,-592.164754,-9844.739029,153.219100
450.260092,-148.041188,-9252.574275,383.047749
450.260416,222.061783,-8364.327145,153.219100
450.260741,1628.453072,-8438.347739,612.876398
450.261065,2664.741391,-9252.574275,612.876398
450.261389,2220.617826,-10066.800811,536.266849
450.261713,740.205942,-10881.027347,153.219100
450.262037,-962.267725,-10584.944971,0.000000
450.262362,-2146.597232,-9770.718434,-153.219100
450.262686,-2072.576638,-9400.615463,0.000000
450.263010,-1036.288319,-9844.739029,306.438199
450.263334,-370.102971,-10288.862594,766.095498
450.263658,-370.102971,-10066.800811,536.266849
450.263983,-1036.288319,-9474.636058,766.095498
450.264307,-1036.288319,-8660.409521,459.657299
450.264631,-148.041188,-7772.162391,919.314598
450.264955,962.267725,-7698.141797,1302.362347
450.265279,2146.597232,-8142.265362,1302.362347
450.265604,1924.535449,-9252.574275,689.485948
450.265928,740.205942,-9622.677246,229.828649
450.266252,-1036.288319,-10362.883188,76.609550
450.266576,-1776.494261,-9992.780217,-306.438199
450.266900,-2146.597232,-9474.636058,0.000000
450.267225,-1480.411884,-9622.677246,306.438199
450.267549,-518.144159,-10214.842000,383.047749
450.267873,0.000000,-10510.924376,76.609550
450.268197,-444.123565,-10436.903782,536.266849
450.268521,-666.185348,-9252.574275,0.000000
450.268846,-148.041188,-8364.327145,0.000000
450.269170,888.247130,-8512.368333,306.438199
450.269494,2146.597232,-8882.471304,766.095498
450.269818,2368.659014,-9474.636058,0.000000
450.270143,1184.329507,-10288.862594,229.828649
450.270467,74.020594,-11029.068536,-383.047749
450.270791,-296.082377,-11325.150913,-995.924147
450.271115,-814.226536,-10658.965565,-612.876398
450.271439,-1184.329507,-10214.842000,0.000000
450.271764,-370.102971,-10881.027347,-229.828649
450.272088,-592.164754,-10955.047942,-383.047749
450.272412,-1406.391290,-10658.965565,-229.828649
450.272736,-1702.473667,-9770.718434,-536.266849
450.273060,-1036.288319,-8808.450710,-459.657299
450.273385,518.144159,-8734.430116,-229.828649
450.273709,1924.535449,-9030.512492,229.828649
450.274033,2220.617826,-9326.594869,0.000000
450.274357,1110.308913,-9992.780217,-612.876398
450.274681,-962.267725,-10658.965565,-842.705048
450.275006,-2294.638420,-10362.883188,-1455.581446
450.275330,-2220.617826,-9770.718434,-459.657299
450.275654,-1628.453072,-9548.656652,-229.828649
450.275978,-222.061783,-9252.574275,229.828649
450.276302,0.000000,-9474.636058,-153.219100
450.276627,-370.102971,-9548.656652,0.000000
450.276951,-74.020594,-9400.615463,0.000000
450.277275,74.020594,-8438.347739,306.438199
450.277599,1036.288319,-8216.285956,459.657299
450.277923,2072.576638,-8438.347739,536.266849
450.278248,2738.761985,-9548.656652,459.657299
450.278572,2738.761985,-10140.821405,-229.828649
450.278896,888.247130,-10362.883188,-536.266849
450.279220,0.000000,-10955.047942,-536.266849
450.279544,-296.082377,-10584.944971,-306.438199
450.279869,0.000000,-10436.903782,383.047749
450.280193,444.123565,-10140.821405,229.828649
450.280517,592.164754,-10214.842000,-229.828649
450.280841,518.144159,-10140.821405,0.000000
450.281165,-296.082377,-9548.656652,459.657299
450.281490,0.000000,-8586.388927,459.657299
450.281814,814.226536,-7994.224174,766.095498
450.282138,1480.411884,-8216.285956,919.314598
450.282462,1628.453072,-8364.327145,229.828649
450.282786,1110.308913,-9030.512492,459.657299
450.283111,-814.226536,-10436.903782,-536.266849
450.283435,-2516.700203,-9992.780217,-612.876398
450.283759,-2960.823768,-9696.697840,-229.828649
450.284083,-2368.659014,-9474.636058,0.000000
450.284408,-1406.391290,-9252.574275,-459.657299
450.284732,-740.205942,-9992.780217,0.000000
450.285056,-666.185348,-10584.944971,0.000000
450.285380,-888.247130,-10436.903782,0.000000
450.285704,-1110.308913,-9992.780217,229.828649
450.286029,-222.061783,-9474.636058,766.095498
450.286353,666.185348,-9400.615463,-536.266849
450.286677,2442.679609,-9844.739029,-306.438199
450.287001,2664.741391,-10732.986159,0.000000
450.287325,1406.391290,-11473.192101,-153.219100
450.287650,0.000000,-11991.336260,-612.876398
450.287974,-1184.329507,-11547.212695,-766.095498
450.288298,-1850.514855,-10436.903782,-919.314598
450.288622,-1406.391290,-9918.759623,-536.266849
450.288946,-518.144159,-10288.862594,-612.876398
450.289271,-296.082377,-10140.821405,-229.828649
450.289595,148.041188,-9844.739029,0.000000
450.289919,222.061783,-8734.430116,-306.438199
450.290243,370.102971,-7920.203579,76.609550
450.290567,1036.288319,-7920.203579,0.000000
450.290892,2146.597232,-8290.306550,153.219100
450.291216,2072.576638,-9252.574275,-229.828649
450.291540,962.267725,-10066.800811,-689.485948
450.291864,-1332.370696,-10214.842000,-689.485948
450.292188,-2220.617826,-10066.800811,-766.095498
450.292513,-2294.638420,-9400.615463,-766.095498
450.292837,-1850.514855,-9474.636058,-383.047749
450.293161,-1184.329507,-9622.677246,-689.485948
450.293485,-740.205942,-9770.718434,0.000000
450.293809,-962.267725,-9770.718434,-766.095498
450.294134,-1480.411884,-8808.450710,-766.095498
450.294458,-1258.350101,-8142.265362,-383.047749
450.294782,296.082377,-8068.244768,-306.438199
450.295106,1776.494261,-8290.306550,0.000000
450.295430,2960.823768,-8512.368333,229.828649
450.295755,2516.700203,-9400.615463,-153.219100
450.296079,1036.288319,-10510.924376,-459.657299
450.296403,-296.082377,-10658.965565,0.000000
450.296727,-1258.350101,-10214.842000,-766.095498
450.297051,-1036.288319,-10140.821405,-229.828649
450.297376,-518.144159,-10584.944971,76.609550
450.297700,666.185348,-10732.986159,153.219100
450.298024,1184.329507,-10362.883188,1072.533697
450.298348,888.247130,-9474.636058,306.438199
450.298672,666.185348,-9252.574275,383.047749
450.298997,1258.350101,-8956.491898,612.876398
450.299321,1702.473667,-9178.553681,153.219100
450.299645,1998.556043,-9548.656652,229.828649
450.299969,1184.329507,-10510.924376,0.000000
450.300294,-518.144159,-11103.089130,0.000000
450.300618,-1924.535449,-11177.109724,-229.828649
450.300942,-2072.576638,-10288.862594,76.609550
450.301266,-2072.576638,-10066.800811,-153.219100
450.301590,-1184.329507,-10066.800811,0.000000
450.301915,-666.185348,-9992.780217,0.000000
450.302239,-666.185348,-9992.780217,0.000000
450.302563,-1110.308913,-9696.697840,-229.828649
450.302887,-1258.350101,-8734.430116,76.609550
450.303211,-370.102971,-7994.224174,229.828649
450.303536,1110.308913,-7994.224174,536.266849
450.303860,2442.679609,-8438.347739,766.095498
450.304184,2886.803174,-9474.636058,383.047749
450.304508,1850.514855,-10510.924376,0.000000
450.304832,222.061783,-11103.089130,-306.438199
450.305157,-888.247130,-10436.903782,-536.266849
450.305481,-1184.329507,-10066.800811,-383.047749
450.305805,-740.205942,-9770.718434,-306.438199
450.306129,148.041188,-10140.821405,229.828649
450.306453,592.164754,-10362.883188,0.000000
450.306778,296.082377,-10214.842000,76.609550
450.307102,0.000000,-9400.615463,0.000000
450.307426,0.000000,-8290.306550,0.000000
450.307750,296.082377,-8142.265362,153.219100
450.308074,1554.432478,-8586.388927,229.828649
450.308399,1332.370696,-9104.533087,0.000000
450.308723,444.123565,-10362.883188,0.000000
450.309047,-1258.350101,-10658.965565,-383.047749
450.309371,-2072.576638,-10066.800811,-766.095498
450.309695,-2516.700203,-9104.533087,-306.438199
450.310020,-1998.556043,-9104.533087,-229.828649
450.310344,-1184.329507,-9252.574275,153.219100
450.310668,-814.226536,-9548.656652,0.000000
450.310992,-1110.308913,-9770.718434,0.000000
450.311316,-666.185348,-9326.594869,229.828649
450.311641,-222.061783,-8734.430116,153.219100
450.311965,888.247130,-8586.388927,306.438199
450.312289,2146.597232,-8660.409521,383.047749
450.312613,2368.659014,-8734.430116,-306.438199
450.312937,1702.473667,-10362.883188,0.000000
450.313262,74.020594,-11769.274478,-612.876398
450.313586,-962.267725,-11547.212695,-459.657299
450.313910,-1702.473667,-10955.047942,-229.828649
450.314234,-1332.370696,-10658.965565,-229.828649
450.314559,-592.164754,-10658.965565,76.609550
450.314883,-222.061783,-10584.944971,612.876398
450.315207,-740.205942,-10436.903782,-153.219100
450.315531,-1554.432478,-9992.780217,383.047749
450.315855,-1332.370696,-8512.368333,76.609550
450.316180,0.000000,-8364.327145,0.000000
450.316504,1480.411884,-8512.368333,306.438199
450.316828,2368.659014,-8808.450710,306.438199
450.317152,1850.514855,-9548.656652,-229.828649
450.317476,296.082377,-10214.842000,-919.314598
450.317801,-1702.473667,-9992.780217,-612.876398
450.318125,-2368.659014,-9548.656652,-842.705048
450.318449,-1702.473667,-9104.533087,-229.828649
450.318773,-1110.308913,-9400.615463,-536.266849
450.319097,-444.123565,-9474.636058,-383.047749
450.319422,-148.041188,-9844.739029,0.000000
450.319746,0.000000,-9622.677246,-459.657299
450.320070,148.041188,-8438.347739,306.438199
450.320394,666.185348,-7698.141797,76.609550
450.320718,1258.350101,-7994.224174,229.828649
450.321043,2442.679609,-8808.450710,-306.438199
450.321367,2812.782580,-9844.739029,-536.266849
450.321691,1924.535449,-11251.130318,-459.657299
450.322015,740.205942,-11621.233289,-612.876398
450.322339,74.020594,-10807.006753,-919.314598
450.322664,-740.205942,-10510.924376,-612.876398
450.322988,-370.102971,-10658.965565,-1072.533697
450.323312,0.000000,-10807.006753,-1072.533697
450.323636,74.020594,-11029.068536,-153.219100
450.323960,0.000000,-10510.924376,229.828649
450.324285,0.000000,-9918.759623,153.219100
450.324609,592.164754,-8882.471304,229.828649
450.324933,1924.535449,-8808.450710,459.657299
450.325257,2812.782580,-9252.574275,229.828649
450.325581,2960.823768,-9918.759623,0.000000
450.325906,1554.432478,-11177.109724,-306.438199
450.326230,-592.164754,-10955.047942,-383.047749
450.326554,-1850.514855,-9992.780217,-306.438199
450.326878,-1998.556043,-9918.759623,-306.438199
450.327202,-1480.411884,-9548.656652,0.000000
450.327527,-740.205942,-9696.697840,0.000000
450.327851,-592.164754,-9622.677246,0.000000
450.328175,-888.247130,-9844.739029,689.485948
450.328499,-1258.350101,-8956.491898,153.219100
450.328824,-1036.288319,-8068.244768,612.876398
450.329148,-592.164754,-7772.162391,383.047749
450.329472,370.102971,-7846.182985,536.266849
450.329796,962.267725,-8438.347739,536.266849
450.330120,222.061783,-9844.739029,459.657299
450.330445,-1258.350101,-10807.006753,536.266849
450.330769,-2072.576638,-10140.821405,-76.609550
450.331093,-2590.720797,-9252.574275,76.609550
450.331417,-2072.576638,-9030.512492,-306.438199
450.331741,-1110.308913,-9770.718434,229.828649
450.332066,0.000000,-9992.780217,689.485948
450.332390,148.041188,-10362.883188,919.314598
450.332714,74.020594,-9474.636058,689.485948
450.333038,74.020594,-8142.265362,0.000000
450.333357,888.247130,-7698.141797,536.266849
450.333682,2368.659014,-8290.306550,306.438199
450.334006,2368.659014,-9104.533087,383.047749
450.334330,1184.329507,-10214.842000,76.609550
450.334654,-592.164754,-10881.027347,-306.438199
450.334978,-1924.535449,-10436.903782,-766.095498
450.335302,-2294.638420,-9474.636058,-383.047749
450.335626,-1776.494261,-9770.718434,-383.047749
450.335950,-592.164754,-10066.800811,-306.438199
450.336274,-444.123565,-10066.800811,-306.438199
450.336598,-222.061783,-10584.944971,0.000000
450.336922,-592.164754,-9844.739029,-306.438199
450.337246,-370.102971,-9252.574275,-383.047749
450.337570,148.041188,-8882.471304,0.000000
450.337894,1554.432478,-9326.594869,0.000000
450.338218,2220.617826,-9252.574275,0.000000
450.338543,2146.597232,-10066.800811,-842.705048
450.338867,962.267725,-11621.233289,-766.095498
450.339191,-740.205942,-11325.150913,-1072.533697
450.339515,-1184.329507,-10510.924376,-1225.752797
450.339839,-1110.308913,-9918.759623,-842.705048
450.340163,222.061783,-10066.800811,-306.438199
450.340487,518.144159,-10066.800811,76.609550
450.340811,962.267725,-10436.903782,306.438199
450.341135,518.144159,-9770.718434,459.657299
450.341459,222.061783,-9030.512492,0.000000
450.341783,518.144159,-7772.162391,-459.657299
450.342107,1480.411884,-7772.162391,0.000000
450.342431,2738.761985,-8808.450710,459.657299
450.342755,2368.659014,-9770.718434,-153.219100
450.343079,1258.350101,-11103.089130,76.609550
450.343404,-962.267725,-10214.842000,229.828649
450.343728,-1776.494261,-9696.697840,-766.095498
450.344052,-1924.535449,-9178.553681,-612.876398
450.344376,-1258.350101,-9252.574275,-153.219100
450.344700,-592.164754,-9844.739029,-229.828649
450.345024,-1332.370696,-9770.718434,383.047749
450.345348,-1480.411884,-9474.636058,153.219100
450.345672,-1702.473667,-8660.409521,383.047749
450.345996,-1332.370696,-8068.244768,229.828649
450.346320,296.082377,-8364.327145,153.219100
450.346644,1184.329507,-8586.388927,306.438199
450.346968,1258.350101,-9326.594869,0.000000
450.347292,370.102971,-10584.944971,306.438199
450.347616,-1036.288319,-11103.089130,-306.438199
450.347940,-2072.576638,-10362.883188,-229.828649
450.348265,-1258.350101,-10066.800811,-459.657299
450.348589,-296.082377,-9992.780217,-229.828649
450.348913,740.205942,-10140.821405,306.438199
450.349237,1258.350101,-10362.883188,612.876398
450.349561,1258.350101,-10510.924376,536.266849
450.349885,1036.288319,-9918.759623,536.266849
450.350209,740.205942,-8882.471304,0.000000
450.350533,1258.350101,-8586.388927,612.876398
450.350857,2072.576638,-9548.656652,766.095498
450.351181,2220.617826,-9992.780217,306.438199
450.351505,888.247130,-10510.924376,229.828649
450.351829,-1036.288319,-11547.212695,-229.828649
450.352153,-2442.679609,-10436.903782,-306.438199
450.352477,-2664.741391,-9918.759623,-612.876398
450.352801,-2146.597232,-9474.636058,0.000000
450.353126,-1332.370696,-9474.636058,0.000000
450.353450,-1258.350101,-10140.821405,76.609550
450.353774,-1480.411884,-10140.821405,153.219100
450.354098,-1628.453072,-9474.636058,0.000000
450.354422,-1258.350101,-8586.388927,919.314598
450.354746,74.020594,-8068.244768,766.095498
450.355070,1184.329507,-8142.265362,766.095498
450.355394,1998.556043,-8438.347739,919.314598
450.355718,1406.391290,-9548.656652,842.705048
450.356042,0.000000,-10807.006753,306.438199
450.356366,-1406.391290,-10288.862594,0.000000
450.356690,-1924.535449,-9474.636058,-459.657299
450.357014,-1480.411884,-9104.533087,-229.828649
450.357338,-740.205942,-8808.450710,-383.047749
450.357662,0.000000,-9326.594869,-153.219100
450.357986,444.123565,-9326.594869,0.000000
450.358311,222.061783,-9474.636058,153.219100
450.358635,370.102971,-8882.471304,-153.219100
450.358959,814.226536,-8216.285956,0.000000
450.359283,1850.514855,-8512.368333,229.828649
450.359607,2886.803174,-9474.636058,0.000000
450.359931,2738.761985,-10881.027347,536.266849
450.360255,592.164754,-11547.212695,-306.438199
450.360579,-1258.350101,-11695.253884,-536.266849
450.360903,-1924.535449,-11103.089130,-1072.533697
450.361227,-1776.494261,-10732.986159,-919.314598
450.361551,-1184.329507,-10955.047942,0.000000
450.361875,0.000000,-11251.130318,0.000000
450.362199,0.000000,-10881.027347,-229.828649
450.362523,0.000000,-10288.862594,0.000000
450.362847,0.000000,-9474.636058,0.000000
450.363172,592.164754,-8660.409521,-306.438199
450.363496,1554.432478,-8438.347739,0.000000
450.363820,2220.617826,-8956.491898,-153.219100
450.364144,2294.638420,-9400.615463,-229.828649
450.364468,814.226536,-10362.883188,-383.047749
450.364792,-296.082377,-10584.944971,-459.657299
450.365116,-740.205942,-9770.718434,-842.705048
450.365440,-740.205942,-9400.615463,-383.047749
450.365764,-222.061783,-9770.718434,153.219100
450.366088,0.000000,-9474.636058,0.000000
450.366412,370.102971,-10066.800811,306.438199
450.366736,0.000000,-9918.759623,459.657299
450.367060,-148.041188,-8882.471304,383.047749
450.367384,74.020594,-8142.265362,-229.828649
450.367708,1258.350101,-7846.182985,459.657299
450.368033,2146.597232,-8660.409521,612.876398
450.368357,2294.638420,-9622.677246,536.266849
450.368681,666.185348,-10732.986159,153.219100
450.369005,-1628.453072,-11251.130318,0.000000
450.369329,-2442.679609,-10436.903782,-459.657299
450.369653,-2960.823768,-9474.636058,-153.219100
450.369977,-2146.597232,-9474.636058,153.219100
450.370301,-962.267725,-9770.718434,1072.533697
450.370625,-592.164754,-9696.697840,0.000000
450.370949,-962.267725,-9548.656652,919.314598
450.371273,-1110.308913,-8364.327145,459.657299
450.371597,-1110.308913,-7624.121203,0.000000
450.371921,-444.123565,-7550.100608,0.000000
450.372245,814.226536,-8216.285956,153.219100
450.372569,1554.432478,-9178.553681,229.828649
450.372894,1036.288319,-9844.739029,229.828649
450.373218,-148.041188,-11029.068536,0.000000
450.373542,-1036.288319,-11029.068536,-383.047749
450.373866,-1036.288319,-10436.903782,-153.219100
450.374190,-814.226536,-10140.821405,-459.657299
450.374514,-222.061783,-10288.862594,-459.657299
450.374838,222.061783,-10881.027347,-153.219100
450.375162,296.082377,-10955.047942,0.000000
450.375486,0.000000,-10288.862594,0.000000
450.375810,-148.041188,-9326.594869,-306.438199
450.376134,592.164754,-8956.491898,-612.876398
450.376458,1332.370696,-8734.430116,76.609550
450.376782,2368.659014,-9770.718434,-919.314598
450.377106,1258.350101,-10510.924376,-689.485948
450.377430,0.000000,-11695.253884,-689.485948
450.377755,-1702.473667,-11325.150913,-995.924147
450.378079,-2146.597232,-9992.780217,-1149.143247
450.378403,-1702.473667,-9252.574275,-536.266849
450.378727,-148.041188,-9252.574275,-842.705048
450.379051,444.123565,-9770.718434,-689.485948
450.379375,592.164754,-10288.862594,-459.657299
450.379699,0.000000,-9548.656652,-153.219100
450.380023,-148.041188,-8956.491898,-383.047749
450.380347,148.041188,-7920.203579,-459.657299
450.380671,1480.411884,-8068.244768,306.438199
450.380995,2072.576638,-9178.553681,0.000000
450.381319,2368.659014,-9844.739029,0.000000
450.381643,592.164754,-10288.862594,-383.047749
450.381967,-1110.308913,-10732.986159,-842.705048
450.382291,-2220.617826,-10066.800811,-842.705048
450.382616,-1998.556043,-9474.636058,-766.095498
450.382940,-1184.329507,-9474.636058,-612.876398
450.383264,0.000000,-9474.636058,-459.657299
450.383588,370.102971,-9992.780217,153.219100
450.383912,740.205942,-10066.800811,76.609550
450.384236,296.082377,-9104.533087,76.609550
450.384560,592.164754,-8512.368333,229.828649
450.384884,1480.411884,-8438.347739,536.266849
450.385208,2442.679609,-9178.553681,766.095498
450.385532,2738.761985,-9918.759623,689.485948
450.385856,1184.329507,-10732.986159,459.657299
450.386180,0.000000,-11103.089130,229.828649
450.386504,-1480.411884,-10510.924376,153.219100
450.386828,-1850.514855,-9548.656652,-306.438199
450.387152,-1480.411884,-9474.636058,153.219100
450.387477,-666.185348,-9844.739029,536.266849
450.387801,-370.102971,-10214.842000,383.047749
450.388125,-444.123565,-10066.800811,-153.219100
450.388449,-518.144159,-8882.471304,766.095498
450.388773,0.000000,-8216.285956,76.609550
450.389097,740.205942,-8068.244768,459.657299
450.389421,1924.535449,-8438.347739,1149.143247
450.389745,1998.556043,-9326.594869,1072.533697
450.390069,1036.288319,-10214.842000,612.876398
450.390393,-888.247130,-10436.903782,459.657299
450.390717,-1850.514855,-9844.739029,689.485948
450.391041,-1702.473667,-9770.718434,766.095498
450.391365,-1480.411884,-9474.636058,0.000000
450.391689,-666.185348,-10066.800811,229.828649
450.392013,0.000000,-9918.759623,689.485948
450.392338,0.000000,-10362.883188,919.314598
450.392662,-740.205942,-9474.636058,612.876398
450.392986,-518.144159,-8216.285956,153.219100
450.393310,296.082377,-8512.368333,766.095498
450.393634,1850.514855,-8956.491898,1225.752797
450.393958,2664.741391,-9474.636058,383.047749
450.394282,1628.453072,-10510.924376,459.657299
450.394606,-296.082377,-11103.089130,0.000000
450.394930,-1924.535449,-10807.006753,-306.438199
450.395254,-2220.617826,-9992.780217,0.000000
450.395578,-1480.411884,-9178.553681,-153.219100
450.395902,-444.123565,-9770.718434,0.000000
450.396226,148.041188,-10214.842000,536.266849
450.396550,0.000000,-9918.759623,76.609550
450.396874,-370.102971,-9474.636058,153.219100
450.397198,-592.164754,-8660.409521,-306.438199
450.397523,148.041188,-8290.306550,0.000000
450.397847,1554.432478,-7920.203579,0.000000
450.398171,2368.659014,-8364.327145,76.609550
450.398495,1702.473667,-9622.677246,-536.266849
450.398819,148.041188,-10807.006753,-689.485948
450.399143,-1406.391290,-10584.944971,-919.314598
450.399467,-1924.535449,-10140.821405,-842.705048
450.399791,-1850.514855,-9992.780217,-842.705048
450.400115,-962.267725,-9696.697840,-306.438199
450.400439,-444.123565,-10214.842000,0.000000
450.400763,-592.164754,-10732.986159,-153.219100
450.401087,-592.164754,-9992.780217,-306.438199
450.401411,-1110.308913,-8956.491898,-459.657299
450.401735,-222.061783,-8364.327145,-689.485948
450.402059,962.267725,-8290.306550,-459.657299
450.402384,2146.597232,-8364.327145,-383.047749
450.402708,2368.659014,-9844.739029,-383.047749
450.403032,296.082377,-10955.047942,-536.266849
450.403356,-1036.288319,-10807.006753,-536.266849
450.403680,-1554.432478,-9770.718434,-995.924147
450.404004,-1480.411884,-9400.615463,-689.485948
450.404328,-518.144159,-9474.636058,-842.705048
450.404652,148.041188,-9844.739029,-383.047749
450.404976,74.020594,-9844.739029,-306.438199
450.405300,-296.082377,-9474.636058,0.000000
450.405624,-1036.288319,-9030.512492,-612.876398
450.405948,-444.123565,-8364.327145,-1149.143247
450.406272,1184.329507,-8438.347739,0.000000
450.406596,2516.700203,-9104.533087,306.438199
450.406920,2368.659014,-9770.718434,-153.219100
450.407245,888.247130,-10955.047942,-153.219100
450.407569,-666.185348,-11029.068536,0.000000
450.407893,-1924.535449,-10584.944971,-689.485948
450.408217,-1628.453072,-10066.800811,-842.705048
450.408541,-1628.453072,-10140.821405,-536.266849
450.408865,-740.205942,-10584.944971,-229.828649
450.409189,-296.082377,-10807.006753,0.000000
450.409513,-444.123565,-10436.903782,0.000000
450.409837,-740.205942,-9474.636058,76.609550
450.410161,-296.082377,-8808.450710,0.000000
450.410485,370.102971,-8512.368333,0.000000
450.410809,1850.514855,-8364.327145,229.828649
450.411133,2294.638420,-9474.636058,153.219100
450.411457,1776.494261,-11029.068536,383.047749
450.411781,370.102971,-11399.171507,0.000000
450.412106,-592.164754,-10658.965565,-76.609550
450.412430,-740.205942,-9622.677246,76.609550
450.412754,-222.061783,-9844.739029,-153.219100
450.413078,888.247130,-10066.800811,536.266849
450.413402,1406.391290,-10362.883188,1149.143247
450.413726,1036.288319,-10436.903782,1072.533697
450.414050,0.000000,-9844.739029,612.876398
450.414374,-444.123565,-9104.533087,459.657299
450.414698,0.000000,-8290.306550,612.876398
450.415022,962.267725,-8364.327145,689.485948
450.415346,1406.391290,-8660.409521,842.705048
450.415670,1480.411884,-9622.677246,1149.143247
450.415994,-444.123565,-10288.862594,459.657299
450.416318,-1850.514855,-10362.883188,0.000000
450.416642,-2516.700203,-9474.636058,0.000000
450.416967,-2590.720797,-9252.574275,76.609550
450.417291,-2072.576638,-9030.512492,766.095498
450.417615,-888.247130,-9326.594869,383.047749
450.417939,-740.205942,-9326.594869,459.657299
450.418263,-296.082377,-9400.615463,689.485948
450.418587,-148.041188,-8734.430116,383.047749
450.418911,370.102971,-7994.224174,689.485948
450.419235,1628.453072,-7550.100608,766.095498
450.419559,2738.761985,-8882.471304,919.314598
450.419883,2442.679609,-9844.739029,229.828649
450.420207,1332.370696,-11103.089130,689.485948
450.420531,-740.205942,-10807.006753,229.828649
450.420855,-1850.514855,-9992.780217,-536.266849
450.421179,-1628.453072,-9548.656652,-383.047749
450.421503,-962.267725,-9844.739029,-306.438199
450.421828,-296.082377,-10140.821405,-153.219100
450.422152,-740.205942,-10140.821405,306.438199
450.422476,-592.164754,-10140.821405,-995.924147
450.422800,-1258.350101,-9400.615463,-1149.143247
450.423124,-444.123565,-9030.512492,-689.485948
450.423448,1036.288319,-8660.409521,0.000000
450.423772,2146.597232,-9178.553681,0.000000
450.424096,2220.617826,-9770.718434,-153.219100
450.424420,1036.288319,-10658.965565,-383.047749
450.424744,-444.123565,-11621.233289,-383.047749
450.425068,-740.205942,-11029.068536,-612.876398
450.425392,-1406.391290,-10140.821405,-536.266849
450.425716,-814.226536,-10288.862594,-459.657299
450.426040,0.000000,-10436.903782,-612.876398
450.426364,222.061783,-10362.883188,-383.047749
450.426689,222.061783,-10214.842000,-306.438199
450.427013,888.247130,-9474.636058,-459.657299
450.427337,814.226536,-8734.430116,-153.219100
450.427661,1702.473667,-8142.265362,-229.828649
450.427985,2812.782580,-8438.347739,-383.047749
450.428309,2812.782580,-9474.636058,-459.657299
450.428633,1406.391290,-10955.047942,-536.266849
450.428957,-296.082377,-11399.171507,-766.095498
450.429281,-1110.308913,-10436.903782,-766.095498
450.429605,-1702.473667,-9400.615463,-306.438199
450.429929,-592.164754,-9844.739029,-383.047749
450.430253,-518.144159,-10066.800811,0.000000
450.430577,-444.123565,-10214.842000,-153.219100
450.430901,-888.247130,-10214.842000,0.000000
450.431225,-962.267725,-9622.677246,-306.438199
450.431550,-518.144159,-8808.450710,153.219100
450.431874,296.082377,-8216.285956,229.828649
450.432198,1258.350101,-8216.285956,689.485948
450.432522,2072.576638,-9400.615463,0.000000
450.432846,666.185348,-10288.862594,76.609550
450.433170,-666.185348,-10955.047942,-306.438199
450.433494,-1702.473667,-10436.903782,-536.266849
450.433818,-1776.494261,-9548.656652,-153.219100
450.434142,-1332.370696,-9474.636058,306.438199
450.434466,-666.185348,-9622.677246,536.266849
450.434790,518.144159,-9622.677246,536.266849
450.435114,370.102971,-9104.533087,689.485948
450.435438,0.000000,-9400.615463,766.095498
450.435762,0.000000,-8734.430116,689.485948
450.436086,296.082377,-7624.121203,689.485948
450.436410,1110.308913,-7476.080014,689.485948
450.436735,1628.453072,-8364.327145,229.828649
450.437059,1628.453072,-10288.862594,536.266849
450.437383,0.000000,-11103.089130,766.095498
450.437707,-1332.370696,-10732.986159,-153.219100
450.438031,-1924.535449,-9918.759623,-229.828649
450.438355,-1628.453072,-9770.718434,0.000000
450.438679,-1110.308913,-10066.800811,306.438199
450.439003,-222.061783,-10362.883188,612.876398
450.439327,0.000000,-10288.862594,459.657299
450.439651,-296.082377,-9992.780217,229.828649
450.439976,-666.185348,-9252.574275,306.438199
450.440300,0.000000,-8734.430116,0.000000
450.440624,814.226536,-8438.347739,153.219100
450.440948,1332.370696,-9178.553681,0.000000
450.441272,888.247130,-10362.883188,0.000000
450.441596,-222.061783,-11399.171507,76.609550
450.441920,-962.267725,-11473.192101,-842.705048
450.442244,-1924.535449,-10510.924376,-459.657299
450.442568,-1998.556043,-9844.739029,-459.657299
450.442893,-1406.391290,-10214.842000,-459.657299
450.443217,-962.267725,-10436.903782,0.000000
450.443541,-444.123565,-10140.821405,76.609550
450.443865,-888.247130,-9844.739029,76.609550
450.444189,-592.164754,-9326.594869,-153.219100
450.444513,0.000000,-8290.306550,-306.438199
450.444837,592.164754,-7402.059420,-229.828649
450.445161,1924.535449,-8512.368333,-383.047749
450.445485,1924.535449,-9548.656652,-229.828649
450.445809,1036.288319,-11029.068536,-383.047749
450.446134,-518.144159,-11473.192101,-612.876398
450.446458,-1332.370696,-10658.965565,-612.876398
450.446782,-1480.411884,-10140.821405,-153.219100
450.447106,-814.226536,-9844.739029,229.828649
450.447430,0.000000,-10214.842000,76.609550
450.447754,444.123565,-10214.842000,76.609550
450.448078,370.102971,-10288.862594,0.000000
450.448402,222.061783,-9696.697840,0.000000
450.448726,592.164754,-8734.430116,76.609550
450.449050,1628.453072,-7920.203579,76.609550
450.449375,2220.617826,-8068.244768,-153.219100
450.449699,2368.659014,-8808.450710,153.219100
450.450023,2072.576638,-10288.862594,-229.828649
450.450347,888.247130,-10732.986159,-153.219100
450.450671,0.000000,-10510.924376,-459.657299
450.450995,-666.185348,-9770.718434,153.219100
450.451319,-148.041188,-9844.739029,153.219100
450.451643,148.041188,-10436.903782,0.000000
450.451967,148.041188,-10436.903782,689.485948
450.452291,-296.082377,-10140.821405,459.657299
450.452616,-370.102971,-9104.533087,229.828649
450.452940,0.000000,-8290.306550,383.047749
450.453264,814.226536,-7698.141797,536.266849
450.453588,1406.391290,-7550.100608,306.438199
450.453912,1850.514855,-8660.409521,153.219100
450.454236,1258.350101,-10288.862594,-766.095498
450.454560,-1184.329507,-10955.047942,-306.438199
450.454884,-2220.617826,-10362.883188,-306.438199
450.455208,-2664.741391,-9400.615463,0.000000
450.455533,-1998.556043,-9622.677246,0.000000
450.455857,-666.185348,-9844.739029,536.266849
450.456181,0.000000,-10214.842000,612.876398
450.456505,148.041188,-10658.965565,612.876398
450.456829,-444.123565,-9918.759623,306.438199
450.457153,-740.205942,-9326.594869,459.657299
450.457477,-518.144159,-8290.306550,612.876398
450.457801,962.267725,-8956.491898,306.438199
450.458125,1554.432478,-9252.574275,229.828649
450.458449,1776.494261,-9696.697840,153.219100
450.458774,518.144159,-11251.130318,-383.047749
450.459098,-666.185348,-11399.171507,-842.705048
450.459422,-1332.370696,-10362.883188,-842.705048
450.459746,-1110.308913,-10436.903782,-153.219100
450.460070,-1110.308913,-9918.759623,-612.876398
450.460394,-888.247130,-10214.842000,0.000000
450.460718,-666.185348,-10807.006753,306.438199
450.461042,-444.123565,-10214.842000,459.657299
450.461366,-222.061783,-9104.533087,0.000000
450.461690,296.082377,-7698.141797,-229.828649
450.462015,666.185348,-7550.100608,-153.219100
450.462339,1332.370696,-8364.327145,-153.219100
450.462663,1332.370696,-9252.574275,-229.828649
450.462987,222.061783,-10732.986159,-383.047749
450.463311,-1184.329507,-10658.965565,-536.266849
450.463635,-1776.494261,-9622.677246,-612.876398
450.463959,-1628.453072,-9030.512492,-995.924147
450.464283,-962.267725,-9104.533087,0.000000
450.464607,0.000000,-9622.677246,0.000000
450.464931,592.164754,-10436.903782,536.266849
450.465256,740.205942,-10140.821405,459.657299
450.465580,296.082377,-9326.594869,229.828649
450.465904,444.123565,-8142.265362,0.000000
450.466228,1110.308913,-8142.265362,76.609550
450.466552,1776.494261,-8660.409521,383.047749
450.466876,2220.617826,-8956.491898,-229.828649
450.467200,1924.535449,-10066.800811,76.609550
450.467524,296.082377,-10510.924376,-229.828649
450.467848,-1258.350101,-10362.883188,-919.314598
450.468173,-1998.556043,-9696.697840,-1072.533697
450.468497,-1702.473667,-10066.800811,-612.876398
450.468821,-222.061783,-10510.924376,0.000000
450.469145,0.000000,-10658.965565,229.828649
450.469469,148.041188,-9844.739029,-153.219100
450.469793,74.020594,-9104.533087,0.000000
450.470117,0.000000,-8512.368333,-383.047749
450.470441,518.144159,-8586.388927,0.000000
450.470765,1406.391290,-8808.450710,76.609550
450.471089,1628.453072,-9252.574275,-153.219100
450.471414,814.226536,-10140.821405,-536.266849
450.471738,-888.247130,-11103.089130,-1225.752797
450.472062,-2146.597232,-10807.006753,-1455.581446
450.472386,-2294.638420,-10066.800811,-995.924147
450.472710,-1702.473667,-9770.718434,-919.314598
450.473034,-740.205942,-10140.821405,-153.219100
450.473358,370.102971,-10584.944971,306.438199
450.473682,740.205942,-10436.903782,153.219100
450.474006,740.205942,-9992.780217,229.828649
450.474330,518.144159,-8882.471304,0.000000
450.474655,1332.370696,-8808.450710,383.047749
450.474979,2146.597232,-9030.512492,536.266849
450.475303,2738.761985,-9622.677246,229.828649
450.475627,2294.638420,-10436.903782,-229.828649
450.475951,148.041188,-11251.130318,-612.876398
450.476275,-1110.308913,-10955.047942,-1532.190996
450.476599,-1480.411884,-9992.780217,-766.095498
450.476923,-814.226536,-9548.656652,76.609550
450.477247,-148.041188,-9548.656652,0.000000
450.477571,0.000000,-9844.739029,306.438199
450.477896,0.000000,-9770.718434,459.657299
450.478220,-444.123565,-9400.615463,383.047749
450.478544,-296.082377,-8364.327145,76.609550
450.478868,296.082377,-7920.203579,612.876398
450.479192,1332.370696,-7328.038826,689.485948
450.479516,1406.391290,-7846.182985,459.657299
450.479840,962.267725,-9326.594869,229.828649
450.480164,-740.205942,-10658.965565,-229.828649
450.480488,-2294.638420,-10807.006753,-229.828649
450.480813,-2590.720797,-10066.800811,-689.485948
450.481137,-2294.638420,-8734.430116,-766.095498
450.481461,-1406.391290,-8586.388927,76.609550
450.481785,-740.205942,-9474.636058,0.000000
450.482109,-370.102971,-10214.842000,383.047749
450.482433,-444.123565,-10362.883188,459.657299
450.482757,-444.123565,-9252.574275,229.828649
450.483081,-222.061783,-8512.368333,536.266849
450.483405,814.226536,-8586.388927,306.438199
450.483729,1406.391290,-8882.471304,536.266849
450.484054,1702.473667,-10140.821405,536.266849
450.484378,666.185348,-10584.944971,76.609550
450.484702,-1036.288319,-11251.130318,0.000000
450.485026,-1850.514855,-10436.903782,-536.266849
450.485350,-1850.514855,-9622.677246,-306.438199
450.485674,-962.267725,-9918.759623,-153.219100
450.485998,-518.144159,-10288.862594,-153.219100
450.486322,0.000000,-11325.150913,229.828649
450.486646,-296.082377,-9918.759623,689.485948
450.486970,-370.102971,-9400.615463,153.219100
450.487295,0.000000,-8882.471304,76.609550
450.487619,888.247130,-8364.327145,229.828649
450.487943,1924.535449,-8882.471304,153.219100
450.488267,2146.597232,-9400.615463,0.000000
450.488591,814.226536,-10288.862594,306.438199
450.488915,-592.164754,-11103.089130,-459.657299
450.489239,-1924.535449,-9918.759623,-842.705048
450.489563,-2294.638420,-9474.636058,-1072.533697
450.489887,-1406.391290,-9474.636058,-612.876398
450.490211,-222.061783,-9770.718434,-459.657299
450.490536,74.020594,-10288.862594,-153.219100
450.490860,222.061783,-10436.903782,153.219100
450.491184,0.000000,-9474.636058,-306.438199
450.491508,148.041188,-8364.327145,-536.266849
450.491832,740.205942,-8142.265362,-306.438199
450.492156,1554.432478,-8216.285956,-153.219100
450.492480,2368.659014,-8586.388927,-229.828649
450.492804,1924.535449,-9696.697840,-689.485948
450.493128,370.102971,-10658.965565,-1225.752797
450.493453,-370.102971,-10140.821405,-1532.190996
450.493777,-962.267725,-10288.862594,-689.485948
450.494101,-740.205942,-9844.739029,-459.657299
450.494425,-296.082377,-10436.903782,-612.876398
450.494749,148.041188,-11029.068536,0.000000
450.495073,148.041188,-11103.089130,306.438199
450.495397,0.000000,-10510.924376,-153.219100
450.495721,0.000000,-9178.553681,0.000000
450.496045,740.205942,-8068.244768,-1149.143247
450.496369,1628.453072,-8512.368333,-383.047749
450.496694,2368.659014,-9178.553681,-229.828649
450.497018,1480.411884,-10066.800811,-383.047749
450.497342,-296.082377,-11177.109724,-842.705048
450.497666,-1850.514855,-11177.109724,-919.314598
450.497990,-1776.494261,-10362.883188,-1072.533697
450.498314,-1628.453072,-9252.574275,-612.876398
450.498638,-666.185348,-9770.718434,383.047749
450.498962,-740.205942,-9474.636058,229.828649
450.499286,-814.226536,-10066.800811,229.828649
450.499610,-888.247130,-9918.759623,306.438199
450.499935,-888.247130,-9252.574275,-153.219100
450.500259,-518.144159,-8438.347739,0.000000
450.500583,740.205942,-8290.306550,612.876398
450.500907,1924.535449,-8512.368333,459.657299
450.501231,2220.617826,-9770.718434,612.876398
450.501555,1924.535449,-11177.109724,919.314598
450.501879,592.164754,-11029.068536,919.314598
450.502203,-296.082377,-10214.842000,0.000000
450.502527,-1036.288319,-9770.718434,0.000000
450.502851,-1036.288319,-9918.759623,0.000000
450.503176,-962.267725,-10066.800811,229.828649
450.503500,-962.267725,-10436.903782,306.438199
450.503824,-1480.411884,-9474.636058,459.657299
450.504148,-1480.411884,-8216.285956,76.609550
450.504472,-1110.308913,-7254.018232,383.047749
450.504796,0.000000,-7254.018232,0.000000
450.505120,592.164754,-7920.203579,536.266849
450.505444,666.185348,-8956.491898,229.828649
450.505768,-666.185348,-9918.759623,-229.828649
450.506092,-1406.391290,-10288.862594,0.000000
450.506417,-1776.494261,-9918.759623,0.000000
450.506741,-1480.411884,-9474.636058,0.000000
450.507065,-518.144159,-9178.553681,459.657299
450.507389,-296.082377,-9992.780217,76.609550
450.507713,148.041188,-10362.883188,153.219100
450.508037,148.041188,-10066.800811,-153.219100
450.508361,222.061783,-9992.780217,0.000000
450.508685,370.102971,-8956.491898,0.000000
450.509009,1184.329507,-9326.594869,-306.438199
450.509334,1776.494261,-8438.347739,0.000000
450.509658,2368.659014,-9400.615463,-383.047749
450.509982,1628.453072,-10510.924376,-536.266849
450.510306,444.123565,-11769.274478,-995.924147
450.510630,-148.041188,-11473.192101,-689.485948
450.510954,-444.123565,-10584.944971,-766.095498
450.511278,-296.082377,-9844.739029,-459.657299
450.511602,518.144159,-10436.903782,-383.047749
450.511926,666.185348,-10955.047942,-1302.362347
450.512250,740.205942,-11251.130318,-153.219100
450.512575,444.123565,-10362.883188,-459.657299
450.512899,296.082377,-9178.553681,-383.047749
450.513223,814.226536,-8512.368333,0.000000
450.513547,1628.453072,-8882.471304,0.000000
450.513871,2072.576638,-9474.636058,-766.095498
450.514195,1702.473667,-10658.965565,-153.219100
450.514519,74.020594,-11399.171507,-766.095498
450.514843,-1110.308913,-11029.068536,-766.095498
450.515167,-2072.576638,-10140.821405,-995.924147
450.515491,-2294.638420,-9548.656652,-766.095498
450.515816,-1924.535449,-9326.594869,0.000000
450.516140,-1332.370696,-9474.636058,-383.047749
450.516464,-814.226536,-9918.759623,76.609550
450.516788,-740.205942,-9030.512492,0.000000
450.517112,-296.082377,-8290.306550,0.000000
450.517436,0.000000,-7550.100608,0.000000
450.517760,222.061783,-7476.080014,0.000000
450.518084,888.247130,-7920.203579,153.219100
450.518408,1554.432478,-9548.656652,383.047749
450.518732,518.144159,-11251.130318,536.266849
450.519057,0.000000,-11029.068536,153.219100
450.519381,-370.102971,-10140.821405,76.609550
450.519705,-888.247130,-9622.677246,76.609550
450.520029,-444.123565,-10066.800811,306.438199
450.520353,370.102971,-10436.903782,995.924147
450.520677,592.164754,-10584.944971,1072.533697
450.521001,222.061783,-9918.759623,1225.752797
450.521325,-518.144159,-8734.430116,1149.143247
450.521649,0.000000,-8438.347739,766.095498
450.521974,296.082377,-8142.265362,536.266849
450.522298,1036.288319,-8734.430116,536.266849
450.522622,1036.288319,-9474.636058,612.876398
450.522946,0.000000,-10510.924376,536.266849
450.523270,-1480.411884,-10881.027347,0.000000
450.523594,-2664.741391,-9992.780217,0.000000
450.523918,-3034.844362,-9400.615463,459.657299
450.524242,-1850.514855,-9622.677246,0.000000
450.524566,-592.164754,-9844.739029,995.924147
450.524890,222.061783,-10214.842000,1455.581446
450.525215,0.000000,-10066.800811,1149.143247
450.525539,-148.041188,-8808.450710,842.705048
450.525863,0.000000,-7698.141797,536.266849
450.526187,1036.288319,-8068.244768,306.438199
450.526511,1406.391290,-7994.224174,766.095498
450.526835,1850.514855,-8660.409521,383.047749
450.527159,1036.288319,-9992.780217,153.219100
450.527483,0.000000,-11029.068536,-383.047749
450.527807,-1332.370696,-10881.027347,-995.924147
450.528131,-1776.494261,-9696.697840,-766.095498
450.528456,-1258.350101,-9844.739029,-612.876398
450.528780,-592.164754,-9992.780217,-842.705048
450.529104,0.000000,-11177.109724,-459.657299
450.529428,74.020594,-11103.089130,0.000000
450.529752,444.123565,-9992.780217,-153.219100
450.530076,444.123565,-8882.471304,-842.705048
450.530400,666.185348,-8290.306550,-1149.143247
450.530724,1628.453072,-8216.285956,-612.876398
450.531048,2072.576638,-9696.697840,-919.314598
450.531372,1554.432478,-11325.150913,-1072.533697
450.531697,-222.061783,-11843.295072,-1302.362347
450.532021,-1776.494261,-10955.047942,-1762.019645
450.532345,-2368.659014,-9696.697840,-1915.238745
450.532669,-2368.659014,-9622.677246,-1455.581446
450.532993,-1924.535449,-10140.821405,-1072.533697
450.533317,-1184.329507,-10732.986159,-689.485948
450.533641,-1110.308913,-10807.006753,-536.266849
450.533965,-592.164754,-9844.739029,-689.485948
450.534289,0.000000,-9030.512492,-1149.143247
450.534613,444.123565,-8438.347739,-1149.143247
450.534938,1406.391290,-8734.430116,-612.876398
450.535262,2442.679609,-9252.574275,-383.047749
450.535586,2960.823768,-9770.718434,0.000000
450.535910,1702.473667,-10584.944971,383.047749
450.536234,444.123565,-10658.965565,-612.876398
450.536558,-444.123565,-10214.842000,-766.095498
450.536882,-592.164754,-10066.800811,-612.876398
450.537206,-296.082377,-10288.862594,-306.438199
450.537530,444.123565,-10436.903782,536.266849
450.537854,296.082377,-10288.862594,1149.143247
450.538178,-296.082377,-9252.574275,1072.533697
450.538502,0.000000,-8216.285956,-153.219100
450.538826,-148.041188,-7105.977043,612.876398
450.539150,814.226536,-7624.121203,536.266849
450.539474,1702.473667,-7994.224174,766.095498
450.539799,1628.453072,-8734.430116,842.705048
450.540123,74.020594,-9770.718434,383.047749
450.540447,-1628.453072,-9992.780217,536.266849
450.540771,-2294.638420,-9400.615463,229.828649
450.541095,-2516.700203,-8660.409521,612.876398
450.541419,-1776.494261,-9400.615463,689.485948
450.541743,-296.082377,-10140.821405,1532.190996
450.542067,0.000000,-10584.944971,2068.457845
450.542391,-148.041188,-10214.842000,1915.238745
450.542715,-962.267725,-9030.512492,1072.533697
450.543039,-1628.453072,-8142.265362,612.876398
450.543363,-444.123565,-7994.224174,153.219100
450.543687,814.226536,-8660.409521,842.705048
450.544011,962.267725,-9474.636058,919.314598
450.544336,444.123565,-10807.006753,459.657299
450.544660,-666.185348,-10881.027347,-153.219100
450.544984,-1332.370696,-10732.986159,0.000000
450.545308,-1850.514855,-10362.883188,-153.219100
450.545632,-1110.308913,-10584.944971,0.000000
450.545956,370.102971,-10510.924376,919.314598
450.546280,1258.350101,-11621.233289,1149.143247
450.546604,1184.329507,-11325.150913,842.705048
450.546928,740.205942,-9992.780217,459.657299
450.547252,444.123565,-8882.471304,76.609550
450.547576,1110.308913,-8734.430116,229.828649
450.547900,2294.638420,-9252.574275,229.828649
450.548224,2294.638420,-9178.553681,306.438199
450.548548,1406.391290,-10362.883188,-689.485948
450.548872,-296.082377,-11103.089130,-766.095498
450.549197,-1110.308913,-11029.068536,-1149.143247
450.549521,-1406.391290,-10066.800811,-995.924147
450.549845,-814.226536,-9622.677246,-536.266849
450.550169,-370.102971,-9400.615463,-612.876398
450.550493,370.102971,-9844.739029,-153.219100
450.550817,-74.020594,-9696.697840,-612.876398
450.551141,-518.144159,-9548.656652,-536.266849
450.551465,-370.102971,-8438.347739,-612.876398
450.551789,370.102971,-7920.203579,-612.876398
450.552113,1258.350101,-7846.182985,-306.438199
450.552437,1776.494261,-8290.306550,-612.876398
450.552761,1332.370696,-9252.574275,-153.219100
450.553085,-444.123565,-10140.821405,-995.924147
450.553409,-1628.453072,-10658.965565,-1685.410096
450.553734,-2072.576638,-9844.739029,-1149.143247
450.554058,-1480.411884,-9548.656652,-689.485948
450.554382,-444.123565,-9770.718434,-536.266849
450.554706,222.061783,-10066.800811,-153.219100
450.555030,370.102971,-10140.821405,-459.657299
450.555354,0.000000,-9770.718434,-229.828649
450.555678,0.000000,-7994.224174,-536.266849
450.556002,148.041188,-7846.182985,-229.828649
450.556326,1184.329507,-8216.285956,-153.219100
450.556650,1850.514855,-9326.594869,-229.828649
450.556974,1554.432478,-10362.883188,-229.828649
450.557298,74.020594,-10955.047942,-306.438199
450.557622,-1924.535449,-10658.965565,-612.876398
450.557946,-2812.782580,-9696.697840,-459.657299
450.558270,-1998.556043,-9474.636058,-689.485948
450.558595,-1036.288319,-9992.780217,-383.047749
450.558919,-444.123565,-10288.862594,0.000000
450.559243,-296.082377,-10288.862594,0.000000
450.559567,-518.144159,-10066.800811,383.047749
450.559891,-370.102971,-9400.615463,0.000000
450.560215,518.144159,-8660.409521,76.609550
450.560539,1258.350101,-8438.347739,766.095498
450.560863,1998.556043,-9178.553681,459.657299
450.561187,2368.659014,-9696.697840,153.219100
450.561511,1480.411884,-11399.171507,229.828649
450.561835,74.020594,-11843.295072,153.219100
450.562159,-888.247130,-10807.006753,229.828649
450.562483,-962.267725,-10288.862594,306.438199
450.562807,-518.144159,-9918.759623,153.219100
450.563132,296.082377,-10214.842000,0.000000
450.563456,666.185348,-10288.862594,536.266849
450.563780,222.061783,-9844.739029,459.657299
450.564104,74.020594,-8808.450710,0.000000
450.564428,0.000000,-8142.265362,0.000000
450.564752,518.144159,-7920.203579,459.657299
450.565076,1258.350101,-7846.182985,383.047749
450.565400,1628.453072,-8734.430116,306.438199
450.565724,666.185348,-10362.883188,153.219100
450.566048,-962.267725,-10955.047942,-306.438199
450.566372,-1998.556043,-10436.903782,-306.438199
450.566696,-2442.679609,-9474.636058,-383.047749
450.567020,-1850.514855,-9178.553681,0.000000
450.567344,-1332.370696,-9252.574275,76.609550
450.567669,-740.205942,-10066.800811,766.095498
450.567993,-814.226536,-9844.739029,536.266849
450.568317,-962.267725,-8956.491898,229.828649
450.568641,-814.226536,-8068.244768,0.000000
450.568965,-814.226536,-7698.141797,76.609550
450.569289,518.144159,-7772.162391,306.438199
450.569613,888.247130,-8290.306550,536.266849
450.569937,740.205942,-9474.636058,306.438199
450.570261,-1110.308913,-10732.986159,-842.705048
450.570585,-2294.638420,-10510.924376,-995.924147
450.570909,-2368.659014,-9548.656652,-919.314598
450.571233,-1702.473667,-9474.636058,-459.657299
450.571557,-666.185348,-9992.780217,229.828649
450.571881,0.000000,-10436.903782,153.219100
450.572205,370.102971,-10584.944971,536.266849
450.572530,518.144159,-9770.718434,459.657299
450.572854,814.226536,-9178.553681,229.828649
450.573178,1480.411884,-8364.327145,0.000000
450.573502,2442.679609,-8808.450710,153.219100
450.573826,3256.906145,-10066.800811,459.657299
450.574150,2738.761985,-11029.068536,229.828649
450.574474,888.247130,-11843.295072,-306.438199
450.574798,-1110.308913,-11621.233289,-1685.410096
450.575122,-2294.638420,-10658.965565,-1149.143247
450.575446,-2146.597232,-10214.842000,-995.924147
450.575770,-888.247130,-10436.903782,-153.219100
450.576094,0.000000,-10214.842000,229.828649
450.576418,0.000000,-10214.842000,0.000000
450.576742,-518.144159,-9474.636058,-459.657299
450.577067,-740.205942,-8660.409521,-536.266849
450.577391,-444.123565,-7846.182985,-459.657299
450.577715,740.205942,-8142.265362,0.000000
450.578039,1036.288319,-8882.471304,0.000000
450.578363,1850.514855,-9918.759623,383.047749
450.578687,666.185348,-10732.986159,-153.219100
450.579011,-518.144159,-11177.109724,-459.657299
450.579335,-1406.391290,-10140.821405,-766.095498
450.579659,-1258.350101,-9548.656652,-536.266849
450.579983,-444.123565,-9252.574275,-306.438199
450.580307,444.123565,-9622.677246,-153.219100
450.580631,592.164754,-9622.677246,229.828649
450.580955,888.247130,-9548.656652,0.000000
450.581279,222.061783,-8956.491898,0.000000
450.581603,518.144159,-8068.244768,0.000000
450.581928,1258.350101,-7994.224174,229.828649
450.582252,2294.638420,-8734.430116,383.047749
450.582576,2664.741391,-10214.842000,0.000000
450.582900,888.247130,-10955.047942,-153.219100
450.583224,-296.082377,-11473.192101,536.266849
450.583548,-1406.391290,-10510.924376,-153.219100
450.583872,-1480.411884,-9474.636058,0.000000
450.584196,-444.123565,-9622.677246,76.609550
450.584520,222.061783,-10066.800811,459.657299
450.584844,518.144159,-9770.718434,689.485948
450.585168,666.185348,-9548.656652,612.876398
450.585492,-592.164754,-9326.594869,306.438199
450.585816,-296.082377,-8586.388927,-383.047749
450.586140,0.000000,-8364.327145,76.609550
450.586465,444.123565,-8438.347739,306.438199
450.586789,962.267725,-9178.553681,76.609550
450.587113,592.164754,-10288.862594,0.000000
450.587437,-962.267725,-10436.903782,-459.657299
450.587761,-1332.370696,-10732.986159,-536.266849
450.588085,-2368.659014,-9844.739029,-842.705048
450.588409,-2146.597232,-9548.656652,0.000000
450.588733,-1258.350101,-10066.800811,0.000000
450.589057,-592.164754,-10362.883188,229.828649
450.589381,0.000000,-10362.883188,459.657299
450.589705,148.041188,-9622.677246,0.000000
450.590029,222.061783,-8438.347739,383.047749
450.590353,518.144159,-7994.224174,76.609550
450.590677,1480.411884,-8216.285956,612.876398
450.591001,1702.473667,-9252.574275,0.000000
450.591326,666.185348,-10140.821405,-383.047749
450.591650,-1036.288319,-11029.068536,-459.657299
450.591974,-2368.659014,-10288.862594,-1225.752797
450.592298,-2220.617826,-9548.656652,-919.314598
450.592622,-1924.535449,-8956.491898,-459.657299
450.592946,-740.205942,-9326.594869,-306.438199
450.593270,-222.061783,-9696.697840,-306.438199
450.593594,-518.144159,-9844.739029,0.000000
450.593918,-740.205942,-9622.677246,0.000000
450.594242,-814.226536,-8586.388927,-536.266849
450.594566,74.020594,-8290.306550,-306.438199
450.594890,1628.453072,-8438.347739,383.047749
450.595214,2220.617826,-9252.574275,153.219100
450.595538,2146.597232,-10066.800811,0.000000
450.595863,814.226536,-11473.192101,-383.047749
450.596187,-666.185348,-11621.233289,-612.876398
450.596511,-1184.329507,-10955.047942,-919.314598
450.596835,-1036.288319,-10362.883188,-459.657299
450.597159,-222.061783,-10510.924376,0.000000
450.597483,222.061783,-10436.903782,153.219100
450.597807,222.061783,-10658.965565,459.657299
450.598131,0.000000,-10066.800811,0.000000
450.598455,148.041188,-9400.615463,-536.266849
450.598779,222.061783,-8290.306550,0.000000
450.599103,1628.453072,-8364.327145,153.219100
450.599427,2960.823768,-8808.450710,229.828649
450.599751,2886.803174,-9548.656652,612.876398
450.600075,1480.411884,-10732.986159,0.000000
450.600399,-296.082377,-10807.006753,-229.828649
450.600724,-1110.308913,-10436.903782,-306.438199
450.601048,-962.267725,-9844.739029,0.000000
450.601372,-444.123565,-9696.697840,383.047749
450.601696,0.000000,-9844.739029,689.485948
450.602020,592.164754,-9622.677246,995.924147
450.602344,888.247130,-9622.677246,919.314598
450.602668,592.164754,-9178.553681,612.876398
450.602992,296.082377,-8068.244768,919.314598
450.603316,592.164754,-7772.162391,1072.533697
450.603640,1110.308913,-7994.224174,1072.533697
450.603964,1258.350101,-8290.306550,766.095498
450.604288,74.020594,-9622.677246,919.314598
450.604612,-1776.494261,-10584.944971,76.609550
450.604936,-1924.535449,-10288.862594,0.000000
450.605261,-2368.659014,-9474.636058,153.219100
450.605585,-1850.514855,-8956.491898,536.266849
450.605909,-1110.308913,-9696.697840,842.705048
450.606233,-592.164754,-9844.739029,919.314598
450.606557,74.020594,-9474.636058,1225.752797
450.606881,222.061783,-9252.574275,842.705048
450.607205,148.041188,-7846.182985,689.485948
450.607529,518.144159,-7476.080014,995.924147
450.607853,1554.432478,-8216.285956,689.485948
450.608177,1924.535449,-9178.553681,536.266849
450.608501,1110.308913,-10436.903782,459.657299
450.608825,-592.164754,-11251.130318,0.000000
450.609149,-1850.514855,-10658.965565,-383.047749
450.609473,-2146.597232,-9770.718434,-229.828649
450.609797,-1924.535449,-9844.739029,-842.705048
450.610122,-740.205942,-10436.903782,-153.219100
450.610446,-222.061783,-11177.109724,153.219100
450.610770,0.000000,-10955.047942,0.000000
450.611094,-592.164754,-9992.780217,-383.047749
450.611418,-814.226536,-9178.553681,-919.314598
450.611742,0.000000,-8586.388927,-459.657299
450.612066,888.247130,-8882.471304,-612.876398
450.612390,1554.432478,-9400.615463,-383.047749
450.612714,1036.288319,-9992.780217,-459.657299
450.613038,0.000000,-10881.027347,-919.314598
450.613362,-1258.350101,-10658.965565,-1685.410096
450.613686,-2146.597232,-9992.780217,-1762.019645
450.614010,-1776.494261,-9622.677246,-1532.190996
450.614334,-888.247130,-10066.800811,-842.705048
450.614659,-74.020594,-9918.759623,-766.095498
450.614983,74.020594,-9918.759623,-153.219100
450.615307,-444.123565,-9474.636058,-612.876398
450.615631,-222.061783,-8660.409521,-1072.533697
450.615955,0.000000,-7846.182985,-766.095498
450.616279,1480.411884,-7476.080014,-536.266849
450.616603,2368.659014,-8882.471304,-536.266849
450.616927,2294.638420,-9400.615463,-842.705048
450.617251,296.082377,-10584.944971,-995.924147
450.617575,-1406.391290,-11029.068536,-1685.410096
450.617899,-1998.556043,-10510.924376,-1685.410096
450.618223,-1480.411884,-9696.697840,-1378.971896
450.618547,-370.102971,-9696.697840,-612.876398
450.618871,518.144159,-9918.759623,-306.438199
450.619195,666.185348,-10362.883188,-153.219100
450.619520,296.082377,-10140.821405,-229.828649
450.619844,-518.144159,-9178.553681,-1149.143247
450.620168,74.020594,-8660.409521,-229.828649
450.620492,666.185348,-8364.327145,153.219100
450.620816,1628.453072,-8586.388927,0.000000
450.621140,1776.494261,-9622.677246,0.000000
450.621464,666.185348,-10288.862594,-459.657299
450.621788,-888.247130,-11029.068536,-383.047749
450.622112,-1702.473667,-10510.924376,-766.095498
450.622436,-1628.453072,-9844.739029,-536.266849
450.622760,-1110.308913,-9770.718434,0.000000
450.623084,-518.144159,-9918.759623,76.609550
450.623408,0.000000,-10732.986159,0.000000
450.623732,74.020594,-10510.924376,536.266849
450.624057,0.000000,-9548.656652,383.047749
450.624381,740.205942,-8808.450710,689.485948
450.624705,1480.411884,-8290.306550,1225.752797
450.625029,2294.638420,-8956.491898,995.924147
450.625353,2442.679609,-9844.739029,1072.533697
450.625677,1332.370696,-11103.089130,919.314598
450.626001,-296.082377,-11399.171507,612.876398
450.626325,-1480.411884,-10510.924376,229.828649
450.626649,-1110.308913,-9548.656652,842.705048
450.626973,-1110.308913,-9104.533087,919.314598
450.627297,-444.123565,-9622.677246,995.924147
450.627621,0.000000,-10140.821405,1225.752797
450.627945,-148.041188,-9992.780217,1302.362347
450.628269,-444.123565,-9030.512492,1302.362347
450.628593,0.000000,-7920.203579,1225.752797
450.628918,296.082377,-7402.059420,1532.190996
450.629242,1184.329507,-7772.162391,1608.800546
450.629566,1776.494261,-8068.244768,1838.629195
450.629890,888.247130,-9400.615463,1685.410096
450.630214,-666.185348,-10288.862594,1302.362347
450.630538,-2146.597232,-10214.842000,459.657299
450.630862,-2960.823768,-9474.636058,689.485948
450.631186,-2738.761985,-9622.677246,612.876398
450.631510,-2146.597232,-9844.739029,766.095498
450.631834,-740.205942,-10436.903782,1302.362347
450.632158,-148.041188,-9844.739029,1302.362347
450.632482,0.000000,-9104.533087,1072.533697
450.632806,74.020594,-8660.409521,612.876398
450.633130,962.267725,-8512.368333,689.485948
450.633455,1776.494261,-8438.347739,383.047749
450.633779,2590.720797,-9104.533087,459.657299
450.634103,2146.597232,-9992.780217,76.609550
450.634427,814.226536,-10807.006753,0.000000
450.634751,-740.205942,-11325.150913,-383.047749
450.635075,-1332.370696,-10658.965565,-459.657299
450.635399,-1036.288319,-9770.718434,-306.438199
450.635723,0.000000,-9474.636058,-459.657299
450.636047,666.185348,-9474.636058,229.828649
450.636371,592.164754,-9548.656652,-459.657299
450.636695,518.144159,-9992.780217,-536.266849
450.637019,222.061783,-9548.656652,-995.924147
450.637344,296.082377,-8882.471304,-919.314598
450.637668,814.226536,-8438.347739,-842.705048
450.637992,2072.576638,-8956.491898,-919.314598
450.638316,2442.679609,-10140.821405,-612.876398
450.638640,814.226536,-11695.253884,-1149.143247
450.638964,-888.247130,-11991.336260,-1455.581446
450.639288,-1924.535449,-11177.109724,-1685.410096
450.639612,-2442.679609,-10288.862594,-1838.629195
450.639936,-1776.494261,-10214.842000,-1532.190996
450.640260,-740.205942,-10584.944971,-1072.533697
450.640584,-296.082377,-11029.068536,-995.924147
450.640908,-222.061783,-10362.883188,-1302.362347
450.641233,-592.164754,-8808.450710,-1302.362347
450.641557,-296.082377,-8290.306550,-842.705048
450.641881,1258.350101,-8438.347739,-1072.533697
450.642205,1702.473667,-8364.327145,-842.705048
450.642529,1998.556043,-9178.553681,-842.705048
450.642853,1184.329507,-10584.944971,-1225.752797
450.643177,-148.041188,-11103.089130,-1302.362347
450.643501,-1406.391290,-10362.883188,-1608.800546
450.643825,-1998.556043,-9030.512492,-1072.533697
450.644149,-1184.329507,-8956.491898,-1532.190996
450.644473,-370.102971,-10066.800811,-919.314598
450.644797,0.000000,-10807.006753,-306.438199
450.645122,-222.061783,-10436.903782,-459.657299
450.645446,-296.082377,-9104.533087,-612.876398
450.645770,-370.102971,-8586.388927,-995.924147
450.646094,666.185348,-8734.430116,306.438199
450.646418,1480.411884,-9178.553681,0.000000
450.646742,1702.473667,-9770.718434,76.609550
450.647066,1036.288319,-10881.027347,0.000000
450.647390,-518.144159,-11473.192101,-153.219100
450.647714,-2072.576638,-11177.109724,-766.095498
450.648038,-2072.576638,-9844.739029,-612.876398
450.648362,-1480.411884,-9918.759623,0.000000
450.648687,-518.144159,-10066.800811,306.438199
450.649011,296.082377,-10140.821405,1455.581446
450.649335,0.000000,-9696.697840,1072.533697
450.649659,0.000000,-8882.471304,919.314598
450.649983,222.061783,-8364.327145,689.485948
450.650307,962.267725,-7846.182985,1072.533697
450.650631,2294.638420,-7920.203579,1685.410096
450.650955,1850.514855,-8142.265362,1915.238745
450.651279,2294.638420,-9696.697840,1149.143247
450.651603,518.144159,-10732.986159,995.924147
450.651927,-1480.411884,-10658.965565,459.657299
450.652251,-2590.720797,-9844.739029,536.266849
450.652576,-2146.597232,-9178.553681,383.047749
450.652900,-592.164754,-9474.636058,1149.143247
450.653224,0.000000,-9770.718434,1762.019645
450.653548,222.061783,-10066.800811,1915.238745
450.653872,-370.102971,-9770.718434,1072.533697
450.654196,-888.247130,-9178.553681,766.095498
450.654520,-592.164754,-8586.388927,919.314598
450.654844,296.082377,-8364.327145,1072.533697
450.655168,962.267725,-8216.285956,1072.533697
450.655492,962.267725,-9622.677246,919.314598
450.655816,0.000000,-10807.006753,1072.533697
450.656140,-1406.391290,-10807.006753,229.828649
450.656465,-2368.659014,-10436.903782,-153.219100
450.656789,-1924.535449,-9474.636058,0.000000
450.657113,-1184.329507,-9474.636058,0.000000
450.657437,-444.123565,-9696.697840,229.828649
450.657761,0.000000,-9992.780217,459.657299
450.658085,296.082377,-9992.780217,153.219100
450.658409,592.164754,-9104.533087,-153.219100
450.658733,888.247130,-7550.100608,0.000000
450.659057,1776.494261,-7772.162391,153.219100
450.659381,2812.782580,-8586.388927,229.828649
450.659705,2516.700203,-9844.739029,76.609550
450.660029,1036.288319,-11103.089130,-536.266849
450.660354,-1110.308913,-11177.109724,-766.095498
450.660678,-2220.617826,-9992.780217,-536.266849
450.661002,-2072.576638,-9770.718434,-766.095498
450.661326,-814.226536,-9918.759623,-689.485948
450.661650,148.041188,-10436.903782,0.000000
450.661974,222.061783,-10732.986159,0.000000
450.662298,148.041188,-10140.821405,-459.657299
450.662622,74.020594,-9400.615463,-612.876398
450.662946,296.082377,-8586.388927,-1072.533697
450.663270,1184.329507,-8808.450710,-919.314598
450.663594,2072.576638,-9178.553681,-153.219100
450.663919,2442.679609,-9844.739029,-153.219100
450.664243,2294.638420,-10658.965565,-612.876398
450.664567,666.185348,-11399.171507,-919.314598
450.664891,-592.164754,-10881.027347,-1072.533697
450.665215,-592.164754,-10658.965565,-995.924147
450.665539,-666.185348,-9992.780217,153.219100
450.665863,-814.226536,-9844.739029,-612.876398
450.666187,-962.267725,-9992.780217,0.000000
450.666511,-814.226536,-9918.759623,0.000000
450.666835,-370.102971,-9326.594869,-306.438199
450.667159,74.020594,-8660.409521,0.000000
450.667483,666.185348,-7994.224174,76.609550
450.667808,1258.350101,-8364.327145,76.609550
450.668132,1406.391290,-9400.615463,-153.219100
450.668456,666.185348,-9918.759623,-229.828649
450.668780,-1332.370696,-10881.027347,-689.485948
450.669104,-2442.679609,-10584.944971,-995.924147
450.669428,-2368.659014,-9548.656652,-995.924147
450.669752,-1184.329507,-9474.636058,-153.219100
450.670076,518.144159,-9770.718434,-153.219100
450.670400,666.185348,-9918.759623,229.828649
450.670724,-222.061783,-10436.903782,76.609550
450.671048,-592.164754,-9696.697840,76.609550
450.671372,-444.123565,-8882.471304,0.000000
450.671697,296.082377,-8364.327145,0.000000
450.672021,1406.391290,-8216.285956,0.000000
450.672345,2664.741391,-8660.409521,-229.828649
450.672669,2220.617826,-9548.656652,153.219100
450.672993,740.205942,-11029.068536,0.000000
450.673317,-962.267725,-11399.171507,-919.314598
450.673641,-2072.576638,-10658.965565,-1072.533697
450.673965,-1332.370696,-10436.903782,-766.095498
450.674289,-1184.329507,-10214.842000,-612.876398
450.674613,-592.164754,-10362.883188,0.000000
450.674937,-148.041188,-10955.047942,76.609550
450.675262,-370.102971,-10066.800811,0.000000
450.675586,-370.102971,-8808.450710,-306.438199
450.675910,0.000000,-8216.285956,153.219100
450.676234,296.082377,-8290.306550,76.609550
450.676558,888.247130,-9326.594869,153.219100
450.676882,666.185348,-10214.842000,0.000000
450.677206,-666.185348,-11251.130318,-306.438199
450.677530,-2072.576638,-11251.130318,-612.876398
450.677854,-2294.638420,-9844.739029,-689.485948
450.678178,-1850.514855,-9622.677246,0.000000
450.678502,-370.102971,-9622.677246,459.657299
450.678826,0.000000,-9474.636058,612.876398
450.679151,518.144159,-10288.862594,766.095498
450.679475,296.082377,-10066.800811,459.657299
450.679799,222.061783,-8956.491898,153.219100
450.680123,518.144159,-7994.224174,229.828649
450.680447,1702.473667,-7624.121203,383.047749
450.680771,2368.659014,-8438.347739,995.924147
450.681095,2442.679609,-8808.450710,612.876398
450.681419,1850.514855,-9474.636058,842.705048
450.681743,0.000000,-10140.821405,536.266849
450.682067,-1258.350101,-9844.739029,0.000000
450.682391,-1850.514855,-9030.512492,76.609550
450.682715,-1332.370696,-9030.512492,536.266849
450.683040,-222.061783,-9622.677246,842.705048
450.683364,222.061783,-9918.759623,919.314598
450.683688,296.082377,-9622.677246,919.314598
450.684012,222.061783,-8882.471304,1149.143247
450.684336,0.000000,-8290.306550,76.609550
450.684660,518.144159,-7698.141797,612.876398
450.684984,1480.411884,-8660.409521,689.485948
450.685308,2146.597232,-9622.677246,689.485948
450.685632,1702.473667,-10807.006753,612.876398
450.685956,0.000000,-11325.150913,229.828649
450.686280,-592.164754,-11103.089130,-229.828649
450.686605,-1702.473667,-10066.800811,-459.657299
450.686929,-1628.453072,-10140.821405,0.000000
450.687253,-962.267725,-10288.862594,229.828649
450.687577,-296.082377,-10510.924376,0.000000
450.687901,0.000000,-10732.986159,0.000000
450.688225,0.000000,-9992.780217,-229.828649
450.688549,0.000000,-9030.512492,-383.047749
450.688873,1110.308913,-9030.512492,0.000000
450.689197,1406.391290,-8808.450710,0.000000
450.689521,2294.638420,-8882.471304,0.000000
450.689845,2368.659014,-10362.883188,-153.219100
450.690169,1184.329507,-11473.192101,-459.657299
450.690494,-148.041188,-11399.171507,-612.876398
450.690818,-740.205942,-10288.862594,-766.095498
450.691142,-296.082377,-10362.883188,-383.047749
450.691466,-666.185348,-9992.780217,0.000000
450.691790,148.041188,-10436.903782,0.000000
450.692114,0.000000,-10584.944971,-153.219100
450.692438,-518.144159,-9992.780217,-383.047749
450.692762,-1184.329507,-9030.512492,-689.485948
450.693086,-666.185348,-8068.244768,-383.047749
450.693410,444.123565,-7920.203579,-306.438199
450.693734,1628.453072,-8364.327145,306.438199
450.694058,1554.432478,-9844.739029,0.000000
450.694383,-518.144159,-10436.903782,-536.266849
450.694707,-1850.514855,-10436.903782,-689.485948
450.695031,-2516.700203,-9844.739029,-612.876398
450.695355,-2072.576638,-9400.615463,-306.438199
450.695679,-888.247130,-9474.636058,919.314598
450.696003,-444.123565,-9400.615463,766.095498
450.696327,0.000000,-9622.677246,76.609550
450.696651,-518.144159,-9770.718434,383.047749
450.696975,-1332.370696,-8882.471304,0.000000
450.697299,-814.226536,-8216.285956,-229.828649
450.697623,148.041188,-7772.162391,0.000000
450.697948,1332.370696,-7994.224174,-459.657299
450.698272,1702.473667,-9030.512492,229.828649
450.698596,370.102971,-10436.903782,229.828649
450.698920,-1258.350101,-11103.089130,-536.266849
450.699244,-2516.700203,-10140.821405,-1149.143247
450.699568,-2664.741391,-9474.636058,-766.095498
450.699892,-1554.432478,-9622.677246,-153.219100
450.700216,-518.144159,-10140.821405,229.828649
450.700540,-740.205942,-10362.883188,995.924147
450.700864,-444.123565,-9918.759623,383.047749
450.701188,-518.144159,-9326.594869,0.000000
450.701512,-814.226536,-8142.265362,-306.438199
450.701837,518.144159,-8068.244768,0.000000
450.702161,1628.453072,-8734.430116,0.000000
450.702485,1554.432478,-9770.718434,0.000000
450.702809,444.123565,-11029.068536,-612.876398
450.703133,-1110.308913,-11399.171507,-919.314598
450.703457,-1702.473667,-10658.965565,-1149.143247
450.703781,-1480.411884,-10066.800811,-689.485948
450.704105,0.000000,-9548.656652,-153.219100
450.704429,1184.329507,-9770.718434,-153.219100
450.704753,1554.432478,-10658.965565,0.000000
450.705077,1184.329507,-10732.986159,0.000000
450.705401,518.144159,-10140.821405,-383.047749
450.705726,666.185348,-8882.471304,-306.438199
450.706050,1258.350101,-8512.368333,0.000000
450.706374,2368.659014,-8734.430116,0.000000
450.706698,3330.926739,-9622.677246,76.609550
450.707022,2146.597232,-10436.903782,-153.219100
450.707346,814.226536,-11769.274478,-1149.143247
450.707670,-296.082377,-11399.171507,-1072.533697
450.707994,-888.247130,-10807.006753,-1072.533697
450.708318,-814.226536,-10288.862594,-383.047749
450.708642,148.041188,-10732.986159,0.000000
450.708966,444.123565,-10955.047942,383.047749
450.709291,444.123565,-10288.862594,0.000000
450.709615,0.000000,-9252.574275,536.266849
450.709939,222.061783,-8660.409521,0.000000
450.710263,518.144159,-8290.306550,0.000000
450.710587,1258.350101,-8512.368333,612.876398
450.710911,1850.514855,-8808.450710,459.657299
450.711235,814.226536,-9622.677246,76.609550
450.711559,-666.185348,-10362.883188,-612.876398
450.711883,-2220.617826,-9696.697840,-306.438199
450.712207,-2886.803174,-9104.533087,0.000000
450.712531,-2146.597232,-8660.409521,76.609550
450.712855,-1110.308913,-8734.430116,689.485948
450.713180,-370.102971,-8956.491898,842.705048
450.713504,-370.102971,-8660.409521,1072.533697
450.713828,-814.226536,-8660.409521,766.095498
450.714152,-666.185348,-7920.203579,1072.533697
450.714476,-962.267725,-7254.018232,383.047749
450.714800,444.123565,-7476.080014,536.266849
450.715124,1480.411884,-7920.203579,536.266849
450.715448,1406.391290,-8956.491898,612.876398
450.715772,444.123565,-10658.965565,229.828649
450.716096,-1184.329507,-10140.821405,-612.876398
450.716420,-1702.473667,-9844.739029,-383.047749
450.716744,-1480.411884,-9770.718434,306.438199
450.717069,-1110.308913,-9622.677246,0.000000
450.717393,-222.061783,-10584.944971,459.657299
450.717717,-296.082377,-10510.924376,919.314598
450.718041,-148.041188,-10510.924376,612.876398
450.718365,-148.041188,-9696.697840,153.219100
450.718689,444.123565,-8808.450710,383.047749
450.719013,1332.370696,-8586.388927,536.266849
450.719337,1850.514855,-9252.574275,459.657299
450.719661,1332.370696,-10066.800811,0.000000
450.719985,148.041188,-11473.192101,-383.047749
450.720309,-1332.370696,-11843.295072,-919.314598
450.720634,-2072.576638,-10955.047942,-1225.752797
450.720958,-1480.411884,-9918.759623,-766.095498
450.721282,-814.226536,-10436.903782,-766.095498
450.721606,-148.041188,-10362.883188,0.000000
450.721930,296.082377,-11177.109724,76.609550
450.722254,-296.082377,-10584.944971,0.000000
450.722578,-296.082377,-9770.718434,-306.438199
450.722902,0.000000,-8882.471304,-766.095498
450.723226,888.247130,-8142.265362,-536.266849
450.723550,2220.617826,-8734.430116,-153.219100
450.723874,2072.576638,-9252.574275,0.000000
450.724198,1702.473667,-10510.924376,-536.266849
450.724523,370.102971,-10955.047942,-1072.533697
450.724847,-1110.308913,-10658.965565,-1225.752797
450.725171,-1258.350101,-10362.883188,-1225.752797
450.725495,-962.267725,-9992.780217,-995.924147
450.725819,0.000000,-10140.821405,-306.438199
450.726143,518.144159,-10140.821405,-229.828649
450.726467,740.205942,-10362.883188,-153.219100
450.726791,962.267725,-9770.718434,0.000000
450.727115,666.185348,-8734.430116,-229.828649
450.727439,1184.329507,-7846.182985,-229.828649
450.727763,1850.514855,-8216.285956,-153.219100
450.728087,1924.535449,-8882.471304,-459.657299
450.728412,740.205942,-9622.677246,-153.219100
450.728736,-1036.288319,-10362.883188,-459.657299
450.729060,-1998.556043,-10140.821405,-995.924147
450.729384,-2516.700203,-9622.677246,-995.924147
450.729708,-1628.453072,-9400.615463,-612.876398
450.730032,-444.123565,-9474.636058,-383.047749
450.730356,0.000000,-9474.636058,0.000000
450.730680,-222.061783,-9548.656652,0.000000
450.731004,-592.164754,-9252.574275,0.000000
450.731328,-444.123565,-8956.491898,-766.095498
450.731652,-370.102971,-8364.327145,0.000000
450.731977,1406.391290,-8586.388927,306.438199
450.732301,2368.659014,-9104.533087,383.047749
450.732625,2072.576638,-10214.842000,536.266849
450.732949,962.267725,-11103.089130,766.095498
450.733273,-148.041188,-11547.212695,0.000000
450.733597,-1480.411884,-10658.965565,-459.657299
450.733921,-1628.453072,-9992.780217,-153.219100
450.734245,-814.226536,-10140.821405,153.219100
450.734569,0.000000,-10436.903782,459.657299
450.734893,222.061783,-10732.986159,536.266849
450.735218,0.000000,-10066.800811,689.485948
450.735542,-148.041188,-9400.615463,766.095498
450.735866,-148.041188,-7698.141797,459.657299
450.736190,518.144159,-7402.059420,1149.143247
450.736514,1480.411884,-8290.306550,689.485948
450.736839,1184.329507,-9474.636058,995.924147
450.737163,0.000000,-10288.862594,842.705048
450.737487,-1850.514855,-10288.862594,229.828649
450.737811,-2738.761985,-9474.636058,0.000000
450.738136,-2368.659014,-8438.347739,153.219100
450.738460,-1702.473667,-8956.491898,536.266849
450.738784,-888.247130,-9474.636058,766.095498
450.739108,-296.082377,-9992.780217,1072.533697
450.739433,-222.061783,-9696.697840,842.705048
450.739757,-222.061783,-8808.450710,536.266849
450.740081,-222.061783,-8068.244768,536.266849
450.740405,1258.350101,-7994.224174,153.219100
450.740729,1258.350101,-8290.306550,536.266849
450.741054,1480.411884,-9252.574275,0.000000
450.741378,814.226536,-11325.150913,0.000000
450.741702,-518.144159,-11473.192101,-689.485948
450.742026,-1850.514855,-11325.150913,-919.314598
450.742351,-1850.514855,-10510.924376,-842.705048
450.742675,-962.267725,-10066.800811,-383.047749
450.742999,222.061783,-10658.965565,-536.266849
450.743323,592.164754,-10732.986159,-306.438199
450.743648,222.061783,-10510.924376,0.000000
450.743972,666.185348,-10214.842000,0.000000
450.744296,592.164754,-9400.615463,-153.219100
450.744620,1480.411884,-8882.471304,-536.266849
450.744944,2220.617826,-8660.409521,-459.657299
450.745269,2442.679609,-8956.491898,-612.876398
450.745593,1628.453072,-10732.986159,-1072.533697
450.745917,-222.061783,-11399.171507,-1608.800546
450.746241,-1628.453072,-10881.027347,-1378.971896
450.746566,-2516.700203,-9918.759623,-1532.190996
450.746890,-1924.535449,-9622.677246,-1378.971896
450.747214,-814.226536,-9918.759623,-995.924147
450.747538,-222.061783,-10362.883188,0.000000
450.747863,-148.041188,-10436.903782,76.609550
450.748187,0.000000,-9844.739029,-459.657299
450.748511,0.000000,-8438.347739,-536.266849
450.748835,148.041188,-7550.100608,-383.047749
450.749159,888.247130,-7772.162391,-383.047749
450.749484,1628.453072,-8586.388927,-459.657299
450.749808,1406.391290,-9400.615463,-306.438199
450.750132,1110.308913,-10658.965565,-612.876398
450.750456,0.000000,-10658.965565,-536.266849
450.750781,-888.247130,-9474.636058,-306.438199
450.751105,-814.226536,-9474.636058,-306.438199
450.751429,0.000000,-9992.780217,-76.609550
450.751753,148.041188,-10362.883188,536.266849
450.752078,222.061783,-10140.821405,536.266849
450.752402,0.000000,-9178.553681,842.705048
450.752726,370.102971,-8438.347739,0.000000
450.753050,370.102971,-7254.018232,0.000000
450.753374,1184.329507,-7846.182985,306.438199
450.753699,1850.514855,-8438.347739,306.438199
450.754023,1036.288319,-9474.636058,229.828649
450.754347,-666.185348,-10807.006753,0.000000
450.754671,-2368.659014,-11251.130318,-766.095498
450.754996,-2516.700203,-10436.903782,-459.657299
450.755320,-2146.597232,-9474.636058,153.219100
450.755644,-444.123565,-10362.883188,229.828649
450.755968,370.102971,-10658.965565,689.485948
450.756293,370.102971,-10658.965565,919.314598
450.756617,0.000000,-10214.842000,306.438199
450.756941,-296.082377,-9548.656652,76.609550
450.757265,74.020594,-9030.512492,153.219100
450.757589,814.226536,-8364.327145,689.485948
450.757914,1702.473667,-8660.409521,536.266849
450.758238,1924.535449,-8956.491898,689.485948
450.758562,444.123565,-10510.924376,-306.438199
450.758886,-962.267725,-11399.171507,-459.657299
450.759211,-1850.514855,-10955.047942,-689.485948
450.759535,-2146.597232,-9918.759623,-612.876398
450.759859,-1628.453072,-9770.718434,-766.095498
450.760183,-592.164754,-10214.842000,-919.314598
450.760508,444.123565,-10881.027347,0.000000
450.760832,296.082377,-9992.780217,76.609550
450.761156,0.000000,-8956.491898,0.000000
450.761480,518.144159,-8512.368333,-153.219100
450.761804,1406.391290,-8290.306550,76.609550
450.762129,2442.679609,-8660.409521,229.828649
450.762453,2072.576638,-9252.574275,0.000000
450.762777,888.247130,-10658.965565,-766.095498
450.763101,-962.267725,-11473.192101,-306.438199
450.763426,-1924.535449,-11177.109724,-383.047749
450.763750,-1998.556043,-9844.739029,-459.657299
450.764074,-1554.432478,-9474.636058,-459.657299
450.764398,-1184.329507,-9622.677246,0.000000
450.764723,-666.185348,-10140.821405,76.609550
450.765047,-1332.370696,-9696.697840,76.609550
450.765371,-740.205942,-8660.409521,0.000000
450.765695,-296.082377,-7772.162391,-153.219100
450.766019,814.226536,-7254.018232,-153.219100
450.766344,1850.514855,-7254.018232,0.000000
450.766668,2368.659014,-7994.224174,229.828649
450.766992,1924.535449,-9548.656652,-459.657299
450.767316,888.247130,-10807.006753,0.000000
450.767641,-666.185348,-10584.944971,0.000000
450.767965,-962.267725,-9770.718434,-612.876398
450.768289,-592.164754,-9696.697840,0.000000
450.768613,296.082377,-10214.842000,76.609550
450.768938,740.205942,-10658.965565,229.828649
450.769262,814.226536,-10362.883188,459.657299
450.769586,740.205942,-9474.636058,459.657299
450.769910,370.102971,-8216.285956,0.000000
450.770234,518.144159,-7476.080014,-459.657299
450.770559,1406.391290,-8216.285956,-153.219100
450.770883,1332.370696,-9548.656652,-459.657299
450.771207,888.247130,-10362.883188,-536.266849
450.771531,-370.102971,-11177.109724,-689.485948
450.771856,-1702.473667,-11325.150913,-1225.752797
450.772180,-2072.576638,-10436.903782,-1455.581446
450.772504,-2590.720797,-9918.759623,-1302.362347
450.772828,-2146.597232,-10288.862594,-536.266849
450.773153,-1184.329507,-10732.986159,-153.219100
450.773477,-370.102971,-10881.027347,383.047749
450.773801,0.000000,-10288.862594,459.657299
450.774125,296.082377,-9696.697840,153.219100
450.774449,888.247130,-8882.471304,766.095498
450.774774,1628.453072,-8438.347739,229.828649
450.775098,2368.659014,-8956.491898,459.657299
450.775422,1628.453072,-9622.677246,-689.485948
450.775746,74.020594,-10807.006753,-612.876398
450.776071,-1184.329507,-11251.130318,-1072.533697
450.776395,-1850.514855,-10362.883188,-1532.190996
450.776719,-1776.494261,-9844.739029,-306.438199
450.777043,-296.082377,-9918.759623,-306.438199
450.777368,888.247130,-9548.656652,76.609550
450.777692,1036.288319,-9696.697840,919.314598
450.778016,444.123565,-9918.759623,306.438199
450.778340,148.041188,-9474.636058,459.657299
450.778664,888.247130,-8808.450710,689.485948
450.778989,1924.535449,-8512.368333,766.095498
450.779313,2738.761985,-8660.409521,1302.362347
450.779637,2368.659014,-9326.594869,1149.143247
450.779961,1480.411884,-10807.006753,766.095498
450.780286,-444.123565,-11547.212695,229.828649
450.780610,-2072.576638,-10658.965565,-383.047749
450.780934,-2516.700203,-9696.697840,-306.438199
450.781258,-2072.576638,-9548.656652,-306.438199
450.781583,-1184.329507,-9844.739029,229.828649
450.781907,-666.185348,-10066.800811,612.876398
450.782231,-962.267725,-9548.656652,689.485948
450.782555,-1110.308913,-8660.409521,0.000000
450.782879,-740.205942,-7402.059420,383.047749
450.783204,-296.082377,-6957.935855,153.219100
450.783528,370.102971,-7179.997637,766.095498
450.783852,1036.288319,-8068.244768,842.705048
450.784176,592.164754,-9326.594869,612.876398
450.784501,-888.247130,-10214.842000,383.047749
450.784825,-2146.597232,-10288.862594,76.609550
450.785149,-2516.700203,-9548.656652,-536.266849
450.785473,-2368.659014,-8882.471304,-306.438199
450.785798,-1554.432478,-9770.718434,-153.219100
450.786122,-1110.308913,-10436.903782,76.609550
450.786446,-444.123565,-10658.965565,0.000000
450.786770,0.000000,-9770.718434,0.000000
450.787094,296.082377,-9030.512492,0.000000
450.787419,1332.370696,-8438.347739,306.438199
450.787743,2294.638420,-8808.450710,459.657299
450.788067,2738.761985,-9918.759623,383.047749
450.788391,2220.617826,-10510.924376,229.828649
450.788716,370.102971,-11769.274478,-229.828649
450.789040,-1480.411884,-11473.192101,-689.485948
450.789364,-2146.597232,-10362.883188,-995.924147
450.789688,-2146.597232,-9696.697840,-995.924147
450.790012,-666.185348,-9622.677246,-842.705048
450.790337,74.020594,-10140.821405,-689.485948
450.790661,370.102971,-10066.800811,-306.438199
450.790985,666.185348,-9474.636058,-153.219100
450.791309,370.102971,-8438.347739,-919.314598
450.791634,888.247130,-7550.100608,-995.924147
450.791958,1480.411884,-8142.265362,-229.828649
450.792282,2516.700203,-9326.594869,0.000000
450.792606,2812.782580,-10214.842000,-229.828649
450.792931,1628.453072,-11251.130318,153.219100
450.793255,296.082377,-11399.171507,0.000000
450.793579,-518.144159,-11103.089130,-995.924147
450.793903,-1036.288319,-10510.924376,-919.314598
450.794227,-592.164754,-10362.883188,-459.657299
450.794552,-444.123565,-10436.903782,0.000000
450.794876,0.000000,-10584.944971,76.609550
450.795200,74.020594,-10658.965565,153.219100
450.795524,0.000000,-9326.594869,306.438199
450.795849,74.020594,-7624.121203,-919.314598
450.796173,962.267725,-7698.141797,153.219100
450.796497,1702.473667,-8438.347739,459.657299
450.796821,1850.514855,-9474.636058,459.657299
450.797146,296.082377,-10584.944971,459.657299
450.797470,-1332.370696,-10362.883188,76.609550
450.797794,-2220.617826,-9178.553681,-306.438199
450.798118,-2072.576638,-8364.327145,-229.828649
450.798442,-888.247130,-8068.244768,-306.438199
450.798767,-222.061783,-9104.533087,766.095498
450.799091,-370.102971,-9326.594869,995.924147
450.799415,-666.185348,-9252.574275,459.657299
450.799739,-1332.370696,-8216.285956,76.609550
450.800064,-1110.308913,-7624.121203,0.000000
450.800388,-296.082377,-7772.162391,76.609550
450.800712,592.164754,-8512.368333,459.657299
450.801036,1036.288319,-9474.636058,689.485948
450.801361,0.000000,-10288.862594,383.047749
450.801685,-1184.329507,-11473.192101,-306.438199
450.802009,-2368.659014,-11029.068536,-689.485948
450.802333,-2516.700203,-10362.883188,-1072.533697
450.802657,-1924.535449,-10288.862594,-383.047749
450.802982,-740.205942,-10510.924376,0.000000
450.803306,-148.041188,-10510.924376,383.047749
450.803630,0.000000,-10732.986159,0.000000
450.803954,-148.041188,-9844.739029,-459.657299
450.804279,0.000000,-8882.471304,-919.314598
450.804603,888.247130,-8586.388927,-612.876398
450.804927,1924.535449,-8734.430116,-306.438199
450.805251,2590.720797,-9326.594869,-153.219100
450.805576,1036.288319,-10140.821405,-766.095498
450.805900,0.000000,-11251.130318,-1225.752797
450.806224,-1332.370696,-10807.006753,-1762.019645
450.806548,-1850.514855,-9622.677246,-1378.971896
450.806872,-1110.308913,-9252.574275,-919.314598
450.807197,444.123565,-9918.759623,-689.485948
450.807521,740.205942,-9696.697840,-153.219100
450.807845,666.185348,-10288.862594,-383.047749
450.808169,0.000000,-9400.615463,-689.485948
450.808494,-592.164754,-8660.409521,-612.876398
450.808818,296.082377,-8956.491898,-689.485948
450.809142,814.226536,-8882.471304,-229.828649
450.809466,1776.494261,-9474.636058,-229.828649
450.809791,1480.411884,-10140.821405,-383.047749
450.810115,74.020594,-11325.150913,-766.095498
450.810439,-1702.473667,-11029.068536,-1225.752797
450.810763,-2812.782580,-10584.944971,-1149.143247
450.811087,-1628.453072,-10066.800811,-612.876398
450.811412,-1184.329507,-9770.718434,-612.876398
450.811736,-296.082377,-10288.862594,-153.219100
450.812060,74.020594,-10362.883188,76.609550
450.812384,518.144159,-10066.800811,0.000000
450.812709,740.205942,-8956.491898,0.000000
450.813033,1406.391290,-8068.244768,-229.828649
450.813357,2220.617826,-7698.141797,383.047749
450.813681,2812.782580,-8586.388927,229.828649
450.814006,2812.782580,-9770.718434,459.657299
450.814330,1258.350101,-10955.047942,229.828649
450.814654,-518.144159,-10955.047942,-229.828649
450.814978,-1850.514855,-9844.739029,76.609550
450.815302,-1036.288319,-9104.533087,536.266849
450.815627,-296.082377,-9400.615463,76.609550
450.815951,74.020594,-9918.759623,995.924147
450.816275,518.144159,-10140.821405,1225.752797
450.816599,296.082377,-9992.780217,1149.143247
450.816924,-222.061783,-9400.615463,919.314598
450.817248,74.020594,-8808.450710,842.705048
450.817572,666.185348,-8290.306550,995.924147
450.817896,1554.432478,-8586.388927,842.705048
450.818221,1702.473667,-9770.718434,1302.362347
