#time,accel_x,accel_y,accel_z
1026.835848,74.020594,-9844.739029,0.000000
1026.836172,370.102971,-9844.739029,229.828649
1026.836496,222.061783,-9622.677246,0.000000
1026.836820,-148.041188,-9326.594869,-766.095498
1026.837143,-222.061783,-9326.594869,-306.438199
1026.837467,-370.102971,-9400.615463,-383.047749
1026.837791,0.000000,-9474.636058,-383.047749
1026.838114,370.102971,-9548.656652,-306.438199
1026.838438,148.041188,-9918.759623,0.000000
1026.838762,518.144159,-9474.636058,0.000000
1026.839086,74.020594,-9474.636058,0.000000
1026.839409,296.082377,-9474.636058,229.828649
1026.839733,74.020594,-9770.718434,-536.266849
1026.840057,0.000000,-9474.636058,-153.219100
1026.840380,-148.041188,-9770.718434,0.000000
1026.840704,0.000000,-9770.718434,0.000000
1026.841028,0.000000,-9770.718434,0.000000
1026.841351,-222.061783,-9400.615463,0.000000
1026.841675,-888.247130,-9548.656652,0.000000
1026.841999,148.041188,-9548.656652,0.000000
1026.842323,148.041188,-9770.718434,-229.828649
1026.842646,148.041188,-9918.759623,0.000000
1026.842970,0.000000,-9770.718434,153.219100
1026.843294,0.000000,-9844.739029,306.438199
1026.843617,-148.041188,-9696.697840,383.047749
1026.843941,-370.102971,-9696.697840,229.828649
1026.844265,-444.123565,-9770.718434,0.000000
1026.844589,-740.205942,-9548.656652,0.000000
1026.844912,-740.205942,-9474.636058,-153.219100
1026.845236,-518.144159,-9696.697840,0.000000
1026.845560,0.000000,-10140.821405,76.609550
1026.845883,0.000000,-9696.697840,0.000000
1026.846207,0.000000,-9622.677246,0.000000
1026.846531,148.041188,-10066.800811,0.000000
1026.846854,-444.123565,-9622.677246,0.000000
1026.847178,-370.102971,-9844.739029,229.828649
1026.847502,74.020594,-9770.718434,536.266849
1026.847826,74.020594,-9992.780217,459.657299
1026.848149,-518.144159,-9622.677246,306.438199
1026.848473,-1036.288319,-9548.656652,612.876398
1026.848797,-1036.288319,-9770.718434,0.000000
1026.849120,-1332.370696,-9400.615463,0.000000
1026.849444,-1184.329507,-8512.368333,459.657299
1026.849768,-666.185348,-8586.388927,383.047749
1026.850092,518.144159,-9400.615463,306.438199
1026.850415,74.020594,-9918.759623,919.314598
1026.850739,-370.102971,-10214.842000,459.657299
1026.851063,-1258.350101,-10066.800811,153.219100
1026.851386,-1998.556043,-10510.924376,612.876398
1026.851710,-2368.659014,-10732.986159,229.828649
1026.852034,-1998.556043,-10584.944971,995.924147
1026.852357,-2368.659014,-10066.800811,612.876398
1026.852681,-1628.453072,-9474.636058,842.705048
1026.853005,-962.267725,-9474.636058,919.314598
1026.853329,0.000000,-9252.574275,1532.190996
1026.853652,370.102971,-9252.574275,1532.190996
1026.853976,-518.144159,-9252.574275,1149.143247
1026.854300,-1332.370696,-9844.739029,995.924147
1026.854623,-2664.741391,-10066.800811,612.876398
1026.854947,-3108.864956,-9844.739029,1072.533697
1026.855271,-3182.885551,-10658.965565,1302.362347
1026.855595,-3108.864956,-10732.986159,1455.581446
1026.855918,-2664.741391,-10584.944971,1762.019645
1026.856242,-2146.597232,-9918.759623,1378.971896
1026.856566,-1480.411884,-8882.471304,1838.629195
1026.856889,-740.205942,-8586.388927,2221.676944
1026.857213,-444.123565,-8586.388927,2451.505594
1026.857537,-444.123565,-9178.553681,2528.115143
1026.857860,-740.205942,-9622.677246,2451.505594
1026.858184,-1702.473667,-9844.739029,2374.896044
1026.858508,-2812.782580,-9992.780217,2451.505594
1026.858832,-3849.070898,-10288.862594,2987.772442
1026.859155,-4441.235652,-10807.006753,2528.115143
1026.859479,-4959.379811,-10584.944971,3140.991542
1026.859803,-5403.503377,-9844.739029,2834.553343
1026.860126,-5255.462188,-9770.718434,2911.162892
1026.860450,-5181.441594,-9252.574275,2604.724693
1026.860774,-4737.318029,-9326.594869,3064.381992
1026.861098,-3404.947333,-9918.759623,3677.258390
1026.861421,-962.267725,-9992.780217,4290.134789
1026.861745,0.000000,-8734.430116,4826.401637
1026.862069,1184.329507,-8660.409521,4826.401637
1026.862392,1110.308913,-8512.368333,4136.915689
1026.862716,444.123565,-8364.327145,3600.648841
1026.863040,-518.144159,-8586.388927,3370.820191
1026.863363,-1850.514855,-8956.491898,2911.162892
1026.863687,-3182.885551,-8660.409521,2681.334243
1026.864011,-4737.318029,-7254.018232,1302.362347
1026.864335,-6439.791695,-7846.182985,229.828649
1026.864658,-7698.141797,-10584.944971,1072.533697
1026.864982,-6365.771101,-11843.295072,995.924147
1026.865306,-3552.988522,-10362.883188,2145.067394
1026.865629,-1110.308913,-8512.368333,4519.963438
1026.865953,1702.473667,-8290.306550,4903.011187
1026.866277,3997.112087,-9178.553681,4366.744339
1026.866601,3923.091493,-10362.883188,4290.134789
1026.866924,3552.988522,-9844.739029,4136.915689
1026.867248,1998.556043,-9622.677246,3140.991542
1026.867572,-296.082377,-9104.533087,1149.143247
1026.867895,-3552.988522,-8364.327145,76.609550
1026.868219,-5477.523971,-9474.636058,-1072.533697
1026.868543,-6291.750507,-11399.171507,-2068.457845
1026.868866,-5403.503377,-11621.233289,-2145.067394
1026.869190,-4145.153275,-10140.821405,-153.219100
1026.869514,-1702.473667,-8882.471304,459.657299
1026.869838,-1258.350101,-9030.512492,919.314598
1026.870161,-2368.659014,-9918.759623,1455.581446
1026.870485,-2516.700203,-11103.089130,1838.629195
1026.870809,-1332.370696,-11769.274478,1838.629195
1026.871132,1036.288319,-12139.377449,3370.820191
1026.871456,4145.153275,-11769.274478,4596.572988
1026.871780,6217.729913,-11251.130318,4136.915689
1026.872104,4441.235652,-10362.883188,3447.429741
1026.872427,0.000000,-10362.883188,1072.533697
1026.872751,-3997.112087,-8586.388927,-2145.067394
1026.873075,-6883.915261,-8216.285956,-3370.820191
1026.873398,-7328.038826,-9770.718434,-1762.019645
1026.873722,-4811.338623,-10807.006753,-1915.238745
1026.874046,-3478.967927,-10140.821405,-1302.362347
1026.874370,-4071.132681,-9844.739029,0.000000
1026.874693,-5255.462188,-8660.409521,0.000000
1026.875017,-5625.565159,-8734.430116,-153.219100
1026.875341,-5403.503377,-7698.141797,306.438199
1026.875664,-3182.885551,-8808.450710,2374.896044
1026.875988,444.123565,-11399.171507,3907.087040
1026.876312,1776.494261,-13101.645173,4136.915689
1026.876635,1406.391290,-11621.233289,4979.620737
1026.876959,-444.123565,-9622.677246,3907.087040
1026.877283,-1702.473667,-9178.553681,2145.067394
1026.877607,-1998.556043,-9548.656652,1378.971896
1026.877930,-1554.432478,-8808.450710,1915.238745
1026.878254,-962.267725,-8290.306550,1685.410096
1026.878578,-2664.741391,-8586.388927,1302.362347
1026.878901,-4885.359217,-8512.368333,1225.752797
1026.879225,-5181.441594,-7624.121203,919.314598
1026.879549,-4145.153275,-7105.977043,1149.143247
1026.879873,-3404.947333,-7031.956449,1455.581446
1026.880196,-4959.379811,-7624.121203,1378.971896
1026.880520,-5995.668130,-9178.553681,1608.800546
1026.880844,-5255.462188,-10510.924376,2298.286494
1026.881167,-3108.864956,-10436.903782,2681.334243
1026.881491,-1554.432478,-8882.471304,3524.039291
1026.881815,-1110.308913,-9400.615463,2911.162892
1026.882138,-1776.494261,-10510.924376,3294.210641
1026.882462,-1406.391290,-11843.295072,3753.867940
1026.882786,444.123565,-11843.295072,4366.744339
1026.883110,1702.473667,-10732.986159,3907.087040
1026.883433,592.164754,-8956.491898,1915.238745
1026.883757,-2664.741391,-10140.821405,2374.896044
1026.884081,-3034.844362,-12731.542202,2757.943793
1026.884404,-1480.411884,-11917.315666,1532.190996
1026.884728,-2368.659014,-9030.512492,2298.286494
1026.885052,-4663.297435,-7254.018232,2528.115143
1026.885376,-4515.256246,-8068.244768,2145.067394
1026.885699,-3182.885551,-9622.677246,1838.629195
1026.886023,-2516.700203,-9252.574275,1608.800546
1026.886347,-2960.823768,-8068.244768,1685.410096
1026.886670,-2886.803174,-9474.636058,1762.019645
1026.886994,-2220.617826,-10584.944971,3217.601092
1026.887318,-592.164754,-10362.883188,3983.696590
1026.887641,222.061783,-10510.924376,3753.867940
1026.887965,-666.185348,-11473.192101,3370.820191
1026.888289,-370.102971,-12583.501014,3370.820191
1026.888613,1702.473667,-11103.089130,3907.087040
1026.888936,1406.391290,-9992.780217,3907.087040
1026.889260,-1702.473667,-10362.883188,3907.087040
1026.889584,-3627.009116,-11325.150913,3217.601092
1026.889907,-3256.906145,-10140.821405,2221.676944
1026.890231,-2886.803174,-7179.997637,2221.676944
1026.890555,-3997.112087,-7179.997637,2374.896044
1026.890879,-4811.338623,-8586.388927,1072.533697
1026.891202,-4219.173869,-8068.244768,306.438199
1026.891526,-3404.947333,-6957.935855,919.314598
1026.891850,-2368.659014,-7402.059420,2068.457845
1026.892173,-1776.494261,-8216.285956,1838.629195
1026.892497,-1110.308913,-8216.285956,2298.286494
1026.892821,-444.123565,-7550.100608,3524.039291
1026.893144,666.185348,-9474.636058,3447.429741
1026.893468,888.247130,-11177.109724,2604.724693
1026.893792,74.020594,-9696.697840,2834.553343
1026.894116,-1110.308913,-9400.615463,3217.601092
1026.894439,-1480.411884,-10436.903782,1915.238745
1026.894763,-1628.453072,-10140.821405,2528.115143
1026.895087,-2368.659014,-9548.656652,2681.334243
1026.895410,-3478.967927,-10658.965565,1532.190996
1026.895734,-3849.070898,-10584.944971,-459.657299
1026.896058,-4145.153275,-8586.388927,0.000000
1026.896382,-3849.070898,-8586.388927,229.828649
1026.896705,-3552.988522,-9918.759623,-229.828649
1026.897029,-3182.885551,-9770.718434,383.047749
1026.897353,-2368.659014,-10066.800811,2374.896044
1026.897677,-1924.535449,-11473.192101,919.314598
1026.898001,-1406.391290,-10732.986159,536.266849
1026.898325,-1554.432478,-9548.656652,919.314598
1026.898649,-2220.617826,-10436.903782,0.000000
1026.898973,-2146.597232,-11325.150913,229.828649
1026.899297,-1184.329507,-10732.986159,1302.362347
1026.899621,-296.082377,-11029.068536,1455.581446
1026.899945,-962.267725,-10584.944971,766.095498
1026.900269,-1406.391290,-9844.739029,1149.143247
1026.900593,-2442.679609,-9770.718434,0.000000
1026.900916,-2886.803174,-9918.759623,-306.438199
1026.901240,-2960.823768,-9548.656652,229.828649
1026.901564,-1924.535449,-9178.553681,-383.047749
1026.901888,-2146.597232,-9030.512492,76.609550
1026.902212,-2368.659014,-9770.718434,2068.457845
1026.902536,-2590.720797,-9992.780217,919.314598
1026.902860,-3552.988522,-9622.677246,689.485948
1026.903184,-3404.947333,-9400.615463,1838.629195
1026.903508,-2368.659014,-10807.006753,1762.019645
1026.903832,-1258.350101,-10955.047942,1685.410096
1026.904156,-1480.411884,-8808.450710,2604.724693
1026.904480,-2664.741391,-9178.553681,2757.943793
1026.904804,-1406.391290,-10362.883188,1915.238745
1026.905127,-592.164754,-9474.636058,2451.505594
1026.905451,-1628.453072,-9252.574275,2681.334243
1026.905775,-2368.659014,-8660.409521,1608.800546
1026.906099,-3256.906145,-8586.388927,1149.143247
1026.906423,-3997.112087,-9474.636058,1915.238745
1026.906747,-3775.050304,-9770.718434,2451.505594
1026.907071,-2368.659014,-9400.615463,2374.896044
1026.907395,-2368.659014,-8734.430116,2911.162892
1026.907719,-1998.556043,-9844.739029,3447.429741
1026.908043,-1776.494261,-10140.821405,3140.991542
1026.908367,-1924.535449,-9548.656652,3447.429741
1026.908691,-1850.514855,-9400.615463,4136.915689
1026.909015,-814.226536,-9400.615463,3983.696590
1026.909338,148.041188,-9918.759623,4060.306139
1026.909662,962.267725,-9178.553681,3370.820191
1026.909986,-814.226536,-7402.059420,2451.505594
1026.910310,-2516.700203,-7624.121203,1685.410096
1026.910634,-3627.009116,-9474.636058,383.047749
1026.910958,-4367.215058,-11251.130318,1149.143247
1026.911282,-4219.173869,-10807.006753,1225.752797
1026.911606,-3478.967927,-9770.718434,1532.190996
1026.911930,-3034.844362,-10288.862594,1915.238745
1026.912254,-1998.556043,-11029.068536,2374.896044
1026.912578,-1184.329507,-11029.068536,2911.162892
1026.912902,-1554.432478,-11695.253884,4213.525239
1026.913225,-1850.514855,-11399.171507,3753.867940
1026.913549,-2072.576638,-10881.027347,3830.477490
1026.913873,-666.185348,-9326.594869,3600.648841
1026.914197,0.000000,-8956.491898,3983.696590
1026.914521,1258.350101,-8882.471304,3753.867940
1026.914845,518.144159,-8734.430116,3600.648841
1026.915169,0.000000,-7550.100608,2374.896044
1026.915493,296.082377,-4737.318029,0.000000
1026.915817,-1036.288319,-5921.647536,76.609550
1026.916141,-2368.659014,-9178.553681,0.000000
1026.916465,-2368.659014,-9326.594869,-995.924147
1026.916789,-3627.009116,-9178.553681,0.000000
1026.917113,-4367.215058,-10140.821405,842.705048
1026.917436,-1924.535449,-10066.800811,842.705048
1026.917760,0.000000,-9548.656652,1685.410096
1026.918084,666.185348,-9844.739029,2451.505594
1026.918408,518.144159,-10066.800811,1455.581446
1026.918732,148.041188,-9400.615463,2221.676944
1026.919056,814.226536,-10140.821405,3524.039291
1026.919380,2368.659014,-9992.780217,2757.943793
1026.919704,1776.494261,-8808.450710,1838.629195
1026.920028,74.020594,-9178.553681,229.828649
1026.920352,-2294.638420,-11843.295072,-1072.533697
1026.920676,-2738.761985,-11621.233289,-2528.115143
1026.921000,-2960.823768,-9178.553681,-2451.505594
1026.921324,-4071.132681,-8734.430116,-2987.772442
1026.921647,-4441.235652,-9252.574275,-3294.210641
1026.921971,-4293.194464,-9844.739029,-3524.039291
1026.922295,-2886.803174,-9400.615463,-2987.772442
1026.922619,-1110.308913,-9252.574275,-919.314598
1026.922943,666.185348,-9696.697840,0.000000
1026.923267,2220.617826,-9252.574275,842.705048
1026.923591,3034.844362,-9400.615463,1225.752797
1026.923915,3330.926739,-10436.903782,1838.629195
1026.924239,2886.803174,-12731.542202,1685.410096
1026.924563,2146.597232,-12953.603985,995.924147
1026.924887,666.185348,-10658.965565,-1302.362347
1026.925211,370.102971,-10584.944971,-2528.115143
1026.925535,0.000000,-11325.150913,-3447.429741
1026.925858,-444.123565,-11621.233289,-5362.668486
1026.926182,-1480.411884,-11399.171507,-5592.497135
1026.926506,-1628.453072,-9844.739029,-4749.792088
1026.926830,888.247130,-9622.677246,-3983.696590
1026.927154,1554.432478,-9622.677246,-3524.039291
1026.927478,962.267725,-9474.636058,-2145.067394
1026.927802,296.082377,-9474.636058,-612.876398
1026.928126,1036.288319,-10140.821405,-306.438199
1026.928450,1850.514855,-9770.718434,1762.019645
1026.928774,1332.370696,-9918.759623,3064.381992
1026.929098,1628.453072,-11251.130318,3294.210641
1026.929422,2146.597232,-11843.295072,3370.820191
1026.929746,2886.803174,-9622.677246,2374.896044
1026.930069,2516.700203,-6735.874072,0.000000
1026.930393,1702.473667,-6883.915261,-1302.362347
1026.930717,296.082377,-9030.512492,-1532.190996
1026.931041,1406.391290,-8586.388927,-2068.457845
1026.931365,1998.556043,-7772.162391,-1991.848295
1026.931689,0.000000,-7920.203579,-306.438199
1026.932013,-740.205942,-7994.224174,-1762.019645
1026.932337,-1332.370696,-7402.059420,-2528.115143
1026.932661,-2072.576638,-7254.018232,-842.705048
1026.932985,-2220.617826,-9252.574275,766.095498
1026.933309,-1332.370696,-10214.842000,1149.143247
1026.933633,-1332.370696,-9400.615463,3064.381992
1026.933957,-222.061783,-7772.162391,3753.867940
1026.934280,518.144159,-8142.265362,3064.381992
1026.934604,-1776.494261,-9400.615463,2451.505594
1026.934928,-2442.679609,-10214.842000,2834.553343
1026.935252,-666.185348,-9770.718434,2068.457845
1026.935576,1258.350101,-7772.162391,919.314598
1026.935900,518.144159,-6661.853478,-1149.143247
1026.936224,-1554.432478,-9178.553681,0.000000
1026.936548,-1554.432478,-11695.253884,-1225.752797
1026.936872,-370.102971,-12361.439231,-2604.724693
1026.937196,-2368.659014,-11103.089130,-536.266849
1026.937520,-2294.638420,-11473.192101,383.047749
1026.937844,-1850.514855,-12139.377449,-612.876398
1026.938168,-1850.514855,-11473.192101,-1378.971896
1026.938491,-2442.679609,-10288.862594,-153.219100
1026.938815,-1184.329507,-11029.068536,612.876398
1026.939139,888.247130,-12065.356855,995.924147
1026.939463,1110.308913,-10732.986159,3370.820191
1026.939787,1776.494261,-9770.718434,3217.601092
1026.940111,666.185348,-9622.677246,306.438199
1026.940435,-1924.535449,-10807.006753,-383.047749
1026.940759,-2442.679609,-11177.109724,0.000000
1026.941083,666.185348,-10288.862594,0.000000
1026.941407,2590.720797,-10288.862594,842.705048
1026.941731,2220.617826,-9770.718434,536.266849
1026.942055,1850.514855,-10066.800811,0.000000
1026.942378,444.123565,-9474.636058,-995.924147
1026.942702,-592.164754,-9696.697840,-995.924147
1026.943026,-1554.432478,-8586.388927,-689.485948
1026.943350,-592.164754,-8216.285956,153.219100
1026.943674,518.144159,-8734.430116,612.876398
1026.943998,1406.391290,-9178.553681,76.609550
1026.944322,1924.535449,-9178.553681,536.266849
1026.944646,1850.514855,-10288.862594,1685.410096
1026.944970,296.082377,-10066.800811,2068.457845
1026.945294,-222.061783,-9474.636058,2145.067394
1026.945618,-148.041188,-7846.182985,1378.971896
1026.945942,-740.205942,-7698.141797,612.876398
1026.946266,-1480.411884,-9178.553681,76.609550
1026.946589,-962.267725,-8882.471304,536.266849
1026.946913,1110.308913,-8586.388927,1302.362347
1026.947237,1258.350101,-8216.285956,536.266849
1026.947561,-296.082377,-7994.224174,153.219100
1026.947885,-1480.411884,-7772.162391,-229.828649
1026.948209,-814.226536,-7846.182985,-689.485948
1026.948533,-518.144159,-8142.265362,-612.876398
1026.948857,-518.144159,-7402.059420,-383.047749
1026.949181,-148.041188,-7550.100608,-153.219100
1026.949505,74.020594,-8290.306550,383.047749
1026.949829,740.205942,-8882.471304,-76.609550
1026.950153,74.020594,-8808.450710,-153.219100
1026.950477,-444.123565,-9326.594869,0.000000
1026.950800,-444.123565,-10066.800811,-153.219100
1026.951124,370.102971,-10066.800811,-689.485948
1026.951448,962.267725,-9770.718434,0.000000
1026.951772,1258.350101,-9400.615463,76.609550
1026.952096,888.247130,-11621.233289,-153.219100
1026.952420,518.144159,-12065.356855,-459.657299
1026.952744,370.102971,-11325.150913,-2145.067394
1026.953068,-666.185348,-11399.171507,-2987.772442
1026.953392,-1110.308913,-13101.645173,-2834.553343
1026.953716,74.020594,-13841.851115,-2834.553343
1026.954040,1924.535449,-14137.933492,-2374.896044
1026.954364,592.164754,-12879.583391,-2757.943793
1026.954688,-888.247130,-12065.356855,-2374.896044
1026.955011,-1258.350101,-12139.377449,-2451.505594
1026.955335,740.205942,-12139.377449,-1991.848295
1026.955659,1850.514855,-11843.295072,-1225.752797
1026.955983,1628.453072,-9992.780217,0.000000
1026.956307,888.247130,-9770.718434,689.485948
1026.956631,1776.494261,-9474.636058,383.047749
1026.956955,3182.885551,-9400.615463,1149.143247
1026.957279,2368.659014,-9474.636058,689.485948
1026.957603,666.185348,-8660.409521,-919.314598
1026.957927,-1776.494261,-8364.327145,-995.924147
1026.958251,-1776.494261,-8364.327145,-1302.362347
1026.958575,-148.041188,-8068.244768,-1838.629195
1026.958899,-888.247130,-7550.100608,-995.924147
1026.959222,-1924.535449,-7476.080014,-1762.019645
1026.959546,-962.267725,-7105.977043,-766.095498
1026.959870,0.000000,-8216.285956,0.000000
1026.960194,-222.061783,-8364.327145,153.219100
1026.960518,-962.267725,-8142.265362,229.828649
1026.960842,-1480.411884,-7624.121203,689.485948
1026.961166,-518.144159,-8660.409521,1532.190996
1026.961490,-740.205942,-9918.759623,2757.943793
1026.961814,-740.205942,-9326.594869,2374.896044
1026.962138,-296.082377,-7476.080014,2145.067394
1026.962462,740.205942,-6809.894666,919.314598
1026.962786,-370.102971,-7031.956449,-153.219100
1026.963110,-2146.597232,-7994.224174,-306.438199
1026.963433,-3182.885551,-8586.388927,-612.876398
1026.963757,-2886.803174,-8586.388927,-459.657299
1026.964081,-1332.370696,-9326.594869,-536.266849
1026.964405,-814.226536,-8586.388927,-536.266849
1026.964729,-814.226536,-9400.615463,383.047749
1026.965053,0.000000,-11399.171507,536.266849
1026.965377,1776.494261,-12361.439231,536.266849
1026.965701,1924.535449,-12361.439231,1378.971896
1026.966025,1184.329507,-11917.315666,1762.019645
1026.966349,222.061783,-12139.377449,995.924147
1026.966673,296.082377,-12213.398043,1225.752797
1026.966997,296.082377,-13249.686362,1991.848295
1026.967321,444.123565,-13915.871710,1838.629195
1026.967644,888.247130,-12879.583391,919.314598
1026.967968,666.185348,-10658.965565,-229.828649
1026.968292,518.144159,-9992.780217,-766.095498
1026.968616,-1036.288319,-11325.150913,-1838.629195
1026.968940,-1924.535449,-12065.356855,-536.266849
1026.969264,-2368.659014,-10955.047942,0.000000
1026.969588,-1110.308913,-9178.553681,0.000000
1026.969912,-148.041188,-9178.553681,76.609550
1026.970236,1258.350101,-9400.615463,919.314598
1026.970560,2146.597232,-9548.656652,1608.800546
1026.970884,1258.350101,-8734.430116,1762.019645
1026.971208,1184.329507,-8290.306550,2298.286494
1026.971532,444.123565,-8290.306550,1991.848295
1026.971855,814.226536,-8586.388927,2681.334243
1026.972179,1702.473667,-8660.409521,2528.115143
1026.972503,2072.576638,-8512.368333,2528.115143
1026.972827,1406.391290,-7994.224174,2298.286494
1026.973151,740.205942,-7994.224174,2145.067394
1026.973475,0.000000,-8660.409521,1685.410096
1026.973799,0.000000,-6809.894666,689.485948
1026.974123,-370.102971,-7550.100608,459.657299
1026.974447,-2072.576638,-8068.244768,229.828649
1026.974771,-1628.453072,-7994.224174,0.000000
1026.975095,-1258.350101,-7624.121203,-229.828649
1026.975419,-1184.329507,-7624.121203,-842.705048
1026.975742,-1850.514855,-7179.997637,-1455.581446
1026.976066,-1924.535449,-8290.306550,-995.924147
1026.976390,-1258.350101,-8586.388927,76.609550
1026.976714,-814.226536,-8512.368333,383.047749
1026.977038,-740.205942,-8882.471304,-383.047749
1026.977362,-1036.288319,-8290.306550,-766.095498
1026.977686,-370.102971,-9918.759623,0.000000
1026.978010,1628.453072,-10362.883188,0.000000
1026.978334,2442.679609,-9474.636058,306.438199
1026.978658,1628.453072,-9326.594869,0.000000
1026.978982,370.102971,-10214.842000,-919.314598
1026.979306,-222.061783,-11325.150913,-1532.190996
1026.979630,-888.247130,-11103.089130,-2145.067394
1026.979953,-2072.576638,-10658.965565,-3370.820191
1026.980277,-2368.659014,-10807.006753,-3983.696590
1026.980601,-1258.350101,-11843.295072,-4060.306139
1026.980925,0.000000,-12287.418637,-3370.820191
1026.981249,-222.061783,-12435.459826,-3600.648841
1026.981573,-1332.370696,-12435.459826,-3064.381992
1026.981897,-1850.514855,-13471.748144,-2145.067394
1026.982221,-740.205942,-13767.830521,-2298.286494
1026.982545,1036.288319,-12361.439231,-1378.971896
1026.982869,1998.556043,-12657.521608,-383.047749
1026.983193,2072.576638,-12731.542202,-766.095498
1026.983517,2294.638420,-12657.521608,0.000000
1026.983841,1998.556043,-11103.089130,0.000000
1026.984164,1702.473667,-10584.944971,0.000000
1026.984488,740.205942,-10955.047942,-383.047749
1026.984812,74.020594,-11029.068536,-919.314598
1026.985136,0.000000,-9030.512492,-1225.752797
1026.985460,740.205942,-8216.285956,-306.438199
1026.985784,-592.164754,-7772.162391,153.219100
1026.986108,-222.061783,-7328.038826,-766.095498
1026.986432,-962.267725,-5921.647536,-306.438199
1026.986756,0.000000,-5773.606348,383.047749
1026.987080,1036.288319,-6365.771101,459.657299
1026.987404,1036.288319,-7031.956449,1685.410096
1026.987728,814.226536,-7846.182985,3064.381992
1026.988052,1184.329507,-7772.162391,3064.381992
1026.988375,2368.659014,-8216.285956,3064.381992
1026.988699,1258.350101,-7402.059420,2145.067394
1026.989023,0.000000,-7624.121203,1762.019645
1026.989347,370.102971,-8068.244768,1302.362347
1026.989671,1184.329507,-8068.244768,1455.581446
1026.989995,740.205942,-9030.512492,2221.676944
1026.990319,-592.164754,-9104.533087,536.266849
1026.990643,-2886.803174,-7846.182985,-1378.971896
1026.990967,-3849.070898,-7179.997637,-1532.190996
1026.991291,-3108.864956,-9030.512492,-842.705048
1026.991615,-1480.411884,-10955.047942,-306.438199
1026.991939,-148.041188,-9770.718434,0.000000
1026.992263,222.061783,-8438.347739,1072.533697
1026.992586,814.226536,-9104.533087,459.657299
1026.992910,148.041188,-10732.986159,612.876398
1026.993234,444.123565,-11917.315666,1608.800546
1026.993558,0.000000,-11843.295072,1455.581446
1026.993882,74.020594,-10140.821405,76.609550
1026.994206,370.102971,-10288.862594,536.266849
1026.994530,740.205942,-12139.377449,766.095498
1026.994854,814.226536,-12361.439231,842.705048
1026.995178,222.061783,-10140.821405,-612.876398
1026.995502,-592.164754,-9696.697840,-689.485948
1026.995826,-1184.329507,-9918.759623,-1532.190996
1026.996150,-296.082377,-11473.192101,-1225.752797
1026.996474,-1110.308913,-11991.336260,-1225.752797
1026.996797,-1998.556043,-10510.924376,-1378.971896
1026.997121,-2886.803174,-10510.924376,-1302.362347
1026.997445,-2590.720797,-11843.295072,0.000000
1026.997769,-1554.432478,-11843.295072,306.438199
1026.998094,0.000000,-9770.718434,919.314598
1026.998418,1702.473667,-9918.759623,1302.362347
1026.998742,1628.453072,-10288.862594,1072.533697
1026.999066,1554.432478,-9992.780217,1302.362347
1026.999390,592.164754,-9918.759623,1915.238745
1026.999714,740.205942,-9474.636058,766.095498
1027.000038,296.082377,-9622.677246,1149.143247
1027.000362,0.000000,-9400.615463,1455.581446
1027.000686,444.123565,-8586.388927,-153.219100
1027.001010,-444.123565,-7402.059420,76.609550
1027.001334,-1258.350101,-8142.265362,842.705048
1027.001658,-962.267725,-9104.533087,-76.609550
1027.001982,-444.123565,-8734.430116,612.876398
1027.002306,444.123565,-7476.080014,1685.410096
1027.002630,888.247130,-7105.977043,766.095498
1027.002954,74.020594,-7698.141797,-536.266849
1027.003278,-1110.308913,-7772.162391,153.219100
1027.003602,-148.041188,-8808.450710,689.485948
1027.003926,2146.597232,-8512.368333,76.609550
1027.004250,2442.679609,-8068.244768,689.485948
1027.004574,1110.308913,-8586.388927,842.705048
1027.004898,814.226536,-9696.697840,0.000000
1027.005222,0.000000,-9030.512492,-536.266849
1027.005546,-962.267725,-8808.450710,-612.876398
1027.005870,-666.185348,-8364.327145,-689.485948
1027.006194,148.041188,-9474.636058,-842.705048
1027.006518,222.061783,-9400.615463,-612.876398
1027.006842,444.123565,-9030.512492,-919.314598
1027.007166,444.123565,-9474.636058,-1225.752797
1027.007490,814.226536,-9696.697840,-1072.533697
1027.007814,-592.164754,-9992.780217,-2221.676944
1027.008138,-444.123565,-9696.697840,-1378.971896
1027.008462,0.000000,-10362.883188,-1915.238745
1027.008786,-370.102971,-11473.192101,-1532.190996
1027.009110,0.000000,-11991.336260,-2298.286494
1027.009434,518.144159,-10807.006753,-2374.896044
1027.009758,1184.329507,-10955.047942,-3064.381992
1027.010082,1110.308913,-12953.603985,-1838.629195
1027.010406,518.144159,-13397.727550,-1685.410096
1027.010730,222.061783,-12509.480420,-2298.286494
1027.011054,0.000000,-11399.171507,-2221.676944
1027.011378,-592.164754,-11621.233289,-3064.381992
1027.011702,-962.267725,-12065.356855,-2374.896044
1027.012026,-962.267725,-13027.624579,-1378.971896
1027.012350,74.020594,-11695.253884,-383.047749
1027.012674,1406.391290,-10658.965565,-383.047749
1027.012998,518.144159,-10066.800811,-842.705048
1027.013322,296.082377,-10732.986159,0.000000
1027.013646,518.144159,-10436.903782,383.047749
1027.013970,1110.308913,-10214.842000,842.705048
1027.014294,592.164754,-8734.430116,1455.581446
1027.014618,-296.082377,-8438.347739,919.314598
1027.014942,-1258.350101,-8364.327145,383.047749
1027.015266,-592.164754,-8216.285956,536.266849
1027.015590,592.164754,-8512.368333,1149.143247
1027.015914,740.205942,-7476.080014,689.485948
1027.016238,370.102971,-6809.894666,1225.752797
1027.016562,-148.041188,-6365.771101,1838.629195
1027.016886,666.185348,-6661.853478,842.705048
1027.017210,-1554.432478,-6661.853478,459.657299
1027.017534,-2442.679609,-7550.100608,995.924147
1027.017858,-1628.453072,-6883.915261,919.314598
1027.018182,0.000000,-8142.265362,612.876398
1027.018506,-1110.308913,-8068.244768,1838.629195
1027.018830,-1110.308913,-8068.244768,1991.848295
1027.019154,-962.267725,-9474.636058,1302.362347
1027.019478,-1184.329507,-9548.656652,689.485948
1027.019802,-370.102971,-9178.553681,1072.533697
1027.020126,-148.041188,-9252.574275,1532.190996
1027.020450,888.247130,-9918.759623,1455.581446
1027.020774,296.082377,-10732.986159,2451.505594
1027.021098,0.000000,-9918.759623,1149.143247
1027.021422,-888.247130,-9252.574275,0.000000
1027.021746,-666.185348,-10066.800811,0.000000
1027.022071,222.061783,-10955.047942,536.266849
1027.022395,444.123565,-10362.883188,-229.828649
1027.022719,-592.164754,-10510.924376,536.266849
1027.023043,-666.185348,-10362.883188,-306.438199
1027.023367,222.061783,-10658.965565,-766.095498
1027.023691,592.164754,-10732.986159,-306.438199
1027.024015,1184.329507,-11473.192101,-306.438199
1027.024339,666.185348,-11251.130318,-1149.143247
1027.024663,1184.329507,-11103.089130,0.000000
1027.024987,1480.411884,-11917.315666,459.657299
1027.025311,2146.597232,-12731.542202,0.000000
1027.025635,1850.514855,-11547.212695,-766.095498
1027.025959,814.226536,-10584.944971,-229.828649
1027.026283,148.041188,-11621.233289,0.000000
1027.026607,814.226536,-11769.274478,-536.266849
1027.026931,1036.288319,-11177.109724,153.219100
1027.027255,370.102971,-10066.800811,-153.219100
1027.027579,0.000000,-9622.677246,-612.876398
1027.027903,-666.185348,-9326.594869,-459.657299
1027.028227,0.000000,-9030.512492,-689.485948
1027.028551,-740.205942,-8882.471304,-76.609550
1027.028875,-1036.288319,-8068.244768,-612.876398
1027.029199,-1110.308913,-7772.162391,0.000000
1027.029523,-666.185348,-8364.327145,995.924147
1027.029847,1110.308913,-8290.306550,1149.143247
1027.030171,1998.556043,-7772.162391,1685.410096
1027.030495,888.247130,-7031.956449,536.266849
1027.030819,296.082377,-7031.956449,612.876398
1027.031143,148.041188,-7920.203579,1378.971896
1027.031467,296.082377,-7624.121203,229.828649
1027.031791,0.000000,-7254.018232,153.219100
1027.032115,-814.226536,-7328.038826,-153.219100
1027.032439,-740.205942,-7550.100608,-459.657299
1027.032763,-1258.350101,-9326.594869,-1149.143247
1027.033087,-1702.473667,-8956.491898,-459.657299
1027.033411,-1776.494261,-9474.636058,-689.485948
1027.033735,-740.205942,-9770.718434,-612.876398
1027.034059,-518.144159,-9474.636058,-1302.362347
1027.034383,-1184.329507,-9104.533087,-536.266849
1027.034707,-1406.391290,-10955.047942,-383.047749
1027.035031,-666.185348,-11695.253884,-1302.362347
1027.035355,-814.226536,-10955.047942,-1149.143247
1027.035679,-1702.473667,-10214.842000,-1838.629195
1027.036003,-1036.288319,-10140.821405,-1608.800546
1027.036327,-518.144159,-11399.171507,-1762.019645
1027.036651,444.123565,-11547.212695,-459.657299
1027.036975,1110.308913,-11103.089130,-995.924147
1027.037299,666.185348,-11177.109724,-2221.676944
1027.037623,-222.061783,-11103.089130,-2374.896044
1027.037947,518.144159,-11399.171507,-1608.800546
1027.038271,2516.700203,-12287.418637,-1532.190996
1027.038595,1184.329507,-11917.315666,-2451.505594
1027.038919,0.000000,-11695.253884,-2374.896044
1027.039243,148.041188,-11029.068536,-2221.676944
1027.039567,1110.308913,-11547.212695,-1225.752797
1027.039891,888.247130,-12435.459826,-919.314598
1027.040215,0.000000,-10881.027347,-612.876398
1027.040539,-518.144159,-10807.006753,-1378.971896
1027.040863,148.041188,-10140.821405,-766.095498
1027.041187,740.205942,-10658.965565,-383.047749
1027.041511,518.144159,-9918.759623,-383.047749
1027.041835,-740.205942,-9696.697840,459.657299
1027.042159,-1776.494261,-10288.862594,612.876398
1027.042483,-666.185348,-8882.471304,383.047749
1027.042807,-370.102971,-7698.141797,-306.438199
1027.043131,-1702.473667,-7476.080014,919.314598
1027.043455,-1924.535449,-8290.306550,536.266849
1027.043779,-740.205942,-8364.327145,766.095498
1027.044103,0.000000,-7550.100608,1685.410096
1027.044427,-666.185348,-6439.791695,1302.362347
1027.044751,-1036.288319,-5773.606348,612.876398
1027.045075,-666.185348,-6661.853478,1378.971896
1027.045399,1110.308913,-8142.265362,2374.896044
1027.045724,2072.576638,-8512.368333,1532.190996
1027.046048,2146.597232,-6809.894666,1302.362347
1027.046372,1850.514855,-7402.059420,2451.505594
1027.046696,2442.679609,-9178.553681,1685.410096
1027.047020,2294.638420,-10658.965565,2451.505594
1027.047344,740.205942,-9400.615463,2757.943793
1027.047668,-370.102971,-8216.285956,1685.410096
1027.047992,-1554.432478,-8068.244768,689.485948
1027.048316,-1924.535449,-8512.368333,1302.362347
1027.048640,-2368.659014,-8660.409521,995.924147
1027.048964,-2368.659014,-9770.718434,842.705048
1027.049288,-3256.906145,-9548.656652,-383.047749
1027.049612,-2738.761985,-9178.553681,-306.438199
1027.049936,-1850.514855,-9104.533087,-153.219100
1027.050260,-518.144159,-8956.491898,-995.924147
1027.050584,148.041188,-10584.944971,-229.828649
1027.050908,518.144159,-11547.212695,0.000000
1027.051232,1036.288319,-11547.212695,0.000000
1027.051556,-296.082377,-11695.253884,612.876398
1027.051880,296.082377,-11917.315666,229.828649
1027.052204,1480.411884,-12361.439231,0.000000
1027.052528,2442.679609,-12731.542202,766.095498
1027.052852,1480.411884,-11399.171507,-383.047749
1027.053176,296.082377,-10881.027347,-229.828649
1027.053500,-592.164754,-11251.130318,-536.266849
1027.053824,-296.082377,-11399.171507,-1149.143247
1027.054148,0.000000,-11177.109724,-1225.752797
1027.054472,-1036.288319,-10288.862594,-1149.143247
1027.054796,-1702.473667,-10584.944971,-1455.581446
1027.055120,-2368.659014,-9844.739029,-1378.971896
1027.055444,-444.123565,-9548.656652,-1762.019645
1027.055768,444.123565,-10288.862594,-842.705048
1027.056092,222.061783,-10732.986159,-766.095498
1027.056416,296.082377,-9770.718434,-612.876398
1027.056740,888.247130,-8512.368333,-153.219100
1027.057064,1258.350101,-8882.471304,0.000000
1027.057388,1184.329507,-9474.636058,0.000000
1027.057712,444.123565,-9696.697840,766.095498
1027.058036,666.185348,-7550.100608,689.485948
1027.058360,1776.494261,-7920.203579,536.266849
1027.058684,1036.288319,-8438.347739,0.000000
1027.059008,740.205942,-7846.182985,-229.828649
1027.059332,0.000000,-7476.080014,-383.047749
1027.059656,222.061783,-7476.080014,-536.266849
1027.059980,-222.061783,-6735.874072,-1302.362347
1027.060304,-1850.514855,-6217.729913,-2145.067394
1027.060628,-2072.576638,-6809.894666,-2451.505594
1027.060952,-592.164754,-7698.141797,-2451.505594
1027.061276,814.226536,-7994.224174,-2604.724693
1027.061600,592.164754,-8808.450710,-1225.752797
1027.061924,740.205942,-9844.739029,-1149.143247
1027.062248,1332.370696,-10066.800811,-383.047749
1027.062572,2294.638420,-10362.883188,689.485948
1027.062896,2294.638420,-11103.089130,-689.485948
1027.063220,2368.659014,-11103.089130,-383.047749
1027.063544,1406.391290,-11695.253884,76.609550
1027.063868,1776.494261,-12287.418637,0.000000
1027.064192,1406.391290,-11991.336260,-306.438199
1027.064516,888.247130,-11103.089130,-1072.533697
1027.064840,-444.123565,-10807.006753,-995.924147
1027.065164,-1628.453072,-11251.130318,-2068.457845
1027.065488,-1184.329507,-11991.336260,-1532.190996
1027.065812,-962.267725,-12583.501014,-1225.752797
1027.066136,0.000000,-12435.459826,-689.485948
1027.066460,666.185348,-11843.295072,-689.485948
1027.066784,814.226536,-11547.212695,-1378.971896
1027.067108,74.020594,-11917.315666,-459.657299
1027.067432,-444.123565,-11991.336260,-229.828649
1027.067756,-1036.288319,-11991.336260,0.000000
1027.068080,-2220.617826,-10362.883188,-459.657299
1027.068404,-1480.411884,-10362.883188,0.000000
1027.068728,-2368.659014,-11325.150913,689.485948
1027.069052,-2368.659014,-10807.006753,536.266849
1027.069376,-1850.514855,-9548.656652,1532.190996
1027.069701,-1480.411884,-9252.574275,1149.143247
1027.070025,-1998.556043,-8808.450710,1072.533697
1027.070349,-1480.411884,-7920.203579,2068.457845
1027.070673,-740.205942,-8290.306550,2451.505594
1027.070997,-962.267725,-7772.162391,2528.115143
1027.071321,-1554.432478,-6735.874072,1991.848295
1027.071645,-3034.844362,-5699.585753,1991.848295
1027.071969,-2220.617826,-6069.688724,1762.019645
1027.072293,-592.164754,-6143.709319,2221.676944
1027.072617,592.164754,-6143.709319,2681.334243
1027.072941,1184.329507,-5699.585753,1991.848295
1027.073265,518.144159,-4811.338623,2298.286494
1027.073589,370.102971,-6069.688724,2221.676944
1027.073913,1258.350101,-6291.750507,2221.676944
1027.074237,1036.288319,-7476.080014,1991.848295
1027.074561,740.205942,-7846.182985,1685.410096
1027.074885,1628.453072,-8068.244768,1762.019645
1027.075209,2812.782580,-8438.347739,1838.629195
1027.075533,2960.823768,-9844.739029,1762.019645
1027.075857,2516.700203,-10510.924376,536.266849
1027.076181,1998.556043,-10955.047942,306.438199
1027.076505,2072.576638,-11103.089130,459.657299
1027.076829,2886.803174,-11325.150913,229.828649
1027.077153,1924.535449,-11621.233289,-459.657299
1027.077477,-296.082377,-11917.315666,-383.047749
1027.077801,-1554.432478,-12435.459826,-1991.848295
1027.078125,-1776.494261,-11103.089130,-3370.820191
1027.078449,-1480.411884,-11325.150913,-2604.724693
1027.078773,-518.144159,-11843.295072,-1608.800546
1027.079097,148.041188,-12731.542202,-2374.896044
1027.079421,-1406.391290,-11621.233289,-1915.238745
1027.079745,-2146.597232,-11769.274478,-2221.676944
1027.080069,-888.247130,-12287.418637,-2374.896044
1027.080393,-518.144159,-12509.480420,-3064.381992
1027.080717,0.000000,-11695.253884,-2221.676944
1027.081041,1332.370696,-10584.944971,-1762.019645
1027.081365,1998.556043,-10881.027347,-2451.505594
1027.081689,1184.329507,-11547.212695,-1838.629195
1027.082013,888.247130,-12213.398043,-1838.629195
1027.082337,370.102971,-11473.192101,-2757.943793
1027.082661,-592.164754,-10807.006753,-3447.429741
1027.082985,-1776.494261,-10658.965565,-2451.505594
1027.083309,-666.185348,-10732.986159,-2221.676944
1027.083633,0.000000,-10066.800811,-1685.410096
1027.083957,74.020594,-9326.594869,-842.705048
1027.084281,-296.082377,-7698.141797,-1991.848295
1027.084605,74.020594,-7328.038826,-1915.238745
1027.084929,-518.144159,-8660.409521,-919.314598
1027.085253,-1332.370696,-8660.409521,-536.266849
1027.085577,-2072.576638,-7550.100608,-1302.362347
1027.085901,-2738.761985,-6735.874072,-995.924147
1027.086225,-1776.494261,-7550.100608,0.000000
1027.086549,296.082377,-8216.285956,76.609550
1027.086873,2442.679609,-7994.224174,0.000000
1027.087197,2368.659014,-7402.059420,1685.410096
1027.087521,2664.741391,-8216.285956,536.266849
1027.087845,2294.638420,-8216.285956,0.000000
1027.088169,962.267725,-7476.080014,76.609550
1027.088493,740.205942,-7846.182985,-306.438199
1027.088817,666.185348,-9030.512492,0.000000
1027.089141,296.082377,-9622.677246,-766.095498
1027.089465,-148.041188,-8512.368333,-153.219100
1027.089789,222.061783,-8734.430116,-153.219100
1027.090113,148.041188,-9030.512492,-689.485948
1027.090437,-518.144159,-11325.150913,306.438199
1027.090761,-370.102971,-10881.027347,459.657299
1027.091085,1406.391290,-10066.800811,459.657299
1027.091409,1036.288319,-11325.150913,153.219100
1027.091733,0.000000,-11843.295072,-536.266849
1027.092057,-444.123565,-12213.398043,612.876398
1027.092381,-592.164754,-12509.480420,689.485948
1027.092705,-814.226536,-11917.315666,229.828649
1027.093029,-1184.329507,-11547.212695,842.705048
1027.093354,-740.205942,-11843.295072,536.266849
1027.093678,0.000000,-11991.336260,842.705048
1027.094002,1406.391290,-11695.253884,1149.143247
1027.094326,-444.123565,-10510.924376,383.047749
1027.094650,-1184.329507,-10436.903782,0.000000
1027.094974,-1480.411884,-10510.924376,0.000000
1027.095298,-592.164754,-10214.842000,536.266849
1027.095622,-518.144159,-10807.006753,1072.533697
1027.095946,-296.082377,-10584.944971,1455.581446
1027.096270,74.020594,-10732.986159,459.657299
1027.096594,0.000000,-9252.574275,-153.219100
1027.096918,518.144159,-7698.141797,-153.219100
1027.097242,-444.123565,-8882.471304,842.705048
1027.097566,-740.205942,-10140.821405,1762.019645
1027.097890,-370.102971,-9326.594869,1608.800546
1027.098214,-518.144159,-8438.347739,2528.115143
1027.098538,-370.102971,-8438.347739,1225.752797
1027.098862,-1184.329507,-7698.141797,229.828649
1027.099186,-1850.514855,-8586.388927,1302.362347
1027.099510,-962.267725,-8512.368333,1915.238745
1027.099834,148.041188,-8734.430116,2374.896044
1027.100159,148.041188,-8068.244768,2834.553343
1027.100483,0.000000,-8216.285956,1608.800546
1027.100807,-370.102971,-7994.224174,306.438199
1027.101131,0.000000,-7550.100608,306.438199
1027.101455,74.020594,-8216.285956,0.000000
1027.101779,0.000000,-8660.409521,229.828649
1027.102103,-296.082377,-7698.141797,1302.362347
1027.102427,1036.288319,-7550.100608,1072.533697
1027.102751,1776.494261,-8512.368333,1149.143247
1027.103075,1036.288319,-8290.306550,306.438199
1027.103399,444.123565,-8364.327145,-459.657299
1027.103724,148.041188,-8586.388927,-306.438199
1027.104048,1480.411884,-9844.739029,842.705048
1027.104372,2072.576638,-10214.842000,612.876398
1027.104696,814.226536,-8882.471304,0.000000
1027.105020,-814.226536,-8512.368333,-919.314598
1027.105344,-148.041188,-9696.697840,-1838.629195
1027.105668,-296.082377,-11325.150913,-2145.067394
1027.105992,-1406.391290,-11843.295072,-995.924147
1027.106316,-1332.370696,-11325.150913,-1532.190996
1027.106640,-518.144159,-10732.986159,-2374.896044
1027.106965,-444.123565,-11177.109724,-2221.676944
1027.107289,-222.061783,-12435.459826,-1991.848295
1027.107613,518.144159,-11991.336260,-2834.553343
1027.107937,148.041188,-10881.027347,-2221.676944
1027.108261,296.082377,-10881.027347,-919.314598
1027.108585,740.205942,-11621.233289,-1532.190996
1027.108909,74.020594,-10955.047942,-1838.629195
1027.109233,0.000000,-10584.944971,-1838.629195
1027.109557,-666.185348,-9992.780217,-2298.286494
1027.109881,0.000000,-10066.800811,-3217.601092
1027.110205,-666.185348,-10732.986159,-1532.190996
1027.110530,-962.267725,-11473.192101,-1455.581446
1027.110854,-592.164754,-10955.047942,-2757.943793
1027.111178,-1036.288319,-10955.047942,-2451.505594
1027.111502,-1628.453072,-11177.109724,-2451.505594
1027.111826,-1332.370696,-10584.944971,-3524.039291
1027.112150,148.041188,-9770.718434,-2374.896044
1027.112474,1998.556043,-9992.780217,0.000000
1027.112798,2368.659014,-10881.027347,-306.438199
1027.113122,1924.535449,-10288.862594,-459.657299
1027.113446,888.247130,-9252.574275,153.219100
1027.113771,1110.308913,-9548.656652,689.485948
1027.114095,2294.638420,-9844.739029,0.000000
1027.114419,666.185348,-9030.512492,-459.657299
1027.114743,0.000000,-8586.388927,383.047749
1027.115067,518.144159,-8808.450710,689.485948
1027.115391,1110.308913,-9030.512492,-153.219100
1027.115715,-296.082377,-7105.977043,-306.438199
1027.116039,-2368.659014,-6143.709319,-153.219100
1027.116363,-1480.411884,-7402.059420,76.609550
1027.116687,0.000000,-7550.100608,229.828649
1027.117011,0.000000,-7179.997637,306.438199
1027.117336,-1110.308913,-6513.812290,0.000000
1027.117660,-518.144159,-7994.224174,229.828649
1027.117984,370.102971,-9326.594869,842.705048
1027.118308,1480.411884,-9622.677246,1455.581446
1027.118632,1184.329507,-9474.636058,1915.238745
1027.118956,222.061783,-9326.594869,1455.581446
1027.119280,-370.102971,-10362.883188,1072.533697
1027.119604,-296.082377,-9844.739029,995.924147
1027.119928,0.000000,-11177.109724,536.266849
1027.120252,-518.144159,-11621.233289,1608.800546
1027.120577,0.000000,-11029.068536,1532.190996
1027.120901,222.061783,-9696.697840,2068.457845
1027.121225,-518.144159,-10140.821405,919.314598
1027.121549,-2220.617826,-10510.924376,0.000000
1027.121873,-3256.906145,-10807.006753,919.314598
1027.122197,-1332.370696,-10955.047942,766.095498
1027.122521,-296.082377,-10066.800811,842.705048
1027.122845,-592.164754,-10140.821405,1991.848295
1027.123169,-222.061783,-10066.800811,1685.410096
1027.123493,962.267725,-10066.800811,1149.143247
1027.123817,444.123565,-10140.821405,919.314598
1027.124142,-296.082377,-9844.739029,306.438199
1027.124466,-740.205942,-9474.636058,0.000000
1027.124790,74.020594,-10214.842000,612.876398
1027.125114,444.123565,-10955.047942,1225.752797
1027.125438,888.247130,-11103.089130,842.705048
1027.125762,-1036.288319,-10214.842000,229.828649
1027.126086,-1406.391290,-9696.697840,459.657299
1027.126410,0.000000,-10510.924376,1302.362347
1027.126734,1924.535449,-9622.677246,1532.190996
1027.127058,1776.494261,-10436.903782,1225.752797
1027.127383,74.020594,-9030.512492,536.266849
1027.127707,-370.102971,-8734.430116,229.828649
1027.128031,-814.226536,-9178.553681,-229.828649
1027.128355,-296.082377,-8438.347739,-383.047749
1027.128679,-370.102971,-7772.162391,153.219100
1027.129003,0.000000,-8734.430116,76.609550
1027.129327,962.267725,-9178.553681,459.657299
1027.129651,1258.350101,-8438.347739,0.000000
1027.129975,296.082377,-7994.224174,0.000000
1027.130299,296.082377,-8512.368333,-306.438199
1027.130623,592.164754,-9548.656652,-306.438199
1027.130948,296.082377,-8438.347739,612.876398
1027.131272,74.020594,-8068.244768,0.000000
1027.131596,0.000000,-8216.285956,-919.314598
1027.131920,296.082377,-8882.471304,-536.266849
1027.132244,1332.370696,-10214.842000,0.000000
1027.132568,1924.535449,-9696.697840,-1072.533697
1027.132892,370.102971,-8808.450710,-1608.800546
1027.133216,-962.267725,-8956.491898,-1072.533697
1027.133540,0.000000,-10732.986159,-1225.752797
1027.133864,222.061783,-11695.253884,-1149.143247
1027.134189,-370.102971,-10436.903782,-1378.971896
1027.134513,-1258.350101,-8586.388927,-2068.457845
1027.134837,-1332.370696,-9622.677246,-2451.505594
1027.135161,-962.267725,-10362.883188,-2451.505594
1027.135485,-518.144159,-11103.089130,-1838.629195
1027.135809,-962.267725,-9992.780217,-1915.238745
1027.136133,-740.205942,-9326.594869,-1302.362347
1027.136457,-444.123565,-10807.006753,-1608.800546
1027.136781,0.000000,-10362.883188,-1608.800546
1027.137105,518.144159,-10140.821405,-842.705048
1027.137429,0.000000,-10658.965565,-1225.752797
1027.137754,0.000000,-11843.295072,-919.314598
1027.138078,1998.556043,-11991.336260,-536.266849
1027.138402,3552.988522,-10658.965565,-459.657299
1027.138726,2368.659014,-9918.759623,-383.047749
1027.139050,1184.329507,-9770.718434,-612.876398
1027.139374,0.000000,-10584.944971,-1608.800546
1027.139698,-1184.329507,-11029.068536,-1762.019645
1027.140022,-1850.514855,-10214.842000,-1915.238745
1027.140346,-1628.453072,-9622.677246,-1532.190996
1027.140670,-1406.391290,-10066.800811,-1149.143247
1027.140995,-1036.288319,-9918.759623,-1072.533697
1027.141319,0.000000,-9622.677246,-995.924147
1027.141643,1110.308913,-9622.677246,306.438199
1027.141967,888.247130,-10584.944971,383.047749
1027.142291,0.000000,-10510.924376,612.876398
1027.142615,74.020594,-9548.656652,1532.190996
1027.142939,296.082377,-9474.636058,1302.362347
1027.143263,0.000000,-9548.656652,612.876398
1027.143587,-666.185348,-8660.409521,-459.657299
1027.143911,-814.226536,-7179.997637,153.219100
1027.144235,-444.123565,-8512.368333,0.000000
1027.144560,0.000000,-8956.491898,-306.438199
1027.144884,0.000000,-8734.430116,-383.047749
1027.145208,-740.205942,-6661.853478,-919.314598
1027.145532,-666.185348,-7772.162391,-1378.971896
1027.145856,-1258.350101,-7920.203579,-766.095498
1027.146180,148.041188,-8512.368333,919.314598
1027.146504,814.226536,-9696.697840,1072.533697
1027.146828,1554.432478,-9548.656652,1302.362347
1027.147152,1776.494261,-9030.512492,1991.848295
1027.147476,1036.288319,-9548.656652,2145.067394
1027.147801,222.061783,-10140.821405,1149.143247
1027.148125,-518.144159,-9844.739029,1072.533697
1027.148449,-1406.391290,-10066.800811,842.705048
1027.148773,-1776.494261,-10436.903782,383.047749
1027.149097,-1480.411884,-11325.150913,842.705048
1027.149421,-814.226536,-10214.842000,1149.143247
1027.149745,0.000000,-9548.656652,76.609550
1027.150069,-1924.535449,-9474.636058,383.047749
1027.150393,-2442.679609,-9844.739029,689.485948
1027.150717,-1628.453072,-11029.068536,383.047749
1027.151041,-370.102971,-10732.986159,995.924147
1027.151366,-296.082377,-9696.697840,1608.800546
1027.151690,-518.144159,-9252.574275,1225.752797
1027.152014,-296.082377,-10436.903782,1915.238745
1027.152338,148.041188,-9696.697840,1608.800546
1027.152662,1480.411884,-9326.594869,1378.971896
1027.152986,888.247130,-8808.450710,1608.800546
1027.153310,1406.391290,-10066.800811,2604.724693
1027.153634,1258.350101,-10510.924376,1915.238745
1027.153958,1110.308913,-9474.636058,1532.190996
1027.154282,-222.061783,-8068.244768,536.266849
1027.154607,-444.123565,-8956.491898,0.000000
1027.154931,-814.226536,-9992.780217,536.266849
1027.155255,-148.041188,-9696.697840,459.657299
1027.155579,1406.391290,-9400.615463,919.314598
1027.155903,962.267725,-9770.718434,1072.533697
1027.156227,666.185348,-10658.965565,-153.219100
1027.156551,-592.164754,-10288.862594,383.047749
1027.156875,-1110.308913,-8956.491898,-229.828649
1027.157199,-1332.370696,-8882.471304,-995.924147
1027.157523,-1110.308913,-9474.636058,-1149.143247
1027.157847,-148.041188,-10362.883188,229.828649
1027.158172,740.205942,-9918.759623,1225.752797
1027.158496,1776.494261,-9992.780217,0.000000
1027.158820,1184.329507,-8586.388927,-995.924147
1027.159144,740.205942,-8586.388927,-689.485948
1027.159468,1110.308913,-9770.718434,-1225.752797
1027.159792,1998.556043,-10584.944971,0.000000
1027.160116,1110.308913,-9474.636058,-612.876398
1027.160440,-666.185348,-9622.677246,-1225.752797
1027.160764,-666.185348,-9918.759623,-2834.553343
1027.161088,444.123565,-9178.553681,-3217.601092
1027.161413,444.123565,-9770.718434,-2451.505594
1027.161737,-888.247130,-9622.677246,-2374.896044
1027.162061,-1480.411884,-9326.594869,-2528.115143
1027.162385,-1258.350101,-9178.553681,-1455.581446
1027.162709,296.082377,-9770.718434,-1302.362347
1027.163033,1702.473667,-10066.800811,-1455.581446
1027.163357,888.247130,-10732.986159,-995.924147
1027.163681,-296.082377,-10584.944971,-1072.533697
1027.164005,296.082377,-9992.780217,-995.924147
1027.164329,370.102971,-10584.944971,-536.266849
1027.164653,0.000000,-11029.068536,0.000000
1027.164978,0.000000,-10362.883188,-919.314598
1027.165302,148.041188,-9030.512492,-1608.800546
1027.165626,-444.123565,-9622.677246,-2068.457845
1027.165950,-888.247130,-9992.780217,-2068.457845
1027.166274,-666.185348,-9918.759623,-1532.190996
1027.166598,-1406.391290,-10140.821405,-1072.533697
1027.166922,-1924.535449,-9400.615463,-1762.019645
1027.167246,-1184.329507,-8882.471304,-1149.143247
1027.167570,-148.041188,-9622.677246,-383.047749
1027.167894,888.247130,-10955.047942,153.219100
1027.168219,1332.370696,-10214.842000,842.705048
1027.168543,148.041188,-9104.533087,0.000000
1027.168867,-1554.432478,-9474.636058,-306.438199
1027.169191,-2368.659014,-9622.677246,-1915.238745
1027.169515,-740.205942,-9474.636058,-229.828649
1027.169839,1628.453072,-9548.656652,76.609550
1027.170163,2664.741391,-9770.718434,612.876398
1027.170487,2368.659014,-9030.512492,1072.533697
1027.170811,740.205942,-9474.636058,229.828649
1027.171135,0.000000,-9252.574275,0.000000
1027.171459,0.000000,-9474.636058,0.000000
1027.171784,518.144159,-10436.903782,1149.143247
1027.172108,222.061783,-10288.862594,995.924147
1027.172432,222.061783,-9474.636058,1302.362347
1027.172756,518.144159,-9696.697840,1225.752797
1027.173080,444.123565,-10066.800811,1072.533697
1027.173404,222.061783,-10881.027347,689.485948
1027.173728,-370.102971,-9770.718434,536.266849
1027.174052,0.000000,-8660.409521,536.266849
1027.174376,222.061783,-8882.471304,919.314598
1027.174700,296.082377,-9918.759623,919.314598
1027.175025,-888.247130,-10881.027347,1302.362347
1027.175349,-370.102971,-9696.697840,306.438199
1027.175673,-592.164754,-9252.574275,842.705048
1027.175997,-1184.329507,-9474.636058,995.924147
1027.176321,-740.205942,-9770.718434,1225.752797
1027.176645,148.041188,-9844.739029,1838.629195
1027.176969,1258.350101,-9326.594869,1762.019645
1027.177293,814.226536,-8808.450710,1225.752797
1027.177617,-1332.370696,-9030.512492,1685.410096
1027.177941,-2516.700203,-9474.636058,1762.019645
1027.178266,-1702.473667,-9326.594869,229.828649
1027.178590,-1184.329507,-8660.409521,-229.828649
1027.178914,-1110.308913,-7550.100608,919.314598
1027.179238,-1110.308913,-9696.697840,766.095498
1027.179562,-666.185348,-9770.718434,229.828649
1027.179886,-888.247130,-8660.409521,383.047749
1027.180210,-1258.350101,-9474.636058,842.705048
1027.180534,-666.185348,-11399.171507,842.705048
1027.180858,518.144159,-10510.924376,1149.143247
1027.181182,1554.432478,-9252.574275,2451.505594
1027.181506,1110.308913,-9104.533087,2298.286494
1027.181831,444.123565,-9030.512492,612.876398
1027.182155,-370.102971,-9030.512492,536.266849
1027.182479,-740.205942,-8734.430116,995.924147
1027.182803,-296.082377,-9474.636058,459.657299
1027.183127,-296.082377,-9178.553681,-153.219100
1027.183451,-962.267725,-8512.368333,0.000000
1027.183775,0.000000,-7698.141797,-459.657299
1027.184099,296.082377,-9104.533087,-919.314598
1027.184423,0.000000,-9770.718434,-919.314598
1027.184747,-296.082377,-9622.677246,-459.657299
1027.185072,148.041188,-9400.615463,-536.266849
1027.185396,1184.329507,-9474.636058,153.219100
1027.185720,1184.329507,-10807.006753,0.000000
1027.186044,962.267725,-11177.109724,0.000000
1027.186368,1184.329507,-9992.780217,536.266849
1027.186692,1184.329507,-9474.636058,76.609550
1027.187016,1258.350101,-10584.944971,0.000000
1027.187340,1110.308913,-11399.171507,306.438199
1027.187664,1628.453072,-11695.253884,76.609550
1027.187988,1702.473667,-9844.739029,-1378.971896
1027.188312,0.000000,-8512.368333,-1608.800546
1027.188637,-666.185348,-9844.739029,-2068.457845
1027.188961,-740.205942,-11325.150913,-2451.505594
1027.189285,-1110.308913,-11177.109724,-2451.505594
1027.189609,-1036.288319,-10362.883188,-1915.238745
1027.189933,-888.247130,-10066.800811,-1915.238745
1027.190257,-814.226536,-10362.883188,-1838.629195
1027.190581,-592.164754,-9918.759623,-842.705048
1027.190905,-148.041188,-8808.450710,-766.095498
1027.191229,962.267725,-9104.533087,-383.047749
1027.191553,0.000000,-9770.718434,-459.657299
1027.191878,148.041188,-9992.780217,-229.828649
1027.192202,1184.329507,-9178.553681,0.000000
1027.192526,1332.370696,-9400.615463,-842.705048
1027.192850,74.020594,-10140.821405,-1685.410096
1027.193174,-1480.411884,-9326.594869,-1762.019645
1027.193498,-1332.370696,-8808.450710,-1455.581446
1027.193822,-1258.350101,-9696.697840,-153.219100
1027.194146,-1110.308913,-9992.780217,-1685.410096
1027.194470,-1258.350101,-9252.574275,-1225.752797
1027.194794,-740.205942,-9474.636058,-383.047749
1027.195118,1110.308913,-9844.739029,-536.266849
1027.195443,1332.370696,-9992.780217,0.000000
1027.195767,0.000000,-9696.697840,-612.876398
1027.196091,-1480.411884,-9030.512492,0.000000
1027.196415,-962.267725,-9474.636058,-383.047749
1027.196739,-148.041188,-9400.615463,-153.219100
1027.197063,296.082377,-8882.471304,-689.485948
1027.197387,-592.164754,-9104.533087,-229.828649
1027.197711,-296.082377,-9918.759623,-229.828649
1027.198035,444.123565,-9992.780217,0.000000
1027.198359,592.164754,-9474.636058,0.000000
1027.198683,-296.082377,-9252.574275,-229.828649
1027.199007,-444.123565,-9918.759623,153.219100
1027.199331,-370.102971,-10140.821405,153.219100
1027.199655,444.123565,-9622.677246,1072.533697
1027.199980,592.164754,-9844.739029,1072.533697
1027.200304,962.267725,-9474.636058,1302.362347
1027.200628,592.164754,-10066.800811,1378.971896
1027.200952,1332.370696,-10510.924376,2145.067394
1027.201276,1036.288319,-10881.027347,1608.800546
1027.201600,518.144159,-9992.780217,1302.362347
1027.201924,0.000000,-9696.697840,1455.581446
1027.202248,-296.082377,-9696.697840,612.876398
1027.202572,-296.082377,-9474.636058,995.924147
1027.202896,-888.247130,-9474.636058,1149.143247
1027.203220,-814.226536,-9474.636058,766.095498
1027.203544,0.000000,-9030.512492,459.657299
1027.203868,592.164754,-9030.512492,842.705048
1027.204192,1036.288319,-9844.739029,1302.362347
1027.204516,962.267725,-10066.800811,2221.676944
1027.204840,296.082377,-10140.821405,1685.410096
1027.205164,-222.061783,-8956.491898,2221.676944
1027.205488,-148.041188,-8882.471304,2298.286494
1027.205812,-370.102971,-9178.553681,1991.848295
1027.206136,-888.247130,-8882.471304,1532.190996
1027.206460,-1332.370696,-7920.203579,383.047749
1027.206784,-1406.391290,-7550.100608,0.000000
1027.207108,-1776.494261,-8586.388927,612.876398
1027.207432,-1776.494261,-8734.430116,76.609550
1027.207756,-666.185348,-8882.471304,919.314598
1027.208081,0.000000,-8586.388927,995.924147
1027.208405,74.020594,-8882.471304,0.000000
1027.208729,-1480.411884,-9030.512492,0.000000
1027.209053,-2072.576638,-9400.615463,689.485948
1027.209377,-518.144159,-9770.718434,536.266849
1027.209701,814.226536,-10066.800811,995.924147
1027.210025,296.082377,-10288.862594,1455.581446
1027.210349,592.164754,-9992.780217,1149.143247
1027.210673,1332.370696,-10436.903782,-306.438199
1027.210997,2072.576638,-9844.739029,-229.828649
1027.211321,518.144159,-10288.862594,-1302.362347
1027.211645,-1998.556043,-10658.965565,-1302.362347
1027.211969,-2368.659014,-11029.068536,-1532.190996
1027.212293,-592.164754,-10362.883188,-612.876398
1027.212617,1406.391290,-9918.759623,-995.924147
1027.212941,1776.494261,-9918.759623,-1532.190996
1027.213265,666.185348,-9474.636058,-1455.581446
1027.213589,74.020594,-9474.636058,-1532.190996
1027.213913,-518.144159,-9770.718434,-766.095498
1027.214237,-666.185348,-10140.821405,-612.876398
1027.214561,-1036.288319,-9770.718434,-995.924147
1027.214885,0.000000,-9030.512492,-1378.971896
1027.215209,1702.473667,-8438.347739,-1378.971896
1027.215533,1998.556043,-9474.636058,-1225.752797
1027.215857,1702.473667,-10584.944971,-689.485948
1027.216182,962.267725,-10510.924376,-229.828649
1027.216506,370.102971,-9844.739029,-1532.190996
1027.216830,-370.102971,-8586.388927,-2221.676944
1027.217154,-888.247130,-9104.533087,-3140.991542
1027.217478,-1554.432478,-9326.594869,-2451.505594
1027.217802,518.144159,-10881.027347,-1685.410096
1027.218126,1776.494261,-10214.842000,0.000000
1027.218450,2146.597232,-9622.677246,-229.828649
1027.218774,814.226536,-9030.512492,-766.095498
1027.219098,0.000000,-10066.800811,-995.924147
1027.219422,370.102971,-9992.780217,-919.314598
1027.219746,518.144159,-9844.739029,-995.924147
1027.220070,-296.082377,-9844.739029,-919.314598
1027.220394,-148.041188,-9178.553681,-995.924147
1027.220718,444.123565,-10066.800811,-459.657299
1027.221042,740.205942,-10214.842000,-766.095498
1027.221366,296.082377,-9548.656652,-1915.238745
1027.221690,-1480.411884,-8586.388927,-1838.629195
1027.222014,-1184.329507,-9696.697840,-919.314598
1027.222338,444.123565,-11029.068536,0.000000
1027.222662,1554.432478,-11695.253884,842.705048
1027.222986,666.185348,-10066.800811,536.266849
1027.223310,0.000000,-9548.656652,153.219100
1027.223634,0.000000,-10510.924376,0.000000
1027.223958,148.041188,-10955.047942,459.657299
1027.224283,-148.041188,-10288.862594,459.657299
1027.224607,-740.205942,-9622.677246,1072.533697
1027.224931,-222.061783,-11029.068536,1072.533697
1027.225255,1110.308913,-10955.047942,919.314598
1027.225579,222.061783,-9326.594869,-459.657299
1027.225903,-1480.411884,-8290.306550,-1302.362347
1027.226227,-2146.597232,-9030.512492,-995.924147
1027.226551,-1110.308913,-10510.924376,0.000000
1027.226875,740.205942,-11177.109724,1762.019645
1027.227199,740.205942,-9696.697840,2298.286494
1027.227523,814.226536,-8586.388927,1302.362347
1027.227847,0.000000,-9326.594869,1225.752797
1027.228171,296.082377,-9918.759623,1532.190996
1027.228495,518.144159,-9770.718434,2374.896044
1027.228819,74.020594,-8290.306550,2604.724693
1027.229143,-222.061783,-7476.080014,2374.896044
1027.229467,-222.061783,-8290.306550,2068.457845
1027.229791,-740.205942,-8512.368333,1225.752797
1027.230115,-888.247130,-7846.182985,1302.362347
1027.230439,-444.123565,-7846.182985,1455.581446
1027.230763,-740.205942,-8660.409521,766.095498
1027.231087,-1184.329507,-8586.388927,536.266849
1027.231411,-1406.391290,-8216.285956,153.219100
1027.231735,-1702.473667,-8586.388927,229.828649
1027.232059,-1036.288319,-9622.677246,-306.438199
1027.232384,0.000000,-9030.512492,229.828649
1027.232708,222.061783,-9030.512492,1378.971896
1027.233032,1258.350101,-10288.862594,1608.800546
1027.233356,1554.432478,-10140.821405,2145.067394
1027.233680,444.123565,-10140.821405,1608.800546
1027.234004,222.061783,-9992.780217,383.047749
1027.234328,0.000000,-10066.800811,842.705048
1027.234652,518.144159,-9918.759623,459.657299
1027.234976,222.061783,-10436.903782,995.924147
1027.235300,0.000000,-10955.047942,1149.143247
1027.235624,-814.226536,-11177.109724,0.000000
1027.235948,-1924.535449,-10066.800811,-1532.190996
1027.236272,-1998.556043,-9252.574275,-2298.286494
1027.236596,-962.267725,-9178.553681,-1378.971896
1027.236920,962.267725,-10807.006753,-766.095498
1027.237244,1406.391290,-10362.883188,0.000000
1027.237568,1110.308913,-9770.718434,612.876398
1027.237892,444.123565,-9770.718434,-612.876398
1027.238216,0.000000,-9622.677246,-689.485948
1027.238540,666.185348,-10066.800811,0.000000
1027.238864,1258.350101,-10510.924376,766.095498
1027.239188,888.247130,-11177.109724,689.485948
1027.239512,1036.288319,-9474.636058,612.876398
1027.239836,740.205942,-8734.430116,0.000000
1027.240160,-814.226536,-10066.800811,-1455.581446
1027.240485,-1776.494261,-10362.883188,-2681.334243
1027.240809,-1850.514855,-8364.327145,-2145.067394
1027.241133,-518.144159,-8068.244768,-1455.581446
1027.241457,-222.061783,-9400.615463,-1915.238745
1027.241781,-1184.329507,-8660.409521,-2145.067394
1027.242105,-2294.638420,-8438.347739,-1915.238745
1027.242429,-1406.391290,-9918.759623,-2068.457845
1027.242753,-222.061783,-10584.944971,-2298.286494
1027.243077,0.000000,-8142.265362,-689.485948
1027.243401,1258.350101,-9104.533087,229.828649
1027.243725,1998.556043,-10807.006753,842.705048
1027.244049,2368.659014,-10955.047942,536.266849
1027.244373,2220.617826,-10881.027347,1608.800546
1027.244697,2220.617826,-9696.697840,1072.533697
1027.245021,2220.617826,-9252.574275,0.000000
1027.245345,1628.453072,-8660.409521,0.000000
1027.245669,0.000000,-8882.471304,-766.095498
1027.245993,-1702.473667,-9030.512492,-2068.457845
1027.246317,-2590.720797,-8512.368333,-3064.381992
1027.246641,-2220.617826,-8364.327145,-2451.505594
1027.246965,-888.247130,-8956.491898,-2834.553343
1027.247289,148.041188,-8290.306550,-2221.676944
1027.247613,-740.205942,-9252.574275,-842.705048
1027.247937,-1332.370696,-10214.842000,-306.438199
1027.248261,-444.123565,-10362.883188,153.219100
1027.248586,-666.185348,-10732.986159,-459.657299
1027.248910,-666.185348,-10214.842000,459.657299
1027.249234,296.082377,-10658.965565,0.000000
1027.249558,444.123565,-11843.295072,1225.752797
1027.249882,-222.061783,-11621.233289,0.000000
1027.250206,-1258.350101,-9252.574275,-766.095498
1027.250530,-1406.391290,-9548.656652,-612.876398
1027.250854,-148.041188,-11621.233289,-1455.581446
1027.251178,1406.391290,-11991.336260,-1302.362347
1027.251502,1332.370696,-10584.944971,76.609550
1027.251826,888.247130,-10362.883188,306.438199
1027.252150,444.123565,-11251.130318,-612.876398
1027.252474,0.000000,-10584.944971,612.876398
1027.252798,740.205942,-10288.862594,689.485948
1027.253122,1258.350101,-10140.821405,1302.362347
1027.253446,1924.535449,-10881.027347,2068.457845
1027.253770,1628.453072,-9770.718434,2068.457845
1027.254094,1110.308913,-8216.285956,1378.971896
1027.254418,-592.164754,-8660.409521,1149.143247
1027.254742,-2146.597232,-9030.512492,612.876398
1027.255066,-1924.535449,-9400.615463,536.266849
1027.255390,-444.123565,-9548.656652,1532.190996
1027.255714,-222.061783,-8734.430116,1455.581446
1027.256038,-296.082377,-7920.203579,919.314598
1027.256362,-1702.473667,-8734.430116,536.266849
1027.256686,-814.226536,-9178.553681,1532.190996
1027.257011,814.226536,-9770.718434,1762.019645
1027.257335,592.164754,-9030.512492,2451.505594
1027.257659,370.102971,-8216.285956,2911.162892
1027.257983,296.082377,-8512.368333,2987.772442
1027.258307,518.144159,-8956.491898,3064.381992
1027.258631,1258.350101,-7994.224174,2221.676944
1027.258955,666.185348,-7105.977043,1991.848295
1027.259279,-666.185348,-8364.327145,1532.190996
1027.259603,-1480.411884,-7772.162391,612.876398
1027.259927,-1702.473667,-7254.018232,-153.219100
1027.260251,-2442.679609,-7624.121203,306.438199
1027.260575,-1924.535449,-9104.533087,153.219100
1027.260899,-1036.288319,-8586.388927,689.485948
1027.261223,0.000000,-8290.306550,76.609550
1027.261547,0.000000,-8660.409521,0.000000
1027.261871,296.082377,-9844.739029,459.657299
1027.262195,148.041188,-11103.089130,383.047749
1027.262519,74.020594,-10881.027347,153.219100
1027.262843,370.102971,-9918.759623,459.657299
1027.263167,666.185348,-10510.924376,306.438199
1027.263491,444.123565,-12435.459826,-229.828649
1027.263815,814.226536,-12213.398043,-536.266849
1027.264139,444.123565,-11399.171507,-995.924147
1027.264463,-296.082377,-11399.171507,-1225.752797
1027.264787,-592.164754,-11843.295072,-612.876398
1027.265112,-296.082377,-11991.336260,-459.657299
1027.265436,-666.185348,-11769.274478,-1532.190996
1027.265760,-1628.453072,-10658.965565,-2451.505594
1027.266084,-370.102971,-10140.821405,-1762.019645
1027.266408,1184.329507,-10658.965565,-919.314598
1027.266732,2294.638420,-11621.233289,153.219100
1027.267056,2220.617826,-10362.883188,0.000000
1027.267380,1480.411884,-8734.430116,0.000000
1027.267704,0.000000,-9918.759623,-1225.752797
1027.268028,-370.102971,-10362.883188,-2528.115143
1027.268352,-222.061783,-9696.697840,-2298.286494
1027.268676,-370.102971,-9474.636058,-1302.362347
1027.269000,0.000000,-9104.533087,-766.095498
1027.269324,148.041188,-9030.512492,-1915.238745
1027.269648,0.000000,-8512.368333,-1455.581446
1027.269972,-1184.329507,-8660.409521,-2451.505594
1027.270296,-1406.391290,-8882.471304,-1915.238745
1027.270620,-888.247130,-9622.677246,-1378.971896
1027.270944,-296.082377,-9548.656652,-383.047749
1027.271268,0.000000,-9030.512492,306.438199
1027.271592,296.082377,-9104.533087,-153.219100
1027.271916,0.000000,-9474.636058,0.000000
1027.272240,666.185348,-10066.800811,-306.438199
1027.272564,962.267725,-9030.512492,-153.219100
1027.272888,0.000000,-7920.203579,-842.705048
1027.273213,-1258.350101,-7698.141797,-536.266849
1027.273537,-1258.350101,-8734.430116,0.000000
1027.273861,-1184.329507,-8956.491898,-1225.752797
1027.274185,-1850.514855,-8808.450710,-1991.848295
1027.274509,-1480.411884,-8068.244768,-2145.067394
1027.274833,666.185348,-8882.471304,-1302.362347
1027.275157,3552.988522,-8808.450710,-842.705048
1027.275481,4441.235652,-9474.636058,612.876398
1027.275805,3256.906145,-10510.924376,842.705048
1027.276129,2664.741391,-10214.842000,383.047749
1027.276453,1702.473667,-9770.718434,0.000000
1027.276777,1480.411884,-9918.759623,383.047749
1027.277101,962.267725,-9696.697840,-229.828649
1027.277425,592.164754,-9844.739029,0.000000
1027.277749,-814.226536,-9918.759623,306.438199
1027.278073,-1702.473667,-10658.965565,153.219100
1027.278397,-1258.350101,-10955.047942,153.219100
1027.278721,-2220.617826,-10066.800811,-153.219100
1027.279045,-2664.741391,-10807.006753,-842.705048
1027.279369,-2368.659014,-10362.883188,-1378.971896
1027.279693,-2220.617826,-10658.965565,-1532.190996
1027.280017,-2146.597232,-11917.315666,-153.219100
1027.280341,-814.226536,-12139.377449,1072.533697
1027.280665,1406.391290,-12139.377449,766.095498
1027.280989,2368.659014,-10214.842000,383.047749
1027.281314,2516.700203,-10066.800811,919.314598
1027.281638,1702.473667,-10807.006753,1455.581446
1027.281962,1924.535449,-12139.377449,1378.971896
1027.282286,1184.329507,-11621.233289,1302.362347
1027.282610,0.000000,-9474.636058,1225.752797
1027.282934,-1258.350101,-9030.512492,842.705048
1027.283258,-2220.617826,-9548.656652,0.000000
1027.283582,-2368.659014,-8364.327145,-766.095498
1027.283906,-1554.432478,-7179.997637,612.876398
1027.284230,-666.185348,-8142.265362,536.266849
1027.284554,148.041188,-7994.224174,995.924147
1027.284878,-222.061783,-7476.080014,1762.019645
1027.285202,-962.267725,-7698.141797,1225.752797
1027.285526,-1036.288319,-8142.265362,689.485948
1027.285850,-814.226536,-8438.347739,153.219100
1027.286174,-444.123565,-7994.224174,1532.190996
1027.286498,370.102971,-9622.677246,2221.676944
1027.286822,1332.370696,-9030.512492,1455.581446
1027.287146,222.061783,-9030.512492,1685.410096
1027.287470,74.020594,-9326.594869,1149.143247
1027.287794,148.041188,-10140.821405,459.657299
1027.288118,962.267725,-8734.430116,766.095498
1027.288442,518.144159,-8142.265362,1455.581446
1027.288766,222.061783,-9030.512492,1072.533697
1027.289090,0.000000,-8734.430116,0.000000
1027.289415,-888.247130,-7846.182985,-842.705048
1027.289739,-296.082377,-7550.100608,-612.876398
1027.290063,444.123565,-8586.388927,-1378.971896
1027.290387,444.123565,-10214.842000,-459.657299
1027.290711,-370.102971,-10807.006753,842.705048
1027.291035,74.020594,-9770.718434,306.438199
1027.291359,444.123565,-9622.677246,-689.485948
1027.291683,0.000000,-9622.677246,-766.095498
1027.292007,0.000000,-10807.006753,-153.219100
1027.292331,962.267725,-11473.192101,153.219100
1027.292655,1776.494261,-11177.109724,306.438199
1027.292979,888.247130,-10362.883188,306.438199
1027.293303,-148.041188,-10510.924376,-766.095498
1027.293627,-222.061783,-10807.006753,-2145.067394
1027.293951,-296.082377,-10732.986159,-2528.115143
1027.294275,-740.205942,-11991.336260,-1991.848295
1027.294599,-814.226536,-12879.583391,-995.924147
1027.294923,-296.082377,-12361.439231,-1302.362347
1027.295247,222.061783,-10510.924376,-1455.581446
1027.295571,74.020594,-9992.780217,-1225.752797
1027.295895,296.082377,-10584.944971,-1532.190996
1027.296219,592.164754,-11621.233289,-536.266849
1027.296543,1036.288319,-10510.924376,0.000000
1027.296867,1924.535449,-8660.409521,76.609550
1027.297191,814.226536,-9548.656652,-229.828649
1027.297516,-1258.350101,-10214.842000,-1225.752797
1027.297840,-1184.329507,-9474.636058,-459.657299
1027.298164,-1184.329507,-8734.430116,-842.705048
1027.298488,-592.164754,-9178.553681,-1455.581446
1027.298812,-370.102971,-8438.347739,-689.485948
1027.299136,0.000000,-8882.471304,-766.095498
1027.299460,592.164754,-8734.430116,-1225.752797
1027.299784,814.226536,-9104.533087,-306.438199
1027.300108,444.123565,-9178.553681,0.000000
1027.300433,148.041188,-8808.450710,0.000000
1027.300757,-592.164754,-8586.388927,153.219100
1027.301081,0.000000,-7179.997637,689.485948
1027.301405,-666.185348,-9992.780217,919.314598
1027.301729,0.000000,-11029.068536,689.485948
1027.302053,370.102971,-9178.553681,229.828649
1027.302377,222.061783,-8364.327145,1225.752797
1027.302702,1332.370696,-8216.285956,766.095498
1027.303026,444.123565,-8364.327145,-766.095498
1027.303350,-1924.535449,-9400.615463,-306.438199
1027.303674,-2590.720797,-8734.430116,-1991.848295
1027.303998,-518.144159,-8216.285956,-995.924147
1027.304322,148.041188,-8290.306550,-1225.752797
1027.304646,0.000000,-9104.533087,0.000000
1027.304971,518.144159,-9104.533087,-229.828649
1027.305295,1258.350101,-9326.594869,229.828649
1027.305619,1110.308913,-10362.883188,766.095498
1027.305943,1406.391290,-10807.006753,919.314598
1027.306267,1480.411884,-11029.068536,1455.581446
1027.306591,814.226536,-10658.965565,1302.362347
1027.306915,518.144159,-10362.883188,612.876398
1027.307240,-888.247130,-9696.697840,-229.828649
1027.307564,-1702.473667,-10288.862594,-459.657299
1027.307888,-1776.494261,-11473.192101,-536.266849
1027.308212,-592.164754,-11843.295072,-612.876398
1027.308536,-888.247130,-10955.047942,-766.095498
1027.308860,-1332.370696,-10140.821405,-306.438199
1027.309184,-814.226536,-11325.150913,612.876398
1027.309508,0.000000,-11177.109724,-919.314598
1027.309833,888.247130,-10584.944971,-229.828649
1027.310157,370.102971,-9770.718434,995.924147
1027.310481,1184.329507,-11251.130318,1378.971896
1027.310805,2072.576638,-11473.192101,1455.581446
1027.311129,1924.535449,-8882.471304,1072.533697
1027.311453,0.000000,-8142.265362,459.657299
1027.311777,-1184.329507,-9326.594869,-612.876398
1027.312102,-1332.370696,-9548.656652,-1225.752797
1027.312426,-444.123565,-8808.450710,153.219100
1027.312750,222.061783,-8808.450710,76.609550
1027.313074,370.102971,-8734.430116,76.609550
1027.313398,296.082377,-8734.430116,689.485948
1027.313722,888.247130,-9622.677246,229.828649
1027.314046,1184.329507,-9770.718434,919.314598
1027.314371,1480.411884,-9918.759623,612.876398
1027.314695,592.164754,-9178.553681,689.485948
1027.315019,-592.164754,-9474.636058,612.876398
1027.315343,74.020594,-9622.677246,1378.971896
1027.315667,-148.041188,-10140.821405,306.438199
1027.315991,-962.267725,-8660.409521,-536.266849
1027.316315,-1332.370696,-7254.018232,-689.485948
1027.316640,-1850.514855,-7328.038826,-536.266849
1027.316964,-1480.411884,-8808.450710,-459.657299
1027.317288,-1406.391290,-9326.594869,-842.705048
1027.317612,-1110.308913,-9400.615463,-153.219100
1027.317936,-518.144159,-8438.347739,-612.876398
1027.318260,666.185348,-8142.265362,-1072.533697
1027.318584,888.247130,-9918.759623,306.438199
1027.318909,1332.370696,-10140.821405,842.705048
1027.319233,1184.329507,-10658.965565,459.657299
1027.319557,814.226536,-10584.944971,689.485948
1027.319881,666.185348,-9622.677246,0.000000
1027.320205,1110.308913,-8512.368333,-306.438199
1027.320529,0.000000,-10288.862594,0.000000
1027.320853,-888.247130,-11103.089130,-689.485948
1027.321178,-1036.288319,-10288.862594,-2604.724693
1027.321502,-2590.720797,-9474.636058,-919.314598
1027.321826,-2368.659014,-9844.739029,-842.705048
1027.322150,-2146.597232,-10288.862594,-1455.581446
1027.322474,-2442.679609,-9474.636058,-1685.410096
1027.322798,-2812.782580,-9770.718434,-1762.019645
1027.323122,-2294.638420,-10288.862594,-766.095498
1027.323446,-740.205942,-11843.295072,-153.219100
1027.323771,518.144159,-11029.068536,153.219100
1027.324095,1258.350101,-9474.636058,-689.485948
1027.324419,1184.329507,-10066.800811,-306.438199
1027.324743,1776.494261,-11325.150913,-689.485948
1027.325067,2516.700203,-10955.047942,-995.924147
1027.325391,2220.617826,-10510.924376,76.609550
1027.325715,1258.350101,-11399.171507,-1225.752797
1027.326040,888.247130,-11177.109724,-1149.143247
1027.326364,814.226536,-10807.006753,-919.314598
1027.326688,592.164754,-10881.027347,-536.266849
1027.327012,888.247130,-10732.986159,-459.657299
1027.327336,1480.411884,-9104.533087,-612.876398
1027.327660,518.144159,-8882.471304,459.657299
1027.327984,-814.226536,-9326.594869,612.876398
1027.328309,-740.205942,-8734.430116,229.828649
1027.328633,-1184.329507,-8290.306550,229.828649
1027.328957,-1554.432478,-7550.100608,153.219100
1027.329281,-1332.370696,-8586.388927,0.000000
1027.329605,-518.144159,-8660.409521,229.828649
1027.329929,74.020594,-8586.388927,-306.438199
1027.330253,592.164754,-8216.285956,306.438199
1027.330578,1406.391290,-9326.594869,919.314598
1027.330902,2220.617826,-8586.388927,612.876398
1027.331226,1406.391290,-8068.244768,0.000000
1027.331550,0.000000,-8438.347739,306.438199
1027.331874,0.000000,-9770.718434,612.876398
1027.332198,592.164754,-10658.965565,76.609550
1027.332522,962.267725,-9918.759623,919.314598
1027.332847,1258.350101,-8660.409521,1149.143247
1027.333171,1406.391290,-9400.615463,1302.362347
1027.333495,0.000000,-10362.883188,459.657299
1027.333819,-1702.473667,-8808.450710,229.828649
1027.334143,-2368.659014,-7772.162391,-383.047749
1027.334467,-2442.679609,-9400.615463,-1072.533697
1027.334791,-1776.494261,-10807.006753,-383.047749
1027.335116,-1850.514855,-10140.821405,0.000000
1027.335440,-814.226536,-10732.986159,-306.438199
1027.335764,-1258.350101,-10510.924376,-306.438199
1027.336088,-370.102971,-9770.718434,536.266849
1027.336412,0.000000,-9918.759623,919.314598
1027.336736,-296.082377,-10510.924376,766.095498
1027.337060,-740.205942,-10881.027347,0.000000
1027.337384,592.164754,-10584.944971,995.924147
1027.337709,2442.679609,-10362.883188,1455.581446
1027.338033,2294.638420,-10955.047942,1225.752797
1027.338357,592.164754,-9474.636058,-306.438199
1027.338681,-1110.308913,-10436.903782,306.438199
1027.339005,-1036.288319,-11251.130318,0.000000
1027.339329,-962.267725,-10955.047942,-842.705048
1027.339653,-1480.411884,-9326.594869,-459.657299
1027.339978,-1258.350101,-8734.430116,-1072.533697
1027.340302,-592.164754,-9622.677246,-536.266849
1027.340626,0.000000,-10881.027347,-459.657299
1027.340950,370.102971,-9400.615463,0.000000
1027.341274,1406.391290,-8512.368333,306.438199
1027.341598,1406.391290,-10362.883188,919.314598
1027.341922,1110.308913,-10955.047942,1455.581446
1027.342247,518.144159,-9622.677246,383.047749
1027.342571,-518.144159,-9400.615463,536.266849
1027.342895,-296.082377,-9400.615463,306.438199
1027.343219,148.041188,-9622.677246,766.095498
1027.343543,0.000000,-9696.697840,1072.533697
1027.343867,148.041188,-8586.388927,229.828649
1027.344191,0.000000,-8068.244768,-459.657299
1027.344516,-962.267725,-8364.327145,-1455.581446
1027.344840,-1776.494261,-9104.533087,-1072.533697
1027.345164,-1184.329507,-8512.368333,-1378.971896
1027.345488,-296.082377,-7920.203579,0.000000
1027.345812,-1258.350101,-8808.450710,-1378.971896
1027.346136,-1628.453072,-9104.533087,-842.705048
1027.346460,0.000000,-10140.821405,-459.657299
1027.346785,2220.617826,-9474.636058,-612.876398
1027.347109,3404.947333,-9844.739029,383.047749
1027.347433,2590.720797,-9622.677246,689.485948
1027.347757,592.164754,-10584.944971,229.828649
1027.348081,148.041188,-9548.656652,-612.876398
1027.348405,592.164754,-10140.821405,-995.924147
1027.348729,222.061783,-10214.842000,-1455.581446
1027.349054,-444.123565,-9622.677246,-2298.286494
1027.349378,-740.205942,-9178.553681,-1302.362347
1027.349702,0.000000,-9770.718434,-536.266849
1027.350026,0.000000,-10510.924376,-995.924147
1027.350350,-666.185348,-10140.821405,-995.924147
1027.350674,-592.164754,-10510.924376,-842.705048
1027.350998,-74.020594,-10214.842000,-612.876398
1027.351322,296.082377,-9548.656652,-1762.019645
1027.351647,-296.082377,-8808.450710,-766.095498
1027.351971,-518.144159,-10066.800811,-383.047749
1027.352295,888.247130,-10288.862594,-1149.143247
1027.352619,2072.576638,-9030.512492,-842.705048
1027.352943,1776.494261,-8586.388927,-919.314598
1027.353267,2072.576638,-8882.471304,-1608.800546
1027.353591,2442.679609,-10288.862594,-1762.019645
1027.353916,2146.597232,-10807.006753,-1762.019645
1027.354240,1332.370696,-10807.006753,-1455.581446
1027.354564,148.041188,-10807.006753,-1685.410096
1027.354888,-888.247130,-11325.150913,-1302.362347
1027.355212,-296.082377,-11843.295072,-1455.581446
1027.355536,1332.370696,-11251.130318,-459.657299
1027.355860,2886.803174,-11177.109724,0.000000
1027.356185,3923.091493,-11251.130318,306.438199
1027.356509,2960.823768,-9918.759623,-689.485948
1027.356833,1924.535449,-8882.471304,-2298.286494
1027.357157,222.061783,-9400.615463,-2068.457845
1027.357481,0.000000,-10140.821405,-2374.896044
1027.357805,0.000000,-9770.718434,-2987.772442
1027.358129,-518.144159,-8290.306550,-1149.143247
1027.358454,-370.102971,-8808.450710,-919.314598
1027.358778,444.123565,-9326.594869,-2298.286494
1027.359102,888.247130,-8364.327145,-2145.067394
1027.359426,1628.453072,-8364.327145,76.609550
1027.359750,3256.906145,-8512.368333,229.828649
1027.360074,4293.194464,-8734.430116,76.609550
1027.360398,2812.782580,-7550.100608,229.828649
1027.360723,2516.700203,-7772.162391,0.000000
1027.361047,2960.823768,-8956.491898,-2451.505594
1027.361371,2664.741391,-7920.203579,-2221.676944
1027.361695,1628.453072,-7772.162391,-2068.457845
1027.362019,1332.370696,-8142.265362,-3524.039291
1027.362343,74.020594,-9104.533087,-4060.306139
1027.362667,-1258.350101,-9844.739029,-3983.696590
1027.362991,-1184.329507,-10510.924376,-3753.867940
1027.363316,-444.123565,-9844.739029,-3064.381992
1027.363640,296.082377,-9622.677246,-2221.676944
1027.363964,1554.432478,-9622.677246,-1455.581446
1027.364288,2960.823768,-10066.800811,-1302.362347
1027.364612,3404.947333,-10732.986159,-383.047749
1027.364936,3923.091493,-11621.233289,0.000000
1027.365260,4367.215058,-11103.089130,-766.095498
1027.365585,4663.297435,-10362.883188,-689.485948
1027.365909,5033.400406,-10140.821405,-1378.971896
1027.366233,4737.318029,-11325.150913,-2221.676944
1027.366557,2812.782580,-11621.233289,-3600.648841
1027.366881,666.185348,-11177.109724,-4213.525239
1027.367205,-666.185348,-10436.903782,-5056.230287
1027.367529,-222.061783,-10288.862594,-4290.134789
1027.367854,1480.411884,-9696.697840,-4596.572988
1027.368178,2664.741391,-9474.636058,-3753.867940
1027.368502,2664.741391,-9992.780217,-2145.067394
1027.368826,3849.070898,-10732.986159,-995.924147
1027.369150,5625.565159,-10658.965565,536.266849
1027.369474,5995.668130,-10658.965565,1378.971896
1027.369798,5625.565159,-10214.842000,1225.752797
1027.370123,5033.400406,-9252.574275,0.000000
1027.370447,3182.885551,-9474.636058,-612.876398
1027.370771,370.102971,-9844.739029,-1455.581446
1027.371095,-1036.288319,-9252.574275,-2987.772442
1027.371419,-1406.391290,-8364.327145,-3753.867940
1027.371743,-1258.350101,-7920.203579,-4060.306139
1027.372067,-592.164754,-7179.997637,-4903.011187
1027.372392,148.041188,-7105.977043,-4673.182538
1027.372716,814.226536,-7402.059420,-3907.087040
1027.373040,2442.679609,-8216.285956,-2451.505594
1027.373364,3552.988522,-8660.409521,-1532.190996
1027.373688,4737.318029,-8586.388927,-1149.143247
1027.374012,4885.359217,-9104.533087,0.000000
1027.374336,4293.194464,-10732.986159,-229.828649
1027.374661,3923.091493,-10807.006753,-689.485948
1027.374985,3256.906145,-9326.594869,766.095498
1027.375309,2442.679609,-9844.739029,-1302.362347
1027.375633,1924.535449,-9918.759623,-2221.676944
1027.375957,740.205942,-9400.615463,-2528.115143
1027.376281,-740.205942,-8586.388927,-3524.039291
1027.376605,-1776.494261,-8512.368333,-4596.572988
1027.376929,-1258.350101,-8290.306550,-5132.839837
1027.377254,-296.082377,-8660.409521,-4596.572988
1027.377578,-222.061783,-9104.533087,-5056.230287
1027.377902,962.267725,-9474.636058,-4673.182538
1027.378226,1628.453072,-11029.068536,-2987.772442
1027.378550,2664.741391,-11843.295072,-3370.820191
1027.378874,4071.132681,-11029.068536,-1915.238745
1027.379198,4737.318029,-11547.212695,-689.485948
1027.379523,5477.523971,-12731.542202,-1378.971896
1027.379847,5921.647536,-12139.377449,-1608.800546
1027.380171,4737.318029,-12139.377449,-842.705048
1027.380495,3552.988522,-13101.645173,-1991.848295
1027.380819,2960.823768,-11103.089130,-2451.505594
1027.381143,2220.617826,-9326.594869,-2987.772442
1027.381467,814.226536,-9474.636058,-3753.867940
1027.381792,888.247130,-9992.780217,-4596.572988
1027.382116,0.000000,-9030.512492,-3907.087040
1027.382440,-1110.308913,-9252.574275,-3370.820191
1027.382764,-222.061783,-9030.512492,-3830.477490
1027.383088,666.185348,-7624.121203,-3524.039291
1027.383412,666.185348,-8660.409521,-2528.115143
1027.383736,1184.329507,-8956.491898,-2221.676944
1027.384061,2960.823768,-8882.471304,-1915.238745
1027.384385,3182.885551,-9918.759623,-153.219100
1027.384709,4071.132681,-9696.697840,0.000000
1027.385033,4589.276840,-8290.306550,-229.828649
1027.385357,3108.864956,-9104.533087,0.000000
1027.385681,2886.803174,-9696.697840,-995.924147
1027.386005,2516.700203,-8216.285956,-2145.067394
1027.386330,1776.494261,-8216.285956,-2068.457845
1027.386654,888.247130,-9622.677246,-1991.848295
1027.386978,1258.350101,-9252.574275,-2834.553343
1027.387302,666.185348,-7624.121203,-3294.210641
1027.387626,-370.102971,-8438.347739,-2068.457845
1027.387950,0.000000,-9622.677246,-2987.772442
1027.388274,1406.391290,-8660.409521,-2451.505594
1027.388599,1258.350101,-8660.409521,-2221.676944
1027.388923,1850.514855,-9622.677246,-995.924147
1027.389247,4367.215058,-10955.047942,-383.047749
1027.389571,5255.462188,-10881.027347,-306.438199
1027.389895,3849.070898,-9770.718434,-383.047749
1027.390219,2664.741391,-10510.924376,-229.828649
1027.390543,2738.761985,-11991.336260,-536.266849
1027.390867,3552.988522,-11473.192101,-612.876398
1027.391192,1776.494261,-9844.739029,-2374.896044
1027.391516,518.144159,-9844.739029,-2604.724693
1027.391840,1036.288319,-10584.944971,-2834.553343
1027.392164,2590.720797,-10510.924376,-2911.162892
1027.392488,2368.659014,-9474.636058,-2834.553343
1027.392812,518.144159,-9252.574275,-3753.867940
1027.393136,0.000000,-9548.656652,-3217.601092
1027.393461,1406.391290,-10140.821405,-2451.505594
1027.393785,3849.070898,-10214.842000,-1838.629195
1027.394109,4145.153275,-10066.800811,-1302.362347
1027.394433,3552.988522,-10881.027347,-1149.143247
1027.394757,3923.091493,-10658.965565,-459.657299
1027.395081,4959.379811,-9548.656652,0.000000
1027.395405,5255.462188,-9696.697840,0.000000
1027.395730,3330.926739,-9918.759623,-1225.752797
1027.396054,1332.370696,-9770.718434,-1532.190996
1027.396378,-592.164754,-8956.491898,-1838.629195
1027.396702,-666.185348,-9474.636058,-2451.505594
1027.397026,-962.267725,-8882.471304,-2911.162892
1027.397350,-592.164754,-8586.388927,-2681.334243
1027.397674,-148.041188,-8290.306550,-2604.724693
1027.397999,518.144159,-8290.306550,-2681.334243
1027.398323,962.267725,-7402.059420,-1915.238745
1027.398647,1776.494261,-8364.327145,-1608.800546
1027.398971,3182.885551,-8808.450710,-1072.533697
1027.399295,4811.338623,-9030.512492,-536.266849
1027.399619,4959.379811,-9326.594869,-383.047749
1027.399943,3627.009116,-10140.821405,-842.705048
1027.400268,1258.350101,-10362.883188,-1838.629195
1027.400592,666.185348,-9844.739029,-2374.896044
1027.400916,1850.514855,-9326.594869,-1991.848295
1027.401240,2812.782580,-9178.553681,-2068.457845
1027.401564,2294.638420,-9918.759623,-2298.286494
1027.401888,370.102971,-9992.780217,-3983.696590
1027.402213,-1332.370696,-8882.471304,-3753.867940
1027.402537,-1036.288319,-8586.388927,-3140.991542
1027.402861,666.185348,-8438.347739,-2451.505594
1027.403185,2664.741391,-9030.512492,-2221.676944
1027.403509,3256.906145,-9326.594869,-3064.381992
1027.403833,2590.720797,-9622.677246,-2987.772442
1027.404157,2590.720797,-10807.006753,-2911.162892
1027.404482,1998.556043,-11399.171507,-2528.115143
1027.404806,1036.288319,-11103.089130,-2528.115143
1027.405130,962.267725,-10658.965565,-2757.943793
1027.405454,1628.453072,-10436.903782,-3370.820191
1027.405778,2960.823768,-10955.047942,-3294.210641
1027.406102,4071.132681,-11473.192101,-2451.505594
1027.406426,4589.276840,-11177.109724,-2221.676944
1027.406751,3775.050304,-10807.006753,-2604.724693
1027.407075,2664.741391,-9770.718434,-2221.676944
1027.407399,1184.329507,-9252.574275,-2834.553343
1027.407723,888.247130,-9844.739029,-3447.429741
1027.408047,1406.391290,-10584.944971,-3140.991542
1027.408371,2516.700203,-10066.800811,-2528.115143
1027.408696,4663.297435,-9474.636058,-1532.190996
1027.409020,5329.482782,-9178.553681,-1455.581446
1027.409344,4811.338623,-9326.594869,-1991.848295
1027.409668,2368.659014,-9474.636058,-3064.381992
1027.409992,444.123565,-9474.636058,-3600.648841
1027.410316,-962.267725,-9474.636058,-3524.039291
1027.410640,-518.144159,-9844.739029,-2757.943793
1027.410965,296.082377,-9400.615463,-2068.457845
1027.411289,1850.514855,-9326.594869,-1532.190996
1027.411613,2516.700203,-8956.491898,-995.924147
1027.411937,3404.947333,-8956.491898,-842.705048
1027.412261,3552.988522,-8956.491898,0.000000
1027.412585,3627.009116,-8956.491898,229.828649
1027.412910,3404.947333,-9326.594869,0.000000
1027.413234,2886.803174,-9474.636058,-689.485948
1027.413558,1628.453072,-9252.574275,-2221.676944
1027.413882,0.000000,-9104.533087,-2987.772442
1027.414206,-518.144159,-8956.491898,-4213.525239
1027.414530,-1110.308913,-8512.368333,-4290.134789
1027.414854,-814.226536,-8586.388927,-3830.477490
1027.415179,296.082377,-9178.553681,-3140.991542
1027.415503,1332.370696,-9474.636058,-2374.896044
1027.415827,2146.597232,-9474.636058,-1378.971896
1027.416151,2812.782580,-9326.594869,-612.876398
1027.416475,4441.235652,-9622.677246,766.095498
1027.416799,5107.421000,-9696.697840,1455.581446
1027.417124,5107.421000,-10436.903782,1685.410096
1027.417448,4737.318029,-11029.068536,612.876398
1027.417772,3182.885551,-10732.986159,-612.876398
1027.418096,1110.308913,-10584.944971,-2298.286494
1027.418420,-666.185348,-10436.903782,-3447.429741
1027.418744,-2368.659014,-10214.842000,-5209.449386
1027.419068,-2664.741391,-10066.800811,-5822.325785
1027.419393,-1924.535449,-9548.656652,-5592.497135
1027.419717,444.123565,-9474.636058,-4060.306139
1027.420041,3108.864956,-9400.615463,-2987.772442
1027.420365,4515.256246,-8956.491898,-1072.533697
1027.420689,5403.503377,-9252.574275,0.000000
1027.421013,5847.626942,-10214.842000,766.095498
1027.421337,6513.812290,-11399.171507,1378.971896
1027.421662,5995.668130,-10362.883188,1302.362347
1027.421986,4959.379811,-10732.986159,306.438199
1027.422310,2812.782580,-10510.924376,-995.924147
1027.422634,740.205942,-10288.862594,-2604.724693
1027.422958,-1850.514855,-10658.965565,-4290.134789
1027.423282,-4071.132681,-9992.780217,-4826.401637
1027.423607,-4441.235652,-8216.285956,-4903.011187
1027.423931,-3997.112087,-7402.059420,-3907.087040
1027.424255,-2590.720797,-7624.121203,-2757.943793
1027.424579,-148.041188,-8068.244768,-1685.410096
1027.424903,2146.597232,-8882.471304,-766.095498
1027.425227,3256.906145,-9770.718434,536.266849
1027.425551,4663.297435,-10436.903782,1608.800546
1027.425876,4589.276840,-11103.089130,1608.800546
1027.426200,3701.029710,-11177.109724,1455.581446
1027.426524,2886.803174,-10732.986159,383.047749
1027.426848,1184.329507,-11769.274478,-1532.190996
1027.427172,-222.061783,-11547.212695,-2757.943793
1027.427496,-740.205942,-10288.862594,-3677.258390
1027.427821,-666.185348,-9252.574275,-3907.087040
1027.428145,-1036.288319,-8808.450710,-3830.477490
1027.428469,296.082377,-8142.265362,-3064.381992
1027.428793,1998.556043,-6513.812290,-2681.334243
1027.429117,3552.988522,-6661.853478,-1915.238745
1027.429441,5255.462188,-7105.977043,-842.705048
1027.429765,7105.977043,-7476.080014,76.609550
1027.430090,7846.182985,-8660.409521,536.266849
1027.430414,7624.121203,-9474.636058,306.438199
1027.430738,6365.771101,-9770.718434,-1149.143247
1027.431062,4589.276840,-10362.883188,-1991.848295
1027.431386,2812.782580,-10510.924376,-3447.429741
1027.431710,2072.576638,-10955.047942,-3983.696590
1027.432035,1702.473667,-11103.089130,-4749.792088
1027.432359,962.267725,-10066.800811,-4749.792088
1027.432683,1036.288319,-9696.697840,-4826.401637
1027.433007,888.247130,-9326.594869,-4366.744339
1027.433331,1332.370696,-9252.574275,-2757.943793
1027.433655,1924.535449,-8364.327145,-2757.943793
1027.433979,3034.844362,-9104.533087,-2068.457845
1027.434304,3627.009116,-9844.739029,-1532.190996
1027.434628,4441.235652,-10436.903782,-1225.752797
1027.434952,4737.318029,-11103.089130,-1302.362347
1027.435276,3923.091493,-11325.150913,-1608.800546
1027.435600,3108.864956,-10881.027347,-2681.334243
1027.435924,1776.494261,-10362.883188,-4136.915689
1027.436249,666.185348,-10362.883188,-5286.058936
1027.436573,-1110.308913,-10214.842000,-6128.763984
1027.436897,-2442.679609,-10214.842000,-6281.983084
1027.437221,-2960.823768,-9992.780217,-6205.373534
1027.437545,-2442.679609,-9178.553681,-5209.449386
1027.437869,-518.144159,-9104.533087,-4136.915689
1027.438193,2072.576638,-9252.574275,-2298.286494
1027.438518,4589.276840,-9474.636058,-1455.581446
1027.438842,6365.771101,-10288.862594,-306.438199
1027.439166,6735.874072,-11399.171507,0.000000
1027.439490,6143.709319,-11843.295072,-459.657299
1027.439814,3923.091493,-11843.295072,-689.485948
1027.440138,444.123565,-11399.171507,-2451.505594
1027.440462,-2516.700203,-11029.068536,-3983.696590
1027.440787,-4589.276840,-9992.780217,-5209.449386
1027.441111,-4515.256246,-9696.697840,-5669.106685
1027.441435,-2664.741391,-9326.594869,-5515.887586
1027.441759,0.000000,-8512.368333,-4596.572988
1027.442083,1628.453072,-8364.327145,-3140.991542
1027.442407,2146.597232,-8438.347739,-1991.848295
1027.442732,1998.556043,-8586.388927,-1302.362347
1027.443056,2368.659014,-8660.409521,-306.438199
1027.443380,4367.215058,-9030.512492,689.485948
1027.443704,7031.956449,-9474.636058,1302.362347
1027.444028,8364.327145,-10066.800811,2221.676944
1027.444352,8734.430116,-10510.924376,1378.971896
1027.444676,5551.544565,-10510.924376,76.609550
1027.445001,1628.453072,-9992.780217,-1378.971896
1027.445325,-1110.308913,-9104.533087,-2528.115143
1027.445649,-1850.514855,-7994.224174,-3140.991542
1027.445973,-1554.432478,-7624.121203,-3217.601092
1027.446297,-74.020594,-7920.203579,-3447.429741
1027.446621,222.061783,-7994.224174,-2528.115143
1027.446946,444.123565,-7772.162391,-1838.629195
1027.447270,740.205942,-7994.224174,-612.876398
1027.447594,2146.597232,-8364.327145,459.657299
1027.447918,3775.050304,-8808.450710,1302.362347
1027.448242,5255.462188,-9622.677246,1608.800546
1027.448566,6069.688724,-10807.006753,1302.362347
1027.448890,5773.606348,-11695.253884,1685.410096
1027.449215,4589.276840,-11251.130318,766.095498
1027.449539,3256.906145,-9918.759623,-383.047749
1027.449863,2590.720797,-8660.409521,-1378.971896
1027.450187,1258.350101,-8660.409521,-2911.162892
1027.450511,-962.267725,-9326.594869,-4749.792088
1027.450835,-2294.638420,-9548.656652,-4213.525239
1027.451160,-1554.432478,-9474.636058,-3753.867940
1027.451484,1258.350101,-9326.594869,-2604.724693
1027.451808,4219.173869,-8734.430116,-1762.019645
1027.452132,5255.462188,-9030.512492,-1072.533697
1027.452456,4515.256246,-9622.677246,-842.705048
1027.452780,3923.091493,-11399.171507,-612.876398
1027.453104,4811.338623,-11843.295072,-383.047749
1027.453429,5625.565159,-12435.459826,766.095498
1027.453753,4441.235652,-11843.295072,459.657299
1027.454077,1850.514855,-11473.192101,-1149.143247
1027.454401,-740.205942,-10658.965565,-2757.943793
1027.454725,-1480.411884,-10436.903782,-3907.087040
1027.455049,-1776.494261,-10066.800811,-4443.353888
1027.455374,-1702.473667,-9030.512492,-4290.134789
1027.455698,-1110.308913,-8512.368333,-3753.867940
1027.456022,296.082377,-7846.182985,-3753.867940
1027.456346,1110.308913,-8142.265362,-4136.915689
1027.456670,1776.494261,-8660.409521,-3830.477490
1027.456994,2294.638420,-8882.471304,-3140.991542
1027.457318,3997.112087,-9696.697840,-1225.752797
1027.457643,5625.565159,-10584.944971,-612.876398
1027.457967,5847.626942,-10584.944971,-689.485948
1027.458291,5403.503377,-10807.006753,-229.828649
1027.458615,3775.050304,-10955.047942,-1302.362347
1027.458939,3182.885551,-11177.109724,-1608.800546
1027.459263,1628.453072,-10214.842000,-2221.676944
1027.459587,-962.267725,-8956.491898,-3064.381992
1027.459912,-2516.700203,-8660.409521,-3677.258390
1027.460236,-1554.432478,-8660.409521,-3677.258390
1027.460560,-592.164754,-8068.244768,-3753.867940
1027.460884,-814.226536,-7550.100608,-3830.477490
1027.461208,-740.205942,-8142.265362,-3447.429741
1027.461532,444.123565,-8808.450710,-3524.039291
1027.461857,2664.741391,-8586.388927,-3140.991542
1027.462181,3404.947333,-8734.430116,-2528.115143
1027.462505,2886.803174,-10732.986159,-2374.896044
1027.462829,2886.803174,-11695.253884,-2221.676944
1027.463153,4737.318029,-10955.047942,-1762.019645
1027.463477,4811.338623,-9252.574275,-1762.019645
1027.463801,4737.318029,-10214.842000,-2145.067394
1027.464126,3552.988522,-11177.109724,-2987.772442
1027.464450,2294.638420,-10140.821405,-2451.505594
1027.464774,1258.350101,-9252.574275,-2298.286494
1027.465098,1628.453072,-9252.574275,-2451.505594
1027.465422,2442.679609,-9030.512492,-1991.848295
1027.465746,3108.864956,-8734.430116,-1608.800546
1027.466071,3256.906145,-8734.430116,-2451.505594
1027.466395,2442.679609,-9474.636058,-3294.210641
1027.466719,1776.494261,-9326.594869,-2451.505594
1027.467043,1776.494261,-8956.491898,-2451.505594
1027.467367,2368.659014,-8734.430116,-2911.162892
1027.467691,2812.782580,-8882.471304,-2681.334243
1027.468015,3552.988522,-9696.697840,-3217.601092
1027.468340,3108.864956,-10436.903782,-4060.306139
1027.468664,1776.494261,-10732.986159,-3677.258390
1027.468988,444.123565,-10807.006753,-2834.553343
1027.469312,222.061783,-10436.903782,-2757.943793
1027.469636,1036.288319,-9770.718434,-1532.190996
1027.469960,1702.473667,-10584.944971,-306.438199
1027.470285,3182.885551,-11251.130318,-842.705048
1027.470609,3478.967927,-10362.883188,-229.828649
1027.470933,2590.720797,-9918.759623,766.095498
1027.471257,2294.638420,-10584.944971,0.000000
1027.471581,2738.761985,-9622.677246,-1072.533697
1027.471905,2738.761985,-8438.347739,-1072.533697
1027.472229,2220.617826,-9178.553681,-2451.505594
1027.472554,1924.535449,-9474.636058,-4519.963438
1027.472878,-444.123565,-7846.182985,-5286.058936
1027.473202,-3701.029710,-8808.450710,-5822.325785
1027.473526,-4145.153275,-8956.491898,-6435.202183
1027.473850,-1850.514855,-8290.306550,-5362.668486
1027.474174,222.061783,-9770.718434,-3064.381992
1027.474498,3108.864956,-10584.944971,-2145.067394
1027.474823,6439.791695,-10436.903782,689.485948
1027.475147,7105.977043,-11843.295072,2221.676944
1027.475471,7105.977043,-11769.274478,3064.381992
1027.475795,7105.977043,-10362.883188,2451.505594
1027.476119,4663.297435,-10510.924376,1072.533697
1027.476443,2516.700203,-10658.965565,-919.314598
1027.476768,1332.370696,-9770.718434,-1915.238745
1027.477092,222.061783,-8068.244768,-2604.724693
1027.477416,-592.164754,-8808.450710,-3524.039291
1027.477740,-1184.329507,-9252.574275,-3753.867940
1027.478064,-1480.411884,-8438.347739,-3830.477490
1027.478388,-2072.576638,-8068.244768,-4979.620737
1027.478712,-2368.659014,-7846.182985,-4749.792088
1027.479037,-888.247130,-7179.997637,-3600.648841
1027.479361,1554.432478,-7920.203579,-2834.553343
1027.479685,3701.029710,-9104.533087,-306.438199
1027.480009,5625.565159,-9992.780217,2221.676944
1027.480333,6809.894666,-11473.192101,2298.286494
1027.480657,5551.544565,-10658.965565,2298.286494
1027.480982,4811.338623,-9696.697840,1149.143247
1027.481306,3108.864956,-9548.656652,0.000000
1027.481630,1628.453072,-9622.677246,-689.485948
1027.481954,962.267725,-10584.944971,-1225.752797
1027.482278,888.247130,-9326.594869,-2298.286494
1027.482602,740.205942,-7846.182985,-2451.505594
1027.482926,370.102971,-8512.368333,-2834.553343
1027.483251,0.000000,-8882.471304,-3830.477490
1027.483575,-740.205942,-8660.409521,-4519.963438
1027.483899,-1184.329507,-8068.244768,-3677.258390
1027.484223,444.123565,-8734.430116,-3140.991542
1027.484547,3108.864956,-10140.821405,-1608.800546
1027.484871,5107.421000,-10732.986159,153.219100
1027.485196,6143.709319,-11547.212695,842.705048
1027.485520,5995.668130,-10658.965565,76.609550
1027.485844,3923.091493,-10436.903782,306.438199
1027.486168,1258.350101,-11251.130318,-383.047749
1027.486492,74.020594,-11621.233289,-383.047749
1027.486816,-888.247130,-11547.212695,-766.095498
1027.487140,-2146.597232,-10732.986159,-1915.238745
1027.487465,-2072.576638,-9474.636058,-1532.190996
1027.487789,-296.082377,-8808.450710,-1455.581446
1027.488113,1998.556043,-8882.471304,-2604.724693
1027.488437,2146.597232,-9104.533087,-3064.381992
1027.488761,962.267725,-8438.347739,-3600.648841
1027.489085,-1184.329507,-8734.430116,-4213.525239
1027.489410,-3627.009116,-10584.944971,-3524.039291
1027.489734,-4367.215058,-11325.150913,-2834.553343
1027.490058,-2738.761985,-10881.027347,-2834.553343
1027.490382,-1406.391290,-10362.883188,-2145.067394
1027.490706,1480.411884,-9844.739029,-1532.190996
1027.491030,4145.153275,-9770.718434,689.485948
1027.491354,5403.503377,-11103.089130,1685.410096
1027.491679,5921.647536,-10362.883188,2298.286494
1027.492003,5625.565159,-8956.491898,2604.724693
1027.492327,4885.359217,-9400.615463,1455.581446
1027.492651,2886.803174,-8808.450710,-306.438199
1027.492975,0.000000,-8512.368333,-995.924147
1027.493299,-1776.494261,-8364.327145,-1532.190996
1027.493623,-2516.700203,-9104.533087,-2987.772442
1027.493948,-3627.009116,-8734.430116,-3370.820191
1027.494272,-5107.421000,-9030.512492,-2528.115143
1027.494596,-4589.276840,-9622.677246,-2681.334243
1027.494920,-3775.050304,-9770.718434,-3064.381992
1027.495244,-3330.926739,-9992.780217,-2298.286494
1027.495568,-962.267725,-9918.759623,-842.705048
1027.495893,2220.617826,-10362.883188,689.485948
1027.496217,4145.153275,-10881.027347,2757.943793
1027.496541,4515.256246,-11473.192101,3370.820191
1027.496865,4071.132681,-11917.315666,3753.867940
1027.497189,2812.782580,-11843.295072,3370.820191
1027.497513,2960.823768,-10510.924376,3064.381992
1027.497837,1480.411884,-9992.780217,1915.238745
1027.498162,-1480.411884,-9474.636058,536.266849
1027.498486,-4071.132681,-9474.636058,-153.219100
1027.498810,-4959.379811,-8882.471304,-1991.848295
1027.499134,-4811.338623,-7402.059420,-3217.601092
1027.499458,-5921.647536,-6291.750507,-3524.039291
1027.499782,-5329.482782,-6809.894666,-2451.505594
1027.500106,-3701.029710,-7179.997637,-2604.724693
1027.500431,-1184.329507,-8068.244768,-229.828649
1027.500755,1998.556043,-9622.677246,1149.143247
1027.501079,4441.235652,-9992.780217,2221.676944
1027.501403,6513.812290,-9992.780217,3600.648841
1027.501727,6735.874072,-10140.821405,5439.278036
1027.502051,5477.523971,-10510.924376,4366.744339
1027.502375,2294.638420,-11621.233289,4366.744339
1027.502699,444.123565,-12139.377449,4366.744339
1027.503023,814.226536,-11621.233289,3447.429741
1027.503348,888.247130,-9252.574275,1991.848295
1027.503672,-1924.535449,-5329.482782,-2221.676944
1027.503996,-6661.853478,-5551.544565,-2987.772442
1027.504320,-8290.306550,-8956.491898,-4519.963438
1027.504644,-6069.688724,-9400.615463,-5592.497135
1027.504968,-5255.462188,-7105.977043,-4596.572988
1027.505292,-3701.029710,-6735.874072,-2221.676944
1027.505616,1480.411884,-10140.821405,76.609550
1027.505941,6217.729913,-13397.727550,306.438199
1027.506265,6365.771101,-12139.377449,1685.410096
1027.506589,4367.215058,-11621.233289,3370.820191
1027.506913,5033.400406,-13249.686362,3140.991542
1027.507237,4737.318029,-14211.954086,3217.601092
1027.507561,4515.256246,-11695.253884,3600.648841
1027.507885,3627.009116,-9918.759623,2374.896044
1027.508209,2220.617826,-10584.944971,-153.219100
1027.508533,592.164754,-10807.006753,-2451.505594
1027.508858,-962.267725,-7846.182985,-2681.334243
1027.509182,-3182.885551,-7550.100608,-3524.039291
1027.509506,-5403.503377,-8882.471304,-3907.087040
1027.509830,-5699.585753,-9622.677246,-2374.896044
1027.510154,-3256.906145,-9992.780217,-1991.848295
1027.510478,-1110.308913,-9030.512492,-1685.410096
1027.510802,-1184.329507,-8808.450710,-1378.971896
1027.511126,-1184.329507,-9030.512492,229.828649
1027.511451,370.102971,-10807.006753,1149.143247
1027.511775,1480.411884,-11177.109724,1149.143247
1027.512099,1628.453072,-10362.883188,2145.067394
1027.512423,296.082377,-9844.739029,2451.505594
1027.512747,666.185348,-10436.903782,1838.629195
1027.513071,222.061783,-9844.739029,153.219100
1027.513395,-1036.288319,-8660.409521,76.609550
1027.513719,-888.247130,-8142.265362,-459.657299
1027.514043,370.102971,-8290.306550,-612.876398
1027.514368,518.144159,-8808.450710,-1149.143247
1027.514692,0.000000,-8068.244768,-766.095498
1027.515016,-962.267725,-8734.430116,-1072.533697
1027.515340,-2368.659014,-9474.636058,-1302.362347
1027.515664,-1924.535449,-8882.471304,-1225.752797
1027.515988,-962.267725,-7550.100608,-612.876398
1027.516312,-814.226536,-7846.182985,0.000000
1027.516636,-148.041188,-8586.388927,536.266849
1027.516961,370.102971,-8586.388927,766.095498
1027.517285,962.267725,-9474.636058,1302.362347
1027.517609,444.123565,-11177.109724,1378.971896
1027.517933,0.000000,-11621.233289,459.657299
1027.518257,-740.205942,-10955.047942,0.000000
1027.518581,-1184.329507,-10140.821405,-1455.581446
1027.518905,-1480.411884,-9918.759623,-919.314598
1027.519229,-1036.288319,-10807.006753,-1072.533697
1027.519553,-296.082377,-11177.109724,-1149.143247
1027.519878,1332.370696,-11177.109724,229.828649
1027.520202,2368.659014,-10288.862594,-383.047749
1027.520526,2664.741391,-9474.636058,-1378.971896
1027.520850,962.267725,-9326.594869,-1302.362347
1027.521174,0.000000,-9622.677246,-1532.190996
1027.521498,962.267725,-10436.903782,-612.876398
1027.521822,1628.453072,-9918.759623,-229.828649
1027.522146,2220.617826,-9622.677246,612.876398
1027.522471,2072.576638,-9696.697840,612.876398
1027.522795,1332.370696,-10066.800811,-459.657299
1027.523119,74.020594,-9918.759623,-153.219100
1027.523443,-740.205942,-10807.006753,153.219100
1027.523767,-518.144159,-11399.171507,0.000000
1027.524091,-370.102971,-9770.718434,536.266849
1027.524415,370.102971,-8808.450710,766.095498
1027.524739,1554.432478,-9696.697840,76.609550
1027.525063,666.185348,-10732.986159,-995.924147
1027.525388,-1628.453072,-10288.862594,-1302.362347
1027.525712,-3108.864956,-9918.759623,-766.095498
1027.526036,-2738.761985,-10066.800811,-689.485948
1027.526360,-1924.535449,-10658.965565,-383.047749
1027.526684,-1628.453072,-9770.718434,-383.047749
1027.527008,-1628.453072,-9696.697840,383.047749
1027.527332,-962.267725,-9992.780217,0.000000
1027.527656,148.041188,-9104.533087,306.438199
1027.527981,814.226536,-7994.224174,1225.752797
1027.528305,1480.411884,-7920.203579,1915.238745
1027.528629,1702.473667,-9400.615463,1532.190996
1027.528953,1628.453072,-8216.285956,1685.410096
1027.529277,1554.432478,-7698.141797,1915.238745
1027.529601,-518.144159,-7550.100608,1072.533697
1027.529925,-1850.514855,-7624.121203,153.219100
1027.530249,-1480.411884,-7105.977043,0.000000
1027.530573,-370.102971,-7402.059420,536.266849
1027.530898,0.000000,-8438.347739,153.219100
1027.531222,-1258.350101,-8438.347739,76.609550
1027.531546,-2072.576638,-8660.409521,-229.828649
1027.531870,-1628.453072,-9252.574275,-842.705048
1027.532194,-962.267725,-10955.047942,0.000000
1027.532518,-888.247130,-11473.192101,306.438199
1027.532842,-740.205942,-11473.192101,459.657299
1027.533166,-444.123565,-10510.924376,383.047749
1027.533491,370.102971,-10288.862594,612.876398
1027.533815,1628.453072,-11843.295072,1149.143247
1027.534139,2590.720797,-12879.583391,2145.067394
1027.534463,3034.844362,-12213.398043,1685.410096
1027.534787,2368.659014,-10510.924376,842.705048
1027.535111,592.164754,-9918.759623,-153.219100
1027.535435,-1776.494261,-10510.924376,-995.924147
1027.535759,-2146.597232,-9918.759623,-2221.676944
1027.536084,-1998.556043,-8438.347739,-2451.505594
1027.536408,-1480.411884,-8512.368333,-2298.286494
1027.536732,-444.123565,-8438.347739,-1302.362347
1027.537056,1702.473667,-10066.800811,-995.924147
1027.537380,1332.370696,-9474.636058,-1149.143247
1027.537704,222.061783,-8660.409521,-919.314598
1027.538028,-592.164754,-9770.718434,-536.266849
1027.538352,0.000000,-11473.192101,536.266849
1027.538676,2072.576638,-12583.501014,1455.581446
1027.539001,2664.741391,-10955.047942,2145.067394
1027.539325,2886.803174,-10807.006753,1608.800546
1027.539649,1406.391290,-11695.253884,842.705048
1027.539973,370.102971,-10881.027347,0.000000
1027.540297,-222.061783,-8734.430116,-1378.971896
1027.540621,-1998.556043,-8438.347739,-1378.971896
1027.540945,-2294.638420,-8956.491898,-1915.238745
1027.541269,-1554.432478,-9252.574275,-1685.410096
1027.541594,-1850.514855,-9030.512492,-1149.143247
1027.541918,-1702.473667,-8734.430116,-612.876398
1027.542242,-1332.370696,-9548.656652,0.000000
1027.542566,0.000000,-9474.636058,612.876398
1027.542890,814.226536,-8586.388927,766.095498
1027.543214,1332.370696,-7254.018232,995.924147
1027.543538,518.144159,-8734.430116,1225.752797
1027.543862,-740.205942,-10066.800811,1378.971896
1027.544186,-740.205942,-9696.697840,1685.410096
1027.544511,-518.144159,-8956.491898,1608.800546
1027.544835,444.123565,-7772.162391,0.000000
1027.545159,1036.288319,-7105.977043,-766.095498
1027.545483,1110.308913,-8068.244768,-766.095498
1027.545807,1702.473667,-9474.636058,-612.876398
1027.546131,1406.391290,-10362.883188,153.219100
1027.546455,0.000000,-11103.089130,-612.876398
1027.546779,-1184.329507,-10362.883188,-536.266849
1027.547104,-740.205942,-9474.636058,-1149.143247
1027.547428,814.226536,-9696.697840,-1149.143247
1027.547752,1628.453072,-11029.068536,0.000000
1027.548076,1776.494261,-11177.109724,689.485948
1027.548400,1332.370696,-9548.656652,1532.190996
1027.548724,814.226536,-9474.636058,995.924147
1027.549048,0.000000,-9474.636058,-1072.533697
1027.549372,-666.185348,-9918.759623,-919.314598
1027.549696,-2368.659014,-10881.027347,-919.314598
1027.550021,-3478.967927,-11695.253884,-919.314598
1027.550345,-2664.741391,-10658.965565,-459.657299
1027.550669,-814.226536,-9918.759623,-383.047749
1027.550993,518.144159,-9178.553681,-1532.190996
1027.551317,1036.288319,-9326.594869,-536.266849
1027.551641,1110.308913,-9918.759623,-1072.533697
1027.551965,222.061783,-10658.965565,0.000000
1027.552289,-1184.329507,-10584.944971,153.219100
1027.552614,-1702.473667,-9474.636058,229.828649
1027.552938,-814.226536,-9400.615463,-383.047749
1027.553262,370.102971,-8808.450710,-1302.362347
1027.553586,1184.329507,-9252.574275,-612.876398
1027.553910,592.164754,-9844.739029,0.000000
1027.554234,370.102971,-9918.759623,76.609550
1027.554558,-1110.308913,-8956.491898,-383.047749
1027.554882,-1850.514855,-9474.636058,-229.828649
1027.555206,-1480.411884,-10510.924376,0.000000
1027.555531,-148.041188,-10955.047942,-612.876398
1027.555855,592.164754,-9770.718434,689.485948
1027.556179,1924.535449,-8808.450710,1225.752797
1027.556503,2368.659014,-9696.697840,1149.143247
1027.556827,1702.473667,-10140.821405,1762.019645
1027.557151,1554.432478,-10214.842000,1072.533697
1027.557475,518.144159,-9548.656652,612.876398
1027.557799,-592.164754,-8808.450710,-612.876398
1027.558124,-2590.720797,-8808.450710,-842.705048
1027.558448,-2738.761985,-9178.553681,153.219100
1027.558772,-2220.617826,-8808.450710,-1149.143247
1027.559096,-1776.494261,-8734.430116,-459.657299
1027.559420,-1776.494261,-8734.430116,0.000000
1027.559744,0.000000,-8808.450710,306.438199
1027.560068,1332.370696,-9400.615463,612.876398
1027.560392,1036.288319,-8660.409521,766.095498
1027.560716,-518.144159,-9326.594869,842.705048
1027.561041,-1184.329507,-11177.109724,919.314598
1027.561365,370.102971,-11177.109724,1072.533697
1027.561689,2220.617826,-9104.533087,766.095498
1027.562013,2368.659014,-7920.203579,76.609550
1027.562337,1480.411884,-8808.450710,76.609550
1027.562661,814.226536,-9992.780217,-766.095498
1027.562985,814.226536,-9918.759623,-536.266849
1027.563309,518.144159,-9104.533087,-306.438199
1027.563634,-296.082377,-9104.533087,-995.924147
1027.563958,-1110.308913,-9104.533087,-842.705048
1027.564282,-740.205942,-9400.615463,-536.266849
1027.564606,518.144159,-9326.594869,0.000000
1027.564930,370.102971,-9770.718434,0.000000
1027.565254,-592.164754,-10288.862594,229.828649
1027.565578,148.041188,-9992.780217,383.047749
1027.565902,1332.370696,-9696.697840,0.000000
1027.566226,1406.391290,-9918.759623,306.438199
1027.566551,814.226536,-10214.842000,383.047749
1027.566875,518.144159,-10732.986159,689.485948
1027.567199,888.247130,-11399.171507,0.000000
1027.567523,1628.453072,-10584.944971,0.000000
1027.567847,444.123565,-10140.821405,-612.876398
1027.568171,-1110.308913,-10140.821405,-1915.238745
1027.568495,-1702.473667,-10066.800811,-2068.457845
1027.568819,-814.226536,-9104.533087,-1455.581446
1027.569144,518.144159,-9326.594869,-689.485948
1027.569468,740.205942,-10881.027347,-612.876398
1027.569792,0.000000,-10510.924376,-229.828649
1027.570116,-1258.350101,-10214.842000,-1225.752797
1027.570440,-1554.432478,-8956.491898,-1072.533697
1027.570764,-1258.350101,-9104.533087,-919.314598
1027.571088,-370.102971,-11251.130318,842.705048
1027.571412,1850.514855,-11917.315666,1685.410096
1027.571736,3404.947333,-10658.965565,2068.457845
1027.572061,3182.885551,-9622.677246,1378.971896
1027.572385,1406.391290,-8808.450710,0.000000
1027.572709,148.041188,-9622.677246,153.219100
1027.573033,-1184.329507,-10140.821405,-612.876398
1027.573357,-2146.597232,-8586.388927,0.000000
1027.573681,-3256.906145,-8808.450710,0.000000
1027.574005,-3849.070898,-8808.450710,-536.266849
1027.574329,-2664.741391,-8956.491898,-153.219100
1027.574654,-2294.638420,-7105.977043,-1455.581446
1027.574978,-4071.132681,-7254.018232,-1378.971896
1027.575302,-5181.441594,-8364.327145,-612.876398
1027.575626,-3552.988522,-8586.388927,-306.438199
1027.575950,-1110.308913,-8438.347739,536.266849
1027.576274,962.267725,-7846.182985,842.705048
1027.576598,2072.576638,-8808.450710,1302.362347
1027.576922,2516.700203,-9622.677246,1915.238745
1027.577246,3330.926739,-10140.821405,1455.581446
1027.577571,4293.194464,-9474.636058,1762.019645
1027.577895,3701.029710,-9622.677246,995.924147
1027.578219,2738.761985,-11177.109724,612.876398
1027.578543,2146.597232,-11103.089130,-612.876398
1027.578867,1924.535449,-10214.842000,-459.657299
1027.579191,1480.411884,-9992.780217,-689.485948
1027.579515,962.267725,-9474.636058,-1915.238745
1027.579839,518.144159,-9474.636058,-995.924147
1027.580164,0.000000,-9622.677246,-1225.752797
1027.580488,-740.205942,-9696.697840,-1685.410096
1027.580812,-2738.761985,-10881.027347,-919.314598
1027.581136,-2812.782580,-10584.944971,0.000000
1027.581460,-1480.411884,-9918.759623,-306.438199
1027.581784,-1036.288319,-9622.677246,0.000000
1027.582108,-1110.308913,-10584.944971,0.000000
1027.582432,-888.247130,-10807.006753,-153.219100
1027.582756,592.164754,-10362.883188,0.000000
1027.583081,1554.432478,-9622.677246,0.000000
1027.583405,1628.453072,-8512.368333,-612.876398
1027.583729,666.185348,-9178.553681,-766.095498
1027.584053,-370.102971,-9992.780217,-689.485948
1027.584377,444.123565,-11325.150913,-1072.533697
1027.584701,1776.494261,-10436.903782,0.000000
1027.585025,2072.576638,-10362.883188,766.095498
1027.585349,1554.432478,-9844.739029,766.095498
1027.585674,1924.535449,-9548.656652,1225.752797
1027.585998,1628.453072,-9918.759623,766.095498
1027.586322,222.061783,-9326.594869,229.828649
1027.586646,-2368.659014,-8216.285956,-919.314598
1027.586970,-2960.823768,-8660.409521,0.000000
1027.587294,-1776.494261,-9474.636058,766.095498
1027.587618,-740.205942,-9178.553681,842.705048
1027.587942,-740.205942,-8586.388927,842.705048
1027.588266,-1406.391290,-8586.388927,1532.190996
1027.588591,-592.164754,-9400.615463,229.828649
1027.588915,-1554.432478,-8586.388927,76.609550
1027.589239,-2368.659014,-8882.471304,229.828649
1027.589563,-3330.926739,-8956.491898,-536.266849
1027.589887,-3108.864956,-9104.533087,-612.876398
1027.590211,-1554.432478,-8956.491898,-229.828649
1027.590535,296.082377,-8290.306550,842.705048
1027.590859,444.123565,-8512.368333,-383.047749
1027.591184,296.082377,-8142.265362,-1378.971896
1027.591508,-148.041188,-7846.182985,-306.438199
1027.591832,370.102971,-9104.533087,-229.828649
1027.592156,962.267725,-10214.842000,612.876398
1027.592480,370.102971,-10140.821405,1302.362347
1027.592804,444.123565,-10436.903782,1225.752797
1027.593128,1110.308913,-9622.677246,229.828649
1027.593452,1628.453072,-9474.636058,-689.485948
1027.593776,1258.350101,-9326.594869,-1149.143247
1027.594101,1554.432478,-10066.800811,0.000000
1027.594425,1850.514855,-11177.109724,76.609550
1027.594749,888.247130,-10807.006753,536.266849
1027.595073,-1184.329507,-10362.883188,229.828649
1027.595397,-1924.535449,-10214.842000,-1072.533697
1027.595721,-592.164754,-10658.965565,-1685.410096
1027.596045,592.164754,-10807.006753,-1225.752797
1027.596369,2072.576638,-10584.944971,-995.924147
1027.596694,1258.350101,-10510.924376,0.000000
1027.597018,0.000000,-11399.171507,383.047749
1027.597342,-814.226536,-11843.295072,-689.485948
1027.597666,-1702.473667,-10732.986159,-2298.286494
1027.597990,-1998.556043,-9622.677246,-2068.457845
1027.598314,-666.185348,-10362.883188,-995.924147
1027.598638,592.164754,-12213.398043,-842.705048
1027.598962,1406.391290,-10732.986159,536.266849
1027.599286,666.185348,-9474.636058,0.000000
1027.599611,666.185348,-8882.471304,229.828649
1027.599935,2294.638420,-9918.759623,383.047749
1027.600259,2516.700203,-9918.759623,842.705048
1027.600583,1184.329507,-9030.512492,1225.752797
1027.600907,-444.123565,-8586.388927,383.047749
1027.601231,-1332.370696,-9474.636058,689.485948
1027.601555,0.000000,-9474.636058,153.219100
1027.601879,444.123565,-8142.265362,-842.705048
1027.602204,74.020594,-7698.141797,0.000000
1027.602528,-1036.288319,-7846.182985,76.609550
1027.602852,-1258.350101,-8808.450710,-153.219100
1027.603176,-1850.514855,-8734.430116,919.314598
1027.603500,-1776.494261,-8734.430116,1378.971896
1027.603824,-1258.350101,-8068.244768,-383.047749
1027.604148,-1480.411884,-7994.224174,766.095498
1027.604472,-814.226536,-9844.739029,2068.457845
1027.604796,2146.597232,-9474.636058,1378.971896
1027.605120,2368.659014,-8512.368333,1991.848295
1027.605444,1332.370696,-8216.285956,2451.505594
1027.605768,888.247130,-9992.780217,1455.581446
1027.606092,370.102971,-9918.759623,-383.047749
1027.606416,-370.102971,-8882.471304,919.314598
1027.606740,-1554.432478,-8660.409521,0.000000
1027.607064,-1776.494261,-9696.697840,-766.095498
1027.607388,-1924.535449,-9030.512492,-842.705048
1027.607712,-1702.473667,-8660.409521,-612.876398
1027.608036,-1184.329507,-10214.842000,-383.047749
1027.608360,-222.061783,-10807.006753,-536.266849
1027.608684,222.061783,-9844.739029,-612.876398
1027.609008,222.061783,-8586.388927,-766.095498
1027.609332,-518.144159,-9474.636058,-995.924147
1027.609656,-814.226536,-11991.336260,0.000000
1027.609980,-518.144159,-13767.830521,536.266849
1027.610304,1110.308913,-13397.727550,1685.410096
1027.610628,2812.782580,-12213.398043,1378.971896
1027.610952,3182.885551,-10510.924376,612.876398
1027.611276,1628.453072,-9622.677246,-459.657299
1027.611600,0.000000,-10658.965565,-1302.362347
1027.611924,-1554.432478,-11473.192101,-1685.410096
1027.612248,-1776.494261,-12287.418637,-1608.800546
1027.612572,-2590.720797,-10732.986159,-1072.533697
1027.612896,-1924.535449,-10214.842000,-842.705048
1027.613220,-296.082377,-9548.656652,-689.485948
1027.613544,592.164754,-9326.594869,-1149.143247
1027.613869,666.185348,-9474.636058,0.000000
1027.614193,888.247130,-9622.677246,689.485948
1027.614517,1406.391290,-8808.450710,536.266849
1027.614841,1628.453072,-7698.141797,1072.533697
1027.615165,740.205942,-7846.182985,919.314598
1027.615489,0.000000,-9178.553681,76.609550
1027.615813,0.000000,-9400.615463,0.000000
1027.616137,74.020594,-8364.327145,383.047749
1027.616461,296.082377,-7698.141797,383.047749
1027.616785,-296.082377,-8808.450710,612.876398
1027.617109,0.000000,-9696.697840,1149.143247
1027.617433,962.267725,-9696.697840,612.876398
1027.617757,740.205942,-8586.388927,-689.485948
1027.618081,-962.267725,-8216.285956,-1685.410096
1027.618405,-2812.782580,-8808.450710,-842.705048
1027.618729,-2368.659014,-9548.656652,-306.438199
1027.619053,-1332.370696,-8290.306550,-459.657299
1027.619377,-1184.329507,-7328.038826,-1149.143247
1027.619701,-1036.288319,-7624.121203,-689.485948
1027.620025,518.144159,-9104.533087,-536.266849
1027.620349,1776.494261,-9474.636058,153.219100
1027.620673,1110.308913,-8512.368333,229.828649
1027.620997,-444.123565,-8290.306550,0.000000
1027.621321,-1036.288319,-8956.491898,306.438199
1027.621645,666.185348,-9770.718434,0.000000
1027.621969,2294.638420,-9696.697840,229.828649
1027.622293,1998.556043,-9696.697840,-229.828649
1027.622617,1776.494261,-10214.842000,0.000000
1027.622941,2442.679609,-11325.150913,536.266849
1027.623265,2738.761985,-10955.047942,229.828649
1027.623589,1628.453072,-10214.842000,-229.828649
1027.623913,-444.123565,-10436.903782,-1302.362347
1027.624237,-1258.350101,-11547.212695,-1378.971896
1027.624561,-370.102971,-11843.295072,-919.314598
1027.624885,0.000000,-11621.233289,-536.266849
1027.625209,-888.247130,-11695.253884,-612.876398
1027.625533,-1406.391290,-11843.295072,0.000000
1027.625857,-370.102971,-11177.109724,-1532.190996
1027.626181,148.041188,-10436.903782,-766.095498
1027.626505,0.000000,-10510.924376,153.219100
1027.626829,148.041188,-11843.295072,919.314598
1027.627153,0.000000,-12287.418637,229.828649
1027.627477,-814.226536,-10140.821405,0.000000
1027.627801,-1406.391290,-9548.656652,229.828649
1027.628125,-592.164754,-10288.862594,-1302.362347
1027.628449,962.267725,-9696.697840,-842.705048
1027.628774,740.205942,-9326.594869,612.876398
