#time,accel_x,accel_y,accel_z
794.057682,4293.194464,-8290.306550,2451.505594
794.058007,7328.038826,-6661.853478,4903.011187
794.058331,6587.832884,-9992.780217,5132.839837
794.058655,4441.235652,-12065.356855,5745.716235
794.058979,2294.638420,-11621.233289,4749.792088
794.059303,-518.144159,-8882.471304,2068.457845
794.059627,-3108.864956,-9548.656652,1149.143247
794.059952,-5625.565159,-12361.439231,-1302.362347
794.060276,-6439.791695,-10362.883188,-1762.019645
794.060600,-7402.059420,-9770.718434,995.924147
794.060924,-6661.853478,-11029.068536,-229.828649
794.061248,-5107.421000,-10140.821405,-919.314598
794.061573,-5551.544565,-9178.553681,229.828649
794.061897,-3478.967927,-5181.441594,-1225.752797
794.062221,-1998.556043,-4737.318029,-1072.533697
794.062545,-1258.350101,-7105.977043,0.000000
794.062869,888.247130,-8438.347739,1762.019645
794.063193,2368.659014,-10584.944971,1532.190996
794.063518,2146.597232,-11103.089130,153.219100
794.063842,222.061783,-10436.903782,1608.800546
794.064166,-222.061783,-12139.377449,919.314598
794.064490,0.000000,-13767.830521,612.876398
794.064814,-888.247130,-14285.974681,1072.533697
794.065139,-1036.288319,-12657.521608,1225.752797
794.065463,-666.185348,-10584.944971,1532.190996
794.065787,-1480.411884,-10955.047942,1685.410096
794.066111,-3108.864956,-9696.697840,1455.581446
794.066435,-3849.070898,-8956.491898,536.266849
794.066759,-4737.318029,-10436.903782,766.095498
794.067084,-5625.565159,-10584.944971,1838.629195
794.067408,-5329.482782,-10066.800811,1685.410096
794.067732,-5033.400406,-9104.533087,2451.505594
794.068056,-4071.132681,-9770.718434,1685.410096
794.068380,-2960.823768,-11103.089130,383.047749
794.068704,-2368.659014,-10288.862594,1685.410096
794.069029,-666.185348,-11029.068536,2834.553343
794.069353,592.164754,-11177.109724,3677.258390
794.069677,1480.411884,-9992.780217,4060.306139
794.070001,2294.638420,-9104.533087,3370.820191
794.070325,1850.514855,-9030.512492,2451.505594
794.070650,740.205942,-9770.718434,1685.410096
794.070974,-592.164754,-9844.739029,2911.162892
794.071298,-1702.473667,-9252.574275,2911.162892
794.071622,-3701.029710,-8660.409521,2757.943793
794.071946,-6069.688724,-7105.977043,3064.381992
794.072270,-6883.915261,-6735.874072,2681.334243
794.072595,-6957.935855,-6217.729913,2681.334243
794.072919,-5921.647536,-6661.853478,2451.505594
794.073243,-3997.112087,-7179.997637,3064.381992
794.073567,-962.267725,-8142.265362,5209.449386
794.073891,2220.617826,-8882.471304,5592.497135
794.074216,2738.761985,-9178.553681,5286.058936
794.074540,1776.494261,-8364.327145,4903.011187
794.074864,74.020594,-8142.265362,4519.963438
794.075188,0.000000,-8734.430116,4213.525239
794.075512,0.000000,-7772.162391,2757.943793
794.075836,-888.247130,-6217.729913,919.314598
794.076161,-2812.782580,-5847.626942,-1378.971896
794.076485,-6143.709319,-10214.842000,-766.095498
794.076809,-5181.441594,-12361.439231,-459.657299
794.077133,-2516.700203,-10510.924376,-1225.752797
794.077457,-2442.679609,-9326.594869,2298.286494
794.077781,0.000000,-9400.615463,2145.067394
794.078106,3108.864956,-10288.862594,1532.190996
794.078430,3552.988522,-11103.089130,1302.362347
794.078754,3108.864956,-10807.006753,2298.286494
794.079078,3923.091493,-11547.212695,2221.676944
794.079402,3849.070898,-11473.192101,842.705048
794.079727,1702.473667,-8734.430116,995.924147
794.080051,1184.329507,-8808.450710,-229.828649
794.080375,222.061783,-10362.883188,-2757.943793
794.080699,-1036.288319,-12287.418637,-4290.134789
794.081023,-1406.391290,-11177.109724,-4673.182538
794.081347,0.000000,-9400.615463,-4213.525239
794.081672,-222.061783,-10732.986159,-3524.039291
794.081996,-2368.659014,-11991.336260,-2528.115143
794.082320,-3923.091493,-11695.253884,-2451.505594
794.082644,-4589.276840,-11251.130318,-3217.601092
794.082968,-3997.112087,-11325.150913,-2451.505594
794.083292,-814.226536,-10881.027347,-383.047749
794.083617,3997.112087,-10955.047942,383.047749
794.083941,7254.018232,-10362.883188,459.657299
794.084265,6735.874072,-9992.780217,153.219100
794.084589,4367.215058,-9326.594869,-1149.143247
794.084913,1924.535449,-9400.615463,-2987.772442
794.085238,-740.205942,-10288.862594,-3600.648841
794.085562,-2960.823768,-10510.924376,-3830.477490
794.085886,-3330.926739,-10658.965565,-4290.134789
794.086210,-2738.761985,-9992.780217,-3294.210641
794.086534,-2072.576638,-9178.553681,-2374.896044
794.086858,-1480.411884,-8586.388927,-1608.800546
794.087183,-666.185348,-8142.265362,-689.485948
794.087507,-592.164754,-8142.265362,383.047749
794.087831,-1110.308913,-7476.080014,153.219100
794.088155,-1554.432478,-8438.347739,-536.266849
794.088479,-1406.391290,-9400.615463,1225.752797
794.088803,518.144159,-9474.636058,1532.190996
794.089127,1850.514855,-8438.347739,1455.581446
794.089452,3034.844362,-6735.874072,1225.752797
794.089776,3034.844362,-5551.544565,-612.876398
794.090100,2072.576638,-7402.059420,-2068.457845
794.090424,0.000000,-11029.068536,-1378.971896
794.090748,-1110.308913,-11991.336260,-2221.676944
794.091072,-2738.761985,-11399.171507,-2451.505594
794.091396,-4811.338623,-10066.800811,-842.705048
794.091720,-3627.009116,-9400.615463,-995.924147
794.092045,-1110.308913,-10066.800811,0.000000
794.092369,1406.391290,-10362.883188,1762.019645
794.092693,4219.173869,-10140.821405,3370.820191
794.093017,5847.626942,-9622.677246,3830.477490
794.093341,4959.379811,-9252.574275,3677.258390
794.093665,2072.576638,-9474.636058,3217.601092
794.093989,-888.247130,-9992.780217,1685.410096
794.094314,-2664.741391,-10658.965565,0.000000
794.094638,-3256.906145,-10955.047942,-689.485948
794.094962,-2368.659014,-10362.883188,-1149.143247
794.095286,-370.102971,-9696.697840,-1149.143247
794.095610,592.164754,-9844.739029,-383.047749
794.095934,962.267725,-10288.862594,-459.657299
794.096258,0.000000,-10510.924376,-919.314598
794.096582,-1184.329507,-10066.800811,-766.095498
794.096907,-1406.391290,-9770.718434,689.485948
794.097231,-666.185348,-9992.780217,1685.410096
794.097555,370.102971,-9918.759623,2528.115143
794.097879,296.082377,-9918.759623,2911.162892
794.098203,592.164754,-10510.924376,2757.943793
794.098527,1332.370696,-10066.800811,2911.162892
794.098851,2146.597232,-9844.739029,2757.943793
794.099175,1406.391290,-9622.677246,2145.067394
794.099500,222.061783,-9770.718434,1302.362347
794.099824,-1258.350101,-9474.636058,153.219100
794.100148,-2368.659014,-8882.471304,-612.876398
794.100472,-2664.741391,-8438.347739,-766.095498
794.100796,-2072.576638,-8216.285956,-766.095498
794.101120,-962.267725,-7550.100608,-842.705048
794.101444,222.061783,-7624.121203,-383.047749
794.101769,1554.432478,-7698.141797,0.000000
794.102093,2590.720797,-9104.533087,306.438199
794.102417,1850.514855,-9474.636058,766.095498
794.102741,740.205942,-8734.430116,919.314598
794.103065,-444.123565,-9252.574275,1225.752797
794.103389,-1776.494261,-9770.718434,842.705048
794.103713,-2146.597232,-9992.780217,919.314598
794.104037,-1554.432478,-9918.759623,766.095498
794.104362,74.020594,-9622.677246,459.657299
794.104686,1628.453072,-9696.697840,689.485948
794.105010,2368.659014,-8734.430116,612.876398
794.105334,1702.473667,-9178.553681,0.000000
794.105658,-148.041188,-9770.718434,-689.485948
794.105982,-1406.391290,-9474.636058,-1302.362347
794.106306,-1776.494261,-9474.636058,-1838.629195
794.106630,-1332.370696,-9104.533087,-1838.629195
794.106955,-370.102971,-9326.594869,-1225.752797
794.107279,1554.432478,-9548.656652,-919.314598
794.107603,1776.494261,-9992.780217,-995.924147
794.107927,1480.411884,-10584.944971,-1225.752797
794.108251,0.000000,-10584.944971,-1302.362347
794.108575,-1480.411884,-10658.965565,-1532.190996
794.108899,-2368.659014,-11251.130318,-1225.752797
794.109224,-2368.659014,-11325.150913,-995.924147
794.109548,-2220.617826,-11029.068536,-383.047749
794.109872,-1258.350101,-11325.150913,0.000000
794.110196,1184.329507,-11029.068536,459.657299
794.110520,2812.782580,-10510.924376,459.657299
794.110844,3256.906145,-10288.862594,383.047749
794.111168,2294.638420,-10362.883188,-306.438199
794.111492,518.144159,-10288.862594,-689.485948
794.111817,-1554.432478,-10214.842000,-1991.848295
794.112141,-2738.761985,-9622.677246,-2221.676944
794.112465,-3182.885551,-9770.718434,-2451.505594
794.112789,-1998.556043,-9918.759623,-2298.286494
794.113113,0.000000,-9696.697840,-1455.581446
794.113437,1850.514855,-9400.615463,-842.705048
794.113761,2886.803174,-9252.574275,-306.438199
794.114085,2294.638420,-9030.512492,-306.438199
794.114410,1184.329507,-9326.594869,459.657299
794.114734,74.020594,-9622.677246,459.657299
794.115058,-518.144159,-10362.883188,766.095498
794.115382,-666.185348,-9844.739029,919.314598
794.115706,222.061783,-9474.636058,919.314598
794.116030,1480.411884,-9400.615463,1455.581446
794.116354,2368.659014,-8956.491898,1532.190996
794.116679,2368.659014,-8882.471304,1608.800546
794.117003,1258.350101,-8734.430116,995.924147
794.117327,-814.226536,-8438.347739,0.000000
794.117651,-2368.659014,-8808.450710,-383.047749
794.117975,-2886.803174,-8364.327145,-459.657299
794.118299,-2442.679609,-8438.347739,-612.876398
794.118623,-1480.411884,-8586.388927,-459.657299
794.118947,0.000000,-8438.347739,0.000000
794.119272,1036.288319,-8216.285956,383.047749
794.119596,2516.700203,-8956.491898,383.047749
794.119920,1924.535449,-9400.615463,689.485948
794.120244,148.041188,-9474.636058,766.095498
794.120568,-962.267725,-10288.862594,612.876398
794.120892,-1480.411884,-9992.780217,842.705048
794.121216,-1480.411884,-9992.780217,995.924147
794.121540,-518.144159,-9844.739029,1072.533697
794.121865,74.020594,-10362.883188,1225.752797
794.122189,888.247130,-10214.842000,1532.190996
794.122513,1628.453072,-9696.697840,1225.752797
794.122837,0.000000,-9400.615463,919.314598
794.123161,-1702.473667,-10140.821405,-383.047749
794.123485,-3108.864956,-10288.862594,-842.705048
794.123809,-3552.988522,-9844.739029,-1378.971896
794.124134,-3182.885551,-9548.656652,-1302.362347
794.124458,-2368.659014,-9622.677246,-1225.752797
794.124782,-444.123565,-9622.677246,-995.924147
794.125106,1924.535449,-10066.800811,0.000000
794.125430,3034.844362,-10066.800811,-536.266849
794.125754,2886.803174,-10362.883188,0.000000
794.126078,1998.556043,-10510.924376,306.438199
794.126402,888.247130,-10732.986159,0.000000
794.126727,222.061783,-10807.006753,0.000000
794.127051,0.000000,-10510.924376,689.485948
794.127375,-592.164754,-10658.965565,153.219100
794.127699,444.123565,-10214.842000,459.657299
794.128023,1258.350101,-9252.574275,1149.143247
794.128347,2072.576638,-8808.450710,612.876398
794.128671,1554.432478,-9178.553681,306.438199
794.128995,592.164754,-9326.594869,-153.219100
794.129320,-1110.308913,-9104.533087,-536.266849
794.129644,-2146.597232,-8512.368333,-1302.362347
794.129968,-2368.659014,-8882.471304,-995.924147
794.130292,-1480.411884,-9252.574275,-1149.143247
794.130616,-74.020594,-9178.553681,-1608.800546
794.130940,962.267725,-8882.471304,-1149.143247
794.131264,2368.659014,-9474.636058,-612.876398
794.131589,2664.741391,-9548.656652,-536.266849
794.131913,1628.453072,-9474.636058,-153.219100
794.132237,0.000000,-9474.636058,0.000000
794.132561,-1554.432478,-9178.553681,-153.219100
794.132885,-1554.432478,-9548.656652,306.438199
794.133209,-1110.308913,-9696.697840,536.266849
794.133533,-296.082377,-9622.677246,689.485948
794.133857,888.247130,-9696.697840,1302.362347
794.134182,1332.370696,-9326.594869,1149.143247
794.134506,1110.308913,-9474.636058,383.047749
794.134830,-296.082377,-9622.677246,0.000000
794.135154,-2294.638420,-9992.780217,-536.266849
794.135478,-3108.864956,-9992.780217,-1532.190996
794.135802,-3627.009116,-9918.759623,-689.485948
794.136126,-2960.823768,-10140.821405,-1532.190996
794.136450,-1184.329507,-9992.780217,-1378.971896
794.136775,370.102971,-9622.677246,-842.705048
794.137099,2072.576638,-10066.800811,-229.828649
794.137423,2738.761985,-9918.759623,0.000000
794.137747,2294.638420,-10214.842000,0.000000
794.138071,518.144159,-10066.800811,842.705048
794.138395,-888.247130,-10436.903782,0.000000
794.138719,-1406.391290,-10436.903782,842.705048
794.139044,-1406.391290,-10362.883188,612.876398
794.139368,-962.267725,-10214.842000,842.705048
794.139692,296.082377,-9918.759623,995.924147
794.140016,1702.473667,-9918.759623,1378.971896
794.140340,1628.453072,-9548.656652,1072.533697
794.140664,518.144159,-9474.636058,689.485948
794.140988,-1258.350101,-9030.512492,229.828649
794.141312,-2368.659014,-9252.574275,-229.828649
794.141637,-2294.638420,-9326.594869,-383.047749
794.141961,-1628.453072,-9326.594869,-612.876398
794.142285,-444.123565,-9474.636058,-536.266849
794.142609,1110.308913,-9252.574275,-383.047749
794.142933,2368.659014,-9252.574275,0.000000
794.143257,2664.741391,-8956.491898,-153.219100
794.143581,1924.535449,-9104.533087,229.828649
794.143905,222.061783,-9474.636058,229.828649
794.144230,-1110.308913,-9622.677246,383.047749
794.144554,-1850.514855,-9400.615463,536.266849
794.144878,-2072.576638,-9474.636058,1072.533697
794.145202,-814.226536,-9400.615463,1838.629195
794.145526,592.164754,-9326.594869,1838.629195
794.145850,2146.597232,-9030.512492,2068.457845
794.146174,2220.617826,-8734.430116,1378.971896
794.146499,962.267725,-8808.450710,919.314598
794.146823,-814.226536,-9178.553681,229.828649
794.147147,-2368.659014,-9400.615463,-536.266849
794.147471,-2664.741391,-9400.615463,-919.314598
794.147795,-2368.659014,-9326.594869,-1225.752797
794.148119,-1184.329507,-9696.697840,-1762.019645
794.148443,592.164754,-9548.656652,-1378.971896
794.148767,1850.514855,-9844.739029,-1225.752797
794.149092,2368.659014,-10214.842000,-459.657299
794.149416,1628.453072,-10362.883188,-612.876398
794.149740,444.123565,-10584.944971,-383.047749
794.150064,-592.164754,-10436.903782,0.000000
794.150388,-1036.288319,-10584.944971,-1072.533697
794.150712,-814.226536,-10510.924376,306.438199
794.151036,0.000000,-10066.800811,995.924147
794.151360,1036.288319,-9992.780217,689.485948
794.151685,1924.535449,-9622.677246,842.705048
794.152009,2220.617826,-9548.656652,459.657299
794.152333,1184.329507,-9326.594869,383.047749
794.152657,-222.061783,-9696.697840,-306.438199
794.152981,-1332.370696,-8956.491898,-1149.143247
794.153305,-2220.617826,-8808.450710,-1608.800546
794.153629,-2146.597232,-9474.636058,-1762.019645
794.153954,-1332.370696,-9326.594869,-1685.410096
794.154278,222.061783,-9030.512492,-1455.581446
794.154602,1850.514855,-8956.491898,-919.314598
794.154926,2738.761985,-9474.636058,-459.657299
794.155250,2072.576638,-9622.677246,0.000000
794.155574,518.144159,-9548.656652,0.000000
794.155898,-592.164754,-10066.800811,-229.828649
794.156222,-1554.432478,-10214.842000,-229.828649
794.156547,-1702.473667,-10362.883188,383.047749
794.156871,-888.247130,-10584.944971,536.266849
794.157195,0.000000,-9844.739029,995.924147
794.157519,1702.473667,-9918.759623,1762.019645
794.157843,1702.473667,-9548.656652,995.924147
794.158167,1184.329507,-9474.636058,766.095498
794.158491,-592.164754,-9326.594869,0.000000
794.158815,-2146.597232,-9474.636058,-842.705048
794.159140,-3182.885551,-9252.574275,-1532.190996
794.159464,-3108.864956,-9030.512492,-1532.190996
794.159788,-2294.638420,-8808.450710,-1225.752797
794.160112,-74.020594,-8660.409521,-1608.800546
794.160436,1332.370696,-9252.574275,-536.266849
794.160760,1850.514855,-9104.533087,-306.438199
794.161084,1850.514855,-9400.615463,-612.876398
794.161409,962.267725,-9622.677246,76.609550
794.161733,-148.041188,-9992.780217,0.000000
794.162057,-444.123565,-10214.842000,0.000000
794.162381,-1184.329507,-10214.842000,842.705048
794.162705,-962.267725,-10436.903782,612.876398
794.163029,370.102971,-10510.924376,1072.533697
794.163353,1776.494261,-10066.800811,1149.143247
794.163677,2294.638420,-10066.800811,1149.143247
794.164002,1850.514855,-10140.821405,919.314598
794.164326,666.185348,-9770.718434,459.657299
794.164650,-444.123565,-10214.842000,-306.438199
794.164974,-2294.638420,-9918.759623,-766.095498
794.165298,-2812.782580,-9770.718434,-1072.533697
794.165622,-2220.617826,-9252.574275,-842.705048
794.165946,-888.247130,-9474.636058,-689.485948
794.166270,296.082377,-9474.636058,-612.876398
794.166595,1406.391290,-9474.636058,0.000000
794.166919,1480.411884,-9178.553681,0.000000
794.167243,888.247130,-9326.594869,229.828649
794.167567,-592.164754,-9252.574275,306.438199
794.167891,-1924.535449,-9696.697840,536.266849
794.168215,-2294.638420,-10288.862594,536.266849
794.168539,-1702.473667,-9992.780217,1072.533697
794.168863,-370.102971,-9992.780217,1532.190996
794.169188,1628.453072,-9474.636058,2068.457845
794.169512,3108.864956,-9474.636058,2298.286494
794.169836,3182.885551,-9622.677246,2145.067394
794.170160,1332.370696,-9474.636058,1378.971896
794.170484,-1110.308913,-9622.677246,306.438199
794.170808,-2516.700203,-9104.533087,0.000000
794.171132,-3552.988522,-8512.368333,-1455.581446
794.171457,-3182.885551,-8956.491898,-995.924147
794.171781,-1850.514855,-9030.512492,-1072.533697
794.172105,74.020594,-9326.594869,-612.876398
794.172429,1924.535449,-8882.471304,536.266849
794.172753,2146.597232,-8734.430116,0.000000
794.173077,1628.453072,-9178.553681,153.219100
794.173401,444.123565,-9104.533087,383.047749
794.173725,-962.267725,-9474.636058,76.609550
794.174050,-962.267725,-10066.800811,536.266849
794.174374,-740.205942,-10140.821405,689.485948
794.174698,0.000000,-10214.842000,995.924147
794.175022,1332.370696,-10066.800811,1149.143247
794.175346,2812.782580,-9918.759623,536.266849
794.175670,2516.700203,-9844.739029,612.876398
794.175994,1036.288319,-10140.821405,76.609550
794.176318,-740.205942,-10140.821405,-689.485948
794.176643,-1924.535449,-9696.697840,-1149.143247
794.176967,-2072.576638,-9770.718434,-1455.581446
794.177291,-1480.411884,-9770.718434,-1762.019645
794.177615,-814.226536,-9400.615463,-1455.581446
794.177939,888.247130,-9400.615463,-1302.362347
794.178263,2146.597232,-9474.636058,-536.266849
794.178587,2220.617826,-9844.739029,-842.705048
794.178912,1110.308913,-9992.780217,-766.095498
794.179236,-222.061783,-9844.739029,-536.266849
794.179560,-1554.432478,-10066.800811,-689.485948
794.179884,-2220.617826,-9992.780217,-306.438199
794.180208,-1702.473667,-10214.842000,-76.609550
794.180532,-740.205942,-9918.759623,612.876398
794.180856,666.185348,-9622.677246,612.876398
794.181180,2072.576638,-9696.697840,383.047749
794.181505,2516.700203,-9770.718434,383.047749
794.181829,1850.514855,-10066.800811,229.828649
794.182153,592.164754,-10214.842000,-229.828649
794.182477,-740.205942,-9548.656652,-842.705048
794.182801,-1702.473667,-9770.718434,-1072.533697
794.183125,-2072.576638,-9474.636058,-1685.410096
794.183449,-1110.308913,-9474.636058,-1838.629195
794.183773,296.082377,-9178.553681,-1225.752797
794.184098,1554.432478,-9326.594869,-919.314598
794.184422,1924.535449,-9104.533087,-842.705048
794.184746,1776.494261,-9400.615463,-842.705048
794.185070,148.041188,-9030.512492,-766.095498
794.185394,-1184.329507,-9622.677246,-919.314598
794.185718,-2590.720797,-9696.697840,-766.095498
794.186042,-2886.803174,-9622.677246,-536.266849
794.186367,-2072.576638,-9770.718434,-306.438199
794.186691,-296.082377,-9844.739029,536.266849
794.187015,1406.391290,-9548.656652,766.095498
794.187339,2294.638420,-9770.718434,995.924147
794.187663,2294.638420,-9622.677246,383.047749
794.187987,1258.350101,-9844.739029,0.000000
794.188311,0.000000,-10140.821405,-536.266849
794.188636,-1258.350101,-9992.780217,-842.705048
794.188960,-1702.473667,-9992.780217,-995.924147
794.189284,-1036.288319,-9770.718434,-995.924147
794.189608,0.000000,-9474.636058,-1149.143247
794.189932,1628.453072,-9548.656652,0.000000
794.190256,1628.453072,-9474.636058,-536.266849
794.190581,1850.514855,-9622.677246,-383.047749
794.190905,444.123565,-9474.636058,229.828649
794.191229,-1332.370696,-9770.718434,153.219100
794.191553,-2516.700203,-9918.759623,306.438199
794.191877,-2442.679609,-9770.718434,842.705048
794.192201,-2146.597232,-9548.656652,1072.533697
794.192526,-888.247130,-9696.697840,1378.971896
794.192850,740.205942,-9770.718434,2145.067394
794.193174,1850.514855,-10140.821405,1838.629195
794.193498,1480.411884,-10066.800811,1378.971896
794.193822,148.041188,-10140.821405,919.314598
794.194146,-1628.453072,-10288.862594,306.438199
794.194471,-2516.700203,-10066.800811,-153.219100
794.194795,-2664.741391,-9844.739029,-459.657299
794.195119,-2072.576638,-9104.533087,306.438199
794.195443,-962.267725,-9030.512492,-229.828649
794.195767,962.267725,-9030.512492,229.828649
794.196091,2146.597232,-8734.430116,689.485948
794.196416,2368.659014,-9030.512492,842.705048
794.196740,1036.288319,-8438.347739,1378.971896
794.197064,-370.102971,-9030.512492,689.485948
794.197388,-1554.432478,-9474.636058,1225.752797
794.197712,-2738.761985,-9326.594869,842.705048
794.198037,-2220.617826,-9474.636058,995.924147
794.198361,-962.267725,-9400.615463,1532.190996
794.198685,444.123565,-9030.512492,1762.019645
794.199009,2368.659014,-9252.574275,1838.629195
794.199333,2738.761985,-9548.656652,2374.896044
794.199657,1998.556043,-9400.615463,1762.019645
794.199982,888.247130,-9696.697840,1302.362347
794.200306,-814.226536,-10066.800811,306.438199
794.200630,-1554.432478,-9844.739029,-153.219100
794.200954,-1184.329507,-9770.718434,-153.219100
794.201278,-222.061783,-9844.739029,-306.438199
794.201602,888.247130,-9474.636058,-229.828649
794.201927,2146.597232,-10140.821405,0.000000
794.202251,2368.659014,-9844.739029,0.000000
794.202575,962.267725,-9696.697840,0.000000
794.202899,-888.247130,-9326.594869,-306.438199
794.203223,-1998.556043,-9474.636058,-612.876398
794.203547,-2738.761985,-9474.636058,-383.047749
794.203872,-2738.761985,-9918.759623,-306.438199
794.204196,-1036.288319,-9770.718434,229.828649
794.204520,666.185348,-9992.780217,919.314598
794.204844,1850.514855,-9918.759623,766.095498
794.205168,2442.679609,-10214.842000,689.485948
794.205492,1628.453072,-10288.862594,306.438199
794.205817,0.000000,-10658.965565,-229.828649
794.206141,-1406.391290,-10732.986159,-1225.752797
794.206465,-1776.494261,-10140.821405,-1532.190996
794.206789,-1480.411884,-9918.759623,-2834.553343
794.207113,-740.205942,-9992.780217,-2068.457845
794.207438,888.247130,-9844.739029,-1762.019645
794.207762,2072.576638,-9770.718434,-1302.362347
794.208086,2590.720797,-9844.739029,-1225.752797
794.208410,1480.411884,-9622.677246,-1072.533697
794.208734,-814.226536,-9400.615463,-842.705048
794.209058,-1776.494261,-9770.718434,-1685.410096
794.209383,-2812.782580,-9548.656652,-1608.800546
794.209707,-2368.659014,-9474.636058,-383.047749
794.210031,-1628.453072,-9326.594869,-689.485948
794.210355,222.061783,-9400.615463,0.000000
794.210679,1406.391290,-9474.636058,0.000000
794.211003,1776.494261,-9474.636058,0.000000
794.211328,1110.308913,-9474.636058,-766.095498
794.211652,0.000000,-10140.821405,-842.705048
794.211976,-962.267725,-9992.780217,-1685.410096
794.212300,-1110.308913,-9770.718434,-1532.190996
794.212624,-666.185348,-9844.739029,-1072.533697
794.212948,1110.308913,-9992.780217,-1072.533697
794.213273,2590.720797,-9770.718434,-919.314598
794.213597,3775.050304,-9548.656652,-306.438199
794.213921,3404.947333,-9548.656652,-766.095498
794.214245,2072.576638,-9696.697840,-612.876398
794.214569,74.020594,-9474.636058,-995.924147
794.214893,-1406.391290,-9474.636058,-383.047749
794.215218,-2664.741391,-9474.636058,-689.485948
794.215542,-2590.720797,-9104.533087,0.000000
794.215866,-1850.514855,-9104.533087,306.438199
794.216190,-148.041188,-9548.656652,689.485948
794.216514,962.267725,-9474.636058,995.924147
794.216838,1036.288319,-9474.636058,919.314598
794.217163,444.123565,-9252.574275,612.876398
794.217487,-888.247130,-9474.636058,0.000000
794.217811,-1924.535449,-9918.759623,-612.876398
794.218135,-1998.556043,-9992.780217,-536.266849
794.218459,-1924.535449,-9770.718434,-536.266849
794.218784,-814.226536,-9696.697840,-383.047749
794.219108,962.267725,-9844.739029,0.000000
794.219432,2220.617826,-9918.759623,689.485948
794.219756,2368.659014,-9474.636058,842.705048
794.220080,2146.597232,-9770.718434,919.314598
794.220404,740.205942,-9696.697840,1225.752797
794.220729,-592.164754,-10214.842000,919.314598
794.221053,-1850.514855,-10214.842000,689.485948
794.221377,-2220.617826,-10214.842000,1149.143247
794.221701,-1776.494261,-9622.677246,1378.971896
794.222025,-222.061783,-9548.656652,2068.457845
794.222349,592.164754,-9252.574275,1532.190996
794.222674,962.267725,-8882.471304,1838.629195
794.222998,592.164754,-9104.533087,1225.752797
794.223322,-370.102971,-9474.636058,612.876398
794.223646,-1332.370696,-9400.615463,153.219100
794.223970,-1998.556043,-9326.594869,76.609550
794.224294,-1924.535449,-9178.553681,0.000000
794.224619,-1184.329507,-9252.574275,0.000000
794.224943,-148.041188,-9104.533087,0.000000
794.225267,1998.556043,-9400.615463,919.314598
794.225591,2960.823768,-9474.636058,995.924147
794.225915,2590.720797,-9474.636058,1302.362347
794.226239,1406.391290,-9178.553681,536.266849
794.226564,-444.123565,-8956.491898,383.047749
794.226888,-1924.535449,-9548.656652,536.266849
794.227212,-1924.535449,-9326.594869,459.657299
794.227536,-1406.391290,-9178.553681,383.047749
794.227860,-666.185348,-9104.533087,919.314598
794.228185,962.267725,-9104.533087,1149.143247
794.228509,2368.659014,-9400.615463,842.705048
794.228833,1776.494261,-9030.512492,383.047749
794.229157,222.061783,-9474.636058,229.828649
794.229481,-1628.453072,-9844.739029,-995.924147
794.229805,-2442.679609,-9622.677246,-1225.752797
794.230130,-3182.885551,-9844.739029,-1378.971896
794.230454,-2368.659014,-10362.883188,-1762.019645
794.230778,-962.267725,-10584.944971,-1532.190996
794.231102,666.185348,-10362.883188,-842.705048
794.231426,2220.617826,-9844.739029,-306.438199
794.231750,2368.659014,-9992.780217,-995.924147
794.232075,1628.453072,-10436.903782,-612.876398
794.232399,148.041188,-10881.027347,-536.266849
794.232723,-666.185348,-11029.068536,-766.095498
794.233047,-1258.350101,-10510.924376,-766.095498
794.233371,-1110.308913,-10362.883188,-536.266849
794.233695,-222.061783,-10140.821405,-306.438199
794.234020,1258.350101,-9770.718434,0.000000
794.234344,2294.638420,-9770.718434,76.609550
794.234668,2220.617826,-9918.759623,0.000000
794.234992,666.185348,-9770.718434,-383.047749
794.235316,-1184.329507,-9400.615463,-1302.362347
794.235640,-2368.659014,-9252.574275,-1608.800546
794.235965,-2442.679609,-9178.553681,-1762.019645
794.236289,-1406.391290,-9474.636058,-1378.971896
794.236613,0.000000,-8808.450710,-1149.143247
794.236937,1776.494261,-8808.450710,-842.705048
794.237261,2812.782580,-8882.471304,-766.095498
794.237586,2738.761985,-9474.636058,-383.047749
794.237910,1776.494261,-9696.697840,-153.219100
794.238234,814.226536,-9992.780217,-153.219100
794.238558,-592.164754,-10288.862594,459.657299
794.238882,-1480.411884,-9844.739029,153.219100
794.239206,-1332.370696,-9918.759623,-306.438199
794.239531,-962.267725,-9548.656652,459.657299
794.239855,222.061783,-9252.574275,689.485948
794.240179,1406.391290,-9326.594869,766.095498
794.240503,1480.411884,-9178.553681,306.438199
794.240827,296.082377,-9252.574275,-229.828649
794.241151,-1480.411884,-9178.553681,-459.657299
794.241476,-2516.700203,-9252.574275,-766.095498
794.241800,-3182.885551,-9178.553681,-1762.019645
794.242124,-1924.535449,-9252.574275,-1149.143247
794.242448,-518.144159,-9474.636058,-842.705048
794.242772,1258.350101,-9474.636058,-306.438199
794.243096,2442.679609,-9770.718434,76.609550
794.243421,2664.741391,-10066.800811,306.438199
794.243745,1924.535449,-10140.821405,0.000000
794.244069,296.082377,-9918.759623,229.828649
794.244393,-1110.308913,-10436.903782,0.000000
794.244717,-1554.432478,-11103.089130,-306.438199
794.245041,-1924.535449,-10658.965565,153.219100
794.245366,-1332.370696,-10658.965565,306.438199
794.245690,-296.082377,-10140.821405,459.657299
794.246014,666.185348,-9474.636058,383.047749
794.246338,1184.329507,-9474.636058,612.876398
794.246662,740.205942,-9548.656652,306.438199
794.246986,-370.102971,-9474.636058,153.219100
794.247311,-1554.432478,-9844.739029,-383.047749
794.247635,-2368.659014,-9548.656652,-689.485948
794.247959,-2072.576638,-9400.615463,-306.438199
794.248283,-1110.308913,-9622.677246,-612.876398
794.248607,592.164754,-9474.636058,-689.485948
794.248932,1480.411884,-9326.594869,-153.219100
794.249256,2738.761985,-9622.677246,-153.219100
794.249580,2072.576638,-9400.615463,0.000000
794.249904,888.247130,-9548.656652,306.438199
794.250228,-740.205942,-9844.739029,229.828649
794.250552,-1480.411884,-10066.800811,229.828649
794.250877,-1332.370696,-9770.718434,842.705048
794.251201,-1036.288319,-9326.594869,995.924147
794.251525,296.082377,-9400.615463,1838.629195
794.251849,1332.370696,-9030.512492,1991.848295
794.252173,1776.494261,-9548.656652,1532.190996
794.252497,1184.329507,-9548.656652,995.924147
794.252822,-370.102971,-9474.636058,612.876398
794.253146,-2220.617826,-9326.594869,153.219100
794.253470,-3108.864956,-9178.553681,-229.828649
794.253794,-2516.700203,-9326.594869,-383.047749
794.254118,-2072.576638,-9252.574275,-536.266849
794.254442,-222.061783,-9252.574275,-153.219100
794.254767,1554.432478,-8660.409521,383.047749
794.255091,2812.782580,-8956.491898,383.047749
794.255415,2812.782580,-9326.594869,536.266849
794.255739,1554.432478,-9400.615463,459.657299
794.256063,74.020594,-9918.759623,459.657299
794.256387,-962.267725,-10140.821405,229.828649
794.256712,-1184.329507,-9844.739029,383.047749
794.257036,-1332.370696,-9400.615463,689.485948
794.257360,-518.144159,-9622.677246,995.924147
794.257684,888.247130,-9918.759623,919.314598
794.258008,1554.432478,-9474.636058,919.314598
794.258333,1184.329507,-9474.636058,459.657299
794.258657,0.000000,-9474.636058,0.000000
794.258981,-1628.453072,-9252.574275,-842.705048
794.259305,-2738.761985,-9104.533087,-1225.752797
794.259629,-2516.700203,-9252.574275,-1072.533697
794.259953,-2072.576638,-9844.739029,-1302.362347
794.260278,-296.082377,-9992.780217,-1532.190996
794.260602,1332.370696,-9918.759623,-766.095498
794.260926,2738.761985,-10066.800811,-766.095498
794.261250,2294.638420,-10066.800811,-766.095498
794.261574,1628.453072,-10436.903782,-459.657299
794.261898,74.020594,-10362.883188,-383.047749
794.262223,-1332.370696,-10362.883188,-1149.143247
794.262547,-1628.453072,-10066.800811,-766.095498
794.262871,-1258.350101,-10140.821405,0.000000
794.263195,0.000000,-10140.821405,0.000000
794.263519,1110.308913,-9622.677246,153.219100
794.263843,2442.679609,-9104.533087,459.657299
794.264168,1702.473667,-8808.450710,-306.438199
794.264492,962.267725,-9030.512492,-153.219100
794.264816,-888.247130,-9104.533087,-842.705048
794.265140,-1850.514855,-9474.636058,-1378.971896
794.265464,-2146.597232,-9252.574275,-1608.800546
794.265788,-1406.391290,-9326.594869,-1608.800546
794.266113,0.000000,-9252.574275,-1608.800546
794.266437,1702.473667,-9474.636058,-1762.019645
794.266761,3330.926739,-9474.636058,-842.705048
794.267085,2812.782580,-9696.697840,-689.485948
794.267409,2072.576638,-10214.842000,-612.876398
794.267733,74.020594,-10288.862594,-459.657299
794.268058,-962.267725,-10288.862594,-612.876398
794.268382,-1628.453072,-10510.924376,-536.266849
794.268706,-1554.432478,-10288.862594,0.000000
794.269030,-370.102971,-10066.800811,229.828649
794.269354,518.144159,-9622.677246,229.828649
794.269679,1924.535449,-9474.636058,1532.190996
794.270003,1776.494261,-9400.615463,995.924147
794.270327,814.226536,-9474.636058,306.438199
794.270651,-518.144159,-9548.656652,0.000000
794.270975,-2368.659014,-9178.553681,-536.266849
794.271299,-2368.659014,-8956.491898,-1225.752797
794.271624,-2220.617826,-8586.388927,-1149.143247
794.271948,-1184.329507,-9252.574275,-1149.143247
794.272272,222.061783,-9178.553681,-995.924147
794.272596,1332.370696,-9252.574275,-536.266849
794.272920,1702.473667,-9400.615463,-229.828649
794.273244,1036.288319,-9474.636058,153.219100
794.273569,370.102971,-9474.636058,536.266849
794.273893,-888.247130,-9400.615463,306.438199
794.274217,-1480.411884,-9400.615463,612.876398
794.274541,-1258.350101,-9696.697840,919.314598
794.274865,-888.247130,-10140.821405,1149.143247
794.275189,74.020594,-10214.842000,1532.190996
794.275514,962.267725,-9992.780217,1762.019645
794.275838,888.247130,-9696.697840,1378.971896
794.276162,0.000000,-9474.636058,766.095498
794.276486,-1406.391290,-10066.800811,306.438199
794.276810,-2812.782580,-9844.739029,-536.266849
794.277134,-3330.926739,-9548.656652,-919.314598
794.277459,-2516.700203,-9474.636058,-1149.143247
794.277783,-1332.370696,-9474.636058,-995.924147
794.278107,370.102971,-9178.553681,-689.485948
794.278431,2220.617826,-9474.636058,0.000000
794.278755,3256.906145,-9770.718434,76.609550
794.279080,3478.967927,-10436.903782,306.438199
794.279404,1850.514855,-9992.780217,0.000000
794.279728,370.102971,-10288.862594,459.657299
794.280052,-370.102971,-10584.944971,459.657299
794.280376,-814.226536,-10807.006753,842.705048
794.280700,-592.164754,-10658.965565,919.314598
794.281025,222.061783,-10066.800811,1378.971896
794.281349,1332.370696,-9400.615463,1608.800546
794.281673,1406.391290,-9400.615463,919.314598
794.281997,1036.288319,-9252.574275,0.000000
794.282321,-740.205942,-9252.574275,0.000000
794.282645,-2146.597232,-9474.636058,-612.876398
794.282970,-2516.700203,-9178.553681,-612.876398
794.283294,-2072.576638,-9030.512492,-536.266849
794.283618,-1332.370696,-9030.512492,-1378.971896
794.283942,370.102971,-9474.636058,-842.705048
794.284266,2072.576638,-9252.574275,76.609550
794.284590,2590.720797,-9548.656652,76.609550
794.284915,2368.659014,-9548.656652,0.000000
794.285239,814.226536,-9326.594869,76.609550
794.285563,-592.164754,-9252.574275,0.000000
794.285887,-1998.556043,-9252.574275,0.000000
794.286211,-2368.659014,-9104.533087,153.219100
794.286535,-1628.453072,-9104.533087,153.219100
794.286860,74.020594,-9252.574275,229.828649
794.287184,1184.329507,-9030.512492,1149.143247
794.287508,1702.473667,-9104.533087,1149.143247
794.287832,1110.308913,-9326.594869,459.657299
794.288156,-370.102971,-9474.636058,153.219100
794.288481,-2072.576638,-9548.656652,-383.047749
794.288805,-3256.906145,-10140.821405,-1608.800546
794.289129,-3256.906145,-9770.718434,-995.924147
794.289453,-1998.556043,-10066.800811,-1302.362347
794.289777,-222.061783,-10140.821405,-1225.752797
794.290101,1110.308913,-10140.821405,-1072.533697
794.290425,2220.617826,-10807.006753,-383.047749
794.290749,2442.679609,-10955.047942,-536.266849
794.291073,1036.288319,-10584.944971,-612.876398
794.291398,0.000000,-10584.944971,0.000000
794.291722,-1258.350101,-10732.986159,-459.657299
794.292046,-1332.370696,-10288.862594,0.000000
794.292370,-740.205942,-10436.903782,153.219100
794.292694,0.000000,-10066.800811,459.657299
794.293018,1332.370696,-9992.780217,536.266849
794.293342,1924.535449,-9918.759623,612.876398
794.293666,1258.350101,-9770.718434,383.047749
794.293990,148.041188,-9400.615463,0.000000
794.294315,-1480.411884,-9770.718434,-1685.410096
794.294639,-2220.617826,-9474.636058,-1762.019645
794.294963,-1702.473667,-9622.677246,-1532.190996
794.295287,-444.123565,-9548.656652,-1149.143247
794.295611,814.226536,-9770.718434,-1378.971896
794.295935,2294.638420,-9474.636058,-842.705048
794.296259,3034.844362,-9548.656652,-459.657299
794.296583,2664.741391,-9918.759623,-459.657299
794.296907,1776.494261,-10214.842000,-306.438199
794.297232,-148.041188,-9548.656652,-459.657299
794.297556,-962.267725,-10510.924376,-459.657299
794.297880,-1406.391290,-9770.718434,-153.219100
794.298204,-1332.370696,-9696.697840,153.219100
794.298528,-888.247130,-9770.718434,306.438199
794.298852,370.102971,-9400.615463,689.485948
794.299176,1406.391290,-9252.574275,1225.752797
794.299500,740.205942,-8808.450710,612.876398
794.299825,148.041188,-8586.388927,459.657299
794.300149,-1480.411884,-9030.512492,-612.876398
794.300473,-2368.659014,-8438.347739,-995.924147
794.300797,-2590.720797,-8734.430116,-1378.971896
794.301121,-2072.576638,-8882.471304,-1685.410096
794.301445,-740.205942,-8734.430116,-766.095498
794.301769,1480.411884,-8734.430116,-612.876398
794.302093,3108.864956,-9400.615463,0.000000
794.302417,3108.864956,-9548.656652,-383.047749
794.302742,2072.576638,-9844.739029,0.000000
794.303066,222.061783,-9992.780217,0.000000
794.303390,-888.247130,-10288.862594,-153.219100
794.303714,-1554.432478,-10510.924376,76.609550
794.304038,-1702.473667,-10658.965565,306.438199
794.304362,-1258.350101,-11029.068536,995.924147
794.304686,-296.082377,-10362.883188,612.876398
794.305010,518.144159,-9918.759623,1072.533697
794.305334,740.205942,-9992.780217,919.314598
794.305659,0.000000,-9918.759623,229.828649
794.305983,-1554.432478,-9474.636058,0.000000
794.306307,-2368.659014,-9474.636058,-612.876398
794.306631,-2664.741391,-10140.821405,-612.876398
794.306955,-2146.597232,-10140.821405,-995.924147
794.307279,-962.267725,-9992.780217,-1072.533697
794.307603,962.267725,-9770.718434,-612.876398
794.307927,2072.576638,-9918.759623,-153.219100
794.308251,2590.720797,-9918.759623,0.000000
794.308576,2294.638420,-9696.697840,766.095498
794.308900,592.164754,-9696.697840,-383.047749
794.309224,-296.082377,-9918.759623,76.609550
794.309548,-1036.288319,-9326.594869,766.095498
794.309872,-1184.329507,-9622.677246,995.924147
794.310196,-666.185348,-9474.636058,1762.019645
794.310520,444.123565,-9400.615463,1838.629195
794.310844,888.247130,-8808.450710,2068.457845
794.311169,1332.370696,-8586.388927,1685.410096
794.311493,1036.288319,-9104.533087,1225.752797
794.311817,-740.205942,-9030.512492,0.000000
794.312141,-2442.679609,-9104.533087,-612.876398
794.312465,-3182.885551,-8956.491898,-995.924147
794.312789,-2590.720797,-9252.574275,-766.095498
794.313113,-1776.494261,-9030.512492,-766.095498
794.313437,0.000000,-8882.471304,-689.485948
794.313761,1628.453072,-9622.677246,-229.828649
794.314086,2368.659014,-9622.677246,0.000000
794.314410,2368.659014,-9696.697840,612.876398
794.314734,1184.329507,-9918.759623,612.876398
794.315058,0.000000,-10140.821405,459.657299
794.315382,-592.164754,-10140.821405,919.314598
794.315706,-814.226536,-9918.759623,919.314598
794.316030,-518.144159,-9844.739029,842.705048
794.316354,0.000000,-10066.800811,459.657299
794.316678,888.247130,-9474.636058,1149.143247
794.317003,962.267725,-9696.697840,766.095498
794.317327,666.185348,-9474.636058,76.609550
794.317651,-740.205942,-9548.656652,-612.876398
794.317975,-1998.556043,-9770.718434,-1225.752797
794.318299,-2516.700203,-9548.656652,-1455.581446
794.318623,-2220.617826,-9770.718434,-1378.971896
794.318947,-1184.329507,-9474.636058,-1455.581446
794.319271,444.123565,-9918.759623,-1455.581446
794.319595,2072.576638,-9844.739029,-766.095498
794.319920,3034.844362,-10288.862594,-383.047749
794.320244,2960.823768,-10658.965565,-383.047749
794.320568,1554.432478,-10362.883188,0.000000
794.320892,0.000000,-10436.903782,0.000000
794.321216,-1184.329507,-10510.924376,0.000000
794.321540,-1332.370696,-10436.903782,-306.438199
794.321864,-1332.370696,-10288.862594,0.000000
794.322188,-444.123565,-9992.780217,153.219100
794.322513,962.267725,-9548.656652,536.266849
794.322837,1924.535449,-9400.615463,1072.533697
794.323161,1628.453072,-8808.450710,383.047749
794.323485,0.000000,-8882.471304,-306.438199
794.323809,-1850.514855,-8956.491898,-1149.143247
794.324133,-2368.659014,-9178.553681,-1915.238745
794.324457,-2442.679609,-9178.553681,-1915.238745
794.324781,-2146.597232,-9252.574275,-1532.190996
794.325105,-962.267725,-9252.574275,-1378.971896
794.325430,518.144159,-9400.615463,-842.705048
794.325754,1850.514855,-9326.594869,-536.266849
794.326078,1776.494261,-9326.594869,-536.266849
794.326402,1036.288319,-9326.594869,-689.485948
794.326726,-444.123565,-9474.636058,-459.657299
794.327050,-1554.432478,-9992.780217,-536.266849
794.327374,-1480.411884,-9844.739029,-153.219100
794.327698,-444.123565,-9918.759623,229.828649
794.328022,1110.308913,-9696.697840,229.828649
794.328347,2738.761985,-10140.821405,842.705048
794.328671,3775.050304,-9918.759623,1072.533697
794.328995,2738.761985,-9474.636058,766.095498
794.329319,740.205942,-9918.759623,0.000000
794.329643,-740.205942,-9918.759623,-612.876398
794.329967,-1924.535449,-9474.636058,-1302.362347
794.330291,-2664.741391,-9474.636058,-1762.019645
794.330615,-1702.473667,-9178.553681,-1532.190996
794.330939,0.000000,-9326.594869,-1302.362347
794.331264,1332.370696,-9178.553681,-1072.533697
794.331588,2072.576638,-9474.636058,-842.705048
794.331912,1776.494261,-9548.656652,-536.266849
794.332236,518.144159,-9696.697840,-306.438199
794.332560,-1036.288319,-10066.800811,0.000000
794.332884,-1998.556043,-10584.944971,-383.047749
794.333208,-2368.659014,-10584.944971,0.000000
794.333532,-1850.514855,-10362.883188,0.000000
794.333857,-296.082377,-10732.986159,919.314598
794.334181,1406.391290,-10140.821405,1532.190996
794.334505,2368.659014,-9548.656652,1532.190996
794.334829,1850.514855,-10140.821405,689.485948
794.335153,444.123565,-10436.903782,459.657299
794.335477,-962.267725,-10214.842000,0.000000
794.335801,-2220.617826,-9622.677246,-612.876398
794.336125,-2368.659014,-9178.553681,-919.314598
794.336449,-1924.535449,-9252.574275,-1072.533697
794.336774,-444.123565,-9474.636058,-919.314598
794.337098,592.164754,-9030.512492,-383.047749
794.337422,1480.411884,-8586.388927,-306.438199
794.337746,1776.494261,-8660.409521,0.000000
794.338070,1184.329507,-8956.491898,0.000000
794.338394,222.061783,-8438.347739,306.438199
794.338718,-1258.350101,-9178.553681,536.266849
794.339042,-1776.494261,-9770.718434,536.266849
794.339366,-2220.617826,-9474.636058,153.219100
794.339691,-518.144159,-9844.739029,995.924147
794.340015,1184.329507,-9474.636058,1608.800546
794.340339,2368.659014,-9622.677246,1838.629195
794.340663,2368.659014,-9770.718434,1532.190996
794.340987,1480.411884,-9696.697840,842.705048
794.341311,0.000000,-9548.656652,306.438199
794.341635,-1776.494261,-9474.636058,-612.876398
794.341959,-2590.720797,-9474.636058,-612.876398
794.342284,-2368.659014,-9326.594869,-766.095498
794.342608,-1184.329507,-9104.533087,-919.314598
794.342932,-222.061783,-8956.491898,-1072.533697
794.343256,1110.308913,-8734.430116,-459.657299
794.343580,1628.453072,-9178.553681,0.000000
794.343904,1924.535449,-9474.636058,-153.219100
794.344228,222.061783,-9474.636058,-153.219100
794.344552,-888.247130,-9844.739029,0.000000
794.344876,-1480.411884,-10510.924376,383.047749
794.345201,-1702.473667,-10584.944971,459.657299
794.345525,-888.247130,-10214.842000,1072.533697
794.345849,296.082377,-10066.800811,1455.581446
794.346173,1480.411884,-10510.924376,1302.362347
794.346497,2072.576638,-9992.780217,1149.143247
794.346821,1480.411884,-10214.842000,459.657299
794.347145,-814.226536,-10732.986159,-229.828649
794.347469,-2442.679609,-10510.924376,-1302.362347
794.347793,-3256.906145,-9992.780217,-1838.629195
794.348118,-3108.864956,-9844.739029,-2145.067394
794.348442,-2294.638420,-9918.759623,-2221.676944
794.348766,0.000000,-10140.821405,-1455.581446
794.349090,1776.494261,-9918.759623,-766.095498
794.349414,3108.864956,-9918.759623,-459.657299
794.349738,2812.782580,-9918.759623,0.000000
794.350062,1776.494261,-10140.821405,0.000000
794.350386,518.144159,-10214.842000,153.219100
794.350710,0.000000,-10140.821405,306.438199
794.351035,-222.061783,-10140.821405,689.485948
794.351359,222.061783,-9770.718434,842.705048
794.351683,666.185348,-9696.697840,306.438199
794.352007,1924.535449,-9474.636058,1072.533697
794.352331,2294.638420,-9252.574275,842.705048
794.352655,1258.350101,-9252.574275,76.609550
794.352979,-740.205942,-9178.553681,0.000000
794.353303,-1998.556043,-9178.553681,-1149.143247
794.353628,-2442.679609,-9104.533087,-1378.971896
794.353952,-2738.761985,-8808.450710,-1455.581446
794.354276,-1998.556043,-8882.471304,-1149.143247
794.354600,0.000000,-9252.574275,-919.314598
794.354924,1480.411884,-9104.533087,-306.438199
794.355248,2368.659014,-9178.553681,459.657299
794.355572,2664.741391,-9696.697840,76.609550
794.355896,1776.494261,-10214.842000,306.438199
794.356220,222.061783,-9400.615463,536.266849
794.356545,-740.205942,-9548.656652,383.047749
794.356869,-1184.329507,-9770.718434,383.047749
794.357193,-1110.308913,-9770.718434,612.876398
794.357517,-444.123565,-9326.594869,842.705048
794.357841,740.205942,-9326.594869,766.095498
794.358165,1110.308913,-9030.512492,536.266849
794.358489,666.185348,-9548.656652,229.828649
794.358813,-518.144159,-9622.677246,-306.438199
794.359137,-2072.576638,-9400.615463,-995.924147
794.359462,-2738.761985,-9474.636058,-1455.581446
794.359786,-2960.823768,-9622.677246,-1532.190996
794.360110,-2220.617826,-9696.697840,-1608.800546
794.360434,-592.164754,-9770.718434,-1378.971896
794.360758,1110.308913,-10066.800811,-612.876398
794.361082,2220.617826,-10066.800811,-306.438199
794.361406,3330.926739,-11325.150913,0.000000
794.361730,2368.659014,-10658.965565,229.828649
794.362054,592.164754,-10807.006753,76.609550
794.362379,-592.164754,-10955.047942,-229.828649
794.362703,-1184.329507,-10658.965565,0.000000
794.363027,-1332.370696,-10436.903782,76.609550
794.363351,-222.061783,-9770.718434,229.828649
794.363675,444.123565,-9622.677246,459.657299
794.363999,1480.411884,-9696.697840,229.828649
794.364323,1258.350101,-9326.594869,-229.828649
794.364647,0.000000,-9178.553681,-459.657299
794.364972,-1110.308913,-9400.615463,-995.924147
794.365296,-2072.576638,-9474.636058,-995.924147
794.365620,-2220.617826,-9326.594869,-1149.143247
794.365944,-1480.411884,-9178.553681,-1072.533697
794.366268,0.000000,-9400.615463,-383.047749
794.366592,1850.514855,-9622.677246,-229.828649
794.366916,2738.761985,-9696.697840,306.438199
794.367240,2664.741391,-9844.739029,153.219100
794.367564,1924.535449,-9918.759623,0.000000
794.367889,222.061783,-9770.718434,229.828649
794.368213,-740.205942,-10140.821405,612.876398
794.368537,-1332.370696,-10214.842000,229.828649
794.368861,-1850.514855,-9844.739029,459.657299
794.369185,-1036.288319,-10066.800811,612.876398
794.369509,0.000000,-9474.636058,1072.533697
794.369833,1036.288319,-9252.574275,1378.971896
794.370157,1258.350101,-9326.594869,1302.362347
794.370481,222.061783,-9252.574275,995.924147
794.370806,-1776.494261,-9252.574275,383.047749
794.371130,-2960.823768,-9400.615463,-612.876398
794.371454,-2812.782580,-9326.594869,-383.047749
794.371778,-2072.576638,-9326.594869,-306.438199
794.372102,-888.247130,-9030.512492,-306.438199
794.372426,814.226536,-9030.512492,459.657299
794.372750,2442.679609,-8882.471304,612.876398
794.373074,2664.741391,-9252.574275,919.314598
794.373398,2294.638420,-9474.636058,842.705048
794.373723,444.123565,-9622.677246,689.485948
794.374047,-518.144159,-10066.800811,459.657299
794.374371,-1184.329507,-10140.821405,536.266849
794.374695,-1258.350101,-9622.677246,689.485948
794.375019,-962.267725,-9918.759623,766.095498
794.375343,0.000000,-10584.944971,689.485948
794.375667,1036.288319,-9992.780217,766.095498
794.375991,1406.391290,-9474.636058,1302.362347
794.376316,296.082377,-9696.697840,766.095498
794.376640,-888.247130,-9548.656652,-76.609550
794.376964,-2146.597232,-9622.677246,-229.828649
794.377288,-2886.803174,-9770.718434,-766.095498
794.377612,-1998.556043,-9548.656652,-536.266849
794.377936,-888.247130,-9474.636058,-842.705048
794.378260,962.267725,-9992.780217,306.438199
794.378584,1776.494261,-9918.759623,-306.438199
794.378908,2664.741391,-10140.821405,0.000000
794.379233,2368.659014,-10362.883188,0.000000
794.379557,1258.350101,-10436.903782,-153.219100
794.379881,0.000000,-9622.677246,306.438199
794.380205,-888.247130,-9844.739029,-842.705048
794.380529,-1036.288319,-9770.718434,76.609550
794.380853,-592.164754,-9474.636058,459.657299
794.381177,296.082377,-9400.615463,536.266849
794.381501,1554.432478,-9326.594869,612.876398
794.381825,2072.576638,-9400.615463,612.876398
794.382150,1110.308913,-9178.553681,153.219100
794.382474,-444.123565,-9400.615463,383.047749
794.382798,-1628.453072,-9400.615463,-459.657299
794.383122,-2368.659014,-9030.512492,-1838.629195
794.383446,-2368.659014,-9104.533087,-1532.190996
794.383770,-1110.308913,-9400.615463,-1455.581446
794.384094,666.185348,-9622.677246,-995.924147
794.384418,2368.659014,-9326.594869,-689.485948
794.384742,3182.885551,-9104.533087,-383.047749
794.385067,2812.782580,-9474.636058,-612.876398
794.385391,888.247130,-9696.697840,-1072.533697
794.385715,-814.226536,-9918.759623,-383.047749
794.386039,-1702.473667,-10066.800811,-842.705048
794.386363,-1628.453072,-10140.821405,-306.438199
794.386687,-814.226536,-10140.821405,153.219100
794.387011,0.000000,-9770.718434,612.876398
794.387335,814.226536,-9030.512492,689.485948
794.387660,740.205942,-8882.471304,842.705048
794.387984,296.082377,-9474.636058,689.485948
794.388308,-888.247130,-9252.574275,-306.438199
794.388632,-1924.535449,-9400.615463,-612.876398
794.388956,-2442.679609,-9548.656652,-1455.581446
794.389280,-2368.659014,-9252.574275,-1608.800546
794.389604,-1554.432478,-9474.636058,-1685.410096
794.389928,0.000000,-10066.800811,-766.095498
794.390253,1998.556043,-9992.780217,-306.438199
794.390577,2886.803174,-10140.821405,-306.438199
794.390901,2516.700203,-10362.883188,-229.828649
794.391225,1628.453072,-10658.965565,0.000000
794.391549,148.041188,-10584.944971,0.000000
794.391873,-814.226536,-10658.965565,76.609550
794.392197,-1332.370696,-10288.862594,612.876398
794.392522,-1110.308913,-9844.739029,153.219100
794.392846,0.000000,-9474.636058,919.314598
794.393170,1184.329507,-9548.656652,766.095498
794.393494,1850.514855,-9400.615463,842.705048
794.393818,1184.329507,-9252.574275,383.047749
794.394142,-296.082377,-9474.636058,229.828649
794.394467,-1924.535449,-9326.594869,-229.828649
794.394791,-2664.741391,-9104.533087,-919.314598
794.395115,-2072.576638,-9252.574275,-536.266849
794.395439,-1924.535449,-9252.574275,-766.095498
794.395763,-222.061783,-9770.718434,-536.266849
794.396087,1554.432478,-9622.677246,-383.047749
794.396411,2886.803174,-9770.718434,306.438199
794.396736,3108.864956,-9770.718434,1149.143247
794.397060,2368.659014,-9992.780217,459.657299
794.397384,666.185348,-10214.842000,842.705048
794.397708,-518.144159,-9918.759623,689.485948
794.398032,-1554.432478,-10510.924376,383.047749
794.398356,-1628.453072,-9844.739029,153.219100
794.398680,-1258.350101,-9622.677246,459.657299
794.399005,-518.144159,-9326.594869,612.876398
794.399329,222.061783,-8808.450710,766.095498
794.399653,518.144159,-9474.636058,153.219100
794.399977,-814.226536,-8512.368333,612.876398
794.400301,-1332.370696,-8882.471304,0.000000
794.400625,-2146.597232,-9474.636058,-306.438199
794.400950,-2368.659014,-9400.615463,-689.485948
794.401274,-1850.514855,-9474.636058,-459.657299
794.401598,0.000000,-9474.636058,-459.657299
794.401922,1332.370696,-9696.697840,383.047749
794.402246,2368.659014,-9770.718434,306.438199
794.402570,2960.823768,-10436.903782,-229.828649
794.402894,1924.535449,-10288.862594,459.657299
794.403219,370.102971,-10214.842000,459.657299
794.403543,-1184.329507,-10140.821405,76.609550
794.403867,-1850.514855,-10066.800811,153.219100
794.404191,-2146.597232,-10140.821405,306.438199
794.404515,-1480.411884,-9844.739029,995.924147
794.404839,0.000000,-9548.656652,1225.752797
794.405163,1184.329507,-9400.615463,1072.533697
794.405488,1332.370696,-9252.574275,1149.143247
794.405812,370.102971,-9252.574275,689.485948
794.406136,-1184.329507,-9622.677246,0.000000
794.406460,-2442.679609,-9474.636058,-459.657299
794.406784,-2664.741391,-8956.491898,-1225.752797
794.407108,-1850.514855,-9326.594869,-612.876398
794.407433,-740.205942,-9474.636058,-1072.533697
794.407757,1184.329507,-9622.677246,-689.485948
794.408081,2812.782580,-9696.697840,0.000000
794.408405,3775.050304,-9696.697840,76.609550
794.408729,3330.926739,-9844.739029,306.438199
794.409053,1554.432478,-9548.656652,229.828649
794.409377,0.000000,-10362.883188,0.000000
794.409702,-592.164754,-10140.821405,0.000000
794.410026,-1184.329507,-9770.718434,612.876398
794.410350,-1258.350101,-9548.656652,0.000000
794.410674,-518.144159,-9474.636058,76.609550
794.410998,296.082377,-8956.491898,76.609550
794.411322,962.267725,-8734.430116,383.047749
794.411646,370.102971,-8734.430116,-306.438199
794.411971,-814.226536,-8956.491898,-536.266849
794.412295,-1850.514855,-9030.512492,-995.924147
794.412619,-2146.597232,-9030.512492,-1225.752797
794.412943,-1332.370696,-9474.636058,-1302.362347
794.413267,74.020594,-9918.759623,-995.924147
794.413591,1406.391290,-9770.718434,-919.314598
794.413916,2886.803174,-10066.800811,-612.876398
794.414240,3552.988522,-10436.903782,0.000000
794.414564,2590.720797,-10807.006753,-842.705048
794.414888,888.247130,-10658.965565,-612.876398
794.415212,-740.205942,-10658.965565,-842.705048
794.415536,-1184.329507,-10658.965565,-842.705048
794.415860,-1480.411884,-10140.821405,-689.485948
794.416185,-1554.432478,-9844.739029,-919.314598
794.416509,-518.144159,-9918.759623,-153.219100
794.416833,370.102971,-9548.656652,229.828649
794.417157,1184.329507,-9844.739029,-766.095498
794.417481,222.061783,-9770.718434,-536.266849
794.417805,-1258.350101,-10140.821405,-842.705048
794.418129,-2146.597232,-10140.821405,-919.314598
794.418454,-2664.741391,-9992.780217,-1149.143247
794.418778,-2368.659014,-9992.780217,-919.314598
794.419102,-1332.370696,-10732.986159,-1225.752797
794.419426,740.205942,-10510.924376,-689.485948
794.419750,2368.659014,-9474.636058,-306.438199
794.420074,3701.029710,-9918.759623,-229.828649
794.420399,2664.741391,-9844.739029,-229.828649
794.420723,1332.370696,-9696.697840,-153.219100
794.421047,148.041188,-9918.759623,-306.438199
794.421371,-1184.329507,-9474.636058,-153.219100
794.421695,-1480.411884,-9030.512492,306.438199
794.422019,-1184.329507,-9400.615463,306.438199
794.422343,-296.082377,-9104.533087,919.314598
794.422668,740.205942,-8586.388927,1532.190996
794.422992,1184.329507,-8734.430116,1532.190996
794.423316,1036.288319,-8734.430116,1378.971896
794.423640,-222.061783,-8586.388927,1455.581446
794.423964,-962.267725,-8808.450710,995.924147
794.424288,-2294.638420,-8438.347739,459.657299
794.424612,-2442.679609,-8808.450710,-383.047749
794.424937,-2220.617826,-9252.574275,-459.657299
794.425261,-444.123565,-9326.594869,0.000000
794.425585,1036.288319,-9252.574275,0.000000
794.425909,2220.617826,-9844.739029,306.438199
794.426233,1998.556043,-9696.697840,0.000000
794.426557,1702.473667,-9992.780217,1378.971896
794.426882,444.123565,-9844.739029,459.657299
794.427206,-888.247130,-10140.821405,459.657299
794.427530,-1406.391290,-10066.800811,919.314598
794.427854,-1406.391290,-10140.821405,1149.143247
794.428178,-666.185348,-10066.800811,1225.752797
794.428502,518.144159,-9548.656652,2145.067394
794.428826,666.185348,-9474.636058,1915.238745
794.429151,444.123565,-9622.677246,1149.143247
794.429475,-592.164754,-9548.656652,766.095498
794.429799,-1702.473667,-9622.677246,76.609550
794.430123,-3404.947333,-10066.800811,-766.095498
794.430447,-3330.926739,-9770.718434,-995.924147
794.430771,-2516.700203,-9844.739029,-1302.362347
794.431096,-888.247130,-9844.739029,-919.314598
794.431420,1184.329507,-10214.842000,-689.485948
794.431744,2738.761985,-10436.903782,76.609550
794.432068,3256.906145,-10584.944971,0.000000
794.432392,2738.761985,-10510.924376,76.609550
794.432716,1184.329507,-10955.047942,-689.485948
794.433040,-518.144159,-10807.006753,-153.219100
794.433365,-1406.391290,-10510.924376,0.000000
794.433689,-1110.308913,-10436.903782,383.047749
794.434013,-592.164754,-10066.800811,1072.533697
794.434337,814.226536,-9622.677246,766.095498
794.434661,1554.432478,-9252.574275,919.314598
794.434985,1924.535449,-8734.430116,689.485948
794.435309,666.185348,-8956.491898,229.828649
794.435634,-888.247130,-9030.512492,0.000000
794.435958,-2146.597232,-8882.471304,-689.485948
794.436282,-2368.659014,-9030.512492,-612.876398
794.436606,-1480.411884,-9178.553681,-1225.752797
794.436930,0.000000,-9326.594869,-1149.143247
794.437254,1406.391290,-9104.533087,-995.924147
794.437579,2442.679609,-9178.553681,0.000000
794.437903,3034.844362,-9918.759623,-153.219100
794.438227,2442.679609,-9918.759623,0.000000
794.438551,814.226536,-10066.800811,76.609550
794.438875,-444.123565,-9918.759623,306.438199
794.439199,-1036.288319,-10140.821405,229.828649
794.439523,-1184.329507,-10214.842000,306.438199
794.439848,-592.164754,-9992.780217,459.657299
794.440172,-666.185348,-9400.615463,919.314598
794.440496,888.247130,-9178.553681,1149.143247
794.440820,1184.329507,-9104.533087,842.705048
794.441144,0.000000,-8808.450710,306.438199
794.441468,-1110.308913,-8956.491898,-383.047749
794.441792,-2294.638420,-9178.553681,-766.095498
794.442117,-2516.700203,-9178.553681,-1762.019645
794.442441,-2516.700203,-9252.574275,-1685.410096
794.442765,-592.164754,-9474.636058,-1455.581446
794.443089,1110.308913,-9696.697840,-689.485948
794.443413,2812.782580,-10140.821405,-536.266849
794.443737,3330.926739,-10436.903782,-536.266849
794.444062,2664.741391,-10140.821405,-229.828649
794.444386,1184.329507,-10732.986159,-229.828649
794.444710,-296.082377,-10584.944971,0.000000
794.445034,-1480.411884,-10732.986159,-229.828649
794.445358,-1554.432478,-10288.862594,0.000000
794.445682,-962.267725,-10362.883188,229.828649
794.446006,0.000000,-10140.821405,612.876398
794.446331,1258.350101,-9622.677246,536.266849
794.446655,1406.391290,-9252.574275,76.609550
794.446979,518.144159,-9400.615463,229.828649
794.447303,-814.226536,-9770.718434,-1072.533697
794.447627,-2294.638420,-9844.739029,-1302.362347
794.447951,-2516.700203,-9770.718434,-1532.190996
794.448275,-2220.617826,-9474.636058,-1838.629195
794.448600,-888.247130,-9548.656652,-1378.971896
794.448924,1036.288319,-9548.656652,-689.485948
794.449248,2368.659014,-9770.718434,-995.924147
794.449572,3034.844362,-9400.615463,0.000000
794.449896,2886.803174,-9918.759623,0.000000
794.450220,1702.473667,-9918.759623,229.828649
794.450545,148.041188,-10140.821405,153.219100
794.450869,-814.226536,-10066.800811,306.438199
794.451193,-1036.288319,-9696.697840,612.876398
794.451517,-1554.432478,-10066.800811,842.705048
794.451841,-592.164754,-9696.697840,766.095498
794.452165,0.000000,-9030.512492,1149.143247
794.452489,444.123565,-9252.574275,1072.533697
794.452814,-74.020594,-9030.512492,689.485948
794.453138,-1406.391290,-8882.471304,0.000000
794.453462,-2664.741391,-9104.533087,-689.485948
794.453786,-3108.864956,-9178.553681,-536.266849
794.454110,-2442.679609,-8660.409521,-842.705048
794.454434,-1554.432478,-8660.409521,-536.266849
794.454758,0.000000,-9030.512492,-383.047749
794.455083,2072.576638,-9326.594869,229.828649
794.455407,3256.906145,-9474.636058,612.876398
794.455731,3034.844362,-9992.780217,459.657299
794.456055,1850.514855,-10288.862594,459.657299
794.456379,0.000000,-10140.821405,-76.609550
794.456703,-1184.329507,-9992.780217,842.705048
794.457028,-1702.473667,-9548.656652,76.609550
794.457352,-1184.329507,-9770.718434,919.314598
794.457676,-296.082377,-9474.636058,995.924147
794.458000,888.247130,-9104.533087,766.095498
794.458324,1628.453072,-9030.512492,1072.533697
794.458648,1332.370696,-8808.450710,306.438199
794.458972,444.123565,-8956.491898,229.828649
794.459297,-1258.350101,-9548.656652,-383.047749
794.459621,-2072.576638,-9770.718434,-1149.143247
794.459945,-1924.535449,-10066.800811,-995.924147
794.460269,-1258.350101,-10288.862594,-1225.752797
794.460593,0.000000,-10658.965565,-1072.533697
794.460917,1554.432478,-10955.047942,-306.438199
794.461241,2516.700203,-10658.965565,-306.438199
794.461566,2516.700203,-10955.047942,-306.438199
794.461890,1850.514855,-10658.965565,0.000000
794.462214,296.082377,-10881.027347,0.000000
794.462538,-888.247130,-11029.068536,-153.219100
794.462862,-1554.432478,-10807.006753,229.828649
794.463186,-1628.453072,-10510.924376,383.047749
794.463511,-740.205942,-10140.821405,612.876398
794.463835,296.082377,-9178.553681,536.266849
794.464159,1480.411884,-9548.656652,1149.143247
794.464483,1110.308913,-9696.697840,459.657299
794.464807,-370.102971,-9622.677246,229.828649
794.465131,-1924.535449,-9548.656652,-383.047749
794.465455,-2590.720797,-9400.615463,-1072.533697
794.465780,-2812.782580,-9326.594869,-1532.190996
794.466104,-2368.659014,-9030.512492,-1302.362347
794.466428,-888.247130,-9030.512492,-1302.362347
794.466752,1110.308913,-9178.553681,-842.705048
794.467076,2590.720797,-9326.594869,-153.219100
794.467400,3034.844362,-9326.594869,0.000000
794.467724,2442.679609,-9474.636058,459.657299
794.468049,962.267725,-9474.636058,689.485948
794.468373,-296.082377,-9622.677246,459.657299
794.468697,-962.267725,-9548.656652,306.438199
794.469021,-1110.308913,-9252.574275,919.314598
794.469345,-1036.288319,-9252.574275,766.095498
794.469669,0.000000,-8808.450710,919.314598
794.469994,1036.288319,-8586.388927,995.924147
794.470318,1258.350101,-8660.409521,766.095498
794.470642,592.164754,-8660.409521,536.266849
794.470966,-1184.329507,-8438.347739,0.000000
794.471290,-1850.514855,-8808.450710,0.000000
794.471614,-2146.597232,-8956.491898,-1302.362347
794.471938,-1924.535449,-9474.636058,-1072.533697
794.472263,-888.247130,-9474.636058,-1072.533697
794.472587,1110.308913,-9548.656652,-689.485948
794.472911,2516.700203,-9474.636058,-383.047749
794.473235,3182.885551,-9992.780217,0.000000
794.473559,2146.597232,-10140.821405,0.000000
794.473883,1110.308913,-10510.924376,-459.657299
794.474207,-518.144159,-10881.027347,0.000000
794.474532,-1184.329507,-10881.027347,0.000000
794.474856,-1776.494261,-10658.965565,229.828649
794.475180,-1406.391290,-10732.986159,612.876398
794.475504,-444.123565,-10066.800811,612.876398
794.475828,1184.329507,-10214.842000,1378.971896
794.476152,1184.329507,-10140.821405,153.219100
794.476477,74.020594,-10066.800811,-153.219100
794.476801,-1480.411884,-10214.842000,-842.705048
794.477125,-2664.741391,-10214.842000,-1455.581446
794.477449,-2886.803174,-10066.800811,-1915.238745
794.477773,-2368.659014,-10140.821405,-1838.629195
794.478097,-1406.391290,-9844.739029,-1455.581446
794.478421,888.247130,-9770.718434,-995.924147
794.478746,2664.741391,-9622.677246,-383.047749
794.479070,3552.988522,-10066.800811,-229.828649
794.479394,2886.803174,-10140.821405,0.000000
794.479718,1480.411884,-10066.800811,0.000000
794.480042,148.041188,-10140.821405,153.219100
794.480366,-814.226536,-9622.677246,0.000000
794.480690,-1184.329507,-9770.718434,536.266849
794.481015,-1184.329507,-9770.718434,459.657299
794.481339,0.000000,-9474.636058,459.657299
794.481663,814.226536,-8660.409521,689.485948
794.481987,1184.329507,-8512.368333,689.485948
794.482311,666.185348,-8660.409521,153.219100
794.482635,-296.082377,-8808.450710,-306.438199
794.482960,-1776.494261,-8882.471304,-689.485948
794.483284,-2368.659014,-8438.347739,-1149.143247
794.483608,-1998.556043,-8956.491898,-1149.143247
794.483932,-1258.350101,-9400.615463,-1072.533697
794.484256,370.102971,-9326.594869,-689.485948
794.484580,1850.514855,-9400.615463,-229.828649
794.484904,2664.741391,-9770.718434,229.828649
794.485229,2738.761985,-9992.780217,0.000000
794.485553,1184.329507,-9918.759623,536.266849
794.485877,-148.041188,-10362.883188,536.266849
794.486201,-814.226536,-10214.842000,0.000000
794.486525,-1258.350101,-10066.800811,536.266849
794.486849,-1332.370696,-9844.739029,612.876398
794.487173,-666.185348,-9622.677246,689.485948
794.487498,296.082377,-9474.636058,1149.143247
794.487822,814.226536,-9696.697840,766.095498
794.488146,592.164754,-10066.800811,459.657299
794.488470,-1110.308913,-9622.677246,76.609550
794.488794,-2812.782580,-9548.656652,-689.485948
794.489118,-3404.947333,-10140.821405,-1072.533697
794.489443,-3108.864956,-10066.800811,-1149.143247
794.489767,-2072.576638,-9992.780217,-612.876398
794.490091,-148.041188,-9696.697840,0.000000
794.490415,1628.453072,-9696.697840,0.000000
794.490739,3034.844362,-10362.883188,1149.143247
794.491063,3182.885551,-10436.903782,229.828649
794.491388,2072.576638,-10510.924376,306.438199
794.491712,370.102971,-10732.986159,536.266849
794.492036,-444.123565,-10584.944971,229.828649
794.492360,-1258.350101,-10140.821405,612.876398
794.492684,-888.247130,-9696.697840,995.924147
794.493008,0.000000,-9770.718434,1072.533697
794.493333,444.123565,-9030.512492,1149.143247
794.493657,1480.411884,-8734.430116,1532.190996
794.493981,1036.288319,-8660.409521,842.705048
794.494305,222.061783,-8808.450710,306.438199
794.494629,-1184.329507,-9104.533087,153.219100
794.494954,-2072.576638,-9030.512492,-229.828649
794.495278,-2368.659014,-8660.409521,-459.657299
794.495602,-1924.535449,-8808.450710,-612.876398
794.495926,0.000000,-8808.450710,-459.657299
794.496250,1776.494261,-9326.594869,-306.438199
794.496574,2516.700203,-9326.594869,0.000000
794.496899,2812.782580,-9696.697840,229.828649
794.497223,2294.638420,-9548.656652,0.000000
794.497547,1036.288319,-9844.739029,229.828649
794.497871,-962.267725,-9474.636058,383.047749
794.498195,-1406.391290,-10436.903782,383.047749
794.498520,-1702.473667,-9844.739029,459.657299
794.498844,-1184.329507,-9770.718434,459.657299
794.499168,0.000000,-9474.636058,766.095498
794.499492,518.144159,-9474.636058,842.705048
794.499816,888.247130,-9030.512492,306.438199
794.500140,-222.061783,-9400.615463,-306.438199
794.500465,-1702.473667,-9252.574275,-995.924147
794.500789,-2664.741391,-9474.636058,-2145.067394
794.501113,-2886.803174,-9326.594869,-1991.848295
794.501437,-1998.556043,-9622.677246,-1838.629195
794.501761,-592.164754,-9918.759623,-1838.629195
794.502085,1110.308913,-9918.759623,-995.924147
794.502410,2738.761985,-9844.739029,-536.266849
794.502734,3627.009116,-10584.944971,-383.047749
794.503058,2516.700203,-10881.027347,-153.219100
794.503382,592.164754,-10732.986159,-229.828649
794.503706,-592.164754,-11177.109724,-306.438199
794.504031,-1036.288319,-10807.006753,-76.609550
794.504355,-1184.329507,-10140.821405,76.609550
794.504679,-444.123565,-9992.780217,76.609550
794.505003,444.123565,-9548.656652,0.000000
794.505327,1036.288319,-9252.574275,0.000000
794.505651,1258.350101,-9400.615463,-612.876398
794.505976,0.000000,-9104.533087,-842.705048
794.506300,-1702.473667,-9252.574275,-1378.971896
794.506624,-2516.700203,-9326.594869,-1838.629195
794.506948,-2664.741391,-9474.636058,-1762.019645
794.507272,-1628.453072,-9548.656652,-1608.800546
794.507596,74.020594,-9918.759623,-1225.752797
794.507921,1776.494261,-9622.677246,0.000000
794.508245,3552.988522,-9474.636058,0.000000
794.508569,4145.153275,-10140.821405,229.828649
794.508893,3478.967927,-10436.903782,536.266849
794.509217,1702.473667,-10214.842000,612.876398
794.509542,148.041188,-9474.636058,383.047749
794.509866,-962.267725,-9844.739029,-383.047749
794.510190,-1924.535449,-9622.677246,-76.609550
794.510514,-1628.453072,-9474.636058,0.000000
794.510838,-1036.288319,-9326.594869,76.609550
794.511162,0.000000,-9030.512492,229.828649
794.511487,148.041188,-8882.471304,153.219100
794.511811,0.000000,-8882.471304,76.609550
794.512135,-1036.288319,-8882.471304,-306.438199
794.512459,-2368.659014,-8734.430116,-153.219100
794.512783,-2368.659014,-9104.533087,-995.924147
794.513108,-2072.576638,-9474.636058,-766.095498
794.513432,-1036.288319,-9474.636058,0.000000
794.513756,740.205942,-9622.677246,0.000000
794.514080,2368.659014,-9992.780217,383.047749
794.514404,3256.906145,-10288.862594,612.876398
794.514728,2442.679609,-10214.842000,689.485948
794.515053,962.267725,-10510.924376,536.266849
794.515377,-592.164754,-10214.842000,459.657299
794.515701,-1480.411884,-10362.883188,0.000000
794.516025,-1924.535449,-9992.780217,229.828649
794.516349,-1480.411884,-9918.759623,383.047749
794.516673,-1036.288319,-9252.574275,842.705048
794.516998,222.061783,-8956.491898,1149.143247
794.517322,1036.288319,-8734.430116,842.705048
794.517646,1036.288319,-9178.553681,842.705048
794.517970,-592.164754,-9326.594869,229.828649
794.518294,-1924.535449,-9622.677246,76.609550
794.518619,-2368.659014,-9474.636058,-383.047749
794.518943,-2072.576638,-9474.636058,0.000000
794.519267,-1036.288319,-9696.697840,153.219100
794.519591,370.102971,-9770.718434,76.609550
794.519915,1480.411884,-9622.677246,536.266849
794.520239,2590.720797,-9770.718434,76.609550
794.520564,2368.659014,-9992.780217,306.438199
794.520888,1184.329507,-9918.759623,306.438199
794.521212,-370.102971,-9770.718434,153.219100
794.521536,-1480.411884,-10066.800811,306.438199
794.521860,-962.267725,-9770.718434,842.705048
794.522185,-888.247130,-9474.636058,1072.533697
794.522509,-148.041188,-9030.512492,766.095498
794.522833,518.144159,-9030.512492,1149.143247
794.523157,1184.329507,-8882.471304,1225.752797
794.523481,1110.308913,-8882.471304,919.314598
794.523805,-296.082377,-8956.491898,459.657299
794.524130,-1998.556043,-9178.553681,-383.047749
794.524454,-2738.761985,-8882.471304,-383.047749
794.524778,-2664.741391,-8956.491898,-995.924147
794.525102,-1776.494261,-9104.533087,-995.924147
794.525426,-222.061783,-9474.636058,-1225.752797
794.525750,1850.514855,-9548.656652,-689.485948
794.526075,3034.844362,-9992.780217,-459.657299
794.526399,3182.885551,-10214.842000,-383.047749
794.526723,2368.659014,-10288.862594,-459.657299
794.527047,740.205942,-10584.944971,-842.705048
794.527371,-444.123565,-10214.842000,-306.438199
794.527696,-1184.329507,-10955.047942,-459.657299
794.528020,-1184.329507,-10807.006753,-383.047749
794.528344,-518.144159,-10436.903782,-153.219100
794.528668,592.164754,-10140.821405,0.000000
794.528992,1110.308913,-9622.677246,-306.438199
794.529316,1036.288319,-9992.780217,-229.828649
794.529641,-592.164754,-9400.615463,-842.705048
794.529965,-1554.432478,-10066.800811,-1225.752797
794.530289,-2368.659014,-9992.780217,-1838.629195
794.530613,-2368.659014,-9474.636058,-2145.067394
794.530937,-1480.411884,-9548.656652,-2298.286494
794.531261,-444.123565,-9992.780217,-2145.067394
794.531586,1924.535449,-10140.821405,-1608.800546
794.531910,3182.885551,-10066.800811,-536.266849
794.532234,3552.988522,-10214.842000,-842.705048
794.532558,2442.679609,-10066.800811,-689.485948
794.532882,740.205942,-10140.821405,-459.657299
794.533207,-148.041188,-10584.944971,-306.438199
794.533531,-814.226536,-10436.903782,-459.657299
794.533855,-666.185348,-9622.677246,0.000000
794.534179,-518.144159,-9770.718434,-76.609550
794.534503,0.000000,-9104.533087,383.047749
794.534827,740.205942,-8956.491898,689.485948
794.535152,666.185348,-8882.471304,459.657299
794.535476,-814.226536,-8956.491898,76.609550
794.535800,-2294.638420,-8882.471304,-229.828649
794.536124,-3478.967927,-9104.533087,-459.657299
794.536448,-2664.741391,-8956.491898,-612.876398
794.536773,-2146.597232,-9252.574275,153.219100
794.537097,-888.247130,-9326.594869,-306.438199
794.537421,1332.370696,-9178.553681,0.000000
794.537745,2886.803174,-9400.615463,383.047749
794.538069,3552.988522,-9918.759623,536.266849
794.538393,2812.782580,-9918.759623,612.876398
794.538718,1258.350101,-9696.697840,459.657299
794.539042,0.000000,-10066.800811,766.095498
794.539366,-1258.350101,-9770.718434,0.000000
794.539690,-1554.432478,-9326.594869,612.876398
794.540014,-1110.308913,-9622.677246,842.705048
794.540338,0.000000,-9696.697840,919.314598
794.540663,740.205942,-8808.450710,919.314598
794.540987,1036.288319,-9030.512492,1302.362347
794.541311,370.102971,-9252.574275,766.095498
794.541635,-1110.308913,-8956.491898,536.266849
794.541959,-2294.638420,-9474.636058,-459.657299
794.542284,-2738.761985,-9918.759623,-459.657299
794.542608,-2294.638420,-9696.697840,-612.876398
794.542932,-1036.288319,-9844.739029,-536.266849
794.543256,518.144159,-9992.780217,-306.438199
794.543580,2220.617826,-10362.883188,-153.219100
794.543904,2664.741391,-10732.986159,612.876398
794.544229,2442.679609,-10436.903782,536.266849
794.544553,1258.350101,-10955.047942,229.828649
794.544877,-296.082377,-10807.006753,153.219100
794.545201,-1036.288319,-11029.068536,306.438199
794.545525,-1110.308913,-10436.903782,459.657299
794.545850,-1036.288319,-10066.800811,383.047749
794.546174,-296.082377,-9622.677246,536.266849
794.546498,518.144159,-9992.780217,766.095498
794.546822,1110.308913,-9104.533087,689.485948
794.547146,370.102971,-9030.512492,612.876398
794.547470,-1036.288319,-9326.594869,0.000000
794.547795,-2220.617826,-9326.594869,-689.485948
794.548119,-2664.741391,-8956.491898,-766.095498
794.548443,-2368.659014,-8586.388927,-995.924147
794.548767,-1406.391290,-8660.409521,-459.657299
794.549091,518.144159,-9178.553681,-612.876398
794.549415,2072.576638,-9104.533087,0.000000
794.549740,3108.864956,-9770.718434,0.000000
794.550064,2590.720797,-9918.759623,76.609550
794.550388,1554.432478,-9992.780217,153.219100
794.550712,222.061783,-10288.862594,0.000000
794.551036,-740.205942,-9622.677246,0.000000
794.551361,-1406.391290,-9474.636058,306.438199
794.551685,-1628.453072,-9474.636058,383.047749
794.552009,-962.267725,-9252.574275,536.266849
794.552333,296.082377,-9030.512492,766.095498
794.552657,1258.350101,-9104.533087,842.705048
794.552981,814.226536,-9030.512492,536.266849
794.553306,0.000000,-8734.430116,0.000000
794.553630,-1702.473667,-8882.471304,-612.876398
794.553954,-2442.679609,-8882.471304,-1378.971896
794.554278,-2220.617826,-9252.574275,-1225.752797
794.554602,-1480.411884,-9696.697840,-1378.971896
794.554926,0.000000,-9770.718434,-919.314598
794.555251,2220.617826,-9696.697840,-536.266849
794.555575,3330.926739,-9918.759623,-229.828649
794.555899,2960.823768,-10288.862594,153.219100
794.556223,1998.556043,-11251.130318,459.657299
794.556547,518.144159,-10955.047942,0.000000
794.556872,-740.205942,-10732.986159,-306.438199
794.557196,-2220.617826,-10362.883188,-612.876398
794.557520,-2146.597232,-10288.862594,-536.266849
794.557844,-1480.411884,-9844.739029,-153.219100
794.558168,74.020594,-9548.656652,0.000000
794.558492,1110.308913,-9474.636058,-76.609550
794.558817,444.123565,-9030.512492,0.000000
794.559141,-370.102971,-9474.636058,-1225.752797
794.559465,-1702.473667,-9622.677246,-919.314598
794.559789,-2368.659014,-9992.780217,-1378.971896
794.560113,-2368.659014,-9770.718434,-1225.752797
794.560438,-1480.411884,-9622.677246,-536.266849
794.560762,222.061783,-9474.636058,-689.485948
794.561086,2590.720797,-9770.718434,-229.828649
794.561410,3923.091493,-9696.697840,0.000000
794.561734,4367.215058,-10066.800811,153.219100
794.562058,3108.864956,-10140.821405,76.609550
794.562383,1184.329507,-9992.780217,-383.047749
794.562707,-370.102971,-9918.759623,-536.266849
794.563031,-1110.308913,-9992.780217,-383.047749
794.563355,-814.226536,-9622.677246,0.000000
794.563679,-888.247130,-9326.594869,76.609550
794.564003,0.000000,-9030.512492,153.219100
794.564328,814.226536,-9178.553681,536.266849
794.564652,962.267725,-9326.594869,306.438199
794.564976,-296.082377,-9326.594869,76.609550
794.565300,-2220.617826,-9326.594869,0.000000
794.565624,-2886.803174,-9326.594869,-842.705048
794.565949,-3034.844362,-8956.491898,-1455.581446
794.566273,-1776.494261,-9178.553681,-1072.533697
794.566597,-296.082377,-9178.553681,-995.924147
794.566921,1702.473667,-9622.677246,-459.657299
794.567245,2960.823768,-9918.759623,-153.219100
794.567569,3404.947333,-10288.862594,0.000000
794.567894,2294.638420,-9992.780217,306.438199
794.568218,-222.061783,-10066.800811,-689.485948
794.568542,-1480.411884,-10140.821405,-612.876398
794.568866,-1776.494261,-10288.862594,-689.485948
794.569190,-1702.473667,-9770.718434,0.000000
794.569514,-1332.370696,-9770.718434,229.828649
794.569839,-222.061783,-9474.636058,766.095498
794.570163,740.205942,-9326.594869,1072.533697
794.570487,592.164754,-9104.533087,842.705048
794.570811,-592.164754,-9474.636058,306.438199
794.571135,-1850.514855,-9400.615463,153.219100
794.571460,-2738.761985,-9622.677246,-383.047749
794.571784,-2886.803174,-9252.574275,-612.876398
794.572108,-2368.659014,-9326.594869,-842.705048
794.572432,-518.144159,-9844.739029,-459.657299
794.572756,518.144159,-9474.636058,-536.266849
794.573080,2368.659014,-9770.718434,-306.438199
794.573405,2960.823768,-10140.821405,306.438199
794.573729,2738.761985,-9992.780217,0.000000
794.574053,1332.370696,-10214.842000,76.609550
794.574377,0.000000,-10362.883188,76.609550
794.574701,-1110.308913,-10214.842000,0.000000
794.575026,-1258.350101,-9918.759623,995.924147
794.575350,-518.144159,-9696.697840,1302.362347
794.575674,0.000000,-9474.636058,1302.362347
794.575998,1110.308913,-8660.409521,1762.019645
794.576322,962.267725,-9178.553681,1455.581446
794.576646,0.000000,-9400.615463,842.705048
794.576971,-1702.473667,-9474.636058,383.047749
794.577295,-2664.741391,-9474.636058,-153.219100
794.577619,-2516.700203,-9400.615463,-689.485948
794.577943,-2146.597232,-8438.347739,-689.485948
794.578267,-1258.350101,-9326.594869,-766.095498
794.578591,962.267725,-9474.636058,-842.705048
794.578916,2590.720797,-9548.656652,0.000000
794.579240,3478.967927,-9918.759623,153.219100
794.579564,3552.988522,-10214.842000,0.000000
794.579888,1998.556043,-9992.780217,153.219100
794.580212,0.000000,-10066.800811,459.657299
794.580537,-888.247130,-10288.862594,0.000000
794.580861,-1184.329507,-10066.800811,536.266849
794.581185,-1332.370696,-9770.718434,612.876398
794.581509,-296.082377,-9622.677246,1072.533697
794.581833,666.185348,-9252.574275,1072.533697
794.582157,1554.432478,-9474.636058,842.705048
794.582482,1036.288319,-9104.533087,76.609550
794.582806,-592.164754,-8808.450710,0.000000
794.583130,-2368.659014,-9474.636058,-919.314598
794.583454,-3182.885551,-9178.553681,-1685.410096
794.583778,-2590.720797,-9252.574275,-1685.410096
794.584103,-1776.494261,-9548.656652,-1838.629195
794.584427,0.000000,-9844.739029,-1532.190996
794.584751,1776.494261,-10066.800811,-842.705048
794.585075,3256.906145,-10436.903782,0.000000
794.585399,3627.009116,-10584.944971,-306.438199
794.585723,1998.556043,-10584.944971,-153.219100
794.586048,0.000000,-10362.883188,0.000000
794.586372,-962.267725,-10362.883188,-306.438199
794.586696,-1332.370696,-9992.780217,-153.219100
794.587020,-1332.370696,-10140.821405,0.000000
794.587344,-888.247130,-9992.780217,0.000000
794.587668,0.000000,-9252.574275,76.609550
794.587993,592.164754,-8734.430116,306.438199
794.588317,592.164754,-8586.388927,306.438199
794.588641,-962.267725,-8808.450710,-306.438199
794.588965,-1628.453072,-9326.594869,-1072.533697
794.589289,-2146.597232,-9178.553681,-1302.362347
794.589614,-1998.556043,-9178.553681,-1455.581446
794.589938,-1110.308913,-9252.574275,-1685.410096
794.590263,370.102971,-9474.636058,-1302.362347
794.590587,2516.700203,-9918.759623,-995.924147
794.590911,3330.926739,-9992.780217,-383.047749
794.591236,2886.803174,-10214.842000,-306.438199
794.591560,1628.453072,-10066.800811,76.609550
794.591884,74.020594,-10881.027347,-459.657299
794.592208,-1184.329507,-10584.944971,-306.438199
794.592532,-1776.494261,-10140.821405,153.219100
794.592857,-1850.514855,-9844.739029,459.657299
794.593181,-814.226536,-9696.697840,689.485948
794.593505,444.123565,-9326.594869,1225.752797
794.593829,1628.453072,-9474.636058,1302.362347
794.594154,814.226536,-8882.471304,689.485948
794.594478,-148.041188,-9030.512492,459.657299
794.594802,-1480.411884,-9326.594869,-153.219100
794.595126,-2294.638420,-9400.615463,-1072.533697
794.595450,-2442.679609,-9326.594869,-1378.971896
794.595775,-1924.535449,-9030.512492,-1532.190996
794.596099,0.000000,-9252.574275,-1149.143247
794.596423,1850.514855,-9622.677246,-689.485948
794.596747,2960.823768,-9770.718434,153.219100
794.597072,3330.926739,-10066.800811,229.828649
794.597396,2516.700203,-10140.821405,612.876398
794.597720,1332.370696,-10214.842000,766.095498
794.598044,0.000000,-10214.842000,1149.143247
794.598369,-1332.370696,-10214.842000,995.924147
794.598693,-1184.329507,-10288.862594,1225.752797
794.599017,-814.226536,-10066.800811,1455.581446
794.599341,-148.041188,-9622.677246,1378.971896
794.599665,148.041188,-9252.574275,995.924147
794.599990,-222.061783,-9030.512492,612.876398
794.600314,-740.205942,-9104.533087,-153.219100
794.600638,-1924.535449,-9104.533087,-229.828649
794.600962,-2294.638420,-9696.697840,-536.266849
794.601287,-2664.741391,-9252.574275,-995.924147
794.601611,-2590.720797,-8956.491898,-1072.533697
794.601935,-740.205942,-9252.574275,-919.314598
794.602259,1406.391290,-9992.780217,-459.657299
794.602583,2886.803174,-9992.780217,536.266849
794.602908,3775.050304,-10140.821405,919.314598
794.603232,3256.906145,-10066.800811,612.876398
794.603556,1702.473667,-10140.821405,1072.533697
794.603880,-370.102971,-10288.862594,536.266849
794.604205,-1702.473667,-10510.924376,153.219100
794.604529,-2146.597232,-9770.718434,306.438199
794.604853,-1924.535449,-9474.636058,306.438199
794.605177,-518.144159,-8956.491898,612.876398
794.605502,370.102971,-8882.471304,842.705048
794.605826,962.267725,-8438.347739,459.657299
794.606150,370.102971,-8882.471304,0.000000
794.606474,-1258.350101,-9030.512492,-383.047749
794.606798,-2368.659014,-9252.574275,-689.485948
794.607123,-2590.720797,-9474.636058,-689.485948
794.607447,-2072.576638,-9400.615463,-919.314598
794.607771,-518.144159,-9474.636058,-536.266849
794.608095,888.247130,-10066.800811,-612.876398
794.608420,2442.679609,-10066.800811,-153.219100
794.608744,3034.844362,-10066.800811,0.000000
794.609068,2738.761985,-10288.862594,0.000000
794.609392,1258.350101,-10288.862594,-153.219100
794.609716,-148.041188,-10436.903782,0.000000
794.610041,-962.267725,-9992.780217,0.000000
794.610365,-1332.370696,-9844.739029,-153.219100
794.610689,-962.267725,-10066.800811,306.438199
794.611013,-222.061783,-10140.821405,536.266849
794.611338,592.164754,-9400.615463,842.705048
794.611662,888.247130,-9104.533087,459.657299
794.611986,370.102971,-9252.574275,0.000000
794.612310,-1036.288319,-9178.553681,-153.219100
794.612634,-2294.638420,-9326.594869,-229.828649
794.612959,-2368.659014,-9696.697840,-383.047749
794.613283,-1924.535449,-9548.656652,-1072.533697
794.613607,-1480.411884,-9622.677246,-1149.143247
794.613931,0.000000,-10066.800811,-995.924147
794.614256,1480.411884,-10066.800811,-459.657299
794.614580,2738.761985,-10436.903782,76.609550
794.614904,2960.823768,-10436.903782,229.828649
794.615228,1406.391290,-9844.739029,153.219100
794.615553,222.061783,-9844.739029,76.609550
794.615877,-666.185348,-10732.986159,229.828649
794.616201,-1332.370696,-9770.718434,76.609550
794.616525,-1258.350101,-9696.697840,459.657299
794.616849,-592.164754,-9400.615463,842.705048
794.617174,666.185348,-8660.409521,1225.752797
794.617498,1332.370696,-8734.430116,842.705048
794.617822,1258.350101,-9252.574275,766.095498
794.618146,0.000000,-9178.553681,153.219100
794.618471,-1554.432478,-9178.553681,-536.266849
794.618795,-2368.659014,-8956.491898,-1072.533697
794.619119,-2220.617826,-9178.553681,-1149.143247
794.619443,-1110.308913,-9474.636058,-1225.752797
794.619767,222.061783,-9696.697840,-1225.752797
794.620092,2072.576638,-9326.594869,-689.485948
794.620416,3256.906145,-9696.697840,-306.438199
794.620740,3108.864956,-9992.780217,0.000000
794.621064,2368.659014,-10214.842000,0.000000
794.621389,1258.350101,-10732.986159,229.828649
794.621713,-296.082377,-10732.986159,76.609550
794.622037,-1406.391290,-10140.821405,153.219100
794.622361,-1554.432478,-9622.677246,0.000000
794.622686,-1036.288319,-9474.636058,-153.219100
794.623010,444.123565,-9474.636058,459.657299
794.623334,888.247130,-9326.594869,383.047749
794.623658,444.123565,-9252.574275,0.000000
794.623982,-370.102971,-9252.574275,-459.657299
794.624307,-1776.494261,-9474.636058,-1225.752797
794.624631,-2516.700203,-9548.656652,-1378.971896
794.624955,-2812.782580,-9696.697840,-1532.190996
794.625279,-1702.473667,-9548.656652,-995.924147
794.625604,444.123565,-9992.780217,-536.266849
794.625928,1998.556043,-10140.821405,-689.485948
794.626252,2960.823768,-10288.862594,-153.219100
794.626576,3034.844362,-10658.965565,153.219100
794.626900,2146.597232,-10807.006753,0.000000
794.627225,666.185348,-10732.986159,-306.438199
794.627549,-1110.308913,-10807.006753,-229.828649
794.627873,-1998.556043,-9770.718434,306.438199
794.628197,-1850.514855,-10732.986159,306.438199
794.628522,-1258.350101,-10066.800811,536.266849
794.628846,-370.102971,-9474.636058,842.705048
794.629170,518.144159,-9030.512492,919.314598
794.629494,1110.308913,-8808.450710,842.705048
794.629819,74.020594,-8586.388927,612.876398
794.630143,-1036.288319,-8956.491898,153.219100
794.630467,-2146.597232,-9400.615463,76.609550
794.630791,-2368.659014,-8808.450710,-919.314598
794.631115,-2146.597232,-9030.512492,-766.095498
794.631440,-518.144159,-9104.533087,-383.047749
794.631764,1776.494261,-9548.656652,0.000000
794.632088,3034.844362,-9696.697840,229.828649
794.632412,3997.112087,-9622.677246,1149.143247
794.632737,2886.803174,-9252.574275,842.705048
794.633061,1776.494261,-10066.800811,383.047749
794.633385,74.020594,-9992.780217,459.657299
794.633709,-1036.288319,-9844.739029,459.657299
794.634033,-1702.473667,-9992.780217,383.047749
794.634358,-1184.329507,-10288.862594,995.924147
794.634682,-518.144159,-9548.656652,1149.143247
794.635006,296.082377,-9252.574275,1302.362347
794.635330,518.144159,-9474.636058,459.657299
794.635655,0.000000,-9326.594869,76.609550
794.635979,-1554.432478,-9474.636058,-229.828649
794.636303,-2442.679609,-9474.636058,-689.485948
794.636627,-2812.782580,-9400.615463,-995.924147
794.636952,-2294.638420,-9252.574275,-1072.533697
794.637276,-1110.308913,-9326.594869,-612.876398
794.637600,1184.329507,-9622.677246,612.876398
794.637924,3034.844362,-9918.759623,306.438199
794.638248,3701.029710,-9992.780217,459.657299
794.638573,3034.844362,-10214.842000,383.047749
794.638897,1332.370696,-10214.842000,229.828649
794.639221,-444.123565,-10436.903782,459.657299
794.639545,-962.267725,-10436.903782,459.657299
794.639870,-2146.597232,-9844.739029,383.047749
794.640194,-1702.473667,-9918.759623,612.876398
794.640518,-370.102971,-9474.636058,766.095498
794.640842,666.185348,-9326.594869,1225.752797
794.641166,1332.370696,-9178.553681,689.485948
794.641491,296.082377,-9326.594869,229.828649
794.641815,-1110.308913,-9030.512492,-306.438199
794.642139,-2442.679609,-8956.491898,-229.828649
794.642463,-3034.844362,-9252.574275,-1532.190996
794.642788,-2960.823768,-9770.718434,-1378.971896
794.643112,-1776.494261,-9992.780217,-1532.190996
794.643436,370.102971,-10066.800811,-1072.533697
794.643760,2294.638420,-9992.780217,-536.266849
794.644085,3182.885551,-10584.944971,-842.705048
794.644409,3034.844362,-10658.965565,1072.533697
794.644733,2146.597232,-10288.862594,612.876398
794.645057,518.144159,-10436.903782,153.219100
794.645381,-444.123565,-10584.944971,0.000000
794.645706,-1036.288319,-9918.759623,-153.219100
794.646030,-814.226536,-9770.718434,0.000000
794.646354,0.000000,-9252.574275,-306.438199
794.646678,1406.391290,-9400.615463,76.609550
794.647003,1406.391290,-8438.347739,306.438199
794.647327,962.267725,-8882.471304,0.000000
794.647651,-666.185348,-8882.471304,-842.705048
794.647975,-1924.535449,-9030.512492,-1685.410096
794.648299,-1924.535449,-9178.553681,-1608.800546
794.648624,-1924.535449,-9030.512492,-1685.410096
794.648948,-518.144159,-9400.615463,-842.705048
794.649272,1036.288319,-9548.656652,-306.438199
794.649596,3108.864956,-9622.677246,-306.438199
794.649921,3552.988522,-10288.862594,-229.828649
794.650245,3182.885551,-10807.006753,0.000000
794.650569,1554.432478,-10658.965565,-153.219100
794.650893,-222.061783,-10732.986159,0.000000
794.651218,-1332.370696,-10436.903782,-689.485948
794.651542,-1628.453072,-10066.800811,-383.047749
794.651866,-1628.453072,-9696.697840,-306.438199
794.652190,-1406.391290,-9622.677246,-536.266849
794.652514,0.000000,-9252.574275,383.047749
794.652839,814.226536,-9178.553681,383.047749
794.653163,666.185348,-9030.512492,306.438199
794.653487,-222.061783,-9326.594869,0.000000
794.653811,-1924.535449,-9474.636058,-1072.533697
794.654136,-2960.823768,-9474.636058,-1149.143247
794.654460,-3627.009116,-9030.512492,-1608.800546
794.654784,-2368.659014,-9178.553681,-919.314598
794.655108,-666.185348,-9548.656652,-1149.143247
794.655432,1406.391290,-9548.656652,-459.657299
794.655757,2812.782580,-9844.739029,306.438199
794.656081,3034.844362,-10066.800811,766.095498
794.656405,2664.741391,-9992.780217,459.657299
794.656729,1110.308913,-9770.718434,459.657299
794.657054,-296.082377,-9918.759623,459.657299
794.657378,-1332.370696,-10214.842000,459.657299
794.657702,-1554.432478,-10288.862594,459.657299
794.658026,-962.267725,-9844.739029,612.876398
794.658351,148.041188,-9400.615463,383.047749
794.658675,1036.288319,-9474.636058,919.314598
794.658999,1184.329507,-8956.491898,995.924147
794.659323,-148.041188,-9104.533087,306.438199
794.659647,-1110.308913,-9548.656652,76.609550
794.659972,-2220.617826,-9400.615463,-306.438199
794.660296,-2442.679609,-9030.512492,-536.266849
794.660620,-1776.494261,-9252.574275,-229.828649
794.660944,-222.061783,-9622.677246,306.438199
794.661269,1480.411884,-9992.780217,612.876398
794.661593,2442.679609,-9844.739029,459.657299
794.661917,3182.885551,-10288.862594,766.095498
794.662241,2072.576638,-10214.842000,612.876398
794.662565,444.123565,-10362.883188,383.047749
794.662890,-1184.329507,-10510.924376,0.000000
794.663214,-2072.576638,-10214.842000,153.219100
794.663538,-2294.638420,-9696.697840,612.876398
794.663862,-1776.494261,-9030.512492,0.000000
794.664187,-296.082377,-9474.636058,919.314598
794.664511,1258.350101,-9474.636058,995.924147
794.664835,1258.350101,-9104.533087,1225.752797
794.665159,74.020594,-9326.594869,766.095498
794.665484,-1554.432478,-9252.574275,0.000000
794.665808,-2886.803174,-9548.656652,0.000000
794.666132,-2738.761985,-9400.615463,-919.314598
794.666456,-2590.720797,-9030.512492,-1072.533697
794.666780,-518.144159,-9548.656652,-689.485948
794.667105,1110.308913,-9548.656652,-306.438199
794.667429,2590.720797,-9770.718434,0.000000
794.667753,2960.823768,-9844.739029,153.219100
794.668077,2516.700203,-10140.821405,0.000000
794.668402,1332.370696,-9992.780217,536.266849
794.668726,0.000000,-10362.883188,0.000000
794.669050,-814.226536,-10066.800811,459.657299
794.669374,-1480.411884,-9770.718434,306.438199
794.669698,-1184.329507,-9770.718434,153.219100
794.670023,0.000000,-9474.636058,536.266849
794.670347,888.247130,-9252.574275,536.266849
794.670671,1554.432478,-9474.636058,766.095498
794.670995,296.082377,-9326.594869,76.609550
794.671320,-888.247130,-9400.615463,229.828649
794.671644,-1998.556043,-9844.739029,-536.266849
794.671968,-2664.741391,-9474.636058,-1072.533697
794.672292,-2368.659014,-9252.574275,-1302.362347
794.672617,-962.267725,-9400.615463,-1149.143247
794.672941,962.267725,-9696.697840,-612.876398
794.673265,2516.700203,-9474.636058,229.828649
794.673589,4145.153275,-10807.006753,383.047749
794.673913,3108.864956,-9918.759623,0.000000
794.674238,1628.453072,-10214.842000,153.219100
794.674562,-370.102971,-10436.903782,0.000000
794.674886,-1776.494261,-10288.862594,-459.657299
794.675210,-2368.659014,-10066.800811,-153.219100
794.675535,-2146.597232,-9844.739029,229.828649
794.675859,-740.205942,-9326.594869,689.485948
794.676183,666.185348,-9474.636058,612.876398
794.676507,1184.329507,-8882.471304,995.924147
794.676831,444.123565,-9030.512492,383.047749
794.677156,-666.185348,-9252.574275,-383.047749
794.677480,-2146.597232,-9400.615463,-689.485948
794.677804,-2516.700203,-9326.594869,-995.924147
794.678128,-1998.556043,-9252.574275,-1225.752797
794.678453,-1184.329507,-9474.636058,-306.438199
794.678777,1110.308913,-9696.697840,0.000000
794.679101,2516.700203,-9400.615463,153.219100
794.679425,3701.029710,-9770.718434,229.828649
794.679750,3404.947333,-9992.780217,459.657299
794.680074,2072.576638,-10214.842000,76.609550
794.680398,444.123565,-10214.842000,229.828649
794.680722,-962.267725,-9918.759623,-153.219100
794.681046,-1480.411884,-9548.656652,0.000000
794.681371,-1776.494261,-9474.636058,153.219100
794.681695,-888.247130,-9400.615463,153.219100
794.682019,222.061783,-9252.574275,153.219100
794.682343,888.247130,-9178.553681,306.438199
794.682668,592.164754,-9400.615463,76.609550
794.682992,-444.123565,-9622.677246,0.000000
794.683316,-1850.514855,-9400.615463,-536.266849
794.683640,-2516.700203,-9548.656652,-995.924147
794.683964,-2368.659014,-9474.636058,-1762.019645
794.684289,-1406.391290,-9844.739029,-1072.533697
794.684613,148.041188,-9844.739029,-995.924147
794.684937,1776.494261,-9844.739029,-612.876398
794.685261,3256.906145,-10140.821405,0.000000
794.685586,3034.844362,-10214.842000,-153.219100
794.685910,1628.453072,-10288.862594,153.219100
794.686234,-148.041188,-10214.842000,-153.219100
794.686558,-1628.453072,-10288.862594,-459.657299
794.686883,-2072.576638,-10214.842000,-306.438199
794.687207,-2294.638420,-9844.739029,0.000000
794.687531,-1406.391290,-9622.677246,76.609550
794.687855,296.082377,-9252.574275,1225.752797
794.688179,1258.350101,-9400.615463,1378.971896
794.688504,1258.350101,-9252.574275,612.876398
794.688828,-370.102971,-9400.615463,76.609550
794.689152,-1850.514855,-9474.636058,-229.828649
794.689476,-2442.679609,-9622.677246,-689.485948
794.689801,-2294.638420,-9696.697840,-842.705048
794.690125,-1332.370696,-9918.759623,-612.876398
794.690449,222.061783,-9844.739029,-306.438199
794.690773,2220.617826,-9770.718434,-153.219100
794.691097,3552.988522,-9474.636058,766.095498
794.691421,3627.009116,-10140.821405,459.657299
794.691745,2812.782580,-9992.780217,536.266849
794.692069,1480.411884,-10066.800811,689.485948
794.692393,-296.082377,-9696.697840,766.095498
794.692718,-814.226536,-9844.739029,536.266849
794.693042,-888.247130,-10066.800811,1149.143247
794.693366,-592.164754,-9696.697840,1302.362347
794.693690,0.000000,-9030.512492,842.705048
794.694014,592.164754,-8882.471304,995.924147
794.694338,518.144159,-9252.574275,995.924147
794.694662,-370.102971,-8956.491898,459.657299
794.694986,-1924.535449,-8808.450710,153.219100
794.695310,-2738.761985,-8882.471304,-459.657299
794.695634,-2738.761985,-8956.491898,-459.657299
794.695958,-1850.514855,-9326.594869,0.000000
794.696282,-296.082377,-9400.615463,-306.438199
794.696607,1110.308913,-9474.636058,-306.438199
794.696931,2294.638420,-10066.800811,0.000000
794.697255,2368.659014,-10510.924376,229.828649
794.697579,1480.411884,-10436.903782,383.047749
794.697903,0.000000,-10732.986159,0.000000
794.698227,-1258.350101,-10658.965565,0.000000
794.698551,-1924.535449,-10658.965565,153.219100
794.698875,-2664.741391,-10140.821405,306.438199
794.699199,-2146.597232,-9992.780217,612.876398
794.699523,-888.247130,-9548.656652,1149.143247
794.699847,814.226536,-9178.553681,1455.581446
794.700171,1480.411884,-9030.512492,1225.752797
794.700495,370.102971,-9030.512492,1072.533697
794.700820,-1258.350101,-9474.636058,0.000000
794.701144,-2516.700203,-9474.636058,-612.876398
794.701468,-3108.864956,-9400.615463,-995.924147
794.701792,-2220.617826,-9474.636058,-995.924147
794.702116,-740.205942,-9696.697840,-229.828649
794.702440,1332.370696,-10140.821405,-306.438199
794.702764,2886.803174,-9400.615463,0.000000
794.703088,4367.215058,-9622.677246,76.609550
794.703412,4071.132681,-10584.944971,0.000000
794.703736,2368.659014,-10288.862594,0.000000
794.704060,666.185348,-10066.800811,-229.828649
794.704384,-296.082377,-10066.800811,-153.219100
794.704709,-592.164754,-9918.759623,-153.219100
794.705033,-888.247130,-9844.739029,0.000000
794.705357,74.020594,-9622.677246,536.266849
794.705681,1110.308913,-9104.533087,689.485948
794.706005,1628.453072,-9252.574275,229.828649
794.706329,1110.308913,-8808.450710,0.000000
794.706653,0.000000,-9178.553681,-229.828649
794.706977,-1554.432478,-9326.594869,-1072.533697
794.707301,-2294.638420,-9178.553681,-1532.190996
794.707625,-2368.659014,-9178.553681,-1225.752797
794.707949,-1406.391290,-9400.615463,-1838.629195
794.708273,222.061783,-9178.553681,-995.924147
794.708598,2368.659014,-9474.636058,-842.705048
794.708922,3108.864956,-10140.821405,-766.095498
794.709246,2664.741391,-10362.883188,-536.266849
794.709570,1480.411884,-10362.883188,-459.657299
794.709894,-148.041188,-10436.903782,-612.876398
794.710218,-1480.411884,-9918.759623,-919.314598
794.710542,-2220.617826,-9992.780217,-306.438199
794.710866,-2146.597232,-10066.800811,0.000000
794.711190,-888.247130,-9770.718434,153.219100
794.711514,518.144159,-9622.677246,689.485948
794.711838,1628.453072,-9178.553681,919.314598
794.712162,444.123565,-9474.636058,536.266849
794.712486,-1554.432478,-9770.718434,-612.876398
794.712811,-3404.947333,-9326.594869,-995.924147
794.713135,-4515.256246,-9770.718434,-1608.800546
794.713459,-3552.988522,-9400.615463,-1915.238745
794.713783,-1998.556043,-9474.636058,-1455.581446
794.714107,148.041188,-9696.697840,-919.314598
794.714431,2590.720797,-9696.697840,-383.047749
794.714755,4071.132681,-10066.800811,229.828649
794.715079,3997.112087,-10510.924376,689.485948
794.715403,3108.864956,-10584.944971,689.485948
794.715727,1036.288319,-10510.924376,383.047749
794.716051,-296.082377,-10807.006753,383.047749
794.716375,-1258.350101,-11029.068536,229.828649
794.716700,-1184.329507,-10658.965565,306.438199
794.717024,-518.144159,-9918.759623,689.485948
794.717348,74.020594,-9104.533087,536.266849
794.717672,370.102971,-9178.553681,689.485948
794.717996,740.205942,-9252.574275,-306.438199
794.718320,-148.041188,-9252.574275,0.000000
794.718644,-1480.411884,-9030.512492,0.000000
794.718968,-2220.617826,-9104.533087,-153.219100
794.719292,-2220.617826,-9252.574275,-383.047749
794.719616,-1184.329507,-8956.491898,-306.438199
794.719940,148.041188,-9474.636058,-229.828649
794.720264,1332.370696,-9622.677246,229.828649
794.720588,2442.679609,-9844.739029,842.705048
794.720913,2738.761985,-9992.780217,919.314598
794.721237,1998.556043,-9844.739029,766.095498
794.721561,222.061783,-9918.759623,536.266849
794.721885,-1406.391290,-9844.739029,383.047749
794.722209,-2146.597232,-9474.636058,306.438199
794.722533,-1850.514855,-9400.615463,1149.143247
794.722857,-888.247130,-9104.533087,1532.190996
794.723181,296.082377,-9326.594869,1455.581446
794.723505,1184.329507,-8660.409521,1838.629195
794.723829,1332.370696,-8660.409521,1532.190996
794.724153,-222.061783,-9474.636058,1302.362347
794.724477,-2368.659014,-9326.594869,383.047749
794.724802,-3108.864956,-9474.636058,-306.438199
794.725126,-3256.906145,-9252.574275,-766.095498
794.725450,-2368.659014,-9548.656652,-766.095498
794.725774,-962.267725,-9770.718434,-536.266849
794.726098,1036.288319,-9696.697840,-306.438199
794.726422,1924.535449,-9770.718434,0.000000
794.726746,3034.844362,-10584.944971,306.438199
794.727070,2368.659014,-10584.944971,229.828649
794.727394,1184.329507,-10955.047942,76.609550
794.727718,0.000000,-10955.047942,0.000000
794.728042,-518.144159,-10214.842000,383.047749
794.728366,-888.247130,-10066.800811,536.266849
794.728691,-518.144159,-10066.800811,459.657299
794.729015,518.144159,-9992.780217,766.095498
794.729339,1332.370696,-9474.636058,689.485948
794.729663,1184.329507,-9252.574275,459.657299
794.729987,148.041188,-9400.615463,76.609550
794.730311,-1184.329507,-9252.574275,-536.266849
794.730635,-2072.576638,-9252.574275,-995.924147
794.730959,-2220.617826,-9326.594869,-1378.971896
794.731283,-2294.638420,-8956.491898,-1685.410096
794.731607,-1332.370696,-8882.471304,-919.314598
794.731931,814.226536,-9400.615463,-995.924147
794.732255,2442.679609,-9474.636058,-536.266849
794.732579,3256.906145,-9992.780217,-229.828649
794.732904,2442.679609,-9992.780217,76.609550
794.733228,1258.350101,-10362.883188,76.609550
794.733552,-148.041188,-10362.883188,0.000000
794.733876,-1036.288319,-10362.883188,383.047749
794.734200,-1998.556043,-10066.800811,306.438199
794.734524,-1480.411884,-9844.739029,229.828649
794.734848,-370.102971,-9474.636058,459.657299
794.735172,740.205942,-9178.553681,842.705048
794.735496,1036.288319,-9326.594869,536.266849
794.735820,148.041188,-8808.450710,153.219100
794.736144,-962.267725,-9030.512492,-306.438199
794.736468,-3034.844362,-8808.450710,-1378.971896
794.736793,-3034.844362,-9030.512492,-1762.019645
794.737117,-2294.638420,-9400.615463,-1532.190996
794.737441,-592.164754,-9622.677246,-1378.971896
794.737765,1554.432478,-9474.636058,-1455.581446
794.738089,2960.823768,-9770.718434,-689.485948
794.738413,3256.906145,-10066.800811,0.000000
794.738737,3404.947333,-10510.924376,-153.219100
794.739061,1924.535449,-10955.047942,0.000000
794.739385,0.000000,-10436.903782,0.000000
794.739709,-518.144159,-10362.883188,-536.266849
794.740033,-1036.288319,-10510.924376,0.000000
794.740357,-1184.329507,-9918.759623,153.219100
794.740681,-592.164754,-9770.718434,536.266849
794.741006,148.041188,-9622.677246,383.047749
794.741330,740.205942,-9178.553681,306.438199
794.741654,0.000000,-9400.615463,76.609550
794.741978,-1258.350101,-9770.718434,-383.047749
794.742302,-2368.659014,-9474.636058,-842.705048
794.742626,-2738.761985,-9178.553681,-1072.533697
794.742950,-2442.679609,-9104.533087,-1149.143247
794.743274,-1110.308913,-9252.574275,-995.924147
794.743598,888.247130,-9474.636058,-689.485948
794.743922,2442.679609,-9548.656652,-383.047749
794.744246,3404.947333,-9622.677246,-229.828649
794.744570,3182.885551,-9844.739029,153.219100
794.744895,1850.514855,-9992.780217,306.438199
794.745219,370.102971,-10140.821405,76.609550
794.745543,-814.226536,-10214.842000,76.609550
794.745867,-1406.391290,-10140.821405,995.924147
794.746191,-1924.535449,-9622.677246,612.876398
794.746515,-1406.391290,-9252.574275,842.705048
794.746839,-370.102971,-8956.491898,1302.362347
794.747163,444.123565,-9104.533087,1302.362347
794.747487,1036.288319,-9030.512492,1762.019645
794.747811,-592.164754,-8808.450710,1149.143247
794.748135,-1998.556043,-8512.368333,306.438199
794.748459,-2590.720797,-9178.553681,-766.095498
794.748783,-2590.720797,-9252.574275,-1072.533697
794.749108,-1628.453072,-9474.636058,-689.485948
794.749432,296.082377,-9770.718434,-612.876398
794.749756,2220.617826,-10066.800811,-153.219100
794.750080,3256.906145,-10214.842000,306.438199
794.750404,3849.070898,-10807.006753,536.266849
794.750728,2590.720797,-10362.883188,459.657299
794.751052,1258.350101,-10288.862594,842.705048
794.751376,0.000000,-10436.903782,383.047749
794.751700,-962.267725,-10066.800811,536.266849
794.752024,-1258.350101,-9992.780217,689.485948
794.752348,-888.247130,-9844.739029,842.705048
794.752672,0.000000,-9104.533087,995.924147
794.752997,296.082377,-9030.512492,919.314598
794.753321,444.123565,-9030.512492,536.266849
794.753645,-1036.288319,-9030.512492,306.438199
794.753969,-1702.473667,-9622.677246,-229.828649
794.754293,-2738.761985,-9474.636058,-842.705048
794.754617,-2960.823768,-9696.697840,-1302.362347
794.754941,-2072.576638,-9622.677246,-1302.362347
794.755265,-518.144159,-9918.759623,-1072.533697
794.755589,1110.308913,-9844.739029,-536.266849
794.755913,2812.782580,-10436.903782,0.000000
794.756237,3256.906145,-10510.924376,153.219100
794.756561,2516.700203,-10658.965565,76.609550
794.756886,888.247130,-10436.903782,229.828649
794.757210,-814.226536,-10288.862594,0.000000
794.757534,-2368.659014,-9474.636058,76.609550
794.757858,-2368.659014,-9770.718434,229.828649
794.758182,-1554.432478,-9178.553681,536.266849
794.758506,0.000000,-8882.471304,536.266849
794.758830,814.226536,-8808.450710,842.705048
794.759154,1036.288319,-8512.368333,229.828649
794.759478,74.020594,-8660.409521,76.609550
794.759802,-1628.453072,-9252.574275,-306.438199
794.760126,-2664.741391,-9178.553681,-1378.971896
794.760450,-2664.741391,-8882.471304,-1072.533697
794.760774,-2294.638420,-9104.533087,-1302.362347
794.761099,-518.144159,-9474.636058,-919.314598
794.761423,1554.432478,-9992.780217,-689.485948
794.761747,2960.823768,-10214.842000,-383.047749
794.762071,3478.967927,-10066.800811,153.219100
794.762395,3404.947333,-10510.924376,612.876398
794.762719,1184.329507,-10658.965565,0.000000
794.763043,74.020594,-10658.965565,-306.438199
794.763367,-962.267725,-10510.924376,-612.876398
794.763691,-888.247130,-10362.883188,0.000000
794.764015,-148.041188,-10214.842000,229.828649
794.764339,370.102971,-9844.739029,612.876398
794.764663,1036.288319,-9548.656652,1225.752797
794.764988,1480.411884,-9400.615463,612.876398
794.765312,370.102971,-9400.615463,0.000000
794.765636,-1332.370696,-9178.553681,0.000000
794.765960,-2146.597232,-9326.594869,-995.924147
794.766284,-1998.556043,-9252.574275,-1149.143247
794.766608,-1480.411884,-8956.491898,-1225.752797
794.766932,-592.164754,-9178.553681,-919.314598
794.767256,666.185348,-9400.615463,-1225.752797
794.767580,2294.638420,-9696.697840,-459.657299
794.767904,2516.700203,-9770.718434,0.000000
794.768228,2220.617826,-9992.780217,-306.438199
794.768552,1036.288319,-9992.780217,-229.828649
794.768876,-148.041188,-10436.903782,0.000000
794.769201,-1110.308913,-10584.944971,76.609550
794.769525,-1628.453072,-9844.739029,306.438199
794.769849,-1332.370696,-9770.718434,1072.533697
794.770173,-444.123565,-9474.636058,1302.362347
794.770497,1258.350101,-9622.677246,1225.752797
794.770821,1332.370696,-9474.636058,1072.533697
794.771145,222.061783,-9474.636058,459.657299
794.771469,-1554.432478,-9178.553681,-383.047749
794.771793,-2886.803174,-9326.594869,-689.485948
794.772117,-3330.926739,-8956.491898,-1455.581446
794.772441,-3108.864956,-8734.430116,-1762.019645
794.772765,-1924.535449,-9252.574275,-919.314598
794.773090,370.102971,-9326.594869,-1072.533697
794.773414,2294.638420,-9548.656652,-306.438199
794.773738,3775.050304,-10214.842000,0.000000
794.774062,3775.050304,-10510.924376,459.657299
794.774386,2664.741391,-10066.800811,919.314598
794.774710,1258.350101,-10658.965565,612.876398
794.775034,0.000000,-10732.986159,689.485948
794.775358,-1184.329507,-10066.800811,536.266849
794.775682,-1036.288319,-9918.759623,153.219100
794.776006,-296.082377,-9474.636058,536.266849
794.776330,666.185348,-9326.594869,229.828649
794.776654,1628.453072,-9252.574275,612.876398
794.776978,888.247130,-8808.450710,229.828649
794.777303,-1110.308913,-8808.450710,-459.657299
794.777627,-1924.535449,-8882.471304,-919.314598
794.777951,-2738.761985,-9474.636058,-1225.752797
794.778275,-2812.782580,-9326.594869,-1072.533697
794.778599,-1702.473667,-9474.636058,-1072.533697
794.778923,0.000000,-9548.656652,-536.266849
794.779247,1998.556043,-9178.553681,0.000000
794.779571,2960.823768,-9770.718434,153.219100
794.779895,3182.885551,-10510.924376,536.266849
794.780219,1776.494261,-10140.821405,306.438199
794.780543,222.061783,-10362.883188,229.828649
794.780867,-1036.288319,-10436.903782,76.609550
794.781192,-1776.494261,-10214.842000,0.000000
794.781516,-1850.514855,-9918.759623,689.485948
794.781840,-814.226536,-9918.759623,612.876398
794.782164,0.000000,-9844.739029,1072.533697
794.782488,888.247130,-9696.697840,1072.533697
794.782812,444.123565,-9104.533087,919.314598
794.783136,-888.247130,-9474.636058,459.657299
794.783460,-2442.679609,-9474.636058,-536.266849
794.783784,-3627.009116,-9474.636058,-919.314598
794.784108,-3701.029710,-8956.491898,-766.095498
794.784432,-2442.679609,-9400.615463,-995.924147
794.784756,-740.205942,-9104.533087,-536.266849
794.785081,1776.494261,-9474.636058,-76.609550
794.785405,2812.782580,-9918.759623,153.219100
794.785729,3108.864956,-10288.862594,229.828649
794.786053,2072.576638,-10584.944971,153.219100
794.786377,444.123565,-10362.883188,459.657299
794.786701,-148.041188,-10955.047942,612.876398
794.787025,-962.267725,-10436.903782,689.485948
794.787349,-666.185348,-9918.759623,995.924147
794.787673,0.000000,-9770.718434,919.314598
794.787997,1110.308913,-9252.574275,1378.971896
794.788321,1924.535449,-9030.512492,1455.581446
794.788645,1554.432478,-9178.553681,1149.143247
794.788969,222.061783,-9030.512492,536.266849
794.789294,-1258.350101,-9104.533087,0.000000
794.789618,-2886.803174,-8882.471304,-919.314598
794.789942,-2812.782580,-8660.409521,-1149.143247
794.790266,-2368.659014,-9178.553681,-919.314598
794.790590,-888.247130,-9252.574275,-919.314598
794.790914,888.247130,-9178.553681,-612.876398
794.791238,2516.700203,-9474.636058,0.000000
794.791562,3330.926739,-9844.739029,153.219100
794.791886,2812.782580,-9326.594869,-306.438199
794.792211,1480.411884,-10140.821405,76.609550
794.792535,-296.082377,-10140.821405,0.000000
794.792859,-814.226536,-10214.842000,0.000000
794.793183,-1110.308913,-9918.759623,383.047749
794.793507,-592.164754,-10066.800811,612.876398
794.793831,370.102971,-9696.697840,1149.143247
794.794156,1332.370696,-9918.759623,1225.752797
794.794480,1036.288319,-9548.656652,919.314598
794.794804,-222.061783,-9178.553681,-153.219100
794.795128,-2368.659014,-9474.636058,-1225.752797
794.795452,-3775.050304,-9400.615463,-1685.410096
794.795776,-3627.009116,-9474.636058,-1991.848295
794.796101,-2812.782580,-9696.697840,-1838.629195
794.796425,-1554.432478,-9474.636058,-1608.800546
794.796749,0.000000,-9252.574275,-1225.752797
794.797073,2368.659014,-9696.697840,-766.095498
794.797397,3330.926739,-10807.006753,-919.314598
794.797721,2960.823768,-11029.068536,-536.266849
794.798046,1480.411884,-11325.150913,-459.657299
794.798370,-222.061783,-11695.253884,-536.266849
794.798694,-1036.288319,-10807.006753,-383.047749
794.799018,-962.267725,-10584.944971,-229.828649
794.799342,-888.247130,-10436.903782,229.828649
794.799666,222.061783,-10140.821405,459.657299
794.799991,1628.453072,-9770.718434,612.876398
794.800315,1850.514855,-8882.471304,689.485948
794.800639,1110.308913,-9030.512492,383.047749
794.800963,-296.082377,-9548.656652,-153.219100
794.801287,-1924.535449,-9326.594869,-1302.362347
794.801611,-2812.782580,-8660.409521,-1302.362347
794.801936,-2664.741391,-8586.388927,-1532.190996
794.802260,-1480.411884,-8882.471304,-1608.800546
794.802584,444.123565,-9030.512492,-919.314598
794.802908,2294.638420,-9104.533087,0.000000
794.803232,3256.906145,-9326.594869,0.000000
794.803556,3034.844362,-9548.656652,383.047749
794.803881,2072.576638,-9844.739029,612.876398
794.804205,0.000000,-9844.739029,766.095498
794.804529,-962.267725,-9992.780217,459.657299
794.804853,-1406.391290,-9474.636058,612.876398
794.805177,-1036.288319,-9474.636058,842.705048
794.805501,148.041188,-9326.594869,1149.143247
794.805826,1554.432478,-9252.574275,1455.581446
794.806150,1776.494261,-9030.512492,1302.362347
794.806474,1184.329507,-8808.450710,612.876398
794.806798,-814.226536,-9178.553681,153.219100
794.807122,-2516.700203,-9326.594869,-1225.752797
794.807446,-3330.926739,-8956.491898,-1072.533697
794.807771,-2960.823768,-8586.388927,-1225.752797
794.808095,-1998.556043,-8956.491898,-1149.143247
794.808419,-296.082377,-9400.615463,-919.314598
794.808743,1628.453072,-9104.533087,153.219100
794.809067,2368.659014,-9474.636058,-689.485948
794.809391,2368.659014,-10066.800811,0.000000
794.809716,1110.308913,-10584.944971,0.000000
794.810040,-222.061783,-10732.986159,153.219100
794.810364,-1258.350101,-10881.027347,76.609550
794.810688,-1554.432478,-11029.068536,306.438199
794.811012,-1184.329507,-11103.089130,612.876398
794.811336,-222.061783,-10658.965565,689.485948
794.811661,814.226536,-9918.759623,842.705048
794.811985,1628.453072,-10066.800811,919.314598
794.812309,1110.308913,-10066.800811,76.609550
794.812633,-296.082377,-10066.800811,0.000000
794.812957,-1850.514855,-10140.821405,-536.266849
794.813281,-2590.720797,-9770.718434,-1455.581446
794.813606,-2368.659014,-9178.553681,-1225.752797
794.813930,-1998.556043,-9326.594869,-612.876398
794.814254,-148.041188,-9844.739029,-919.314598
794.814578,1924.535449,-9622.677246,-383.047749
794.814902,2960.823768,-9474.636058,76.609550
794.815226,3034.844362,-9696.697840,153.219100
794.815551,1998.556043,-9548.656652,0.000000
794.815875,888.247130,-9622.677246,0.000000
794.816199,-814.226536,-9770.718434,0.000000
794.816523,-1406.391290,-9992.780217,0.000000
794.816847,-1850.514855,-9622.677246,383.047749
794.817171,-888.247130,-9474.636058,612.876398
794.817496,814.226536,-9178.553681,1149.143247
794.817820,1776.494261,-9252.574275,1072.533697
794.818144,1406.391290,-9474.636058,766.095498
794.818468,-296.082377,-8882.471304,229.828649
794.818792,-2072.576638,-9104.533087,76.609550
794.819116,-2960.823768,-9474.636058,-536.266849
794.819441,-3256.906145,-9030.512492,-919.314598
794.819765,-2516.700203,-8808.450710,-995.924147
794.820089,-1036.288319,-9104.533087,-995.924147
794.820413,592.164754,-9030.512492,-229.828649
794.820737,2516.700203,-9030.512492,0.000000
794.821061,3108.864956,-9696.697840,766.095498
794.821386,2368.659014,-9548.656652,536.266849
794.821710,740.205942,-9696.697840,306.438199
794.822034,-444.123565,-10066.800811,229.828649
794.822358,-814.226536,-10140.821405,306.438199
794.822682,-814.226536,-10066.800811,383.047749
794.823006,0.000000,-9696.697840,919.314598
794.823331,1036.288319,-9030.512492,842.705048
794.823655,1998.556043,-9104.533087,919.314598
794.823979,1776.494261,-9548.656652,1072.533697
794.824303,296.082377,-9696.697840,306.438199
794.824627,-1036.288319,-9918.759623,-383.047749
794.824951,-2590.720797,-9474.636058,-995.924147
794.825276,-3034.844362,-9252.574275,-1532.190996
794.825600,-2590.720797,-9326.594869,-1225.752797
794.825924,-1110.308913,-9918.759623,-1225.752797
794.826248,222.061783,-9178.553681,-995.924147
794.826572,2368.659014,-9548.656652,-536.266849
794.826896,2590.720797,-10214.842000,-612.876398
794.827221,2072.576638,-10362.883188,-612.876398
794.827545,740.205942,-10436.903782,-306.438199
794.827869,-666.185348,-10807.006753,-306.438199
794.828193,-740.205942,-10732.986159,0.000000
794.828517,-1332.370696,-10066.800811,0.000000
794.828841,0.000000,-10658.965565,612.876398
794.829166,1036.288319,-9992.780217,536.266849
794.829490,1850.514855,-10066.800811,612.876398
794.829814,1554.432478,-9992.780217,459.657299
794.830138,148.041188,-9696.697840,0.000000
794.830462,-1332.370696,-9326.594869,-919.314598
794.830786,-2590.720797,-9178.553681,-1762.019645
794.831110,-2812.782580,-9326.594869,-1378.971896
794.831435,-2812.782580,-8808.450710,-1685.410096
794.831759,-1406.391290,-9326.594869,-1532.190996
794.832083,444.123565,-9178.553681,-842.705048
794.832407,2294.638420,-9252.574275,-383.047749
794.832731,3034.844362,-9474.636058,536.266849
794.833055,2590.720797,-10140.821405,0.000000
794.833380,1554.432478,-10732.986159,689.485948
794.833704,-296.082377,-10362.883188,0.000000
794.834028,-1258.350101,-10436.903782,-153.219100
794.834352,-1702.473667,-10140.821405,76.609550
794.834676,-1258.350101,-9992.780217,0.000000
794.835000,-296.082377,-9548.656652,689.485948
794.835325,814.226536,-9104.533087,612.876398
794.835649,1406.391290,-8882.471304,383.047749
794.835973,1036.288319,-8808.450710,459.657299
794.836297,0.000000,-9030.512492,-76.609550
794.836621,-1850.514855,-9178.553681,-459.657299
794.836945,-2738.761985,-9252.574275,-919.314598
794.837270,-3108.864956,-9252.574275,-1072.533697
794.837594,-1850.514855,-9030.512492,-766.095498
794.837918,-148.041188,-8956.491898,-536.266849
794.838242,1924.535449,-9474.636058,-612.876398
794.838566,2738.761985,-9918.759623,-383.047749
794.838890,3034.844362,-9918.759623,306.438199
794.839215,1554.432478,-9696.697840,383.047749
794.839539,74.020594,-10362.883188,229.828649
794.839863,-1036.288319,-10436.903782,383.047749
794.840187,-1258.350101,-10140.821405,306.438199
794.840511,-814.226536,-10362.883188,689.485948
794.840835,-148.041188,-9918.759623,1532.190996
794.841160,1184.329507,-9622.677246,995.924147
794.841484,1332.370696,-9696.697840,842.705048
794.841808,962.267725,-9696.697840,612.876398
794.842132,-740.205942,-9548.656652,0.000000
794.842456,-2442.679609,-9548.656652,-536.266849
794.842780,-3182.885551,-9400.615463,-766.095498
794.843105,-2886.803174,-9030.512492,-689.485948
794.843429,-2146.597232,-8956.491898,-842.705048
794.843753,74.020594,-9622.677246,0.000000
794.844077,1998.556043,-9474.636058,76.609550
794.844401,3182.885551,-9918.759623,612.876398
794.844725,3256.906145,-10066.800811,306.438199
794.845050,1924.535449,-10066.800811,919.314598
794.845374,370.102971,-10436.903782,689.485948
794.845698,-592.164754,-10436.903782,689.485948
794.846022,-666.185348,-9844.739029,536.266849
794.846346,-518.144159,-9622.677246,536.266849
794.846670,222.061783,-10140.821405,1072.533697
794.846995,1036.288319,-9992.780217,1072.533697
794.847319,1406.391290,-9178.553681,1072.533697
794.847643,666.185348,-8734.430116,1225.752797
794.847967,-444.123565,-9548.656652,76.609550
794.848291,-1924.535449,-9326.594869,0.000000
794.848615,-2960.823768,-9030.512492,-153.219100
794.848940,-2960.823768,-9030.512492,-842.705048
794.849264,-1998.556043,-9030.512492,-536.266849
794.849588,-592.164754,-8956.491898,-995.924147
794.849912,962.267725,-8882.471304,0.000000
794.850236,2072.576638,-8808.450710,229.828649
794.850560,2812.782580,-9918.759623,229.828649
794.850885,2146.597232,-10066.800811,0.000000
794.851209,592.164754,-10362.883188,383.047749
794.851533,-666.185348,-9474.636058,383.047749
794.851857,-1110.308913,-9548.656652,0.000000
794.852181,-962.267725,-9992.780217,306.438199
794.852505,-222.061783,-9844.739029,459.657299
794.852830,740.205942,-9918.759623,766.095498
794.853154,1480.411884,-9400.615463,689.485948
794.853478,1554.432478,-8734.430116,459.657299
794.853802,0.000000,-8956.491898,0.000000
794.854126,-962.267725,-10362.883188,-995.924147
794.854450,-2738.761985,-9770.718434,-1532.190996
794.854775,-3034.844362,-9104.533087,-1532.190996
794.855099,-2664.741391,-9474.636058,-1762.019645
794.855423,-1554.432478,-10066.800811,-1915.238745
794.855747,370.102971,-10362.883188,-1532.190996
794.856071,2072.576638,-9622.677246,-842.705048
794.856395,3108.864956,-10362.883188,-612.876398
794.856720,2368.659014,-10732.986159,-536.266849
794.857044,1036.288319,-10732.986159,-536.266849
794.857368,0.000000,-10807.006753,-153.219100
794.857692,-592.164754,-10732.986159,-229.828649
794.858016,-222.061783,-10807.006753,-306.438199
794.858340,-222.061783,-10436.903782,153.219100
794.858665,1258.350101,-10214.842000,1149.143247
794.858989,1924.535449,-9400.615463,536.266849
794.859313,1702.473667,-9252.574275,0.000000
794.859637,370.102971,-9104.533087,-536.266849
794.859961,-1184.329507,-9474.636058,-1072.533697
794.860285,-2294.638420,-9104.533087,-1838.629195
794.860610,-3108.864956,-8364.327145,-1072.533697
794.860934,-2146.597232,-8808.450710,-1378.971896
794.861258,-592.164754,-9030.512492,-1532.190996
794.861582,888.247130,-8956.491898,-689.485948
794.861906,2442.679609,-9030.512492,-536.266849
794.862230,3034.844362,-9622.677246,0.000000
794.862555,2590.720797,-10140.821405,76.609550
794.862879,1480.411884,-10288.862594,153.219100
794.863203,0.000000,-11103.089130,229.828649
794.863527,-1998.556043,-10066.800811,153.219100
794.863851,-1776.494261,-10288.862594,229.828649
794.864175,-1554.432478,-9918.759623,306.438199
794.864500,222.061783,-9770.718434,995.924147
794.864824,1332.370696,-9326.594869,1072.533697
794.865148,1480.411884,-9178.553681,1072.533697
794.865472,592.164754,-8882.471304,842.705048
794.865796,-740.205942,-8586.388927,153.219100
794.866120,-2368.659014,-9252.574275,-766.095498
794.866445,-3404.947333,-9178.553681,-1302.362347
794.866769,-2960.823768,-8956.491898,-1149.143247
794.867093,-1628.453072,-9104.533087,-995.924147
794.867417,296.082377,-9252.574275,-612.876398
794.867741,1776.494261,-8660.409521,76.609550
794.868065,2220.617826,-9178.553681,306.438199
794.868390,2294.638420,-9622.677246,76.609550
794.868714,1110.308913,-10288.862594,536.266849
794.869038,-222.061783,-10658.965565,153.219100
794.869362,-962.267725,-10955.047942,76.609550
794.869686,-1258.350101,-10584.944971,76.609550
794.870010,-1036.288319,-10436.903782,689.485948
794.870335,518.144159,-9918.759623,536.266849
794.870659,1184.329507,-9844.739029,1302.362347
794.870983,1702.473667,-9770.718434,919.314598
794.871307,518.144159,-9918.759623,612.876398
794.871631,-888.247130,-9696.697840,153.219100
