#time,accel_x,accel_y,accel_z
9200.267262,296.082377,-9474.636058,-153.219100
9200.267586,222.061783,-9474.636058,-383.047749
9200.267910,222.061783,-9622.677246,-612.876398
9200.268234,0.000000,-9696.697840,-153.219100
9200.268558,0.000000,-9696.697840,-383.047749
9200.268882,0.000000,-9622.677246,-536.266849
9200.269206,222.061783,-9770.718434,76.609550
9200.269530,444.123565,-9548.656652,0.000000
9200.269854,222.061783,-9400.615463,0.000000
9200.270178,0.000000,-9474.636058,-153.219100
9200.270502,296.082377,-9474.636058,-229.828649
9200.270826,370.102971,-9696.697840,0.000000
9200.271150,74.020594,-9548.656652,0.000000
9200.271474,-148.041188,-9622.677246,-383.047749
9200.271798,-148.041188,-9622.677246,0.000000
9200.272122,0.000000,-9622.677246,-229.828649
9200.272446,370.102971,-9844.739029,229.828649
9200.272770,0.000000,-9696.697840,76.609550
9200.273094,0.000000,-9770.718434,0.000000
9200.273418,0.000000,-9770.718434,0.000000
9200.273742,0.000000,-9770.718434,0.000000
9200.274066,-222.061783,-9622.677246,0.000000
9200.274390,0.000000,-9844.739029,-153.219100
9200.274714,74.020594,-9696.697840,153.219100
9200.275038,0.000000,-9548.656652,0.000000
9200.275361,-296.082377,-9252.574275,383.047749
9200.275685,-444.123565,-9770.718434,-229.828649
9200.276009,-814.226536,-9548.656652,-306.438199
9200.276333,-222.061783,-9474.636058,0.000000
9200.276657,-296.082377,-9474.636058,76.609550
9200.276981,0.000000,-9548.656652,0.000000
9200.277305,0.000000,-9622.677246,76.609550
9200.277629,74.020594,-9474.636058,153.219100
9200.277953,148.041188,-9474.636058,76.609550
9200.278277,0.000000,-9474.636058,76.609550
9200.278601,-222.061783,-9918.759623,76.609550
9200.278925,-444.123565,-9622.677246,-306.438199
9200.279249,0.000000,-9918.759623,-229.828649
9200.279573,74.020594,-9918.759623,0.000000
9200.279897,74.020594,-9992.780217,306.438199
9200.280221,0.000000,-9844.739029,-842.705048
9200.280545,222.061783,-9474.636058,0.000000
9200.280869,222.061783,-9474.636058,0.000000
9200.281193,148.041188,-9622.677246,0.000000
9200.281517,296.082377,-9844.739029,-459.657299
9200.281841,222.061783,-9622.677246,-383.047749
9200.282165,74.020594,-9474.636058,-612.876398
9200.282489,296.082377,-9548.656652,229.828649
9200.282813,222.061783,-9844.739029,0.000000
9200.283137,148.041188,-9992.780217,0.000000
9200.283461,0.000000,-9770.718434,-229.828649
9200.283785,0.000000,-9474.636058,0.000000
9200.284109,-296.082377,-9104.533087,0.000000
9200.284433,518.144159,-9696.697840,536.266849
9200.284757,518.144159,-9696.697840,459.657299
9200.285081,148.041188,-9548.656652,0.000000
9200.285405,-222.061783,-9548.656652,0.000000
9200.285729,0.000000,-9622.677246,-229.828649
9200.286053,0.000000,-9696.697840,-306.438199
9200.286377,74.020594,-9992.780217,153.219100
9200.286701,0.000000,-9770.718434,459.657299
9200.287025,0.000000,-10066.800811,-306.438199
9200.287349,0.000000,-9622.677246,383.047749
9200.287673,0.000000,-9622.677246,-153.219100
9200.287997,-222.061783,-9696.697840,0.000000
9200.288321,-296.082377,-9622.677246,0.000000
9200.288645,0.000000,-9770.718434,-153.219100
9200.288969,74.020594,-9918.759623,153.219100
9200.289293,74.020594,-9770.718434,-306.438199
9200.289617,-592.164754,-9548.656652,-306.438199
9200.289941,-222.061783,-9622.677246,0.000000
9200.290265,-148.041188,-9770.718434,153.219100
9200.290589,0.000000,-9918.759623,0.000000
9200.290913,-296.082377,-9770.718434,0.000000
9200.291237,-296.082377,-9622.677246,-383.047749
9200.291561,74.020594,-9474.636058,0.000000
9200.291885,74.020594,-9770.718434,-536.266849
9200.292209,0.000000,-9770.718434,229.828649
9200.292533,0.000000,-9696.697840,76.609550
9200.292857,-296.082377,-9474.636058,-153.219100
9200.293180,0.000000,-9622.677246,0.000000
9200.293504,-148.041188,-9696.697840,0.000000
9200.293828,148.041188,-9844.739029,-459.657299
9200.294152,222.061783,-9696.697840,-229.828649
9200.294476,-148.041188,-9474.636058,-229.828649
9200.294800,-222.061783,-9770.718434,-153.219100
9200.295124,0.000000,-10066.800811,76.609550
9200.295448,148.041188,-9400.615463,0.000000
9200.295772,296.082377,-9548.656652,76.609550
9200.296096,148.041188,-9992.780217,-229.828649
9200.296420,0.000000,-9696.697840,0.000000
9200.296744,0.000000,-9252.574275,-383.047749
9200.297068,296.082377,-9474.636058,0.000000
9200.297392,222.061783,-9474.636058,-306.438199
9200.297716,148.041188,-9696.697840,-383.047749
9200.298040,74.020594,-9696.697840,0.000000
9200.298364,0.000000,-9548.656652,0.000000
9200.298688,370.102971,-9622.677246,-153.219100
9200.299012,370.102971,-9474.636058,0.000000
9200.299336,518.144159,-9992.780217,229.828649
9200.299660,370.102971,-9770.718434,0.000000
9200.299984,370.102971,-9474.636058,153.219100
9200.300308,-296.082377,-9474.636058,0.000000
9200.300632,0.000000,-9474.636058,0.000000
9200.300956,-444.123565,-9400.615463,0.000000
9200.301280,-222.061783,-9696.697840,-306.438199
9200.301604,-222.061783,-9474.636058,0.000000
9200.301928,-148.041188,-9770.718434,0.000000
9200.302252,-222.061783,-9474.636058,0.000000
9200.302576,370.102971,-9474.636058,76.609550
9200.302900,0.000000,-9326.594869,-153.219100
9200.303224,-222.061783,-9474.636058,229.828649
9200.303548,0.000000,-9844.739029,0.000000
9200.303872,0.000000,-9696.697840,0.000000
9200.304196,-444.123565,-9696.697840,0.000000
9200.304520,-592.164754,-9548.656652,-383.047749
9200.304844,-592.164754,-9474.636058,-459.657299
9200.305168,-222.061783,-9622.677246,0.000000
9200.305492,148.041188,-9770.718434,0.000000
9200.305816,0.000000,-9696.697840,-383.047749
9200.306140,74.020594,-9770.718434,0.000000
9200.306464,148.041188,-9844.739029,0.000000
9200.306788,0.000000,-9770.718434,0.000000
9200.307112,0.000000,-9622.677246,-153.219100
9200.307436,0.000000,-9474.636058,-306.438199
9200.307760,-444.123565,-9326.594869,-306.438199
9200.308084,0.000000,-9696.697840,153.219100
9200.308408,-518.144159,-9696.697840,-229.828649
9200.308732,-148.041188,-9918.759623,0.000000
9200.309056,74.020594,-9548.656652,0.000000
9200.309380,148.041188,-9770.718434,0.000000
9200.309704,296.082377,-9178.553681,459.657299
9200.310028,444.123565,-9844.739029,153.219100
9200.310352,222.061783,-9474.636058,306.438199
9200.310676,444.123565,-9474.636058,0.000000
9200.311000,222.061783,-9770.718434,76.609550
9200.311324,0.000000,-9918.759623,0.000000
9200.311648,74.020594,-9770.718434,0.000000
9200.311972,0.000000,-9474.636058,0.000000
9200.312296,0.000000,-9400.615463,0.000000
9200.312620,74.020594,-9474.636058,-153.219100
9200.312944,370.102971,-9474.636058,-153.219100
9200.313268,74.020594,-9622.677246,0.000000
9200.313592,148.041188,-9696.697840,153.219100
9200.313916,148.041188,-9844.739029,0.000000
9200.314240,74.020594,-9548.656652,0.000000
9200.314564,-296.082377,-9178.553681,0.000000
9200.314888,0.000000,-9252.574275,459.657299
9200.315212,-148.041188,-9252.574275,-306.438199
9200.315536,-222.061783,-9474.636058,153.219100
9200.315860,0.000000,-9844.739029,0.000000
9200.316184,-296.082377,-9770.718434,76.609550
9200.316508,-444.123565,-9696.697840,-229.828649
9200.316832,-370.102971,-9474.636058,153.219100
9200.317156,-444.123565,-9474.636058,0.000000
9200.317480,0.000000,-9474.636058,229.828649
9200.317804,0.000000,-9400.615463,0.000000
9200.318128,0.000000,-9548.656652,0.000000
9200.318452,148.041188,-9696.697840,0.000000
9200.318776,0.000000,-9696.697840,306.438199
9200.319100,-296.082377,-9844.739029,76.609550
9200.319424,-370.102971,-9622.677246,383.047749
9200.319748,-222.061783,-9770.718434,153.219100
9200.320072,-74.020594,-9474.636058,459.657299
9200.320396,-222.061783,-9474.636058,-153.219100
9200.320720,-296.082377,-9992.780217,0.000000
9200.321044,0.000000,-9696.697840,0.000000
9200.321368,74.020594,-9548.656652,153.219100
9200.321692,0.000000,-9400.615463,0.000000
9200.322016,148.041188,-9696.697840,229.828649
9200.322340,0.000000,-9622.677246,0.000000
9200.322664,74.020594,-9474.636058,76.609550
9200.322988,-222.061783,-9622.677246,-229.828649
9200.323312,-370.102971,-9844.739029,-229.828649
9200.323636,-148.041188,-9992.780217,-153.219100
9200.323960,0.000000,-9770.718434,-306.438199
9200.324284,296.082377,-9474.636058,-153.219100
9200.324608,518.144159,-10140.821405,229.828649
9200.324932,222.061783,-9622.677246,536.266849
9200.325256,296.082377,-9844.739029,-536.266849
9200.325580,148.041188,-9474.636058,0.000000
9200.325904,0.000000,-9548.656652,0.000000
9200.326228,-296.082377,-9770.718434,0.000000
9200.326552,0.000000,-9474.636058,0.000000
9200.326876,0.000000,-9474.636058,153.219100
9200.327200,0.000000,-9474.636058,0.000000
9200.327524,148.041188,-9326.594869,0.000000
9200.327848,296.082377,-9770.718434,0.000000
9200.328172,222.061783,-9622.677246,0.000000
9200.328496,222.061783,-9622.677246,0.000000
9200.328820,148.041188,-9622.677246,0.000000
9200.329144,0.000000,-9696.697840,-229.828649
9200.329468,-222.061783,-10066.800811,153.219100
9200.329792,0.000000,-10214.842000,0.000000
9200.330116,0.000000,-9474.636058,-153.219100
9200.330440,-370.102971,-9844.739029,0.000000
9200.330764,0.000000,-10140.821405,-153.219100
9200.331088,0.000000,-9844.739029,0.000000
9200.331412,0.000000,-9474.636058,153.219100
9200.331736,0.000000,-9252.574275,76.609550
9200.332060,148.041188,-9104.533087,536.266849
9200.332384,0.000000,-9474.636058,76.609550
9200.332708,0.000000,-9770.718434,76.609550
9200.333032,0.000000,-9918.759623,0.000000
9200.333356,-296.082377,-9992.780217,-153.219100
9200.333680,-592.164754,-9696.697840,0.000000
9200.334004,-518.144159,-9548.656652,-229.828649
9200.334328,0.000000,-9770.718434,0.000000
9200.334652,0.000000,-9622.677246,-229.828649
9200.334976,0.000000,-9622.677246,0.000000
9200.335300,0.000000,-9622.677246,0.000000
9200.335624,0.000000,-9696.697840,0.000000
9200.335948,0.000000,-9548.656652,76.609550
9200.336272,74.020594,-9844.739029,0.000000
9200.336596,0.000000,-9844.739029,0.000000
9200.336920,-148.041188,-9770.718434,0.000000
9200.337243,0.000000,-9622.677246,-306.438199
9200.337567,0.000000,-9474.636058,0.000000
9200.337891,0.000000,-9918.759623,153.219100
9200.338215,-444.123565,-9474.636058,383.047749
9200.338539,0.000000,-9548.656652,0.000000
9200.338863,222.061783,-9474.636058,76.609550
9200.339187,74.020594,-9474.636058,0.000000
9200.339511,592.164754,-9918.759623,306.438199
9200.339835,74.020594,-9252.574275,689.485948
9200.340159,74.020594,-9252.574275,0.000000
9200.340483,222.061783,-9548.656652,-306.438199
9200.340807,0.000000,-9622.677246,0.000000
9200.341131,148.041188,-9770.718434,76.609550
9200.341455,222.061783,-9548.656652,0.000000
9200.341779,0.000000,-9696.697840,0.000000
9200.342103,370.102971,-9622.677246,-459.657299
9200.342427,148.041188,-9622.677246,0.000000
9200.342751,222.061783,-9400.615463,0.000000
9200.343075,296.082377,-9548.656652,229.828649
9200.343399,0.000000,-9770.718434,0.000000
9200.343723,-74.020594,-9622.677246,0.000000
9200.344047,-222.061783,-9474.636058,0.000000
9200.344371,-148.041188,-9474.636058,0.000000
9200.344695,-222.061783,-9770.718434,-306.438199
9200.345019,0.000000,-9770.718434,153.219100
9200.345343,0.000000,-9622.677246,0.000000
9200.345667,0.000000,-9622.677246,0.000000
9200.345991,0.000000,-9474.636058,0.000000
9200.346315,0.000000,-9844.739029,0.000000
9200.346639,0.000000,-9918.759623,-229.828649
9200.346963,296.082377,-9770.718434,-229.828649
9200.347287,-148.041188,-9548.656652,0.000000
9200.347611,0.000000,-9548.656652,0.000000
9200.347935,-148.041188,-9696.697840,-76.609550
9200.348259,-518.144159,-9918.759623,-153.219100
9200.348583,-592.164754,-9474.636058,-153.219100
9200.348907,-222.061783,-9622.677246,0.000000
9200.349231,-148.041188,-9622.677246,-229.828649
9200.349555,0.000000,-10066.800811,0.000000
9200.349879,518.144159,-9770.718434,229.828649
9200.350203,222.061783,-9474.636058,0.000000
9200.350527,0.000000,-9622.677246,306.438199
9200.350851,-296.082377,-9770.718434,0.000000
9200.351175,-222.061783,-9622.677246,0.000000
9200.351499,0.000000,-9622.677246,0.000000
9200.351823,-296.082377,-9548.656652,0.000000
9200.352147,-666.185348,-9252.574275,0.000000
9200.352471,74.020594,-9918.759623,76.609550
9200.352795,222.061783,-9696.697840,-229.828649
9200.353119,0.000000,-9474.636058,0.000000
9200.353443,0.000000,-9622.677246,76.609550
9200.353767,296.082377,-9696.697840,0.000000
9200.354091,370.102971,-9696.697840,229.828649
9200.354415,444.123565,-9548.656652,689.485948
9200.354739,74.020594,-9326.594869,689.485948
9200.355063,222.061783,-9622.677246,383.047749
9200.355387,74.020594,-9844.739029,76.609550
9200.355711,0.000000,-9474.636058,-229.828649
9200.356035,0.000000,-9474.636058,-383.047749
9200.356359,0.000000,-9548.656652,-229.828649
9200.356683,0.000000,-9474.636058,0.000000
9200.357007,444.123565,-9696.697840,229.828649
9200.357331,222.061783,-9770.718434,-229.828649
9200.357655,0.000000,-9252.574275,229.828649
9200.357979,0.000000,-9696.697840,0.000000
9200.358303,0.000000,-9548.656652,229.828649
9200.358627,0.000000,-9622.677246,0.000000
9200.358951,0.000000,-9548.656652,0.000000
9200.359275,74.020594,-9844.739029,76.609550
9200.359599,0.000000,-9696.697840,229.828649
9200.359923,0.000000,-9770.718434,306.438199
9200.360247,-518.144159,-9696.697840,229.828649
9200.360571,-296.082377,-9770.718434,0.000000
9200.360895,-222.061783,-9770.718434,0.000000
9200.361219,-222.061783,-9622.677246,0.000000
9200.361543,-370.102971,-9770.718434,-76.609550
9200.361867,0.000000,-9548.656652,0.000000
9200.362191,0.000000,-9326.594869,-153.219100
9200.362515,148.041188,-9474.636058,0.000000
9200.362839,-444.123565,-9770.718434,0.000000
9200.363163,-370.102971,-9696.697840,0.000000
9200.363487,-370.102971,-9548.656652,-153.219100
9200.363811,74.020594,-9844.739029,0.000000
9200.364135,-222.061783,-9548.656652,0.000000
9200.364459,0.000000,-9844.739029,0.000000
9200.364783,296.082377,-9548.656652,76.609550
9200.365107,74.020594,-9548.656652,0.000000
9200.365431,0.000000,-9622.677246,0.000000
9200.365755,-148.041188,-9918.759623,0.000000
9200.366079,-444.123565,-9548.656652,0.000000
9200.366403,-296.082377,-9326.594869,0.000000
9200.366727,0.000000,-9622.677246,-459.657299
9200.367051,-222.061783,-9918.759623,0.000000
9200.367375,0.000000,-9918.759623,-612.876398
9200.367699,74.020594,-9696.697840,0.000000
9200.368023,222.061783,-9622.677246,0.000000
9200.368347,0.000000,-9622.677246,0.000000
9200.368671,0.000000,-9548.656652,-306.438199
9200.368995,370.102971,-9474.636058,459.657299
9200.369319,444.123565,-9178.553681,459.657299
9200.369643,444.123565,-9696.697840,-153.219100
9200.369967,0.000000,-9770.718434,0.000000
9200.370291,0.000000,-9844.739029,0.000000
9200.370615,296.082377,-9696.697840,0.000000
9200.370939,74.020594,-9548.656652,153.219100
9200.371263,-148.041188,-9474.636058,76.609550
9200.371587,-222.061783,-9548.656652,76.609550
9200.371911,222.061783,-9696.697840,229.828649
9200.372235,0.000000,-9548.656652,229.828649
9200.372559,0.000000,-9622.677246,76.609550
9200.372883,0.000000,-9696.697840,0.000000
9200.373207,0.000000,-9474.636058,153.219100
9200.373531,0.000000,-9770.718434,383.047749
9200.373855,0.000000,-9400.615463,0.000000
9200.374179,-666.185348,-9474.636058,0.000000
9200.374503,0.000000,-9770.718434,-229.828649
9200.374827,-148.041188,-9770.718434,0.000000
9200.375151,-296.082377,-9548.656652,-229.828649
9200.375475,-370.102971,-9622.677246,0.000000
9200.375799,-518.144159,-9992.780217,76.609550
9200.376123,-148.041188,-9548.656652,229.828649
9200.376447,0.000000,-9474.636058,76.609550
9200.376771,0.000000,-9474.636058,229.828649
9200.377095,-222.061783,-9844.739029,76.609550
9200.377419,-148.041188,-9696.697840,-153.219100
9200.377743,0.000000,-9548.656652,0.000000
9200.378067,-148.041188,-9548.656652,76.609550
9200.378391,-222.061783,-9474.636058,0.000000
9200.378715,-148.041188,-9696.697840,0.000000
9200.379039,-222.061783,-9770.718434,-229.828649
9200.379363,-370.102971,-9548.656652,383.047749
9200.379687,0.000000,-9770.718434,229.828649
9200.380011,296.082377,-9474.636058,0.000000
9200.380335,0.000000,-9770.718434,0.000000
9200.380659,0.000000,-9696.697840,0.000000
9200.380983,74.020594,-9622.677246,0.000000
9200.381307,0.000000,-9030.512492,229.828649
9200.381631,0.000000,-9696.697840,306.438199
9200.381955,222.061783,-9400.615463,383.047749
9200.382279,74.020594,-9252.574275,0.000000
9200.382603,74.020594,-9474.636058,0.000000
9200.382927,370.102971,-9622.677246,0.000000
9200.383251,222.061783,-9844.739029,0.000000
9200.383575,74.020594,-9844.739029,0.000000
9200.383899,444.123565,-9770.718434,76.609550
9200.384223,148.041188,-9474.636058,76.609550
9200.384547,222.061783,-9474.636058,229.828649
9200.384871,0.000000,-9770.718434,0.000000
9200.385195,222.061783,-9474.636058,0.000000
9200.385519,296.082377,-9474.636058,-153.219100
9200.385843,222.061783,-9622.677246,0.000000
9200.386167,0.000000,-9770.718434,-306.438199
9200.386491,0.000000,-9696.697840,0.000000
9200.386815,74.020594,-9548.656652,0.000000
9200.387139,0.000000,-9622.677246,153.219100
9200.387463,0.000000,-9918.759623,76.609550
9200.387787,0.000000,-9696.697840,76.609550
9200.388111,-444.123565,-9622.677246,0.000000
9200.388435,-148.041188,-9696.697840,0.000000
9200.388759,-296.082377,-9696.697840,-459.657299
9200.389083,-296.082377,-9770.718434,-76.609550
9200.389407,-518.144159,-9474.636058,459.657299
9200.389731,0.000000,-9622.677246,76.609550
9200.390055,74.020594,-9770.718434,229.828649
9200.390379,0.000000,-9326.594869,-153.219100
9200.390703,296.082377,-9918.759623,0.000000
9200.391027,0.000000,-9770.718434,76.609550
9200.391351,0.000000,-9770.718434,76.609550
9200.391675,-296.082377,-9622.677246,0.000000
9200.391999,-444.123565,-10140.821405,0.000000
9200.392323,0.000000,-9474.636058,229.828649
9200.392647,-296.082377,-9548.656652,-383.047749
9200.392971,-296.082377,-9326.594869,153.219100
9200.393295,-296.082377,-9844.739029,-153.219100
9200.393619,-148.041188,-9844.739029,0.000000
9200.393943,0.000000,-9474.636058,0.000000
9200.394267,148.041188,-9326.594869,0.000000
9200.394591,0.000000,-9400.615463,0.000000
9200.394915,0.000000,-9400.615463,0.000000
9200.395239,592.164754,-9844.739029,0.000000
9200.395563,222.061783,-9770.718434,0.000000
9200.395887,296.082377,-9770.718434,229.828649
9200.396211,0.000000,-9844.739029,0.000000
9200.396535,0.000000,-9548.656652,0.000000
9200.396859,-370.102971,-9548.656652,-153.219100
9200.397183,148.041188,-9770.718434,-383.047749
9200.397507,-370.102971,-9474.636058,0.000000
9200.397830,296.082377,-9844.739029,-153.219100
9200.398154,518.144159,-9400.615463,0.000000
9200.398478,592.164754,-9622.677246,153.219100
9200.398802,444.123565,-9548.656652,0.000000
9200.399126,444.123565,-9918.759623,0.000000
9200.399450,370.102971,-9474.636058,0.000000
9200.399774,222.061783,-9474.636058,-229.828649
9200.400098,0.000000,-9696.697840,0.000000
9200.400422,-370.102971,-10066.800811,-229.828649
9200.400746,-222.061783,-9844.739029,-383.047749
9200.401070,0.000000,-9696.697840,0.000000
9200.401394,148.041188,-9992.780217,0.000000
9200.401718,-148.041188,-9622.677246,612.876398
9200.402042,-592.164754,-9400.615463,76.609550
9200.402366,0.000000,-9622.677246,229.828649
9200.402690,0.000000,-9474.636058,0.000000
9200.403014,0.000000,-9770.718434,0.000000
9200.403338,-370.102971,-9918.759623,-229.828649
9200.403662,0.000000,-9918.759623,0.000000
9200.403986,74.020594,-9622.677246,-459.657299
9200.404310,0.000000,-9622.677246,0.000000
9200.404634,-148.041188,-9992.780217,153.219100
9200.404958,-592.164754,-10140.821405,-612.876398
9200.405282,-148.041188,-9770.718434,0.000000
9200.405606,-370.102971,-9622.677246,-383.047749
9200.405930,-592.164754,-9696.697840,-153.219100
9200.406254,-296.082377,-9844.739029,0.000000
9200.406578,222.061783,-9474.636058,0.000000
9200.406902,148.041188,-9104.533087,0.000000
9200.407226,-222.061783,-9178.553681,306.438199
9200.407550,0.000000,-9548.656652,0.000000
9200.407874,148.041188,-9992.780217,0.000000
9200.408198,0.000000,-9622.677246,0.000000
9200.408522,-148.041188,-9770.718434,0.000000
9200.408846,-370.102971,-9474.636058,0.000000
9200.409170,148.041188,-9548.656652,229.828649
9200.409494,370.102971,-9548.656652,76.609550
9200.409818,0.000000,-9400.615463,-536.266849
9200.410142,-222.061783,-9622.677246,-383.047749
9200.410466,0.000000,-9400.615463,0.000000
9200.410790,222.061783,-9696.697840,0.000000
9200.411114,148.041188,-9252.574275,0.000000
9200.411438,0.000000,-9326.594869,0.000000
9200.411762,444.123565,-9770.718434,766.095498
9200.412086,222.061783,-9474.636058,-153.219100
9200.412410,518.144159,-9474.636058,0.000000
9200.412734,148.041188,-9770.718434,0.000000
9200.413058,0.000000,-9770.718434,-153.219100
9200.413382,0.000000,-9844.739029,-229.828649
9200.413706,-222.061783,-9474.636058,229.828649
9200.414030,0.000000,-9770.718434,-229.828649
9200.414354,0.000000,-9548.656652,0.000000
9200.414678,0.000000,-9400.615463,0.000000
9200.415002,148.041188,-9770.718434,0.000000
9200.415326,0.000000,-9696.697840,153.219100
9200.415650,0.000000,-9844.739029,0.000000
9200.415974,74.020594,-9696.697840,76.609550
9200.416298,592.164754,-9474.636058,0.000000
9200.416622,0.000000,-9474.636058,0.000000
9200.416946,0.000000,-9770.718434,0.000000
9200.417270,0.000000,-9844.739029,0.000000
9200.417594,0.000000,-9770.718434,-153.219100
9200.417918,0.000000,-9770.718434,76.609550
9200.418242,-518.144159,-9844.739029,0.000000
9200.418566,-592.164754,-9770.718434,0.000000
9200.418890,-666.185348,-9474.636058,0.000000
9200.419214,-296.082377,-9326.594869,0.000000
9200.419538,-296.082377,-9548.656652,0.000000
9200.419862,0.000000,-9696.697840,0.000000
9200.420186,222.061783,-9696.697840,76.609550
9200.420510,518.144159,-9696.697840,306.438199
9200.420834,148.041188,-9622.677246,76.609550
9200.421158,0.000000,-9992.780217,153.219100
9200.421482,-148.041188,-9696.697840,-459.657299
9200.421806,-296.082377,-9474.636058,-459.657299
9200.422130,-222.061783,-9770.718434,0.000000
9200.422454,-370.102971,-9992.780217,-229.828649
9200.422778,-296.082377,-9844.739029,-306.438199
9200.423102,148.041188,-9770.718434,0.000000
9200.423426,296.082377,-9400.615463,0.000000
9200.423750,74.020594,-9326.594869,0.000000
9200.424074,148.041188,-9770.718434,0.000000
9200.424398,814.226536,-9474.636058,0.000000
9200.424722,444.123565,-9326.594869,0.000000
9200.425046,148.041188,-9474.636058,0.000000
9200.425370,74.020594,-9844.739029,0.000000
9200.425694,0.000000,-9844.739029,-229.828649
9200.426018,0.000000,-9770.718434,-153.219100
9200.426342,-296.082377,-9326.594869,383.047749
9200.426666,0.000000,-9474.636058,0.000000
9200.426990,222.061783,-9622.677246,0.000000
9200.427314,74.020594,-9770.718434,229.828649
9200.427638,0.000000,-9474.636058,0.000000
9200.427962,222.061783,-9400.615463,0.000000
9200.428286,296.082377,-9622.677246,-229.828649
9200.428610,370.102971,-9622.677246,0.000000
9200.428934,0.000000,-9474.636058,0.000000
9200.429258,0.000000,-9474.636058,153.219100
9200.429582,-148.041188,-9622.677246,0.000000
9200.429906,-148.041188,-9696.697840,0.000000
9200.430230,74.020594,-9844.739029,-153.219100
9200.430554,74.020594,-9770.718434,-306.438199
9200.430878,-222.061783,-9548.656652,0.000000
9200.431202,0.000000,-9622.677246,-229.828649
9200.431526,-222.061783,-9844.739029,0.000000
9200.431850,-222.061783,-9918.759623,0.000000
9200.432174,0.000000,-9622.677246,76.609550
9200.432498,148.041188,-9474.636058,0.000000
9200.432822,0.000000,-9622.677246,0.000000
9200.433146,-444.123565,-9622.677246,-153.219100
9200.433470,-444.123565,-9770.718434,-153.219100
9200.433794,-296.082377,-9770.718434,0.000000
9200.434118,-444.123565,-9622.677246,-229.828649
9200.434442,-296.082377,-9622.677246,0.000000
9200.434766,148.041188,-9696.697840,0.000000
9200.435090,0.000000,-9622.677246,0.000000
9200.435414,0.000000,-9474.636058,76.609550
9200.435738,-518.144159,-9400.615463,153.219100
9200.436062,-148.041188,-9400.615463,76.609550
9200.436386,0.000000,-9474.636058,76.609550
9200.436710,-148.041188,-9474.636058,0.000000
9200.437034,0.000000,-9770.718434,0.000000
9200.437358,-296.082377,-9770.718434,-383.047749
9200.437682,0.000000,-9548.656652,76.609550
9200.438006,148.041188,-9326.594869,0.000000
9200.438330,222.061783,-9474.636058,306.438199
9200.438654,0.000000,-9474.636058,0.000000
9200.438978,74.020594,-9770.718434,0.000000
9200.439302,74.020594,-9844.739029,0.000000
9200.439626,74.020594,-9696.697840,-306.438199
9200.439950,0.000000,-9474.636058,76.609550
9200.440274,0.000000,-9696.697840,-229.828649
9200.440598,296.082377,-9918.759623,-306.438199
9200.440922,296.082377,-9474.636058,76.609550
9200.441246,296.082377,-9400.615463,-153.219100
9200.441570,0.000000,-9474.636058,153.219100
9200.441894,148.041188,-9622.677246,0.000000
9200.442218,370.102971,-9474.636058,76.609550
9200.442542,296.082377,-9178.553681,0.000000
9200.442866,148.041188,-9474.636058,-229.828649
9200.443190,0.000000,-9474.636058,76.609550
9200.443514,148.041188,-9400.615463,0.000000
9200.443838,0.000000,-9918.759623,-229.828649
9200.444162,-444.123565,-10214.842000,0.000000
9200.444486,-592.164754,-9918.759623,-153.219100
9200.444810,-444.123565,-9474.636058,0.000000
9200.445134,0.000000,-9548.656652,0.000000
9200.445458,444.123565,-9622.677246,459.657299
9200.445782,222.061783,-9474.636058,383.047749
9200.446106,74.020594,-9622.677246,0.000000
9200.446430,222.061783,-9548.656652,153.219100
9200.446754,148.041188,-9622.677246,0.000000
9200.447078,0.000000,-9622.677246,-153.219100
9200.447402,0.000000,-10066.800811,-153.219100
9200.447726,-296.082377,-10214.842000,-153.219100
9200.448050,-592.164754,-9844.739029,-229.828649
9200.448374,-740.205942,-9770.718434,-383.047749
9200.448698,-814.226536,-9696.697840,-306.438199
9200.449022,-148.041188,-9548.656652,0.000000
9200.449346,148.041188,-9844.739029,0.000000
9200.449670,296.082377,-9548.656652,153.219100
9200.449994,518.144159,-9548.656652,0.000000
9200.450318,444.123565,-9400.615463,0.000000
9200.450642,222.061783,-9178.553681,0.000000
9200.450966,-148.041188,-9622.677246,0.000000
9200.451290,-296.082377,-9622.677246,-383.047749
9200.451614,-296.082377,-9770.718434,-229.828649
9200.451938,-444.123565,-9918.759623,-306.438199
9200.452262,-222.061783,-9844.739029,0.000000
9200.452586,-370.102971,-9474.636058,0.000000
9200.452910,222.061783,-9548.656652,383.047749
9200.453234,222.061783,-9400.615463,-229.828649
9200.453558,518.144159,-9622.677246,0.000000
9200.453882,222.061783,-9770.718434,76.609550
9200.454206,74.020594,-9548.656652,-153.219100
9200.454530,148.041188,-9326.594869,-229.828649
9200.454854,296.082377,-9474.636058,306.438199
9200.455178,0.000000,-9326.594869,536.266849
9200.455502,444.123565,-9696.697840,-383.047749
9200.455826,74.020594,-9474.636058,0.000000
9200.456150,148.041188,-9622.677246,0.000000
9200.456474,0.000000,-9548.656652,0.000000
9200.456798,0.000000,-9844.739029,-229.828649
9200.457122,-148.041188,-9474.636058,153.219100
9200.457446,148.041188,-9178.553681,0.000000
9200.457770,370.102971,-9252.574275,76.609550
9200.458094,-222.061783,-9548.656652,-306.438199
9200.458418,0.000000,-9992.780217,-306.438199
9200.458742,0.000000,-9622.677246,-383.047749
9200.459066,-74.020594,-9622.677246,-306.438199
9200.459390,0.000000,-9770.718434,-459.657299
9200.459714,74.020594,-9844.739029,0.000000
9200.460038,296.082377,-10140.821405,0.000000
9200.460362,370.102971,-9696.697840,76.609550
9200.460686,0.000000,-9696.697840,-306.438199
9200.461010,-222.061783,-10066.800811,153.219100
9200.461334,-222.061783,-9844.739029,0.000000
9200.461658,-222.061783,-9548.656652,0.000000
9200.461982,-370.102971,-9474.636058,-306.438199
9200.462306,-148.041188,-9770.718434,-153.219100
9200.462630,-370.102971,-9622.677246,-459.657299
9200.462954,0.000000,-9696.697840,153.219100
9200.463278,0.000000,-9474.636058,0.000000
9200.463602,74.020594,-9844.739029,0.000000
9200.463926,0.000000,-9992.780217,76.609550
9200.464250,-148.041188,-9844.739029,0.000000
9200.464574,0.000000,-9548.656652,0.000000
9200.464897,0.000000,-9030.512492,0.000000
9200.465221,-370.102971,-9104.533087,-306.438199
9200.465545,0.000000,-9770.718434,0.000000
9200.465869,296.082377,-10066.800811,0.000000
9200.466193,-148.041188,-9622.677246,0.000000
9200.466517,-296.082377,-9474.636058,-76.609550
9200.466841,0.000000,-9474.636058,-459.657299
9200.467165,74.020594,-9548.656652,229.828649
9200.467489,444.123565,-9622.677246,-306.438199
9200.467813,296.082377,-9548.656652,0.000000
9200.468137,74.020594,-9548.656652,0.000000
9200.468461,0.000000,-9474.636058,-153.219100
9200.468785,148.041188,-9474.636058,0.000000
9200.469109,0.000000,-9474.636058,0.000000
9200.469433,-148.041188,-9696.697840,-229.828649
9200.469757,-148.041188,-9474.636058,-383.047749
9200.470081,148.041188,-9252.574275,-306.438199
9200.470405,74.020594,-9400.615463,229.828649
9200.470729,222.061783,-9770.718434,0.000000
9200.471053,296.082377,-9548.656652,-229.828649
9200.471377,74.020594,-9770.718434,0.000000
9200.471701,0.000000,-9548.656652,0.000000
9200.472025,74.020594,-9918.759623,0.000000
9200.472349,0.000000,-9844.739029,-536.266849
9200.472673,296.082377,-9696.697840,0.000000
9200.472997,74.020594,-9622.677246,-383.047749
9200.473321,-222.061783,-9844.739029,0.000000
9200.473645,-222.061783,-9696.697840,0.000000
9200.473969,-444.123565,-9770.718434,0.000000
9200.474293,-148.041188,-9918.759623,-153.219100
9200.474617,0.000000,-9844.739029,0.000000
9200.474941,0.000000,-9844.739029,0.000000
9200.475265,0.000000,-9918.759623,229.828649
9200.475589,0.000000,-9548.656652,0.000000
9200.475913,0.000000,-9474.636058,383.047749
9200.476237,0.000000,-9474.636058,0.000000
9200.476561,-148.041188,-9696.697840,0.000000
9200.476885,0.000000,-9844.739029,0.000000
9200.477209,-148.041188,-9770.718434,0.000000
9200.477533,-444.123565,-9548.656652,-153.219100
9200.477857,-444.123565,-9400.615463,229.828649
9200.478181,-222.061783,-9474.636058,229.828649
9200.478505,74.020594,-9770.718434,306.438199
9200.478829,148.041188,-9622.677246,153.219100
9200.479153,0.000000,-9622.677246,0.000000
9200.479477,-296.082377,-9622.677246,0.000000
9200.479801,-296.082377,-9770.718434,-689.485948
9200.480125,-148.041188,-9474.636058,0.000000
9200.480449,518.144159,-9844.739029,0.000000
9200.480773,0.000000,-9474.636058,-536.266849
9200.481097,0.000000,-9844.739029,0.000000
9200.481421,0.000000,-9770.718434,0.000000
9200.481745,74.020594,-9548.656652,0.000000
9200.482069,0.000000,-9474.636058,-306.438199
9200.482393,74.020594,-9770.718434,0.000000
9200.482717,444.123565,-10066.800811,0.000000
9200.483041,444.123565,-9770.718434,0.000000
9200.483365,296.082377,-9474.636058,76.609550
9200.483689,296.082377,-9622.677246,-306.438199
9200.484013,296.082377,-9770.718434,-153.219100
9200.484337,0.000000,-9622.677246,0.000000
9200.484661,0.000000,-9770.718434,0.000000
9200.484985,74.020594,-9474.636058,0.000000
9200.485309,296.082377,-9770.718434,-306.438199
9200.485633,444.123565,-9770.718434,0.000000
9200.485957,0.000000,-9770.718434,0.000000
9200.486281,0.000000,-9770.718434,-153.219100
9200.486605,0.000000,-9622.677246,0.000000
9200.486929,296.082377,-9548.656652,0.000000
9200.487253,-148.041188,-9548.656652,-459.657299
9200.487577,-740.205942,-9474.636058,0.000000
9200.487901,0.000000,-9992.780217,0.000000
9200.488225,74.020594,-9992.780217,-153.219100
9200.488549,0.000000,-9992.780217,0.000000
9200.488873,-222.061783,-9622.677246,-153.219100
9200.489197,-148.041188,-9918.759623,-153.219100
9200.489521,0.000000,-9400.615463,-153.219100
9200.489845,222.061783,-9844.739029,383.047749
9200.490169,-148.041188,-9918.759623,0.000000
9200.490493,-222.061783,-9844.739029,-766.095498
9200.490817,-148.041188,-9474.636058,0.000000
9200.491141,-444.123565,-9474.636058,0.000000
9200.491465,-370.102971,-9696.697840,-306.438199
9200.491789,-444.123565,-9844.739029,0.000000
9200.492113,0.000000,-9474.636058,-229.828649
9200.492437,148.041188,-9178.553681,306.438199
9200.492761,0.000000,-9400.615463,76.609550
9200.493085,-148.041188,-9844.739029,153.219100
9200.493409,-370.102971,-9844.739029,0.000000
9200.493733,-222.061783,-9622.677246,-306.438199
9200.494057,-222.061783,-9770.718434,-383.047749
9200.494381,-444.123565,-9696.697840,153.219100
9200.494705,-296.082377,-9548.656652,0.000000
9200.495029,222.061783,-9770.718434,-229.828649
9200.495353,370.102971,-9474.636058,-229.828649
9200.495677,0.000000,-9548.656652,-153.219100
9200.496001,-370.102971,-9622.677246,-229.828649
9200.496325,74.020594,-9548.656652,76.609550
9200.496649,518.144159,-9622.677246,229.828649
9200.496973,370.102971,-9400.615463,229.828649
9200.497297,74.020594,-9918.759623,-306.438199
9200.497621,148.041188,-9696.697840,0.000000
9200.497945,74.020594,-9622.677246,0.000000
9200.498269,0.000000,-9622.677246,0.000000
9200.498593,0.000000,-9696.697840,-153.219100
9200.498917,0.000000,-9548.656652,-306.438199
9200.499241,296.082377,-9770.718434,0.000000
9200.499565,370.102971,-9474.636058,76.609550
9200.499889,222.061783,-9400.615463,0.000000
9200.500213,74.020594,-9696.697840,0.000000
9200.500537,0.000000,-9622.677246,0.000000
9200.500861,0.000000,-9696.697840,-153.219100
9200.501185,222.061783,-9770.718434,0.000000
9200.501509,0.000000,-9622.677246,-153.219100
9200.501833,-444.123565,-9326.594869,306.438199
9200.502157,0.000000,-9696.697840,0.000000
9200.502481,0.000000,-9622.677246,0.000000
9200.502805,0.000000,-9474.636058,306.438199
9200.503129,-222.061783,-9918.759623,76.609550
9200.503453,-444.123565,-9474.636058,-153.219100
9200.503777,0.000000,-9770.718434,-229.828649
9200.504101,-148.041188,-9844.739029,0.000000
9200.504425,-222.061783,-9770.718434,-229.828649
9200.504749,-222.061783,-9696.697840,0.000000
9200.505073,0.000000,-9474.636058,306.438199
9200.505397,74.020594,-9474.636058,-153.219100
9200.505721,296.082377,-9770.718434,0.000000
9200.506045,222.061783,-9622.677246,229.828649
9200.506368,0.000000,-9918.759623,0.000000
9200.506692,-222.061783,-9844.739029,-153.219100
9200.507016,-592.164754,-9918.759623,-306.438199
9200.507340,-666.185348,-9696.697840,-229.828649
9200.507664,-592.164754,-9696.697840,-536.266849
9200.507988,-148.041188,-9474.636058,0.000000
9200.508312,-222.061783,-9400.615463,-229.828649
9200.508636,-296.082377,-9622.677246,0.000000
9200.508960,74.020594,-9770.718434,0.000000
9200.509284,148.041188,-9474.636058,-153.219100
9200.509608,296.082377,-9770.718434,76.609550
9200.509932,296.082377,-9622.677246,153.219100
9200.510256,0.000000,-9770.718434,0.000000
9200.510580,222.061783,-9770.718434,-306.438199
9200.510904,-222.061783,-9400.615463,-229.828649
9200.511228,-370.102971,-9770.718434,-229.828649
9200.511552,-444.123565,-9474.636058,-306.438199
9200.511876,0.000000,-9770.718434,-306.438199
9200.512200,74.020594,-9622.677246,0.000000
9200.512524,222.061783,-9844.739029,0.000000
9200.512848,74.020594,-9474.636058,536.266849
9200.513172,0.000000,-9400.615463,0.000000
9200.513496,444.123565,-9400.615463,0.000000
9200.513820,296.082377,-9622.677246,0.000000
9200.514144,74.020594,-9548.656652,0.000000
9200.514468,0.000000,-9770.718434,0.000000
9200.514792,222.061783,-9844.739029,76.609550
9200.515116,0.000000,-9548.656652,-536.266849
9200.515440,0.000000,-9844.739029,-153.219100
9200.515764,-518.144159,-9178.553681,-459.657299
9200.516088,0.000000,-9474.636058,-153.219100
9200.516412,-222.061783,-9474.636058,76.609550
9200.516736,-222.061783,-9622.677246,-229.828649
9200.517060,0.000000,-9696.697840,0.000000
9200.517384,666.185348,-9992.780217,-229.828649
9200.517708,370.102971,-9252.574275,306.438199
9200.518032,0.000000,-9622.677246,-153.219100
9200.518356,-296.082377,-9548.656652,0.000000
9200.518680,-444.123565,-9770.718434,0.000000
9200.519004,-296.082377,-9770.718434,0.000000
9200.519328,-370.102971,-9918.759623,0.000000
9200.519652,-444.123565,-9844.739029,0.000000
9200.519976,0.000000,-9770.718434,0.000000
9200.520300,0.000000,-9474.636058,0.000000
9200.520624,-148.041188,-9252.574275,76.609550
9200.520948,-296.082377,-9696.697840,-153.219100
9200.521272,-296.082377,-9622.677246,-383.047749
9200.521596,0.000000,-9622.677246,0.000000
9200.521920,0.000000,-9622.677246,-153.219100
9200.522244,-296.082377,-10066.800811,-459.657299
9200.522568,296.082377,-10362.883188,306.438199
9200.522892,0.000000,-9696.697840,0.000000
9200.523216,0.000000,-9474.636058,-612.876398
9200.523540,0.000000,-9770.718434,0.000000
9200.523863,-148.041188,-9770.718434,-229.828649
9200.524187,-148.041188,-9696.697840,0.000000
9200.524511,222.061783,-9400.615463,153.219100
9200.524835,74.020594,-9326.594869,-766.095498
9200.525159,-222.061783,-9474.636058,-383.047749
9200.525483,148.041188,-9622.677246,0.000000
9200.525807,444.123565,-9622.677246,-153.219100
9200.526131,444.123565,-9622.677246,-229.828649
9200.526455,0.000000,-9770.718434,0.000000
9200.526779,0.000000,-9770.718434,0.000000
9200.527103,-148.041188,-9474.636058,0.000000
9200.527427,-444.123565,-9400.615463,306.438199
9200.527751,0.000000,-9252.574275,153.219100
9200.528075,0.000000,-9400.615463,0.000000
9200.528399,222.061783,-9622.677246,76.609550
9200.528723,0.000000,-9474.636058,0.000000
9200.529047,-148.041188,-9696.697840,-229.828649
9200.529371,-370.102971,-9400.615463,-306.438199
9200.529695,0.000000,-9622.677246,-459.657299
9200.530019,148.041188,-9770.718434,76.609550
9200.530343,222.061783,-9400.615463,0.000000
9200.530667,74.020594,-9844.739029,0.000000
9200.530991,0.000000,-9844.739029,-153.219100
9200.531315,74.020594,-10066.800811,0.000000
9200.531639,-222.061783,-9548.656652,0.000000
9200.531963,-444.123565,-9844.739029,-306.438199
9200.532287,0.000000,-10288.862594,76.609550
9200.532611,-666.185348,-9474.636058,-383.047749
9200.532935,-370.102971,-9474.636058,-153.219100
9200.533259,-296.082377,-9696.697840,-153.219100
9200.533583,-148.041188,-9770.718434,-153.219100
9200.533907,-148.041188,-9622.677246,0.000000
9200.534231,0.000000,-9770.718434,-306.438199
9200.534555,-222.061783,-9622.677246,0.000000
9200.534879,-148.041188,-9548.656652,0.000000
9200.535203,0.000000,-9622.677246,383.047749
9200.535527,-222.061783,-9548.656652,0.000000
9200.535851,-222.061783,-9622.677246,0.000000
9200.536175,0.000000,-9992.780217,-383.047749
9200.536499,-222.061783,-9770.718434,0.000000
9200.536823,-370.102971,-9474.636058,-459.657299
9200.537147,74.020594,-9474.636058,-229.828649
9200.537471,0.000000,-9326.594869,306.438199
9200.537795,148.041188,-9770.718434,76.609550
9200.538119,148.041188,-9548.656652,76.609550
9200.538443,74.020594,-9474.636058,0.000000
9200.538767,222.061783,-9918.759623,0.000000
9200.539091,222.061783,-9622.677246,0.000000
9200.539415,222.061783,-9696.697840,0.000000
9200.539739,370.102971,-9770.718434,306.438199
9200.540063,0.000000,-9252.574275,-306.438199
9200.540387,0.000000,-9770.718434,0.000000
9200.540711,-148.041188,-9548.656652,-153.219100
9200.541034,222.061783,-9474.636058,0.000000
9200.541358,518.144159,-9992.780217,-229.828649
9200.541682,444.123565,-9474.636058,0.000000
9200.542006,296.082377,-9252.574275,-612.876398
9200.542330,148.041188,-9696.697840,0.000000
9200.542654,0.000000,-9474.636058,0.000000
9200.542978,74.020594,-9696.697840,-153.219100
9200.543302,0.000000,-9770.718434,0.000000
9200.543626,0.000000,-10140.821405,0.000000
9200.543950,-222.061783,-9770.718434,306.438199
9200.544274,0.000000,-9622.677246,0.000000
9200.544598,-222.061783,-9548.656652,76.609550
9200.544922,-444.123565,-9770.718434,306.438199
9200.545246,-222.061783,-9696.697840,0.000000
9200.545570,0.000000,-9622.677246,-229.828649
9200.545894,-148.041188,-9770.718434,0.000000
9200.546218,-148.041188,-10066.800811,0.000000
9200.546542,0.000000,-9474.636058,153.219100
9200.546866,148.041188,-9548.656652,-229.828649
9200.547190,-222.061783,-9622.677246,0.000000
9200.547514,0.000000,-9992.780217,-919.314598
9200.547838,-222.061783,-9992.780217,-383.047749
9200.548162,-296.082377,-9770.718434,0.000000
9200.548486,-296.082377,-9696.697840,-306.438199
9200.548810,-296.082377,-9696.697840,-306.438199
9200.549134,-296.082377,-9474.636058,-229.828649
9200.549458,0.000000,-9474.636058,0.000000
9200.549782,-148.041188,-9474.636058,0.000000
9200.550106,-222.061783,-9474.636058,-229.828649
9200.550430,-148.041188,-9696.697840,-153.219100
9200.550754,74.020594,-9696.697840,0.000000
9200.551078,0.000000,-9844.739029,0.000000
9200.551402,222.061783,-9696.697840,-306.438199
9200.551726,0.000000,-9844.739029,-229.828649
9200.552050,148.041188,-9622.677246,-229.828649
9200.552374,0.000000,-9844.739029,0.000000
9200.552698,-148.041188,-9696.697840,0.000000
9200.553022,-296.082377,-9770.718434,0.000000
9200.553346,-222.061783,-9622.677246,0.000000
9200.553670,296.082377,-9622.677246,76.609550
9200.553994,74.020594,-9400.615463,-153.219100
9200.554318,74.020594,-9548.656652,153.219100
9200.554642,296.082377,-9252.574275,0.000000
9200.554966,444.123565,-9622.677246,0.000000
9200.555290,370.102971,-9844.739029,76.609550
9200.555614,296.082377,-9992.780217,0.000000
9200.555938,74.020594,-9918.759623,0.000000
9200.556262,74.020594,-9844.739029,0.000000
9200.556586,74.020594,-9770.718434,306.438199
9200.556910,-148.041188,-9474.636058,-229.828649
9200.557234,-222.061783,-9474.636058,-229.828649
9200.557558,222.061783,-9548.656652,76.609550
9200.557882,444.123565,-9326.594869,-153.219100
9200.558206,0.000000,-9622.677246,0.000000
9200.558529,-370.102971,-9696.697840,0.000000
9200.558853,-222.061783,-9622.677246,0.000000
9200.559177,148.041188,-9548.656652,0.000000
9200.559501,-148.041188,-10066.800811,-153.219100
9200.559825,74.020594,-10066.800811,229.828649
9200.560149,74.020594,-9696.697840,0.000000
9200.560473,222.061783,-9622.677246,229.828649
9200.560797,0.000000,-9696.697840,76.609550
9200.561121,-444.123565,-9696.697840,0.000000
9200.561445,-740.205942,-9696.697840,0.000000
9200.561769,-222.061783,-9326.594869,-153.219100
9200.562093,-148.041188,-9252.574275,306.438199
9200.562417,-962.267725,-9548.656652,-1149.143247
9200.562741,-370.102971,-9918.759623,0.000000
9200.563065,0.000000,-9844.739029,-306.438199
9200.563389,222.061783,-9696.697840,0.000000
9200.563713,0.000000,-9696.697840,76.609550
9200.564037,-444.123565,-9696.697840,76.609550
9200.564361,0.000000,-9548.656652,229.828649
9200.564685,370.102971,-9030.512492,459.657299
9200.565009,-370.102971,-9770.718434,0.000000
9200.565333,-740.205942,-9474.636058,-536.266849
9200.565657,-666.185348,-9844.739029,0.000000
9200.565981,-444.123565,-9548.656652,-229.828649
9200.566305,-222.061783,-9696.697840,-153.219100
9200.566629,-148.041188,-9474.636058,-612.876398
9200.566953,0.000000,-9548.656652,-383.047749
9200.567277,592.164754,-9400.615463,-153.219100
9200.567601,518.144159,-9326.594869,0.000000
9200.567925,222.061783,-9696.697840,0.000000
9200.568249,74.020594,-9918.759623,0.000000
9200.568573,222.061783,-9622.677246,0.000000
9200.568897,0.000000,-9474.636058,-229.828649
9200.569221,-370.102971,-9474.636058,76.609550
9200.569545,0.000000,-9400.615463,-229.828649
9200.569869,0.000000,-9622.677246,0.000000
9200.570193,148.041188,-9474.636058,0.000000
9200.570517,518.144159,-9474.636058,-383.047749
9200.570841,296.082377,-9696.697840,0.000000
9200.571165,148.041188,-9696.697840,0.000000
9200.571489,444.123565,-9104.533087,0.000000
9200.571813,222.061783,-9252.574275,0.000000
9200.572137,74.020594,-9844.739029,0.000000
9200.572461,0.000000,-9844.739029,-153.219100
9200.572785,0.000000,-9770.718434,153.219100
9200.573109,148.041188,-9622.677246,0.000000
9200.573433,0.000000,-9696.697840,0.000000
9200.573757,-592.164754,-9622.677246,0.000000
9200.574081,0.000000,-9548.656652,0.000000
9200.574405,0.000000,-9622.677246,459.657299
9200.574729,0.000000,-9252.574275,0.000000
9200.575053,-148.041188,-9696.697840,0.000000
9200.575377,-296.082377,-9844.739029,0.000000
9200.575700,0.000000,-9918.759623,0.000000
9200.576024,-222.061783,-9770.718434,-153.219100
9200.576348,-148.041188,-9548.656652,0.000000
9200.576672,-296.082377,-9548.656652,0.000000
9200.576996,-222.061783,-9474.636058,306.438199
9200.577320,222.061783,-9770.718434,229.828649
9200.577644,-148.041188,-9622.677246,0.000000
9200.577968,-222.061783,-9844.739029,76.609550
9200.578292,0.000000,-9844.739029,76.609550
9200.578616,0.000000,-9696.697840,0.000000
9200.578940,-296.082377,-9474.636058,383.047749
9200.579264,-222.061783,-9178.553681,0.000000
9200.579588,-148.041188,-9844.739029,0.000000
9200.579912,0.000000,-9622.677246,0.000000
9200.580236,0.000000,-9918.759623,0.000000
9200.580560,296.082377,-9844.739029,0.000000
9200.580884,0.000000,-9622.677246,0.000000
9200.581208,222.061783,-9696.697840,0.000000
9200.581532,-296.082377,-9178.553681,153.219100
9200.581856,0.000000,-9252.574275,0.000000
9200.582180,296.082377,-9696.697840,383.047749
9200.582504,0.000000,-9696.697840,-153.219100
9200.582828,0.000000,-9474.636058,0.000000
9200.583152,0.000000,-9548.656652,0.000000
9200.583476,0.000000,-9622.677246,-612.876398
9200.583800,0.000000,-9474.636058,-459.657299
9200.584124,74.020594,-9622.677246,0.000000
9200.584448,148.041188,-9474.636058,0.000000
9200.584772,74.020594,-9474.636058,229.828649
9200.585096,0.000000,-9622.677246,229.828649
9200.585420,74.020594,-9622.677246,0.000000
9200.585744,74.020594,-9770.718434,0.000000
9200.586068,444.123565,-9622.677246,153.219100
9200.586392,0.000000,-9474.636058,0.000000
9200.586716,0.000000,-9252.574275,-153.219100
9200.587040,0.000000,-9474.636058,0.000000
9200.587364,0.000000,-9548.656652,-153.219100
9200.587688,74.020594,-9622.677246,0.000000
9200.588012,-222.061783,-9622.677246,-153.219100
9200.588336,0.000000,-9696.697840,0.000000
9200.588660,74.020594,-9474.636058,-229.828649
9200.588984,74.020594,-9474.636058,0.000000
9200.589308,0.000000,-9622.677246,-229.828649
9200.589632,222.061783,-10214.842000,229.828649
9200.589956,0.000000,-9844.739029,0.000000
9200.590280,0.000000,-9622.677246,0.000000
9200.590604,-370.102971,-9622.677246,-306.438199
9200.590928,-666.185348,-9622.677246,-229.828649
9200.591252,-518.144159,-9992.780217,0.000000
9200.591576,74.020594,-9474.636058,0.000000
9200.591900,0.000000,-9474.636058,0.000000
9200.592224,0.000000,-9770.718434,0.000000
9200.592548,0.000000,-10066.800811,0.000000
9200.592872,74.020594,-9770.718434,76.609550
9200.593195,0.000000,-9400.615463,306.438199
9200.593519,-444.123565,-9622.677246,0.000000
9200.593843,-222.061783,-10214.842000,0.000000
9200.594167,-222.061783,-9474.636058,-229.828649
9200.594491,0.000000,-9696.697840,-689.485948
9200.594815,-222.061783,-9622.677246,0.000000
9200.595139,0.000000,-9622.677246,0.000000
9200.595463,74.020594,-9474.636058,0.000000
9200.595787,222.061783,-9548.656652,229.828649
9200.596111,74.020594,-9326.594869,0.000000
9200.596435,0.000000,-9622.677246,-153.219100
9200.596759,222.061783,-9696.697840,383.047749
9200.597083,222.061783,-9474.636058,-153.219100
9200.597407,0.000000,-9696.697840,-306.438199
9200.597731,0.000000,-9622.677246,-153.219100
9200.598055,370.102971,-9548.656652,0.000000
9200.598379,444.123565,-9622.677246,0.000000
9200.598703,222.061783,-8882.471304,0.000000
9200.599027,370.102971,-9696.697840,0.000000
9200.599351,148.041188,-9770.718434,-229.828649
9200.599675,444.123565,-9918.759623,229.828649
9200.599999,0.000000,-9474.636058,-459.657299
9200.600323,-222.061783,-9770.718434,153.219100
9200.600647,0.000000,-9770.718434,0.000000
9200.600971,0.000000,-9548.656652,0.000000
9200.601295,0.000000,-9474.636058,76.609550
9200.601619,0.000000,-9696.697840,0.000000
9200.601943,0.000000,-9844.739029,-229.828649
9200.602267,-296.082377,-9548.656652,76.609550
9200.602591,-444.123565,-9474.636058,0.000000
9200.602915,148.041188,-9918.759623,76.609550
9200.603239,-296.082377,-9548.656652,0.000000
9200.603563,-222.061783,-9696.697840,-153.219100
9200.603887,0.000000,-9918.759623,0.000000
9200.604211,-148.041188,-9918.759623,0.000000
9200.604535,-296.082377,-9622.677246,0.000000
9200.604859,-444.123565,-9696.697840,-153.219100
9200.605183,-370.102971,-9622.677246,-306.438199
9200.605507,0.000000,-9400.615463,-306.438199
9200.605831,-370.102971,-9622.677246,0.000000
9200.606155,-370.102971,-9770.718434,0.000000
9200.606479,0.000000,-9696.697840,-229.828649
9200.606803,148.041188,-9548.656652,0.000000
9200.607127,222.061783,-9474.636058,0.000000
9200.607451,0.000000,-9474.636058,306.438199
9200.607775,-444.123565,-9400.615463,76.609550
9200.608099,-370.102971,-9474.636058,0.000000
9200.608423,-148.041188,-9696.697840,-153.219100
9200.608747,-148.041188,-9844.739029,-153.219100
9200.609071,-222.061783,-9622.677246,-229.828649
9200.609395,0.000000,-9548.656652,0.000000
9200.609719,518.144159,-9992.780217,459.657299
9200.610043,222.061783,-9696.697840,76.609550
9200.610367,222.061783,-9548.656652,-842.705048
9200.610691,0.000000,-9548.656652,-153.219100
9200.611015,74.020594,-9474.636058,-306.438199
9200.611339,0.000000,-9622.677246,0.000000
9200.611663,148.041188,-9918.759623,229.828649
9200.611987,74.020594,-9844.739029,0.000000
9200.612311,444.123565,-9104.533087,-153.219100
9200.612635,0.000000,-9252.574275,0.000000
9200.612959,-370.102971,-9400.615463,0.000000
9200.613283,0.000000,-9770.718434,0.000000
9200.613607,444.123565,-9770.718434,0.000000
9200.613931,444.123565,-9622.677246,76.609550
9200.614255,370.102971,-9400.615463,383.047749
9200.614579,148.041188,-9844.739029,-229.828649
9200.614903,0.000000,-9474.636058,0.000000
9200.615227,0.000000,-9474.636058,229.828649
9200.615551,-222.061783,-9474.636058,0.000000
9200.615875,-444.123565,-9548.656652,-229.828649
9200.616199,0.000000,-9918.759623,0.000000
9200.616523,0.000000,-9770.718434,0.000000
9200.616847,148.041188,-9696.697840,0.000000
9200.617171,0.000000,-9696.697840,459.657299
9200.617495,0.000000,-9622.677246,-229.828649
9200.617819,222.061783,-9844.739029,0.000000
9200.618143,148.041188,-9918.759623,76.609550
9200.618467,-296.082377,-9770.718434,0.000000
9200.618791,-592.164754,-9696.697840,-229.828649
9200.619115,-296.082377,-9622.677246,0.000000
9200.619439,0.000000,-9474.636058,306.438199
9200.619763,0.000000,-9400.615463,153.219100
9200.620087,-148.041188,-10066.800811,0.000000
9200.620411,-74.020594,-9696.697840,-229.828649
9200.620735,0.000000,-9696.697840,-229.828649
9200.621059,0.000000,-9844.739029,0.000000
9200.621383,0.000000,-9770.718434,0.000000
9200.621707,-296.082377,-9400.615463,0.000000
9200.622031,0.000000,-9622.677246,-153.219100
9200.622355,0.000000,-9696.697840,229.828649
9200.622679,74.020594,-9770.718434,76.609550
9200.623003,-444.123565,-9622.677246,0.000000
9200.623327,0.000000,-9844.739029,-229.828649
9200.623651,0.000000,-9770.718434,-153.219100
9200.623975,296.082377,-9844.739029,0.000000
9200.624299,0.000000,-9696.697840,0.000000
9200.624623,148.041188,-9178.553681,0.000000
9200.624947,370.102971,-9474.636058,0.000000
9200.625271,0.000000,-9548.656652,0.000000
9200.625595,148.041188,-9622.677246,0.000000
9200.625919,296.082377,-9992.780217,0.000000
9200.626243,296.082377,-9622.677246,229.828649
9200.626567,74.020594,-9548.656652,-306.438199
9200.626891,0.000000,-9622.677246,-383.047749
9200.627215,-222.061783,-9400.615463,0.000000
9200.627539,-222.061783,-9326.594869,0.000000
9200.627863,74.020594,-9326.594869,153.219100
9200.628187,222.061783,-9548.656652,0.000000
9200.628511,148.041188,-9548.656652,0.000000
9200.628835,444.123565,-9622.677246,229.828649
9200.629159,444.123565,-9548.656652,153.219100
9200.629483,0.000000,-9474.636058,0.000000
9200.629807,0.000000,-9770.718434,153.219100
9200.630131,-814.226536,-9474.636058,0.000000
9200.630455,222.061783,-9696.697840,0.000000
9200.630779,-296.082377,-9770.718434,76.609550
9200.631103,-296.082377,-10066.800811,0.000000
9200.631427,-296.082377,-9770.718434,0.000000
9200.631751,-296.082377,-9844.739029,0.000000
9200.632075,0.000000,-9548.656652,0.000000
9200.632399,74.020594,-9696.697840,0.000000
9200.632723,-148.041188,-9548.656652,-153.219100
9200.633047,74.020594,-9548.656652,153.219100
9200.633371,0.000000,-9770.718434,76.609550
9200.633695,-370.102971,-9918.759623,-153.219100
9200.634019,-666.185348,-9770.718434,-153.219100
9200.634343,-148.041188,-9622.677246,0.000000
9200.634667,-222.061783,-9474.636058,-229.828649
9200.634991,-444.123565,-9844.739029,-383.047749
9200.635315,-370.102971,-9696.697840,-153.219100
9200.635639,-370.102971,-9474.636058,153.219100
9200.635963,-296.082377,-9548.656652,-153.219100
9200.636287,0.000000,-9474.636058,0.000000
9200.636611,-148.041188,-9622.677246,76.609550
9200.636934,0.000000,-9548.656652,153.219100
9200.637258,74.020594,-9696.697840,0.000000
9200.637582,296.082377,-9030.512492,76.609550
9200.637906,222.061783,-9400.615463,0.000000
9200.638230,0.000000,-9770.718434,76.609550
9200.638554,-222.061783,-9844.739029,0.000000
9200.638878,0.000000,-9770.718434,0.000000
9200.639202,0.000000,-9474.636058,0.000000
9200.639526,-148.041188,-9548.656652,0.000000
9200.639850,-444.123565,-9622.677246,-153.219100
9200.640174,0.000000,-9770.718434,229.828649
9200.640498,0.000000,-9252.574275,0.000000
9200.640822,148.041188,-9696.697840,0.000000
9200.641146,0.000000,-9548.656652,0.000000
9200.641470,296.082377,-9474.636058,0.000000
9200.641794,222.061783,-9474.636058,306.438199
9200.642118,666.185348,-9474.636058,0.000000
9200.642442,518.144159,-9770.718434,0.000000
9200.642766,296.082377,-9844.739029,229.828649
9200.643090,148.041188,-10066.800811,0.000000
9200.643414,0.000000,-9770.718434,0.000000
9200.643738,-444.123565,-9696.697840,-229.828649
9200.644062,-370.102971,-9844.739029,-459.657299
9200.644386,0.000000,-9622.677246,0.000000
9200.644710,0.000000,-9474.636058,153.219100
9200.645034,74.020594,-9548.656652,0.000000
9200.645358,0.000000,-9474.636058,0.000000
9200.645682,0.000000,-9696.697840,0.000000
9200.646006,0.000000,-9770.718434,-229.828649
9200.646330,0.000000,-9770.718434,0.000000
9200.646654,74.020594,-9844.739029,-153.219100
9200.646978,0.000000,-9622.677246,153.219100
9200.647302,148.041188,-9992.780217,0.000000
9200.647626,-222.061783,-9474.636058,0.000000
9200.647950,0.000000,-10066.800811,0.000000
9200.648274,-518.144159,-9770.718434,0.000000
9200.648598,-370.102971,-9844.739029,-153.219100
9200.648922,-518.144159,-9622.677246,-229.828649
9200.649246,-74.020594,-9622.677246,-229.828649
9200.649570,-148.041188,-9400.615463,306.438199
9200.649894,222.061783,-9696.697840,306.438199
9200.650218,74.020594,-9548.656652,0.000000
9200.650542,74.020594,-9622.677246,0.000000
9200.650866,74.020594,-9844.739029,0.000000
9200.651190,0.000000,-9696.697840,0.000000
9200.651514,222.061783,-9770.718434,0.000000
9200.651838,-296.082377,-9474.636058,0.000000
9200.652162,-370.102971,-9548.656652,0.000000
9200.652486,-370.102971,-9770.718434,229.828649
9200.652810,-592.164754,-9696.697840,-229.828649
9200.653134,-148.041188,-9770.718434,-153.219100
9200.653458,0.000000,-9548.656652,76.609550
9200.653782,0.000000,-9474.636058,-459.657299
9200.654106,148.041188,-9474.636058,-306.438199
9200.654430,222.061783,-9252.574275,76.609550
9200.654754,444.123565,-9400.615463,229.828649
9200.655078,370.102971,-9548.656652,-153.219100
9200.655402,222.061783,-9696.697840,0.000000
9200.655726,74.020594,-9844.739029,0.000000
9200.656050,370.102971,-9770.718434,0.000000
9200.656374,74.020594,-9548.656652,76.609550
9200.656698,-222.061783,-9252.574275,-689.485948
9200.657022,-148.041188,-9474.636058,459.657299
9200.657346,296.082377,-9400.615463,-229.828649
9200.657670,148.041188,-9474.636058,229.828649
9200.657994,74.020594,-9474.636058,0.000000
9200.658318,0.000000,-9622.677246,0.000000
9200.658642,222.061783,-9622.677246,0.000000
9200.658966,296.082377,-9622.677246,76.609550
9200.659290,0.000000,-9474.636058,459.657299
9200.659614,-740.205942,-9252.574275,383.047749
9200.659938,-296.082377,-10066.800811,0.000000
9200.660262,0.000000,-9770.718434,0.000000
9200.660586,-296.082377,-9770.718434,76.609550
9200.660910,-296.082377,-9622.677246,0.000000
9200.661234,-222.061783,-9622.677246,0.000000
9200.661558,0.000000,-9474.636058,0.000000
9200.661882,-222.061783,-9622.677246,0.000000
9200.662206,-592.164754,-9548.656652,0.000000
9200.662530,-592.164754,-9474.636058,0.000000
9200.662854,-148.041188,-9622.677246,76.609550
9200.663178,0.000000,-9622.677246,0.000000
9200.663502,-222.061783,-9622.677246,76.609550
9200.663826,0.000000,-9474.636058,-306.438199
9200.664150,296.082377,-9696.697840,0.000000
9200.664474,296.082377,-9474.636058,0.000000
9200.664798,-444.123565,-9400.615463,0.000000
9200.665122,-296.082377,-9918.759623,76.609550
9200.665446,-370.102971,-9548.656652,-229.828649
9200.665770,0.000000,-9696.697840,0.000000
9200.666094,0.000000,-9474.636058,0.000000
9200.666418,0.000000,-9918.759623,0.000000
9200.666742,-444.123565,-9918.759623,-76.609550
9200.667066,0.000000,-9326.594869,229.828649
9200.667390,-222.061783,-9400.615463,-306.438199
9200.667714,0.000000,-9622.677246,-229.828649
9200.668038,0.000000,-9770.718434,0.000000
9200.668362,518.144159,-9622.677246,0.000000
9200.668686,518.144159,-9400.615463,0.000000
9200.669010,0.000000,-9252.574275,-536.266849
9200.669334,0.000000,-9548.656652,-306.438199
9200.669658,444.123565,-9622.677246,0.000000
9200.669982,222.061783,-9548.656652,-153.219100
9200.670306,74.020594,-9844.739029,-306.438199
9200.670630,-148.041188,-9770.718434,-229.828649
9200.670954,-296.082377,-9548.656652,76.609550
9200.671278,222.061783,-9622.677246,0.000000
9200.671602,-222.061783,-9104.533087,-229.828649
9200.671926,0.000000,-9474.636058,-229.828649
9200.672250,74.020594,-9770.718434,-229.828649
9200.672574,370.102971,-9622.677246,76.609550
9200.672898,222.061783,-9622.677246,-153.219100
9200.673222,296.082377,-9770.718434,76.609550
9200.673546,0.000000,-9622.677246,153.219100
9200.673870,0.000000,-9844.739029,-536.266849
9200.674194,0.000000,-9548.656652,-76.609550
9200.674518,0.000000,-9770.718434,0.000000
9200.674842,-370.102971,-9992.780217,-459.657299
9200.675166,-296.082377,-9918.759623,-229.828649
9200.675490,-296.082377,-9992.780217,0.000000
9200.675814,-444.123565,-9696.697840,0.000000
9200.676138,-370.102971,-9622.677246,-383.047749
9200.676462,0.000000,-9696.697840,0.000000
9200.676786,0.000000,-9474.636058,0.000000
9200.677110,222.061783,-9622.677246,229.828649
9200.677434,148.041188,-9474.636058,-153.219100
9200.677758,0.000000,-9548.656652,0.000000
9200.678082,-222.061783,-9696.697840,76.609550
9200.678406,-592.164754,-9622.677246,-153.219100
9200.678730,-370.102971,-9770.718434,0.000000
9200.679054,-148.041188,-9918.759623,-459.657299
9200.679378,-148.041188,-9696.697840,0.000000
9200.679702,0.000000,-9844.739029,153.219100
9200.680026,0.000000,-9770.718434,0.000000
9200.680350,0.000000,-9474.636058,0.000000
9200.680674,74.020594,-9474.636058,0.000000
9200.680998,148.041188,-9104.533087,-153.219100
9200.681322,0.000000,-9326.594869,76.609550
9200.681646,296.082377,-9622.677246,-153.219100
9200.681970,222.061783,-9474.636058,76.609550
9200.682294,0.000000,-9622.677246,-229.828649
9200.682618,74.020594,-9770.718434,-229.828649
9200.682942,0.000000,-9622.677246,-229.828649
9200.683266,-74.020594,-9548.656652,-153.219100
9200.683590,0.000000,-9474.636058,-153.219100
9200.683914,74.020594,-9844.739029,-766.095498
9200.684238,0.000000,-9400.615463,383.047749
9200.684562,370.102971,-9770.718434,0.000000
9200.684886,296.082377,-9548.656652,-153.219100
9200.685210,296.082377,-9548.656652,0.000000
9200.685534,148.041188,-9696.697840,0.000000
9200.685858,74.020594,-9030.512492,-229.828649
9200.686182,0.000000,-9548.656652,0.000000
9200.686506,74.020594,-9400.615463,76.609550
9200.686830,0.000000,-9474.636058,-459.657299
9200.687154,-148.041188,-9844.739029,-229.828649
9200.687478,0.000000,-9918.759623,0.000000
9200.687802,0.000000,-9770.718434,0.000000
9200.688126,74.020594,-9770.718434,0.000000
9200.688450,222.061783,-9770.718434,-153.219100
9200.688774,0.000000,-9696.697840,-459.657299
9200.689098,0.000000,-9474.636058,-459.657299
9200.689422,-444.123565,-9696.697840,-229.828649
9200.689746,-296.082377,-9770.718434,-229.828649
9200.690070,-370.102971,-9770.718434,0.000000
9200.690394,0.000000,-9770.718434,-153.219100
9200.690717,296.082377,-9696.697840,76.609550
9200.691041,148.041188,-9770.718434,536.266849
9200.691365,0.000000,-10066.800811,0.000000
9200.691689,0.000000,-9548.656652,306.438199
9200.692013,0.000000,-9696.697840,76.609550
9200.692337,0.000000,-9622.677246,-229.828649
9200.692661,-222.061783,-10066.800811,-229.828649
9200.692985,-888.247130,-9474.636058,0.000000
9200.693309,-444.123565,-9548.656652,0.000000
9200.693633,-148.041188,-9622.677246,689.485948
9200.693957,0.000000,-9548.656652,-153.219100
9200.694281,-222.061783,-9474.636058,0.000000
9200.694605,0.000000,-9622.677246,0.000000
9200.694929,222.061783,-9696.697840,0.000000
9200.695253,296.082377,-9770.718434,0.000000
9200.695577,222.061783,-9474.636058,76.609550
9200.695901,222.061783,-9326.594869,0.000000
9200.696225,0.000000,-9474.636058,0.000000
9200.696549,296.082377,-9474.636058,-536.266849
9200.696873,0.000000,-9474.636058,-459.657299
9200.697197,-370.102971,-9770.718434,0.000000
9200.697521,0.000000,-9548.656652,-153.219100
9200.697845,296.082377,-9474.636058,76.609550
9200.698169,370.102971,-9326.594869,-153.219100
9200.698493,518.144159,-9548.656652,0.000000
9200.698817,518.144159,-9400.615463,0.000000
9200.699141,296.082377,-9548.656652,153.219100
9200.699465,148.041188,-9548.656652,76.609550
9200.699789,74.020594,-9696.697840,-306.438199
9200.700113,0.000000,-9548.656652,0.000000
9200.700437,148.041188,-9696.697840,-383.047749
9200.700761,444.123565,-9326.594869,0.000000
9200.701085,0.000000,-9474.636058,-383.047749
9200.701409,-370.102971,-9696.697840,-306.438199
9200.701733,-222.061783,-9844.739029,0.000000
9200.702057,222.061783,-9918.759623,76.609550
9200.702381,74.020594,-9696.697840,76.609550
9200.702705,-222.061783,-9474.636058,-383.047749
9200.703029,0.000000,-9770.718434,-306.438199
9200.703353,0.000000,-9548.656652,-153.219100
9200.703677,0.000000,-9918.759623,0.000000
9200.704001,0.000000,-9696.697840,0.000000
9200.704325,0.000000,-9992.780217,76.609550
9200.704649,0.000000,-9844.739029,0.000000
9200.704973,0.000000,-9918.759623,76.609550
9200.705297,-296.082377,-9622.677246,-229.828649
9200.705621,-592.164754,-9548.656652,-153.219100
9200.705945,-148.041188,-9622.677246,-229.828649
9200.706269,-296.082377,-9474.636058,-612.876398
9200.706593,-222.061783,-9548.656652,-459.657299
9200.706917,-296.082377,-9696.697840,-383.047749
9200.707241,0.000000,-9548.656652,0.000000
9200.707565,0.000000,-9548.656652,0.000000
9200.707889,-370.102971,-9474.636058,153.219100
9200.708213,-518.144159,-9400.615463,-919.314598
9200.708537,0.000000,-9548.656652,0.000000
9200.708861,0.000000,-9548.656652,-459.657299
9200.709185,0.000000,-9622.677246,0.000000
9200.709509,-296.082377,-9918.759623,-306.438199
9200.709833,-148.041188,-9696.697840,76.609550
9200.710157,74.020594,-9178.553681,229.828649
9200.710481,296.082377,-9474.636058,0.000000
9200.710805,74.020594,-9548.656652,76.609550
9200.711129,296.082377,-9918.759623,-306.438199
9200.711453,74.020594,-9844.739029,0.000000
9200.711777,222.061783,-9326.594869,0.000000
9200.712101,0.000000,-9400.615463,76.609550
9200.712425,0.000000,-9918.759623,229.828649
9200.712749,592.164754,-9622.677246,0.000000
9200.713073,148.041188,-9474.636058,76.609550
9200.713397,148.041188,-9622.677246,76.609550
9200.713721,222.061783,-9548.656652,0.000000
9200.714045,0.000000,-9992.780217,0.000000
9200.714369,0.000000,-9770.718434,-153.219100
9200.714693,-148.041188,-9400.615463,-229.828649
9200.715017,0.000000,-9622.677246,-612.876398
9200.715341,0.000000,-9474.636058,0.000000
9200.715665,296.082377,-9474.636058,229.828649
9200.715989,370.102971,-9696.697840,459.657299
9200.716313,74.020594,-9696.697840,0.000000
9200.716637,74.020594,-9770.718434,-153.219100
9200.716961,-296.082377,-9770.718434,-153.219100
9200.717285,0.000000,-9622.677246,0.000000
9200.717609,0.000000,-9918.759623,-306.438199
9200.717933,0.000000,-9178.553681,-229.828649
9200.718257,-148.041188,-9548.656652,76.609550
9200.718581,0.000000,-9770.718434,0.000000
9200.718905,-148.041188,-9622.677246,0.000000
9200.719229,-370.102971,-9844.739029,-306.438199
9200.719553,-592.164754,-9770.718434,-153.219100
9200.719877,-444.123565,-9548.656652,76.609550
9200.720201,-296.082377,-9474.636058,229.828649
9200.720525,296.082377,-9474.636058,0.000000
9200.720849,0.000000,-9178.553681,0.000000
9200.721173,0.000000,-9622.677246,-229.828649
9200.721497,0.000000,-9548.656652,153.219100
9200.721821,0.000000,-9844.739029,0.000000
9200.722145,-370.102971,-9622.677246,0.000000
9200.722469,-370.102971,-10066.800811,0.000000
9200.722793,-148.041188,-9992.780217,229.828649
9200.723117,-296.082377,-9844.739029,-229.828649
9200.723441,-296.082377,-9770.718434,76.609550
9200.723765,-148.041188,-9696.697840,0.000000
9200.724089,0.000000,-9548.656652,0.000000
9200.724413,148.041188,-9622.677246,-153.219100
9200.724737,74.020594,-9548.656652,153.219100
9200.725061,222.061783,-9178.553681,0.000000
9200.725385,0.000000,-9696.697840,0.000000
9200.725709,0.000000,-9548.656652,-995.924147
9200.726033,148.041188,-9548.656652,-229.828649
9200.726357,-148.041188,-9474.636058,-842.705048
9200.726680,-222.061783,-9474.636058,-383.047749
9200.727004,0.000000,-9770.718434,0.000000
9200.727328,222.061783,-9770.718434,0.000000
9200.727652,222.061783,-9474.636058,0.000000
9200.727976,148.041188,-9104.533087,0.000000
9200.728300,518.144159,-9474.636058,0.000000
9200.728624,370.102971,-9474.636058,153.219100
9200.728948,222.061783,-9770.718434,-153.219100
9200.729272,-148.041188,-9622.677246,-229.828649
9200.729596,0.000000,-9918.759623,0.000000
9200.729920,0.000000,-9844.739029,-153.219100
9200.730244,-148.041188,-9474.636058,-229.828649
9200.730568,0.000000,-10214.842000,-153.219100
9200.730892,-370.102971,-10214.842000,0.000000
9200.731216,74.020594,-10140.821405,-153.219100
9200.731540,0.000000,-9474.636058,-153.219100
9200.731864,74.020594,-9474.636058,229.828649
9200.732188,0.000000,-9548.656652,-153.219100
9200.732512,-148.041188,-9844.739029,-76.609550
9200.732836,0.000000,-9918.759623,0.000000
9200.733160,-518.144159,-9918.759623,0.000000
9200.733484,-148.041188,-9770.718434,-536.266849
9200.733808,0.000000,-9770.718434,229.828649
9200.734132,-592.164754,-9770.718434,76.609550
9200.734456,-222.061783,-9548.656652,-229.828649
9200.734780,-370.102971,-9696.697840,0.000000
9200.735104,-444.123565,-9622.677246,76.609550
9200.735428,0.000000,-9844.739029,-153.219100
9200.735752,74.020594,-9696.697840,229.828649
9200.736076,-222.061783,-9622.677246,153.219100
9200.736400,0.000000,-9474.636058,153.219100
9200.736724,0.000000,-9770.718434,0.000000
9200.737048,0.000000,-9622.677246,-153.219100
9200.737372,-222.061783,-9992.780217,0.000000
9200.737696,0.000000,-9770.718434,-229.828649
9200.738020,0.000000,-9474.636058,306.438199
9200.738344,370.102971,-9696.697840,0.000000
9200.738668,0.000000,-9622.677246,-153.219100
9200.738992,-74.020594,-9474.636058,0.000000
9200.739316,74.020594,-9548.656652,153.219100
9200.739640,74.020594,-9474.636058,0.000000
9200.739964,0.000000,-9622.677246,0.000000
9200.740288,0.000000,-9696.697840,0.000000
9200.740612,148.041188,-9400.615463,-229.828649
9200.740936,222.061783,-9400.615463,-153.219100
9200.741260,148.041188,-9474.636058,0.000000
9200.741584,0.000000,-9622.677246,0.000000
9200.741908,148.041188,-9770.718434,-306.438199
9200.742232,222.061783,-9696.697840,0.000000
9200.742556,296.082377,-9844.739029,0.000000
9200.742880,0.000000,-9918.759623,-153.219100
9200.743204,74.020594,-9622.677246,0.000000
9200.743528,0.000000,-9474.636058,306.438199
9200.743852,444.123565,-9474.636058,383.047749
9200.744176,-148.041188,-9474.636058,0.000000
9200.744500,0.000000,-9844.739029,0.000000
9200.744824,0.000000,-9770.718434,-229.828649
9200.745148,0.000000,-9696.697840,0.000000
9200.745472,592.164754,-9844.739029,-229.828649
9200.745796,148.041188,-9992.780217,76.609550
9200.746120,-296.082377,-9474.636058,-153.219100
9200.746444,0.000000,-9474.636058,-306.438199
9200.746768,0.000000,-9844.739029,0.000000
9200.747092,0.000000,-10066.800811,0.000000
9200.747416,-296.082377,-9770.718434,0.000000
9200.747740,-444.123565,-9622.677246,229.828649
9200.748064,-296.082377,-9770.718434,0.000000
9200.748388,-370.102971,-9474.636058,-383.047749
9200.748712,-592.164754,-9474.636058,0.000000
9200.749036,0.000000,-9770.718434,-383.047749
9200.749360,74.020594,-9622.677246,0.000000
9200.749684,148.041188,-9474.636058,-229.828649
9200.750008,-148.041188,-9770.718434,-153.219100
9200.750332,0.000000,-9918.759623,153.219100
9200.750656,222.061783,-9622.677246,-383.047749
9200.750980,-148.041188,-9326.594869,383.047749
9200.751304,-444.123565,-9474.636058,-229.828649
9200.751628,-444.123565,-9918.759623,-153.219100
9200.751952,-444.123565,-9548.656652,0.000000
9200.752276,-370.102971,-9696.697840,-306.438199
9200.752600,-148.041188,-9548.656652,0.000000
9200.752924,0.000000,-9622.677246,-383.047749
9200.753248,370.102971,-9474.636058,76.609550
9200.753572,666.185348,-9178.553681,153.219100
9200.753896,666.185348,-9770.718434,-153.219100
9200.754220,370.102971,-9622.677246,76.609550
9200.754544,296.082377,-9770.718434,-229.828649
9200.754868,148.041188,-9770.718434,0.000000
9200.755192,0.000000,-9474.636058,0.000000
9200.755516,-222.061783,-9474.636058,0.000000
9200.755840,-518.144159,-9474.636058,-536.266849
9200.756164,-296.082377,-9474.636058,-383.047749
9200.756488,0.000000,-9770.718434,-229.828649
9200.756812,148.041188,-9400.615463,0.000000
9200.757136,370.102971,-9548.656652,76.609550
9200.757460,592.164754,-9844.739029,536.266849
9200.757783,962.267725,-9548.656652,-153.219100
9200.758107,296.082377,-9178.553681,-229.828649
9200.758431,74.020594,-9400.615463,153.219100
9200.758755,-444.123565,-9622.677246,0.000000
9200.759079,0.000000,-9992.780217,-153.219100
9200.759403,-222.061783,-9770.718434,-306.438199
9200.759727,-148.041188,-10066.800811,0.000000
9200.760051,0.000000,-9696.697840,0.000000
9200.760375,370.102971,-9992.780217,76.609550
9200.760699,-222.061783,-9474.636058,0.000000
9200.761023,-444.123565,-9104.533087,0.000000
9200.761347,-296.082377,-9474.636058,-383.047749
9200.761671,0.000000,-9770.718434,0.000000
9200.761995,-148.041188,-9548.656652,153.219100
9200.762319,0.000000,-9696.697840,153.219100
9200.762643,-444.123565,-9622.677246,76.609550
9200.762967,-592.164754,-9474.636058,-153.219100
9200.763291,-666.185348,-9770.718434,0.000000
9200.763615,-148.041188,-10140.821405,-229.828649
9200.763939,0.000000,-10066.800811,0.000000
9200.764263,0.000000,-9918.759623,0.000000
9200.764587,-222.061783,-9844.739029,0.000000
9200.764911,0.000000,-9400.615463,0.000000
9200.765235,-222.061783,-9326.594869,229.828649
9200.765559,-296.082377,-9178.553681,-306.438199
9200.765883,0.000000,-9400.615463,-153.219100
9200.766207,0.000000,-9548.656652,-383.047749
9200.766531,-222.061783,-9696.697840,0.000000
9200.766855,74.020594,-9844.739029,0.000000
9200.767179,148.041188,-9770.718434,153.219100
9200.767503,0.000000,-9400.615463,-153.219100
9200.767827,0.000000,-9770.718434,-153.219100
9200.768151,296.082377,-9548.656652,459.657299
9200.768475,148.041188,-9474.636058,153.219100
9200.768799,0.000000,-9622.677246,0.000000
9200.769123,0.000000,-9622.677246,-229.828649
9200.769447,0.000000,-9474.636058,-229.828649
9200.769771,148.041188,-9622.677246,-229.828649
9200.770095,222.061783,-9548.656652,0.000000
9200.770419,-296.082377,-9252.574275,-459.657299
9200.770743,74.020594,-9622.677246,-153.219100
9200.771067,222.061783,-9548.656652,0.000000
9200.771391,222.061783,-9770.718434,0.000000
9200.771715,222.061783,-10066.800811,76.609550
9200.772039,222.061783,-9622.677246,0.000000
9200.772363,444.123565,-9622.677246,153.219100
9200.772687,148.041188,-9474.636058,-153.219100
9200.773011,0.000000,-9474.636058,-536.266849
9200.773335,-370.102971,-9622.677246,-306.438199
9200.773659,0.000000,-9992.780217,-153.219100
9200.773983,-296.082377,-9844.739029,-153.219100
9200.774307,-518.144159,-9918.759623,-383.047749
9200.774631,-370.102971,-9622.677246,-612.876398
9200.774955,444.123565,-9474.636058,306.438199
9200.775279,444.123565,-9622.677246,383.047749
9200.775603,0.000000,-9326.594869,0.000000
9200.775927,-222.061783,-9696.697840,0.000000
9200.776251,-296.082377,-9696.697840,0.000000
9200.776575,0.000000,-9770.718434,0.000000
9200.776899,-148.041188,-9622.677246,383.047749
9200.777223,-148.041188,-9474.636058,-153.219100
9200.777547,-370.102971,-9770.718434,0.000000
9200.777871,148.041188,-9622.677246,536.266849
9200.778195,0.000000,-9474.636058,-306.438199
9200.778519,-222.061783,-9770.718434,-306.438199
9200.778843,-296.082377,-9844.739029,-153.219100
9200.779167,-222.061783,-9918.759623,0.000000
9200.779491,0.000000,-9474.636058,306.438199
9200.779815,0.000000,-9474.636058,-153.219100
9200.780139,0.000000,-9696.697840,153.219100
9200.780463,0.000000,-9400.615463,0.000000
9200.780787,222.061783,-9474.636058,-229.828649
9200.781111,296.082377,-9992.780217,-153.219100
9200.781435,-222.061783,-9918.759623,-306.438199
9200.781759,0.000000,-9770.718434,0.000000
9200.782083,148.041188,-9474.636058,-153.219100
9200.782407,0.000000,-9252.574275,-612.876398
9200.782731,-148.041188,-9474.636058,-612.876398
9200.783055,0.000000,-9696.697840,-153.219100
9200.783379,370.102971,-9918.759623,-153.219100
9200.783703,0.000000,-9474.636058,0.000000
9200.784027,148.041188,-9548.656652,-153.219100
9200.784351,296.082377,-9548.656652,229.828649
9200.784675,296.082377,-9548.656652,76.609550
9200.784999,74.020594,-9474.636058,306.438199
9200.785323,74.020594,-9252.574275,153.219100
9200.785647,0.000000,-9474.636058,-229.828649
9200.785971,74.020594,-9770.718434,0.000000
9200.786295,296.082377,-9622.677246,-229.828649
9200.786619,148.041188,-9918.759623,0.000000
9200.786943,222.061783,-9474.636058,0.000000
9200.787267,0.000000,-9326.594869,-229.828649
9200.787591,0.000000,-9770.718434,-229.828649
9200.787915,0.000000,-9770.718434,-459.657299
9200.788239,0.000000,-9770.718434,-306.438199
9200.788563,0.000000,-9696.697840,-153.219100
9200.788887,0.000000,-9992.780217,0.000000
9200.789210,74.020594,-9844.739029,0.000000
9200.789534,148.041188,-9844.739029,-229.828649
9200.789858,0.000000,-9252.574275,-306.438199
9200.790182,0.000000,-9474.636058,0.000000
9200.790506,0.000000,-9844.739029,-383.047749
9200.790830,0.000000,-9992.780217,-229.828649
9200.791154,-296.082377,-9696.697840,0.000000
9200.791478,0.000000,-9696.697840,0.000000
9200.791802,0.000000,-9622.677246,0.000000
9200.792126,-296.082377,-9844.739029,-766.095498
9200.792450,-370.102971,-9326.594869,0.000000
9200.792774,-518.144159,-9622.677246,-459.657299
9200.793098,-148.041188,-9770.718434,0.000000
9200.793422,-148.041188,-9770.718434,0.000000
9200.793746,0.000000,-9696.697840,0.000000
9200.794070,0.000000,-9770.718434,-459.657299
9200.794394,0.000000,-9326.594869,-459.657299
9200.794718,296.082377,-9770.718434,0.000000
9200.795042,-296.082377,-9400.615463,-536.266849
9200.795366,0.000000,-9696.697840,0.000000
9200.795690,0.000000,-9770.718434,-306.438199
9200.796014,0.000000,-9770.718434,-153.219100
9200.796338,-148.041188,-9696.697840,0.000000
9200.796662,0.000000,-9326.594869,-842.705048
9200.796986,74.020594,-9474.636058,0.000000
9200.797310,370.102971,-9326.594869,153.219100
9200.797634,74.020594,-9622.677246,-306.438199
9200.797958,148.041188,-9474.636058,0.000000
9200.798282,148.041188,-9548.656652,0.000000
9200.798606,296.082377,-9696.697840,-153.219100
9200.798930,296.082377,-9548.656652,-153.219100
9200.799254,222.061783,-9474.636058,-229.828649
9200.799578,370.102971,-9992.780217,-383.047749
9200.799902,148.041188,-9474.636058,-383.047749
9200.800226,0.000000,-9770.718434,-153.219100
9200.800550,-74.020594,-9770.718434,-306.438199
9200.800874,0.000000,-9918.759623,-306.438199
9200.801198,222.061783,-9548.656652,0.000000
9200.801522,74.020594,-9622.677246,229.828649
9200.801846,370.102971,-9252.574275,0.000000
9200.802170,148.041188,-9474.636058,766.095498
9200.802494,0.000000,-9844.739029,0.000000
9200.802818,-296.082377,-9770.718434,0.000000
9200.803142,-296.082377,-9918.759623,0.000000
9200.803466,-370.102971,-10066.800811,0.000000
9200.803790,-148.041188,-9326.594869,-229.828649
9200.804114,-148.041188,-9548.656652,0.000000
9200.804438,74.020594,-9622.677246,76.609550
9200.804762,-148.041188,-9844.739029,0.000000
9200.805086,148.041188,-9844.739029,153.219100
9200.805410,0.000000,-9474.636058,76.609550
9200.805735,0.000000,-9622.677246,0.000000
9200.806059,-222.061783,-9622.677246,-306.438199
9200.806383,-370.102971,-9844.739029,-459.657299
9200.806707,-592.164754,-9696.697840,-306.438199
9200.807031,-370.102971,-9696.697840,0.000000
9200.807355,0.000000,-9844.739029,-229.828649
9200.807679,0.000000,-9326.594869,229.828649
9200.808003,0.000000,-9696.697840,0.000000
9200.808327,222.061783,-9770.718434,0.000000
9200.808651,74.020594,-9548.656652,-229.828649
9200.808975,0.000000,-9400.615463,229.828649
9200.809299,0.000000,-9474.636058,0.000000
9200.809623,-74.020594,-9474.636058,0.000000
9200.809947,-296.082377,-9400.615463,-153.219100
9200.810271,148.041188,-9548.656652,-229.828649
9200.810595,0.000000,-9918.759623,-383.047749
9200.810919,-370.102971,-9770.718434,-306.438199
9200.811243,-222.061783,-9770.718434,0.000000
9200.811567,148.041188,-9474.636058,0.000000
9200.811891,148.041188,-9622.677246,-229.828649
9200.812215,-518.144159,-9400.615463,229.828649
9200.812539,296.082377,-9400.615463,153.219100
9200.812863,444.123565,-9474.636058,0.000000
9200.813187,222.061783,-9474.636058,-153.219100
9200.813511,0.000000,-9622.677246,0.000000
9200.813835,-148.041188,-9770.718434,0.000000
9200.814159,74.020594,-9474.636058,0.000000
9200.814484,0.000000,-9548.656652,-153.219100
9200.814808,-148.041188,-9622.677246,0.000000
9200.815132,-148.041188,-9474.636058,0.000000
9200.815456,222.061783,-9770.718434,0.000000
9200.815780,222.061783,-9474.636058,76.609550
9200.816104,0.000000,-9548.656652,76.609550
9200.816428,148.041188,-9548.656652,76.609550
9200.816752,0.000000,-9548.656652,229.828649
9200.817076,222.061783,-9622.677246,0.000000
9200.817400,0.000000,-9696.697840,229.828649
9200.817724,-370.102971,-9622.677246,-459.657299
9200.818048,-370.102971,-9770.718434,-306.438199
9200.818372,0.000000,-9548.656652,0.000000
9200.818696,0.000000,-9622.677246,0.000000
9200.819020,0.000000,-9622.677246,-229.828649
9200.819344,-592.164754,-9326.594869,-612.876398
9200.819668,-296.082377,-9622.677246,0.000000
9200.819992,0.000000,-9622.677246,76.609550
9200.820316,0.000000,-9770.718434,0.000000
9200.820640,-296.082377,-9770.718434,0.000000
9200.820964,0.000000,-9474.636058,-153.219100
9200.821288,222.061783,-9326.594869,0.000000
9200.821612,74.020594,-9770.718434,0.000000
9200.821936,-148.041188,-9400.615463,0.000000
9200.822260,-518.144159,-9474.636058,0.000000
9200.822584,-222.061783,-9622.677246,0.000000
9200.822908,-444.123565,-9696.697840,0.000000
9200.823233,-444.123565,-9696.697840,-383.047749
9200.823557,-222.061783,-9770.718434,-229.828649
9200.823881,148.041188,-9696.697840,0.000000
9200.824205,370.102971,-9548.656652,383.047749
9200.824529,148.041188,-9474.636058,229.828649
9200.824853,0.000000,-9622.677246,-153.219100
9200.825177,370.102971,-9844.739029,0.000000
9200.825501,444.123565,-9770.718434,0.000000
9200.825825,222.061783,-9770.718434,76.609550
9200.826149,-148.041188,-9548.656652,0.000000
9200.826473,0.000000,-9622.677246,-229.828649
9200.826797,148.041188,-9400.615463,-306.438199
9200.827121,296.082377,-9696.697840,76.609550
9200.827445,-222.061783,-9770.718434,0.000000
9200.827769,0.000000,-9844.739029,0.000000
9200.828093,148.041188,-9548.656652,0.000000
9200.828417,222.061783,-9178.553681,0.000000
9200.828741,74.020594,-9326.594869,-306.438199
9200.829065,0.000000,-9474.636058,306.438199
9200.829389,296.082377,-9474.636058,0.000000
9200.829713,592.164754,-9696.697840,-153.219100
9200.830037,222.061783,-9844.739029,0.000000
9200.830361,0.000000,-9992.780217,-306.438199
9200.830685,0.000000,-9770.718434,0.000000
9200.831009,222.061783,-9770.718434,0.000000
9200.831333,-370.102971,-9474.636058,229.828649
9200.831657,-296.082377,-9474.636058,76.609550
9200.831982,-148.041188,-9696.697840,-153.219100
9200.832306,0.000000,-9770.718434,0.000000
9200.832630,-296.082377,-9622.677246,0.000000
9200.832954,-222.061783,-9844.739029,-229.828649
9200.833278,-148.041188,-9844.739029,-306.438199
9200.833602,0.000000,-9622.677246,0.000000
9200.833926,148.041188,-9844.739029,0.000000
9200.834250,222.061783,-9770.718434,306.438199
9200.834574,74.020594,-10214.842000,0.000000
9200.834898,-296.082377,-9918.759623,0.000000
9200.835222,0.000000,-9770.718434,0.000000
9200.835546,-592.164754,-9622.677246,0.000000
9200.835870,-444.123565,-9770.718434,-229.828649
9200.836194,-148.041188,-9622.677246,153.219100
9200.836518,-444.123565,-9474.636058,76.609550
9200.836842,296.082377,-9474.636058,0.000000
9200.837166,0.000000,-9548.656652,0.000000
9200.837490,-222.061783,-9770.718434,76.609550
9200.837814,0.000000,-9548.656652,76.609550
9200.838138,74.020594,-9474.636058,-229.828649
9200.838462,0.000000,-9252.574275,0.000000
9200.838786,74.020594,-9474.636058,766.095498
9200.839110,74.020594,-9622.677246,0.000000
9200.839434,370.102971,-9770.718434,76.609550
9200.839758,74.020594,-9548.656652,0.000000
9200.840082,0.000000,-9770.718434,-153.219100
9200.840406,-222.061783,-9696.697840,-153.219100
9200.840731,0.000000,-9548.656652,76.609550
9200.841055,370.102971,-9326.594869,76.609550
9200.841379,74.020594,-9548.656652,0.000000
9200.841703,74.020594,-9548.656652,153.219100
9200.842027,444.123565,-9548.656652,76.609550
9200.842351,592.164754,-9326.594869,76.609550
9200.842675,370.102971,-9696.697840,76.609550
9200.842999,0.000000,-9770.718434,-306.438199
9200.843323,0.000000,-9844.739029,0.000000
9200.843647,296.082377,-9844.739029,0.000000
9200.843971,-518.144159,-9696.697840,0.000000
9200.844295,-148.041188,-9326.594869,0.000000
9200.844619,0.000000,-9992.780217,0.000000
9200.844943,0.000000,-9474.636058,-153.219100
9200.845267,148.041188,-9622.677246,0.000000
9200.845591,74.020594,-9622.677246,76.609550
9200.845915,-370.102971,-9622.677246,0.000000
9200.846239,-222.061783,-9844.739029,0.000000
9200.846563,0.000000,-9622.677246,306.438199
9200.846887,0.000000,-9844.739029,0.000000
9200.847211,-222.061783,-9844.739029,-153.219100
9200.847535,-222.061783,-9696.697840,0.000000
9200.847859,0.000000,-9622.677246,0.000000
9200.848183,0.000000,-9844.739029,0.000000
9200.848507,-222.061783,-9770.718434,0.000000
9200.848831,-444.123565,-9548.656652,-229.828649
9200.849155,-296.082377,-9400.615463,229.828649
9200.849480,0.000000,-9548.656652,0.000000
9200.849804,-518.144159,-9400.615463,0.000000
9200.850128,-296.082377,-10066.800811,0.000000
9200.850452,-370.102971,-9696.697840,76.609550
9200.850776,0.000000,-9474.636058,76.609550
9200.851100,0.000000,-9622.677246,0.000000
9200.851424,0.000000,-9474.636058,459.657299
9200.851748,-148.041188,-9696.697840,76.609550
9200.852072,74.020594,-9548.656652,-459.657299
9200.852396,74.020594,-9696.697840,-229.828649
9200.852720,-370.102971,-9844.739029,0.000000
9200.853044,-148.041188,-9918.759623,0.000000
9200.853368,0.000000,-9770.718434,0.000000
9200.853692,74.020594,-9030.512492,0.000000
9200.854016,370.102971,-9918.759623,-766.095498
9200.854340,0.000000,-9548.656652,-306.438199
9200.854664,0.000000,-9474.636058,-229.828649
9200.854988,222.061783,-9474.636058,0.000000
9200.855312,222.061783,-9400.615463,0.000000
9200.855636,222.061783,-9696.697840,0.000000
9200.855960,222.061783,-9770.718434,0.000000
9200.856284,666.185348,-9548.656652,536.266849
9200.856608,-296.082377,-9178.553681,0.000000
9200.856932,148.041188,-9326.594869,0.000000
9200.857256,-296.082377,-9548.656652,0.000000
9200.857580,74.020594,-9622.677246,-153.219100
9200.857904,222.061783,-9474.636058,0.000000
9200.858228,148.041188,-9548.656652,0.000000
9200.858553,-222.061783,-9548.656652,0.000000
9200.858877,0.000000,-9622.677246,0.000000
9200.859201,222.061783,-9548.656652,-229.828649
9200.859525,148.041188,-9474.636058,0.000000
9200.859849,-370.102971,-9548.656652,0.000000
9200.860173,-296.082377,-9696.697840,0.000000
9200.860497,0.000000,-9622.677246,0.000000
9200.860821,0.000000,-9474.636058,-306.438199
9200.861145,-148.041188,-9548.656652,229.828649
9200.861469,-296.082377,-9474.636058,0.000000
9200.861793,0.000000,-9918.759623,0.000000
9200.862117,0.000000,-9474.636058,0.000000
9200.862441,-370.102971,-9696.697840,-153.219100
9200.862765,-592.164754,-9770.718434,0.000000
9200.863089,-370.102971,-9696.697840,-153.219100
9200.863413,74.020594,-9548.656652,0.000000
9200.863737,74.020594,-9474.636058,306.438199
9200.864061,-370.102971,-9474.636058,0.000000
9200.864385,0.000000,-9770.718434,76.609550
9200.864709,-222.061783,-9696.697840,0.000000
9200.865033,-444.123565,-9696.697840,0.000000
9200.865357,-592.164754,-9474.636058,-306.438199
9200.865681,-296.082377,-10066.800811,0.000000
9200.866005,0.000000,-9548.656652,0.000000
9200.866329,222.061783,-9918.759623,-612.876398
9200.866653,0.000000,-9622.677246,0.000000
9200.866977,0.000000,-9992.780217,-383.047749
9200.867302,0.000000,-9844.739029,-153.219100
9200.867626,148.041188,-9696.697840,0.000000
9200.867950,74.020594,-9548.656652,-229.828649
9200.868274,370.102971,-9696.697840,76.609550
9200.868598,0.000000,-9622.677246,-153.219100
9200.868922,0.000000,-9696.697840,0.000000
9200.869246,0.000000,-9474.636058,0.000000
9200.869570,0.000000,-9400.615463,-229.828649
9200.869894,-296.082377,-9474.636058,0.000000
9200.870218,0.000000,-9548.656652,0.000000
9200.870542,518.144159,-9252.574275,229.828649
9200.870866,370.102971,-9178.553681,153.219100
9200.871190,148.041188,-9474.636058,229.828649
9200.871514,222.061783,-9622.677246,0.000000
9200.871838,518.144159,-9696.697840,0.000000
9200.872162,0.000000,-9474.636058,0.000000
9200.872486,-296.082377,-9918.759623,-229.828649
9200.872810,-370.102971,-10214.842000,-153.219100
9200.873134,0.000000,-9622.677246,-229.828649
9200.873458,0.000000,-9622.677246,229.828649
9200.873782,0.000000,-9696.697840,76.609550
9200.874106,0.000000,-9696.697840,0.000000
9200.874430,222.061783,-9844.739029,229.828649
9200.874754,0.000000,-9548.656652,0.000000
9200.875078,0.000000,-9622.677246,-229.828649
9200.875402,-222.061783,-9548.656652,0.000000
9200.875726,0.000000,-9696.697840,-229.828649
9200.876051,0.000000,-9622.677246,0.000000
9200.876375,0.000000,-9696.697840,153.219100
9200.876699,0.000000,-9992.780217,0.000000
9200.877023,-296.082377,-9918.759623,0.000000
9200.877347,-444.123565,-9844.739029,0.000000
9200.877671,-444.123565,-9622.677246,-306.438199
9200.877995,-74.020594,-9918.759623,0.000000
9200.878319,-740.205942,-9474.636058,-306.438199
9200.878643,0.000000,-9770.718434,306.438199
9200.878967,0.000000,-9474.636058,0.000000
9200.879291,0.000000,-9696.697840,0.000000
9200.879615,0.000000,-9696.697840,0.000000
9200.879939,0.000000,-9548.656652,0.000000
9200.880263,0.000000,-9696.697840,-383.047749
9200.880587,0.000000,-9844.739029,76.609550
9200.880911,-148.041188,-9474.636058,0.000000
9200.881235,0.000000,-9622.677246,0.000000
9200.881559,0.000000,-9992.780217,0.000000
9200.881883,0.000000,-10066.800811,0.000000
9200.882207,74.020594,-9696.697840,-153.219100
9200.882531,0.000000,-9474.636058,-306.438199
9200.882855,222.061783,-9770.718434,0.000000
9200.883179,0.000000,-9474.636058,-229.828649
9200.883503,222.061783,-9474.636058,306.438199
9200.883827,222.061783,-9622.677246,306.438199
9200.884151,370.102971,-9548.656652,76.609550
9200.884475,370.102971,-9548.656652,76.609550
9200.884800,222.061783,-9474.636058,0.000000
9200.885124,296.082377,-9622.677246,0.000000
9200.885448,296.082377,-9696.697840,0.000000
9200.885772,74.020594,-9696.697840,-459.657299
9200.886096,-148.041188,-9770.718434,-536.266849
9200.886420,0.000000,-9770.718434,-306.438199
9200.886744,0.000000,-9622.677246,-229.828649
9200.887068,74.020594,-9696.697840,0.000000
9200.887392,0.000000,-9548.656652,0.000000
9200.887716,0.000000,-9474.636058,-153.219100
9200.888040,0.000000,-9548.656652,-306.438199
9200.888364,296.082377,-9400.615463,-383.047749
9200.888688,74.020594,-9548.656652,-76.609550
9200.889012,592.164754,-10362.883188,0.000000
9200.889336,148.041188,-9696.697840,0.000000
9200.889660,0.000000,-9844.739029,0.000000
9200.889984,0.000000,-9918.759623,-153.219100
9200.890308,-370.102971,-9992.780217,0.000000
9200.890632,-370.102971,-9474.636058,0.000000
9200.890956,-444.123565,-9770.718434,0.000000
9200.891280,-444.123565,-9326.594869,0.000000
9200.891604,-666.185348,-9474.636058,153.219100
9200.891928,-444.123565,-9844.739029,-153.219100
9200.892252,-370.102971,-9474.636058,0.000000
9200.892576,0.000000,-9474.636058,0.000000
9200.892900,0.000000,-9548.656652,76.609550
9200.893224,0.000000,-9474.636058,383.047749
9200.893549,370.102971,-9622.677246,536.266849
9200.893873,0.000000,-9696.697840,76.609550
9200.894197,-296.082377,-9400.615463,0.000000
9200.894521,-518.144159,-9770.718434,-383.047749
9200.894845,0.000000,-9992.780217,0.000000
9200.895169,-296.082377,-9770.718434,0.000000
9200.895493,-222.061783,-9918.759623,76.609550
9200.895817,-222.061783,-10066.800811,0.000000
9200.896141,0.000000,-9992.780217,-229.828649
9200.896465,0.000000,-9770.718434,0.000000
9200.896789,370.102971,-9178.553681,306.438199
9200.897113,0.000000,-9252.574275,0.000000
9200.897437,222.061783,-9696.697840,306.438199
9200.897761,444.123565,-9844.739029,153.219100
9200.898085,518.144159,-9622.677246,0.000000
9200.898409,370.102971,-9474.636058,-153.219100
9200.898733,296.082377,-9696.697840,153.219100
9200.899057,0.000000,-9474.636058,76.609550
9200.899381,0.000000,-9844.739029,0.000000
9200.899705,0.000000,-9548.656652,0.000000
9200.900029,0.000000,-9696.697840,0.000000
9200.900353,74.020594,-9844.739029,0.000000
9200.900677,0.000000,-9918.759623,0.000000
9200.901001,0.000000,-9548.656652,-229.828649
9200.901325,148.041188,-9474.636058,383.047749
9200.901649,74.020594,-9474.636058,76.609550
9200.901973,296.082377,-9474.636058,306.438199
9200.902298,0.000000,-9178.553681,0.000000
9200.902619,148.041188,-9696.697840,0.000000
9200.902943,74.020594,-9844.739029,0.000000
9200.903267,-222.061783,-9622.677246,-153.219100
9200.903591,-148.041188,-9548.656652,0.000000
9200.903915,-370.102971,-9696.697840,153.219100
9200.904239,0.000000,-9400.615463,-229.828649
9200.904563,-148.041188,-9696.697840,0.000000
9200.904887,-296.082377,-9622.677246,-153.219100
9200.905211,-518.144159,-9770.718434,0.000000
9200.905535,-296.082377,-9622.677246,-153.219100
9200.905860,-444.123565,-9474.636058,0.000000
9200.906184,-222.061783,-9622.677246,-459.657299
9200.906508,0.000000,-9400.615463,0.000000
9200.906832,0.000000,-9400.615463,-153.219100
9200.907156,296.082377,-9548.656652,306.438199
9200.907480,74.020594,-9918.759623,0.000000
9200.907804,-148.041188,-9844.739029,0.000000
9200.908128,-148.041188,-9770.718434,-153.219100
9200.908452,-148.041188,-9844.739029,0.000000
9200.908776,-518.144159,-9474.636058,-306.438199
9200.909100,-444.123565,-9844.739029,0.000000
9200.909424,-370.102971,-9474.636058,-153.219100
9200.909748,0.000000,-9548.656652,-306.438199
9200.910072,0.000000,-9622.677246,0.000000
9200.910396,0.000000,-9770.718434,0.000000
9200.910720,74.020594,-9622.677246,0.000000
9200.911044,222.061783,-9326.594869,229.828649
9200.911368,148.041188,-8956.491898,0.000000
9200.911692,222.061783,-9548.656652,0.000000
9200.912016,592.164754,-9992.780217,-459.657299
9200.912340,148.041188,-9696.697840,0.000000
9200.912664,0.000000,-9622.677246,0.000000
9200.912988,-296.082377,-9696.697840,-153.219100
9200.913312,-370.102971,-9844.739029,0.000000
9200.913636,-296.082377,-9326.594869,-306.438199
9200.913960,0.000000,-9326.594869,306.438199
9200.914284,148.041188,-9918.759623,-153.219100
9200.914608,370.102971,-9918.759623,0.000000
9200.914932,222.061783,-9696.697840,0.000000
9200.915256,518.144159,-9474.636058,0.000000
9200.915580,222.061783,-9474.636058,0.000000
9200.915904,0.000000,-9548.656652,0.000000
9200.916228,74.020594,-9844.739029,-229.828649
9200.916552,222.061783,-10510.924376,76.609550
9200.916876,0.000000,-9622.677246,0.000000
9200.917200,-222.061783,-9622.677246,0.000000
9200.917524,-370.102971,-10214.842000,0.000000
9200.917848,-296.082377,-9844.739029,0.000000
9200.918172,74.020594,-9622.677246,76.609550
9200.918496,0.000000,-9474.636058,0.000000
9200.918820,-444.123565,-9252.574275,0.000000
9200.919144,-296.082377,-9474.636058,76.609550
9200.919468,74.020594,-9548.656652,76.609550
9200.919792,0.000000,-9622.677246,0.000000
9200.920116,-370.102971,-9696.697840,0.000000
9200.920440,-148.041188,-9770.718434,0.000000
9200.920764,222.061783,-9696.697840,0.000000
9200.921088,-148.041188,-9474.636058,153.219100
9200.921412,-444.123565,-9548.656652,0.000000
9200.921736,-296.082377,-9844.739029,-153.219100
9200.922060,-148.041188,-9770.718434,0.000000
9200.922384,0.000000,-9844.739029,76.609550
9200.922708,0.000000,-9696.697840,0.000000
9200.923032,-222.061783,-9622.677246,-153.219100
9200.923356,0.000000,-9548.656652,306.438199
9200.923680,222.061783,-9326.594869,229.828649
9200.924004,0.000000,-9252.574275,0.000000
9200.924328,-148.041188,-9622.677246,0.000000
9200.924652,74.020594,-9770.718434,-153.219100
9200.924976,0.000000,-9474.636058,0.000000
9200.925300,148.041188,-9474.636058,76.609550
9200.925624,0.000000,-9622.677246,-306.438199
9200.925948,0.000000,-9326.594869,0.000000
9200.926272,222.061783,-9252.574275,-76.609550
9200.926596,370.102971,-9844.739029,0.000000
9200.926920,0.000000,-9918.759623,-383.047749
9200.927244,-296.082377,-9844.739029,-229.828649
9200.927568,-222.061783,-9548.656652,-306.438199
9200.927892,-296.082377,-9400.615463,-229.828649
9200.928216,0.000000,-9400.615463,76.609550
9200.928540,74.020594,-9326.594869,76.609550
9200.928864,740.205942,-9252.574275,0.000000
9200.929188,666.185348,-9400.615463,0.000000
9200.929512,444.123565,-9548.656652,-76.609550
9200.929836,148.041188,-9770.718434,0.000000
9200.930160,0.000000,-9474.636058,0.000000
9200.930484,74.020594,-9474.636058,-229.828649
9200.930808,-296.082377,-9622.677246,-919.314598
9200.931132,0.000000,-9770.718434,-842.705048
9200.931456,-370.102971,-9918.759623,-459.657299
9200.931780,-444.123565,-9992.780217,0.000000
9200.932104,0.000000,-9844.739029,0.000000
9200.932428,0.000000,-9696.697840,0.000000
9200.932752,0.000000,-9178.553681,153.219100
9200.933076,74.020594,-9400.615463,-153.219100
9200.933400,444.123565,-9400.615463,0.000000
9200.933724,0.000000,-9474.636058,153.219100
9200.934048,-222.061783,-9696.697840,0.000000
9200.934372,-370.102971,-9844.739029,0.000000
9200.934696,-518.144159,-9696.697840,-229.828649
9200.935020,-444.123565,-9770.718434,-229.828649
9200.935344,-444.123565,-10140.821405,0.000000
9200.935668,-592.164754,-9474.636058,-536.266849
9200.935992,-148.041188,-9992.780217,0.000000
9200.936316,-222.061783,-9474.636058,0.000000
9200.936640,0.000000,-9548.656652,76.609550
9200.936964,0.000000,-9474.636058,0.000000
9200.937288,0.000000,-9622.677246,229.828649
9200.937612,74.020594,-9252.574275,229.828649
9200.937936,222.061783,-9474.636058,76.609550
9200.938260,518.144159,-9696.697840,229.828649
9200.938584,0.000000,-9622.677246,-612.876398
9200.938908,0.000000,-9992.780217,-306.438199
9200.939232,-148.041188,-9770.718434,0.000000
9200.939556,-444.123565,-9696.697840,-306.438199
9200.939880,-222.061783,-9992.780217,-229.828649
9200.940204,296.082377,-9474.636058,-306.438199
9200.940528,444.123565,-9844.739029,689.485948
9200.940852,444.123565,-9252.574275,153.219100
9200.941176,370.102971,-9252.574275,0.000000
9200.941500,74.020594,-9474.636058,-229.828649
9200.941824,222.061783,-9548.656652,0.000000
9200.942148,296.082377,-9474.636058,0.000000
9200.942472,0.000000,-9252.574275,383.047749
9200.942796,0.000000,-9696.697840,153.219100
9200.943120,74.020594,-9918.759623,-153.219100
9200.943444,148.041188,-9844.739029,689.485948
9200.943768,-148.041188,-9696.697840,0.000000
9200.944092,-222.061783,-9548.656652,-306.438199
9200.944416,0.000000,-9696.697840,-229.828649
9200.944740,0.000000,-9622.677246,0.000000
9200.945064,74.020594,-9622.677246,0.000000
9200.945388,222.061783,-9474.636058,306.438199
9200.945712,518.144159,-9844.739029,229.828649
9200.946036,0.000000,-9622.677246,-153.219100
9200.946360,0.000000,-9770.718434,-153.219100
9200.946684,-370.102971,-9844.739029,0.000000
9200.947008,-296.082377,-9622.677246,-153.219100
9200.947332,-222.061783,-9548.656652,459.657299
9200.947656,-222.061783,-9548.656652,0.000000
9200.947980,0.000000,-9992.780217,229.828649
9200.948304,0.000000,-9844.739029,229.828649
9200.948628,0.000000,-9696.697840,0.000000
9200.948953,-148.041188,-9548.656652,-153.219100
9200.949277,-148.041188,-9696.697840,76.609550
9200.949601,-296.082377,-9770.718434,0.000000
9200.949925,-222.061783,-9474.636058,0.000000
9200.950249,-592.164754,-9548.656652,-153.219100
9200.950573,-518.144159,-9548.656652,0.000000
9200.950897,0.000000,-9844.739029,76.609550
9200.951221,0.000000,-9844.739029,0.000000
9200.951545,0.000000,-9474.636058,76.609550
9200.951869,0.000000,-9770.718434,-153.219100
9200.952193,0.000000,-9696.697840,76.609550
9200.952517,0.000000,-9474.636058,0.000000
9200.952841,0.000000,-9622.677246,0.000000
9200.953165,-222.061783,-9474.636058,0.000000
9200.953489,-222.061783,-9622.677246,0.000000
9200.953813,0.000000,-9770.718434,0.000000
9200.954137,148.041188,-9622.677246,0.000000
9200.954461,296.082377,-9622.677246,153.219100
9200.954785,444.123565,-9918.759623,459.657299
9200.955109,0.000000,-9400.615463,306.438199
9200.955433,74.020594,-9548.656652,-306.438199
9200.955757,370.102971,-9696.697840,153.219100
9200.956081,74.020594,-9622.677246,0.000000
9200.956405,222.061783,-9696.697840,0.000000
9200.956729,222.061783,-9548.656652,153.219100
9200.957053,370.102971,-9326.594869,0.000000
9200.957377,0.000000,-9252.574275,0.000000
9200.957701,296.082377,-9400.615463,306.438199
9200.958025,0.000000,-9548.656652,0.000000
9200.958349,0.000000,-9548.656652,-306.438199
9200.958673,0.000000,-10066.800811,0.000000
9200.958997,0.000000,-9696.697840,-536.266849
9200.959321,0.000000,-9696.697840,612.876398
9200.959645,0.000000,-9548.656652,536.266849
9200.959969,148.041188,-9474.636058,0.000000
9200.960293,0.000000,-9696.697840,0.000000
9200.960617,0.000000,-10140.821405,306.438199
9200.960941,0.000000,-9696.697840,0.000000
9200.961265,74.020594,-9844.739029,-153.219100
9200.961589,-148.041188,-9696.697840,-229.828649
9200.961913,-518.144159,-9770.718434,-383.047749
9200.962237,-222.061783,-9696.697840,-153.219100
9200.962561,-666.185348,-9548.656652,0.000000
9200.962885,0.000000,-9918.759623,229.828649
9200.963209,-296.082377,-9770.718434,0.000000
9200.963533,-296.082377,-9770.718434,0.000000
9200.963857,74.020594,-9696.697840,0.000000
9200.964181,148.041188,-9770.718434,0.000000
9200.964505,-148.041188,-9696.697840,0.000000
9200.964829,-296.082377,-9548.656652,0.000000
9200.965153,0.000000,-9474.636058,0.000000
9200.965477,0.000000,-9474.636058,0.000000
9200.965801,-296.082377,-9770.718434,-153.219100
9200.966125,-444.123565,-9770.718434,-153.219100
9200.966449,0.000000,-9770.718434,0.000000
9200.966773,0.000000,-9474.636058,-153.219100
9200.967097,148.041188,-9400.615463,-153.219100
9200.967421,0.000000,-9474.636058,0.000000
9200.967745,74.020594,-9696.697840,0.000000
9200.968069,74.020594,-9696.697840,0.000000
9200.968393,0.000000,-9696.697840,0.000000
9200.968717,-296.082377,-9770.718434,-229.828649
9200.969041,-148.041188,-9474.636058,-153.219100
9200.969365,296.082377,-9622.677246,153.219100
9200.969689,148.041188,-9844.739029,-153.219100
9200.970013,74.020594,-9474.636058,229.828649
9200.970337,222.061783,-9918.759623,-229.828649
9200.970661,296.082377,-9696.697840,0.000000
9200.970985,444.123565,-9548.656652,76.609550
9200.971309,0.000000,-9548.656652,-153.219100
9200.971633,-148.041188,-9844.739029,-229.828649
9200.971957,444.123565,-9474.636058,76.609550
9200.972281,296.082377,-9326.594869,0.000000
9200.972605,0.000000,-9474.636058,0.000000
9200.972929,-370.102971,-9548.656652,0.000000
9200.973253,0.000000,-9696.697840,0.000000
9200.973577,296.082377,-9844.739029,0.000000
9200.973901,0.000000,-9696.697840,0.000000
9200.974225,-222.061783,-9696.697840,-229.828649
9200.974549,-370.102971,-9622.677246,0.000000
9200.974873,0.000000,-9474.636058,-229.828649
9200.975197,148.041188,-10140.821405,0.000000
9200.975521,-444.123565,-10066.800811,0.000000
9200.975845,-296.082377,-10140.821405,0.000000
9200.976169,0.000000,-9622.677246,76.609550
9200.976493,148.041188,-9178.553681,0.000000
9200.976817,148.041188,-9400.615463,-229.828649
9200.977141,-222.061783,-9770.718434,0.000000
9200.977465,0.000000,-9622.677246,-306.438199
9200.977789,-296.082377,-9770.718434,0.000000
9200.978113,-518.144159,-9696.697840,-153.219100
9200.978437,-592.164754,-9918.759623,-229.828649
9200.978761,-518.144159,-9696.697840,0.000000
9200.979085,0.000000,-9548.656652,153.219100
9200.979409,-296.082377,-9548.656652,76.609550
9200.979733,-296.082377,-9474.636058,-306.438199
9200.980057,-370.102971,-9474.636058,76.609550
9200.980381,0.000000,-9622.677246,0.000000
9200.980705,74.020594,-9548.656652,0.000000
9200.981029,-148.041188,-9548.656652,-153.219100
9200.981353,-222.061783,-9474.636058,-153.219100
9200.981677,0.000000,-9696.697840,-306.438199
9200.982001,74.020594,-9622.677246,-306.438199
9200.982325,0.000000,-9696.697840,0.000000
9200.982649,-444.123565,-9770.718434,-306.438199
9200.982973,0.000000,-9770.718434,0.000000
9200.983297,222.061783,-9696.697840,-153.219100
9200.983621,74.020594,-9548.656652,0.000000
9200.983945,296.082377,-9474.636058,76.609550
9200.984269,74.020594,-9400.615463,459.657299
9200.984593,222.061783,-9474.636058,0.000000
9200.984917,222.061783,-9400.615463,76.609550
9200.985241,222.061783,-9548.656652,0.000000
9200.985565,0.000000,-9474.636058,-153.219100
9200.985889,148.041188,-9474.636058,0.000000
9200.986213,0.000000,-9770.718434,76.609550
9200.986537,-518.144159,-9326.594869,-306.438199
9200.986861,-296.082377,-9622.677246,-153.219100
9200.987185,0.000000,-9474.636058,0.000000
9200.987509,0.000000,-9474.636058,-229.828649
9200.987833,0.000000,-9696.697840,-153.219100
9200.988157,0.000000,-9770.718434,0.000000
9200.988481,74.020594,-9770.718434,229.828649
9200.988805,518.144159,-9548.656652,0.000000
9200.989129,222.061783,-9400.615463,-459.657299
9200.989453,-148.041188,-9918.759623,306.438199
9200.989777,0.000000,-9918.759623,-536.266849
9200.990101,-148.041188,-9844.739029,-153.219100
9200.990425,-148.041188,-9770.718434,-306.438199
9200.990749,-296.082377,-9918.759623,-306.438199
9200.991073,-296.082377,-9770.718434,-153.219100
9200.991397,-444.123565,-9696.697840,229.828649
9200.991721,-444.123565,-9770.718434,-383.047749
9200.992046,0.000000,-9770.718434,-536.266849
9200.992370,0.000000,-9918.759623,0.000000
9200.992694,-148.041188,-9548.656652,0.000000
9200.993018,0.000000,-9696.697840,0.000000
9200.993342,0.000000,-9770.718434,0.000000
9200.993666,296.082377,-9696.697840,-383.047749
9200.993990,-444.123565,-9474.636058,0.000000
9200.994314,-814.226536,-9474.636058,0.000000
9200.994638,-148.041188,-9918.759623,229.828649
9200.994962,-444.123565,-9844.739029,-306.438199
9200.995286,-370.102971,-9992.780217,-153.219100
9200.995610,-518.144159,-9548.656652,76.609550
9200.995934,-592.164754,-9178.553681,229.828649
9200.996258,222.061783,-9400.615463,76.609550
9200.996582,0.000000,-9474.636058,306.438199
9200.996906,74.020594,-9474.636058,153.219100
9200.997230,222.061783,-9400.615463,0.000000
9200.997554,222.061783,-9474.636058,0.000000
9200.997878,0.000000,-9548.656652,0.000000
9200.998202,0.000000,-9770.718434,0.000000
9200.998526,148.041188,-9622.677246,-612.876398
9200.998850,222.061783,-9770.718434,-612.876398
9200.999174,74.020594,-9844.739029,0.000000
9200.999498,0.000000,-9548.656652,0.000000
9200.999822,0.000000,-9622.677246,0.000000
9201.000146,148.041188,-9696.697840,0.000000
9201.000470,0.000000,-9548.656652,0.000000
9201.000794,0.000000,-8956.491898,0.000000
9201.001118,74.020594,-9400.615463,0.000000
9201.001442,0.000000,-9474.636058,229.828649
9201.001766,592.164754,-9622.677246,-306.438199
9201.002090,-296.082377,-9918.759623,-153.219100
9201.002414,0.000000,-10066.800811,-153.219100
9201.002738,0.000000,-9548.656652,0.000000
9201.003062,0.000000,-9696.697840,0.000000
9201.003386,0.000000,-9918.759623,229.828649
9201.003710,-296.082377,-9400.615463,0.000000
9201.004034,74.020594,-9844.739029,76.609550
9201.004358,74.020594,-9696.697840,-306.438199
9201.004682,0.000000,-9918.759623,-153.219100
9201.005006,-518.144159,-9770.718434,-306.438199
9201.005330,-814.226536,-9770.718434,-383.047749
9201.005654,-814.226536,-9548.656652,-306.438199
9201.005978,-222.061783,-9474.636058,0.000000
9201.006302,0.000000,-9844.739029,0.000000
9201.006626,296.082377,-10066.800811,459.657299
9201.006950,222.061783,-9844.739029,76.609550
9201.007274,148.041188,-9696.697840,153.219100
9201.007598,0.000000,-9622.677246,0.000000
9201.007922,-296.082377,-9622.677246,-306.438199
9201.008246,-222.061783,-9548.656652,-459.657299
9201.008570,-444.123565,-9474.636058,-383.047749
9201.008894,-370.102971,-10140.821405,-229.828649
9201.009218,-222.061783,-9844.739029,-612.876398
9201.009542,-296.082377,-9696.697840,-306.438199
9201.009866,0.000000,-9548.656652,-383.047749
9201.010190,222.061783,-9696.697840,-153.219100
9201.010514,296.082377,-9474.636058,0.000000
9201.010838,444.123565,-9474.636058,0.000000
9201.011162,444.123565,-9400.615463,0.000000
9201.011486,296.082377,-9326.594869,76.609550
9201.011810,148.041188,-9622.677246,0.000000
9201.012134,0.000000,-9770.718434,-229.828649
9201.012458,0.000000,-9844.739029,-229.828649
9201.012782,0.000000,-9622.677246,-459.657299
9201.013106,0.000000,-9178.553681,-612.876398
9201.013430,0.000000,-9474.636058,0.000000
9201.013754,0.000000,-9696.697840,76.609550
9201.014078,370.102971,-9548.656652,0.000000
9201.014402,518.144159,-9548.656652,0.000000
9201.014726,444.123565,-9400.615463,-229.828649
9201.015050,74.020594,-9770.718434,0.000000
9201.015374,296.082377,-9844.739029,229.828649
9201.015699,0.000000,-9400.615463,536.266849
9201.016023,-148.041188,-9474.636058,-153.219100
9201.016347,-222.061783,-9622.677246,0.000000
9201.016671,0.000000,-9844.739029,76.609550
9201.016995,0.000000,-10214.842000,0.000000
9201.017319,0.000000,-9770.718434,-153.219100
9201.017643,-444.123565,-9548.656652,0.000000
9201.017967,-370.102971,-9474.636058,0.000000
9201.018291,0.000000,-9474.636058,0.000000
9201.018615,-296.082377,-9622.677246,-842.705048
9201.018939,0.000000,-9696.697840,76.609550
9201.019263,-148.041188,-9622.677246,0.000000
9201.019587,-370.102971,-9622.677246,-229.828649
9201.019911,0.000000,-9696.697840,0.000000
9201.020235,0.000000,-9770.718434,0.000000
9201.020559,-296.082377,-9548.656652,0.000000
9201.020883,0.000000,-9918.759623,-153.219100
9201.021207,-222.061783,-9400.615463,76.609550
9201.021531,-222.061783,-9770.718434,0.000000
9201.021855,-296.082377,-9844.739029,76.609550
9201.022179,-370.102971,-9622.677246,0.000000
9201.022503,-148.041188,-9622.677246,0.000000
9201.022827,0.000000,-9622.677246,-383.047749
9201.023151,296.082377,-9844.739029,383.047749
9201.023475,74.020594,-9844.739029,0.000000
9201.023799,0.000000,-9474.636058,306.438199
9201.024123,0.000000,-9548.656652,-153.219100
9201.024447,0.000000,-9696.697840,-306.438199
9201.024771,74.020594,-9918.759623,0.000000
9201.025095,74.020594,-9696.697840,459.657299
9201.025419,148.041188,-9474.636058,76.609550
9201.025743,-444.123565,-9474.636058,0.000000
9201.026067,0.000000,-9696.697840,-306.438199
9201.026391,0.000000,-9770.718434,-76.609550
9201.026715,0.000000,-9696.697840,-153.219100
9201.027039,74.020594,-9400.615463,-153.219100
9201.027363,-222.061783,-9400.615463,-229.828649
9201.027687,444.123565,-9622.677246,76.609550
9201.028011,740.205942,-9696.697840,0.000000
9201.028335,740.205942,-9474.636058,153.219100
9201.028659,962.267725,-9622.677246,-536.266849
9201.028983,0.000000,-9844.739029,0.000000
9201.029307,0.000000,-9696.697840,-229.828649
9201.029631,-222.061783,-9548.656652,-306.438199
9201.029955,-74.020594,-9770.718434,229.828649
9201.030279,-296.082377,-9474.636058,0.000000
9201.030603,-370.102971,-9252.574275,-689.485948
9201.030927,74.020594,-9622.677246,-229.828649
9201.031251,74.020594,-9622.677246,0.000000
9201.031575,0.000000,-9844.739029,0.000000
9201.031899,0.000000,-9622.677246,0.000000
9201.032223,74.020594,-9622.677246,76.609550
9201.032548,74.020594,-10066.800811,306.438199
9201.032872,74.020594,-9548.656652,-153.219100
9201.033196,0.000000,-9770.718434,153.219100
9201.033520,-148.041188,-9770.718434,0.000000
9201.033844,-222.061783,-9992.780217,-306.438199
9201.034168,-518.144159,-9992.780217,-229.828649
9201.034492,-592.164754,-9770.718434,-383.047749
9201.034816,-370.102971,-9696.697840,0.000000
9201.035140,-518.144159,-9474.636058,-153.219100
9201.035464,-370.102971,-9622.677246,536.266849
9201.035788,0.000000,-9474.636058,153.219100
9201.036112,148.041188,-9770.718434,0.000000
9201.036436,296.082377,-9474.636058,0.000000
9201.036760,0.000000,-9548.656652,0.000000
9201.037084,-222.061783,-9474.636058,0.000000
9201.037408,74.020594,-9770.718434,0.000000
9201.037732,74.020594,-9696.697840,-153.219100
9201.038056,-296.082377,-9770.718434,-536.266849
9201.038380,-370.102971,-9844.739029,-229.828649
9201.038704,-370.102971,-9918.759623,-153.219100
9201.039028,0.000000,-9770.718434,0.000000
9201.039352,-148.041188,-9474.636058,0.000000
9201.039676,0.000000,-9474.636058,0.000000
9201.040000,74.020594,-9326.594869,76.609550
9201.040324,740.205942,-10066.800811,0.000000
9201.040648,296.082377,-9474.636058,229.828649
9201.040972,296.082377,-9548.656652,0.000000
9201.041296,222.061783,-9474.636058,0.000000
9201.041620,0.000000,-9548.656652,0.000000
9201.041944,0.000000,-9696.697840,-229.828649
9201.042268,0.000000,-9474.636058,0.000000
9201.042592,148.041188,-9844.739029,-76.609550
9201.042916,296.082377,-9696.697840,0.000000
9201.043240,222.061783,-9770.718434,-306.438199
9201.043564,0.000000,-9696.697840,153.219100
9201.043888,74.020594,-9548.656652,0.000000
9201.044212,222.061783,-9326.594869,0.000000
9201.044536,74.020594,-9548.656652,0.000000
9201.044860,0.000000,-9474.636058,-229.828649
9201.045184,296.082377,-9918.759623,229.828649
9201.045508,74.020594,-9622.677246,0.000000
9201.045832,0.000000,-9622.677246,-459.657299
9201.046156,0.000000,-9918.759623,0.000000
9201.046480,-222.061783,-9992.780217,76.609550
9201.046804,0.000000,-9770.718434,0.000000
9201.047128,148.041188,-9400.615463,-229.828649
9201.047452,0.000000,-9474.636058,536.266849
9201.047776,0.000000,-9622.677246,0.000000
9201.048100,-444.123565,-9918.759623,0.000000
9201.048424,-296.082377,-9770.718434,-229.828649
9201.048748,-296.082377,-9622.677246,0.000000
9201.049072,-444.123565,-9548.656652,-306.438199
9201.049396,-444.123565,-9548.656652,0.000000
9201.049721,222.061783,-10066.800811,153.219100
9201.050045,0.000000,-9622.677246,0.000000
9201.050369,222.061783,-9474.636058,306.438199
9201.050693,-74.020594,-9696.697840,76.609550
9201.051017,0.000000,-9770.718434,0.000000
9201.051341,-148.041188,-9770.718434,76.609550
9201.051665,-296.082377,-9474.636058,0.000000
9201.051989,-222.061783,-9326.594869,0.000000
9201.052313,-444.123565,-9696.697840,-459.657299
9201.052637,-222.061783,-9696.697840,-229.828649
9201.052961,0.000000,-9918.759623,-383.047749
9201.053285,-148.041188,-9622.677246,-229.828649
9201.053609,74.020594,-9474.636058,-229.828649
9201.053933,0.000000,-9696.697840,0.000000
9201.054257,444.123565,-9992.780217,-153.219100
9201.054581,370.102971,-9548.656652,-153.219100
9201.054905,740.205942,-10140.821405,459.657299
9201.055229,666.185348,-9622.677246,0.000000
9201.055553,0.000000,-9622.677246,-229.828649
9201.055877,-370.102971,-9474.636058,-306.438199
9201.056201,0.000000,-9548.656652,-229.828649
9201.056525,-74.020594,-9030.512492,-459.657299
9201.056849,518.144159,-9622.677246,-689.485948
9201.057173,296.082377,-9474.636058,0.000000
9201.057497,296.082377,-9770.718434,0.000000
9201.057821,296.082377,-9252.574275,229.828649
9201.058145,444.123565,-9400.615463,229.828649
9201.058469,0.000000,-9400.615463,0.000000
9201.058793,0.000000,-9548.656652,76.609550
9201.059117,148.041188,-9622.677246,0.000000
9201.059441,-148.041188,-9770.718434,-153.219100
9201.059765,-444.123565,-9474.636058,229.828649
9201.060089,-666.185348,-9770.718434,0.000000
9201.060413,0.000000,-9474.636058,-383.047749
9201.060737,0.000000,-9326.594869,0.000000
9201.061061,-444.123565,-9474.636058,-229.828649
9201.061385,0.000000,-9474.636058,0.000000
9201.061709,0.000000,-9770.718434,0.000000
9201.062033,222.061783,-9844.739029,0.000000
9201.062357,296.082377,-9770.718434,229.828649
9201.062681,-148.041188,-9770.718434,76.609550
9201.063005,0.000000,-9622.677246,0.000000
9201.063329,-74.020594,-9622.677246,0.000000
9201.063653,-296.082377,-10066.800811,-536.266849
9201.063977,-296.082377,-9622.677246,0.000000
9201.064301,-592.164754,-9696.697840,0.000000
9201.064625,0.000000,-9770.718434,0.000000
9201.064949,0.000000,-9770.718434,153.219100
9201.065273,-222.061783,-9770.718434,0.000000
9201.065597,296.082377,-9474.636058,76.609550
9201.065921,0.000000,-9474.636058,383.047749
9201.066245,0.000000,-9474.636058,-229.828649
9201.066570,0.000000,-9474.636058,0.000000
9201.066894,-222.061783,-9844.739029,0.000000
9201.067218,-222.061783,-9770.718434,0.000000
9201.067542,-370.102971,-9622.677246,-383.047749
9201.067866,-296.082377,-9770.718434,-612.876398
9201.068190,-444.123565,-9622.677246,-306.438199
9201.068514,0.000000,-9326.594869,-383.047749
9201.068838,222.061783,-9474.636058,0.000000
9201.069162,296.082377,-9622.677246,0.000000
9201.069486,74.020594,-9770.718434,76.609550
9201.069810,296.082377,-9548.656652,76.609550
9201.070134,296.082377,-9252.574275,0.000000
9201.070458,518.144159,-9252.574275,0.000000
9201.070782,370.102971,-9400.615463,-229.828649
9201.071106,0.000000,-9696.697840,76.609550
9201.071430,296.082377,-10066.800811,-153.219100
9201.071754,148.041188,-9696.697840,0.000000
9201.072078,0.000000,-9770.718434,0.000000
9201.072402,-222.061783,-9918.759623,-153.219100
9201.072726,-296.082377,-9548.656652,-536.266849
9201.073050,-370.102971,-9252.574275,76.609550
9201.073374,-296.082377,-9474.636058,0.000000
9201.073698,-148.041188,-9548.656652,0.000000
9201.074022,74.020594,-10066.800811,76.609550
9201.074346,74.020594,-9548.656652,76.609550
9201.074670,0.000000,-9696.697840,-153.219100
9201.074994,-222.061783,-9770.718434,-306.438199
9201.075318,0.000000,-9696.697840,-383.047749
9201.075642,0.000000,-9918.759623,0.000000
9201.075966,-148.041188,-9622.677246,-306.438199
9201.076290,74.020594,-9474.636058,-153.219100
9201.076614,-296.082377,-9622.677246,0.000000
9201.076938,-222.061783,-9696.697840,0.000000
9201.077262,0.000000,-9622.677246,0.000000
9201.077586,0.000000,-9770.718434,0.000000
9201.077910,-296.082377,-9770.718434,153.219100
9201.078234,-370.102971,-9326.594869,229.828649
9201.078558,-296.082377,-9474.636058,0.000000
9201.078882,74.020594,-9622.677246,0.000000
9201.079206,0.000000,-9622.677246,-153.219100
9201.079530,-148.041188,-9918.759623,0.000000
9201.079854,148.041188,-9696.697840,0.000000
9201.080178,370.102971,-9400.615463,459.657299
9201.080502,-222.061783,-9474.636058,0.000000
9201.080826,0.000000,-9474.636058,76.609550
9201.081150,-296.082377,-9622.677246,-383.047749
9201.081474,0.000000,-9844.739029,-229.828649
9201.081798,-148.041188,-9918.759623,-306.438199
9201.082122,-296.082377,-9992.780217,0.000000
9201.082446,-222.061783,-9548.656652,153.219100
9201.082770,0.000000,-9770.718434,536.266849
9201.083094,74.020594,-9474.636058,0.000000
9201.083418,0.000000,-9326.594869,0.000000
9201.083743,444.123565,-10066.800811,-153.219100
9201.084067,592.164754,-9918.759623,0.000000
9201.084391,518.144159,-9548.656652,76.609550
9201.084715,148.041188,-9622.677246,0.000000
9201.085039,74.020594,-9548.656652,-306.438199
9201.085363,0.000000,-9770.718434,-153.219100
9201.085687,0.000000,-9548.656652,-306.438199
9201.086011,370.102971,-9474.636058,-459.657299
9201.086335,0.000000,-9844.739029,-153.219100
9201.086659,0.000000,-9770.718434,0.000000
9201.086983,222.061783,-9548.656652,0.000000
9201.087307,148.041188,-9474.636058,0.000000
9201.087631,-148.041188,-9326.594869,76.609550
9201.087955,222.061783,-9474.636058,0.000000
9201.088279,0.000000,-9474.636058,0.000000
9201.088603,0.000000,-9770.718434,-612.876398
9201.088927,74.020594,-9622.677246,-229.828649
9201.089251,-296.082377,-9696.697840,-229.828649
9201.089575,-148.041188,-9992.780217,-153.219100
9201.089899,0.000000,-9844.739029,0.000000
9201.090223,74.020594,-9474.636058,-383.047749
9201.090547,-518.144159,-9548.656652,-1072.533697
9201.090871,-222.061783,-9992.780217,-536.266849
9201.091195,0.000000,-9992.780217,0.000000
9201.091519,-222.061783,-9992.780217,76.609550
9201.091843,-444.123565,-9696.697840,76.609550
9201.092167,-518.144159,-9770.718434,153.219100
9201.092491,-370.102971,-9992.780217,229.828649
9201.092815,0.000000,-9326.594869,459.657299
9201.093139,0.000000,-9474.636058,-229.828649
9201.093463,0.000000,-9622.677246,-76.609550
9201.093787,-296.082377,-9622.677246,-153.219100
9201.094111,-222.061783,-9696.697840,0.000000
9201.094435,0.000000,-9696.697840,0.000000
9201.094759,74.020594,-9918.759623,229.828649
9201.095083,-148.041188,-9770.718434,383.047749
9201.095407,-592.164754,-9474.636058,0.000000
9201.095731,-370.102971,-9474.636058,-306.438199
9201.096055,-370.102971,-9548.656652,0.000000
9201.096379,-148.041188,-9400.615463,0.000000
9201.096703,74.020594,-9548.656652,0.000000
9201.097027,148.041188,-9696.697840,229.828649
9201.097351,740.205942,-9696.697840,-229.828649
9201.097675,518.144159,-9548.656652,-306.438199
9201.097999,222.061783,-9548.656652,153.219100
9201.098323,518.144159,-9770.718434,383.047749
9201.098647,222.061783,-9696.697840,0.000000
9201.098971,0.000000,-9622.677246,-229.828649
9201.099295,-518.144159,-9622.677246,0.000000
9201.099619,-814.226536,-9474.636058,0.000000
9201.099943,74.020594,-9252.574275,-153.219100
9201.100267,222.061783,-9696.697840,306.438199
9201.100592,444.123565,-9400.615463,383.047749
9201.100916,222.061783,-9548.656652,0.000000
9201.101240,444.123565,-9548.656652,0.000000
9201.101564,444.123565,-9400.615463,0.000000
9201.101888,222.061783,-9622.677246,-306.438199
9201.102212,74.020594,-9622.677246,0.000000
9201.102536,0.000000,-9696.697840,0.000000
9201.102860,0.000000,-9474.636058,76.609550
9201.103184,-148.041188,-9474.636058,-76.609550
9201.103508,-148.041188,-10214.842000,0.000000
9201.103832,-222.061783,-9992.780217,-153.219100
9201.104156,-370.102971,-9696.697840,0.000000
9201.104480,-370.102971,-9400.615463,0.000000
9201.104804,0.000000,-9696.697840,0.000000
9201.105128,-444.123565,-9474.636058,0.000000
9201.105452,0.000000,-9474.636058,0.000000
9201.105776,0.000000,-9474.636058,-306.438199
9201.106100,370.102971,-9844.739029,76.609550
9201.106424,74.020594,-9474.636058,306.438199
9201.106748,-148.041188,-9474.636058,0.000000
9201.107072,0.000000,-9696.697840,0.000000
9201.107396,-148.041188,-9992.780217,-153.219100
9201.107720,-296.082377,-9918.759623,-153.219100
9201.108044,-370.102971,-9844.739029,76.609550
9201.108368,-222.061783,-9770.718434,-306.438199
9201.108692,222.061783,-9548.656652,0.000000
9201.109017,0.000000,-9474.636058,76.609550
9201.109341,-370.102971,-9474.636058,0.000000
9201.109665,0.000000,-9474.636058,-153.219100
9201.109989,0.000000,-9548.656652,0.000000
9201.110313,-296.082377,-9622.677246,0.000000
9201.110637,0.000000,-9622.677246,76.609550
9201.110961,74.020594,-9548.656652,-306.438199
9201.111285,222.061783,-9474.636058,0.000000
9201.111609,0.000000,-9548.656652,0.000000
9201.111933,-296.082377,-9770.718434,-153.219100
9201.112257,-222.061783,-9696.697840,0.000000
9201.112581,74.020594,-9622.677246,-153.219100
9201.112905,222.061783,-9326.594869,0.000000
9201.113229,222.061783,-9474.636058,0.000000
9201.113553,148.041188,-9548.656652,0.000000
