#time,accel_x,accel_y,accel_z
915.826181,222.061783,-9770.718434,0.000000
915.826506,370.102971,-9548.656652,0.000000
915.826830,222.061783,-9474.636058,0.000000
915.827154,148.041188,-9622.677246,0.000000
915.827478,148.041188,-9844.739029,-153.219100
915.827802,148.041188,-9918.759623,229.828649
915.828126,-518.144159,-9104.533087,76.609550
915.828450,0.000000,-9548.656652,0.000000
915.828774,0.000000,-9770.718434,-383.047749
915.829098,-148.041188,-9548.656652,-153.219100
915.829422,74.020594,-9622.677246,0.000000
915.829746,0.000000,-9548.656652,306.438199
915.830070,444.123565,-9918.759623,689.485948
915.830395,0.000000,-9696.697840,0.000000
915.830719,0.000000,-10436.903782,0.000000
915.831043,-444.123565,-9844.739029,0.000000
915.831367,-370.102971,-10140.821405,0.000000
915.831691,-296.082377,-9992.780217,0.000000
915.832015,-222.061783,-9548.656652,0.000000
915.832339,-370.102971,-9326.594869,383.047749
915.832663,0.000000,-9770.718434,0.000000
915.832987,0.000000,-9770.718434,76.609550
915.833311,0.000000,-9844.739029,0.000000
915.833635,0.000000,-9400.615463,0.000000
915.833959,-148.041188,-9696.697840,0.000000
915.834283,-370.102971,-9770.718434,0.000000
915.834608,0.000000,-9918.759623,0.000000
915.834932,0.000000,-9474.636058,0.000000
915.835256,0.000000,-9622.677246,0.000000
915.835580,0.000000,-9622.677246,459.657299
915.835904,74.020594,-9474.636058,153.219100
915.836228,74.020594,-9622.677246,229.828649
915.836552,148.041188,-9918.759623,229.828649
915.836876,148.041188,-10140.821405,0.000000
915.837200,0.000000,-9844.739029,383.047749
915.837524,0.000000,-9992.780217,459.657299
915.837848,0.000000,-9696.697840,459.657299
915.838172,-296.082377,-9548.656652,-1072.533697
915.838496,-814.226536,-9622.677246,76.609550
915.838821,-1036.288319,-9696.697840,306.438199
915.839145,-1480.411884,-9400.615463,0.000000
915.839469,-1406.391290,-8586.388927,153.219100
915.839793,-1110.308913,-8586.388927,766.095498
915.840117,296.082377,-9030.512492,689.485948
915.840441,740.205942,-9548.656652,1225.752797
915.840765,296.082377,-10362.883188,1225.752797
915.841089,-222.061783,-9992.780217,612.876398
915.841413,-1554.432478,-10288.862594,536.266849
915.841737,-2368.659014,-10510.924376,229.828649
915.842061,-2738.761985,-10807.006753,612.876398
915.842385,-2664.741391,-10584.944971,612.876398
915.842710,-1850.514855,-9696.697840,842.705048
915.843034,-1332.370696,-9178.553681,1072.533697
915.843358,-296.082377,-8882.471304,766.095498
915.843682,0.000000,-8734.430116,1302.362347
915.844006,0.000000,-9400.615463,1455.581446
915.844330,-1332.370696,-9770.718434,1378.971896
915.844654,-2590.720797,-9622.677246,1225.752797
915.844978,-3330.926739,-9992.780217,1302.362347
915.845302,-3108.864956,-11029.068536,1378.971896
915.845626,-3034.844362,-10584.944971,1455.581446
915.845950,-3034.844362,-11103.089130,1685.410096
915.846274,-2590.720797,-10510.924376,1685.410096
915.846598,-2368.659014,-9696.697840,1838.629195
915.846923,-1554.432478,-9104.533087,1838.629195
915.847247,-1110.308913,-8734.430116,2221.676944
915.847571,-814.226536,-9400.615463,2374.896044
915.847895,-962.267725,-9252.574275,2528.115143
915.848219,-1406.391290,-9474.636058,2374.896044
915.848543,-2590.720797,-9548.656652,2451.505594
915.848867,-3404.947333,-10214.842000,2451.505594
915.849191,-4293.194464,-10732.986159,2298.286494
915.849515,-5329.482782,-10288.862594,2604.724693
915.849839,-5551.544565,-10288.862594,3217.601092
915.850163,-5329.482782,-10214.842000,2757.943793
915.850487,-5625.565159,-9104.533087,2528.115143
915.850812,-4515.256246,-9104.533087,2987.772442
915.851136,-3552.988522,-9548.656652,3447.429741
915.851460,-1998.556043,-9770.718434,3600.648841
915.851784,-222.061783,-9474.636058,4596.572988
915.852108,1036.288319,-8734.430116,5132.839837
915.852432,1628.453072,-8216.285956,4596.572988
915.852756,1702.473667,-8290.306550,4366.744339
915.853080,592.164754,-8364.327145,3524.039291
915.853404,-888.247130,-8290.306550,3064.381992
915.853728,-2516.700203,-8660.409521,2451.505594
915.854052,-4441.235652,-8290.306550,1915.238745
915.854376,-6365.771101,-7772.162391,229.828649
915.854700,-8142.265362,-9400.615463,459.657299
915.855025,-7698.141797,-11325.150913,1455.581446
915.855349,-4959.379811,-11251.130318,1915.238745
915.855673,-2072.576638,-9622.677246,3370.820191
915.855997,592.164754,-8586.388927,4903.011187
915.856321,3256.906145,-8586.388927,4826.401637
915.856645,4441.235652,-9622.677246,4366.744339
915.856969,4219.173869,-9844.739029,4596.572988
915.857293,3404.947333,-10140.821405,4213.525239
915.857617,962.267725,-9326.594869,2221.676944
915.857941,-1406.391290,-8882.471304,459.657299
915.858265,-4441.235652,-9178.553681,-153.219100
915.858589,-5995.668130,-10436.903782,-1915.238745
915.858914,-6513.812290,-11177.109724,-2221.676944
915.859238,-5403.503377,-10436.903782,-1149.143247
915.859562,-3034.844362,-8734.430116,0.000000
915.859886,-1332.370696,-8512.368333,919.314598
915.860210,-2146.597232,-9252.574275,1455.581446
915.860534,-3330.926739,-9252.574275,2145.067394
915.860858,-2664.741391,-10881.027347,1685.410096
915.861182,-1110.308913,-11991.336260,2911.162892
915.861506,1998.556043,-12287.418637,4136.915689
915.861830,5181.441594,-11769.274478,4519.963438
915.862154,5921.647536,-10584.944971,3600.648841
915.862478,3701.029710,-10510.924376,2604.724693
915.862802,-814.226536,-10066.800811,689.485948
915.863127,-4293.194464,-8290.306550,-2145.067394
915.863451,-6735.874072,-7624.121203,-3217.601092
915.863775,-7105.977043,-9918.759623,-1532.190996
915.864099,-4515.256246,-11695.253884,-1302.362347
915.864423,-3108.864956,-10807.006753,-1532.190996
915.864747,-5181.441594,-9178.553681,612.876398
915.865071,-6365.771101,-8068.244768,536.266849
915.865395,-5477.523971,-9030.512492,-766.095498
915.865719,-4737.318029,-9178.553681,536.266849
915.866043,-1924.535449,-9770.718434,3064.381992
915.866367,1406.391290,-12065.356855,3983.696590
915.866691,2368.659014,-12879.583391,4290.134789
915.867016,518.144159,-11399.171507,4290.134789
915.867340,-888.247130,-9252.574275,3140.991542
915.867664,-1036.288319,-8364.327145,2068.457845
915.867988,-1036.288319,-9622.677246,1685.410096
915.868312,-962.267725,-9030.512492,1762.019645
915.868636,-1258.350101,-8956.491898,1838.629195
915.868960,-2960.823768,-9252.574275,1378.971896
915.869284,-4367.215058,-8142.265362,1378.971896
915.869608,-4145.153275,-7402.059420,1608.800546
915.869932,-3627.009116,-6809.894666,1685.410096
915.870256,-3997.112087,-7402.059420,1762.019645
915.870580,-5403.503377,-9400.615463,1838.629195
915.870904,-5329.482782,-9770.718434,1991.848295
915.871229,-3997.112087,-9622.677246,2374.896044
915.871553,-2294.638420,-9030.512492,2681.334243
915.871877,-1554.432478,-8290.306550,2757.943793
915.872201,-2072.576638,-9178.553681,2374.896044
915.872525,-2368.659014,-10362.883188,2757.943793
915.872849,-1406.391290,-11103.089130,3064.381992
915.873173,888.247130,-11103.089130,2911.162892
915.873497,1036.288319,-10584.944971,2834.553343
915.873821,-1258.350101,-10584.944971,3140.991542
915.874145,-2516.700203,-11177.109724,2451.505594
915.874469,-2886.803174,-10881.027347,2451.505594
915.874793,-3108.864956,-9474.636058,2221.676944
915.875118,-3997.112087,-7254.018232,2451.505594
915.875442,-3923.091493,-7920.203579,2221.676944
915.875766,-3034.844362,-9474.636058,2834.553343
915.876090,-1776.494261,-9992.780217,2757.943793
915.876414,-2146.597232,-9178.553681,1838.629195
915.876738,-3627.009116,-8660.409521,1378.971896
915.877062,-3775.050304,-9178.553681,1685.410096
915.877386,-1702.473667,-10584.944971,2451.505594
915.877710,-148.041188,-10658.965565,2834.553343
915.878034,0.000000,-10955.047942,2987.772442
915.878358,74.020594,-10955.047942,3064.381992
915.878682,1480.411884,-10658.965565,3370.820191
915.879006,1998.556043,-9844.739029,3677.258390
915.879331,74.020594,-10140.821405,3907.087040
915.879655,-2294.638420,-10584.944971,2911.162892
915.879979,-3034.844362,-10436.903782,2451.505594
915.880303,-2146.597232,-8364.327145,1991.848295
915.880627,-2146.597232,-7105.977043,1991.848295
915.880951,-3330.926739,-8068.244768,1455.581446
915.881275,-4219.173869,-8512.368333,-153.219100
915.881599,-3478.967927,-7402.059420,-459.657299
915.881923,-1702.473667,-7698.141797,0.000000
915.882247,-444.123565,-9178.553681,459.657299
915.882571,-222.061783,-9696.697840,995.924147
915.882895,0.000000,-8364.327145,1685.410096
915.883219,444.123565,-9104.533087,2987.772442
915.883544,666.185348,-11399.171507,2681.334243
915.883868,296.082377,-11177.109724,2374.896044
915.884192,222.061783,-9104.533087,2604.724693
915.884516,592.164754,-9252.574275,2604.724693
915.884840,666.185348,-9696.697840,1225.752797
915.885164,296.082377,-8438.347739,1072.533697
915.885488,0.000000,-7698.141797,1838.629195
915.885812,-1036.288319,-9178.553681,76.609550
915.886136,-1258.350101,-10140.821405,-2298.286494
915.886460,-1924.535449,-9252.574275,-1685.410096
915.886784,-1258.350101,-9918.759623,-1072.533697
915.887108,-1628.453072,-11473.192101,-1838.629195
915.887432,-2960.823768,-11103.089130,-2451.505594
915.887756,-3256.906145,-9770.718434,-919.314598
915.888080,-1850.514855,-10807.006753,-612.876398
915.888404,-148.041188,-11843.295072,-1532.190996
915.888728,1628.453072,-10362.883188,-459.657299
915.889052,2072.576638,-9696.697840,766.095498
915.889376,2368.659014,-11621.233289,536.266849
915.889700,1924.535449,-10584.944971,0.000000
915.890024,740.205942,-8216.285956,0.000000
915.890347,0.000000,-9622.677246,-842.705048
915.890671,-1332.370696,-12213.398043,-2298.286494
915.890995,-2294.638420,-11251.130318,-2451.505594
915.891319,-2368.659014,-10066.800811,-1915.238745
915.891643,-2664.741391,-11177.109724,-3217.601092
915.891967,-3330.926739,-10732.986159,-3677.258390
915.892291,-1924.535449,-8290.306550,-1685.410096
915.892615,148.041188,-8068.244768,-1072.533697
915.892939,1702.473667,-9178.553681,-2298.286494
915.893263,1258.350101,-8364.327145,-1225.752797
915.893587,1850.514855,-7402.059420,-459.657299
915.893911,2664.741391,-8882.471304,-766.095498
915.894235,2368.659014,-9474.636058,-689.485948
915.894559,962.267725,-8734.430116,689.485948
915.894883,1258.350101,-11103.089130,612.876398
915.895207,1110.308913,-12805.562797,-1455.581446
915.895531,-518.144159,-11769.274478,-1225.752797
915.895855,-2368.659014,-11103.089130,0.000000
915.896179,-2294.638420,-11325.150913,-2145.067394
915.896503,-1480.411884,-9844.739029,-995.924147
915.896827,-222.061783,-7994.224174,842.705048
915.897151,2072.576638,-9178.553681,459.657299
915.897475,2516.700203,-10214.842000,306.438199
915.897799,2812.782580,-8290.306550,919.314598
915.898123,1924.535449,-7476.080014,1302.362347
915.898447,444.123565,-9104.533087,-153.219100
915.898771,-962.267725,-9400.615463,306.438199
915.899095,-1332.370696,-8882.471304,1455.581446
915.899419,-1480.411884,-9770.718434,1072.533697
915.899743,-1850.514855,-10066.800811,0.000000
915.900067,-2294.638420,-8956.491898,1608.800546
915.900391,-1702.473667,-9992.780217,2145.067394
915.900715,-740.205942,-10658.965565,1225.752797
915.901039,-814.226536,-9030.512492,1455.581446
915.901363,-814.226536,-7920.203579,1838.629195
915.901687,222.061783,-9400.615463,1455.581446
915.902011,888.247130,-9474.636058,1072.533697
915.902335,1998.556043,-8734.430116,2221.676944
915.902659,1628.453072,-9622.677246,2374.896044
915.902983,888.247130,-10584.944971,306.438199
915.903307,-148.041188,-9104.533087,229.828649
915.903631,-1480.411884,-9178.553681,1838.629195
915.903955,-1628.453072,-10955.047942,459.657299
915.904279,-2368.659014,-10362.883188,383.047749
915.904603,-2368.659014,-8956.491898,2298.286494
915.904927,-1406.391290,-9474.636058,1149.143247
915.905251,-1332.370696,-9474.636058,383.047749
915.905575,-592.164754,-7402.059420,2068.457845
915.905899,1184.329507,-7994.224174,2911.162892
915.906223,1628.453072,-10510.924376,1378.971896
915.906547,1332.370696,-9400.615463,919.314598
915.906871,1702.473667,-7920.203579,2528.115143
915.907195,1924.535449,-10066.800811,919.314598
915.907519,1702.473667,-10658.965565,-306.438199
915.907843,592.164754,-9104.533087,459.657299
915.908167,0.000000,-9770.718434,306.438199
915.908491,-296.082377,-11251.130318,-1455.581446
915.908815,-1110.308913,-10584.944971,-689.485948
915.909139,-1480.411884,-9030.512492,229.828649
915.909463,-2146.597232,-10214.842000,-842.705048
915.909787,-2442.679609,-10362.883188,-1072.533697
915.910111,-1554.432478,-9252.574275,766.095498
915.910435,0.000000,-10362.883188,1072.533697
915.910759,1110.308913,-11621.233289,229.828649
915.911083,1184.329507,-10362.883188,689.485948
915.911407,1628.453072,-9252.574275,1225.752797
915.911731,1258.350101,-10436.903782,153.219100
915.912055,888.247130,-10362.883188,-919.314598
915.912379,666.185348,-9474.636058,-1149.143247
915.912703,74.020594,-9844.739029,-1762.019645
915.913027,-814.226536,-9844.739029,-2834.553343
915.913351,-1036.288319,-8660.409521,-2528.115143
915.913675,-740.205942,-8956.491898,-1838.629195
915.913999,-888.247130,-9548.656652,-2451.505594
915.914323,-1184.329507,-8956.491898,-1762.019645
915.914647,-592.164754,-8216.285956,-919.314598
915.914971,740.205942,-10214.842000,-766.095498
915.915295,1332.370696,-9622.677246,-766.095498
915.915619,1776.494261,-8586.388927,0.000000
915.915942,2072.576638,-9030.512492,306.438199
915.916266,1184.329507,-9992.780217,-842.705048
915.916590,740.205942,-8438.347739,-1149.143247
915.916914,666.185348,-7846.182985,-766.095498
915.917238,370.102971,-10214.842000,-1838.629195
915.917562,-518.144159,-11103.089130,-2604.724693
915.917886,-888.247130,-10066.800811,-2145.067394
915.918210,-1480.411884,-10140.821405,-2451.505594
915.918534,-2146.597232,-10584.944971,-2987.772442
915.918858,-1480.411884,-9770.718434,-1685.410096
915.919182,0.000000,-10140.821405,-459.657299
915.919506,592.164754,-10955.047942,-459.657299
915.919830,518.144159,-10066.800811,536.266849
915.920154,1332.370696,-9770.718434,689.485948
915.920478,1110.308913,-10288.862594,-306.438199
915.920802,444.123565,-10288.862594,-689.485948
915.921126,888.247130,-9770.718434,612.876398
915.921450,814.226536,-11177.109724,306.438199
915.921774,370.102971,-12287.418637,-153.219100
915.922098,-1036.288319,-10362.883188,-919.314598
915.922422,-962.267725,-9326.594869,-919.314598
915.922746,-1184.329507,-10584.944971,-1685.410096
915.923070,-1702.473667,-10140.821405,-1532.190996
915.923394,-962.267725,-8586.388927,306.438199
915.923718,222.061783,-9178.553681,1532.190996
915.924042,1480.411884,-10510.924376,1685.410096
915.924366,1110.308913,-9104.533087,1685.410096
915.924690,666.185348,-8142.265362,2145.067394
915.925014,-592.164754,-9696.697840,1455.581446
915.925338,-1110.308913,-9770.718434,536.266849
915.925662,-1332.370696,-8734.430116,1532.190996
915.925986,-962.267725,-8808.450710,766.095498
915.926310,-1184.329507,-9548.656652,153.219100
915.926634,-1258.350101,-8808.450710,306.438199
915.926958,-370.102971,-8808.450710,995.924147
915.927282,-1036.288319,-9622.677246,229.828649
915.927606,-592.164754,-8216.285956,919.314598
915.927930,444.123565,-7920.203579,2528.115143
915.928254,1628.453072,-9400.615463,2834.553343
915.928578,2590.720797,-9252.574275,2681.334243
915.928902,2368.659014,-7994.224174,4290.134789
915.929226,1628.453072,-9030.512492,3370.820191
915.929550,444.123565,-8734.430116,1838.629195
915.929874,-148.041188,-7698.141797,1762.019645
915.930198,0.000000,-7698.141797,2068.457845
915.930522,-222.061783,-9326.594869,76.609550
915.930846,-1702.473667,-8808.450710,-306.438199
915.931170,-1850.514855,-8586.388927,229.828649
915.931494,-1184.329507,-9770.718434,153.219100
915.931818,-1554.432478,-10362.883188,0.000000
915.932142,-1332.370696,-9548.656652,995.924147
915.932466,222.061783,-10584.944971,1838.629195
915.932790,1258.350101,-11695.253884,1149.143247
915.933114,1850.514855,-10584.944971,2068.457845
915.933438,1850.514855,-9622.677246,2987.772442
915.933762,1628.453072,-11177.109724,1838.629195
915.934086,148.041188,-10881.027347,459.657299
915.934410,-518.144159,-9030.512492,842.705048
915.934734,-962.267725,-9622.677246,-1072.533697
915.935058,-1480.411884,-10584.944971,-2604.724693
915.935382,-2368.659014,-9992.780217,-2145.067394
915.935706,-1702.473667,-9474.636058,-2221.676944
915.936030,-1258.350101,-9696.697840,-3217.601092
915.936354,-1258.350101,-9326.594869,-2298.286494
915.936678,0.000000,-9474.636058,-1302.362347
915.937002,1480.411884,-10436.903782,-1532.190996
915.937326,1924.535449,-10140.821405,-766.095498
915.937650,2294.638420,-8808.450710,1072.533697
915.937974,3108.864956,-10732.986159,1378.971896
915.938298,2960.823768,-11917.315666,-459.657299
915.938622,1480.411884,-9252.574275,76.609550
915.938946,0.000000,-9104.533087,-229.828649
915.939270,-518.144159,-11177.109724,-3524.039291
915.939594,-1998.556043,-10584.944971,-4290.134789
915.939918,-4071.132681,-9770.718434,-3524.039291
915.940242,-4293.194464,-9844.739029,-4826.401637
915.940566,-4145.153275,-10214.842000,-5362.668486
915.940890,-2960.823768,-8660.409521,-3064.381992
915.941214,-1184.329507,-9030.512492,-2221.676944
915.941538,518.144159,-9992.780217,-1762.019645
915.941861,888.247130,-9178.553681,-306.438199
915.942185,1850.514855,-8142.265362,1149.143247
915.942509,2738.761985,-9844.739029,766.095498
915.942833,2664.741391,-11103.089130,1072.533697
915.943157,2590.720797,-10362.883188,2298.286494
915.943481,2664.741391,-10510.924376,2145.067394
915.943805,1258.350101,-8808.450710,-1149.143247
915.944129,-1924.535449,-7402.059420,-3983.696590
915.944453,-4219.173869,-8808.450710,-2604.724693
915.944777,-2812.782580,-11399.171507,-3753.867940
915.945101,-1628.453072,-10362.883188,-3753.867940
915.945425,-2072.576638,-8364.327145,-459.657299
915.945749,-888.247130,-8586.388927,0.000000
915.946073,370.102971,-10362.883188,-1302.362347
915.946397,666.185348,-9992.780217,459.657299
915.946721,1332.370696,-9178.553681,1991.848295
915.947045,2590.720797,-10881.027347,2221.676944
915.947369,2738.761985,-11473.192101,2451.505594
915.947693,2812.782580,-9252.574275,4213.525239
915.948017,3108.864956,-9104.533087,2374.896044
915.948341,1628.453072,-10214.842000,-689.485948
915.948665,-2072.576638,-10658.965565,-306.438199
915.948989,-3108.864956,-9400.615463,-612.876398
915.949313,-2442.679609,-9178.553681,-1685.410096
915.949637,-2516.700203,-8216.285956,-1608.800546
915.949961,-2442.679609,-7476.080014,229.828649
915.950285,0.000000,-9252.574275,-229.828649
915.950609,888.247130,-9918.759623,-536.266849
915.950933,888.247130,-8808.450710,1532.190996
915.951257,1702.473667,-9252.574275,3447.429741
915.951581,2368.659014,-10807.006753,2374.896044
915.951905,2294.638420,-9770.718434,2911.162892
915.952229,2220.617826,-9622.677246,4060.306139
915.952553,2368.659014,-10807.006753,2451.505594
915.952877,1258.350101,-10807.006753,689.485948
915.953201,-962.267725,-9326.594869,919.314598
915.953525,-1998.556043,-9474.636058,0.000000
915.953849,-2886.803174,-9696.697840,-1532.190996
915.954173,-3997.112087,-9178.553681,-766.095498
915.954497,-3034.844362,-9696.697840,842.705048
915.954821,-1702.473667,-11251.130318,0.000000
915.955145,-1184.329507,-10214.842000,76.609550
915.955469,-666.185348,-8586.388927,2604.724693
915.955793,1628.453072,-10584.944971,1762.019645
915.956117,1850.514855,-10732.986159,1225.752797
915.956441,1332.370696,-9104.533087,2834.553343
915.956765,1924.535449,-9400.615463,3064.381992
915.957089,1998.556043,-10066.800811,766.095498
915.957413,740.205942,-8734.430116,153.219100
915.957737,0.000000,-7846.182985,383.047749
915.958061,-962.267725,-9104.533087,-842.705048
915.958385,-1702.473667,-8734.430116,-2451.505594
915.958709,-2812.782580,-6883.915261,-919.314598
915.959033,-2220.617826,-7920.203579,-1149.143247
915.959357,-1184.329507,-9400.615463,-2451.505594
915.959681,-1628.453072,-8512.368333,-536.266849
915.960005,-1110.308913,-8364.327145,1072.533697
915.960329,0.000000,-10362.883188,-383.047749
915.960653,592.164754,-10658.965565,0.000000
915.960977,1554.432478,-9474.636058,2221.676944
915.961301,2294.638420,-10881.027347,766.095498
915.961625,1258.350101,-11325.150913,-1072.533697
915.961949,-296.082377,-10140.821405,0.000000
915.962273,-370.102971,-10658.965565,-1225.752797
915.962597,-666.185348,-11473.192101,-3064.381992
915.962921,-1850.514855,-10362.883188,-2451.505594
915.963245,-1776.494261,-9326.594869,-1838.629195
915.963569,-592.164754,-10955.047942,-2451.505594
915.963893,-296.082377,-11325.150913,-2834.553343
915.964217,-296.082377,-9474.636058,-536.266849
915.964541,0.000000,-10214.842000,229.828649
915.964865,592.164754,-11251.130318,-1149.143247
915.965189,740.205942,-8956.491898,1072.533697
915.965513,148.041188,-8956.491898,2451.505594
915.965837,1702.473667,-10658.965565,0.000000
915.966161,1036.288319,-9770.718434,-919.314598
915.966485,0.000000,-7105.977043,-689.485948
915.966809,-444.123565,-8586.388927,-1532.190996
915.967133,-1036.288319,-9992.780217,-4136.915689
915.967456,-1258.350101,-7994.224174,-2757.943793
915.967780,0.000000,-7846.182985,-612.876398
915.968104,2294.638420,-9992.780217,-1915.238745
915.968428,1702.473667,-10510.924376,-2068.457845
915.968752,888.247130,-9178.553681,76.609550
915.969076,2072.576638,-10510.924376,0.000000
915.969400,2590.720797,-11547.212695,0.000000
915.969724,2146.597232,-10955.047942,1608.800546
915.970048,1924.535449,-10584.944971,1378.971896
915.970372,1850.514855,-11029.068536,-383.047749
915.970696,0.000000,-10658.965565,0.000000
915.971020,-1036.288319,-10658.965565,459.657299
915.971344,-1480.411884,-11103.089130,-1838.629195
915.971668,-1850.514855,-9770.718434,-2451.505594
915.971992,-2146.597232,-8660.409521,-766.095498
915.972316,-1110.308913,-10140.821405,-1225.752797
915.972640,0.000000,-10732.986159,-1685.410096
915.972964,-444.123565,-8660.409521,153.219100
915.973288,740.205942,-8660.409521,1378.971896
915.973612,1332.370696,-9474.636058,0.000000
915.973936,1258.350101,-9104.533087,1149.143247
915.974260,2220.617826,-8660.409521,3140.991542
915.974584,2738.761985,-9844.739029,2298.286494
915.974908,2072.576638,-9400.615463,1302.362347
915.975232,370.102971,-7402.059420,2528.115143
915.975556,-296.082377,-8068.244768,1149.143247
915.975880,-888.247130,-8438.347739,-689.485948
915.976204,-1924.535449,-7994.224174,612.876398
915.976528,-2072.576638,-8068.244768,1532.190996
915.976852,-1924.535449,-9474.636058,-612.876398
915.977176,-2368.659014,-8512.368333,-306.438199
915.977500,-2146.597232,-8216.285956,1838.629195
915.977824,-666.185348,-10510.924376,1302.362347
915.978148,-666.185348,-10881.027347,919.314598
915.978472,-1110.308913,-9104.533087,2374.896044
915.978796,-962.267725,-8956.491898,2145.067394
915.979120,-740.205942,-11325.150913,76.609550
915.979444,-1332.370696,-11251.130318,1225.752797
915.979768,-370.102971,-10584.944971,2604.724693
915.980092,222.061783,-10732.986159,459.657299
915.980416,-1850.514855,-8438.347739,-1149.143247
915.980740,-2368.659014,-7105.977043,0.000000
915.981064,-1258.350101,-8882.471304,-1149.143247
915.981388,-740.205942,-10436.903782,-2528.115143
915.981712,-962.267725,-9326.594869,-229.828649
915.982036,-74.020594,-8512.368333,1072.533697
915.982360,666.185348,-9918.759623,-766.095498
915.982684,222.061783,-9474.636058,-689.485948
915.983008,370.102971,-8956.491898,1302.362347
915.983332,2812.782580,-11473.192101,995.924147
915.983656,2812.782580,-12139.377449,0.000000
915.983980,1850.514855,-9844.739029,1149.143247
915.984304,1628.453072,-9030.512492,1149.143247
915.984628,814.226536,-11103.089130,-1608.800546
915.984952,-1554.432478,-10881.027347,-2221.676944
915.985276,-1998.556043,-9474.636058,-1762.019645
915.985600,-1110.308913,-10732.986159,-2911.162892
915.985924,-1110.308913,-11177.109724,-3217.601092
915.986248,-1184.329507,-9770.718434,-842.705048
915.986572,-370.102971,-10288.862594,-306.438199
915.986896,-148.041188,-11917.315666,-2145.067394
915.987220,-1258.350101,-10362.883188,-842.705048
915.987544,444.123565,-9104.533087,1762.019645
915.987868,2368.659014,-11177.109724,919.314598
915.988192,2072.576638,-10362.883188,0.000000
915.988516,1850.514855,-8882.471304,2145.067394
915.988841,1998.556043,-9400.615463,995.924147
915.989165,1480.411884,-10140.821405,-1072.533697
915.989489,-148.041188,-8438.347739,0.000000
915.989813,222.061783,-7550.100608,306.438199
915.990138,592.164754,-9178.553681,-1532.190996
915.990462,0.000000,-8956.491898,-1532.190996
915.990786,222.061783,-7624.121203,536.266849
915.991111,814.226536,-9252.574275,-612.876398
915.991435,-592.164754,-9548.656652,-1685.410096
915.991759,-888.247130,-7624.121203,383.047749
915.992083,74.020594,-8660.409521,1532.190996
915.992408,666.185348,-10362.883188,-153.219100
915.992732,-74.020594,-9252.574275,612.876398
915.993056,-666.185348,-8364.327145,2451.505594
915.993381,0.000000,-9548.656652,612.876398
915.993705,0.000000,-10214.842000,-459.657299
915.994029,-1110.308913,-8364.327145,1072.533697
915.994353,0.000000,-8808.450710,766.095498
915.994678,222.061783,-10955.047942,-1225.752797
915.995002,-222.061783,-9622.677246,0.000000
915.995326,-148.041188,-9104.533087,306.438199
915.995651,0.000000,-10436.903782,-1378.971896
915.995975,-518.144159,-9252.574275,-995.924147
915.996299,0.000000,-8956.491898,689.485948
915.996623,1480.411884,-10436.903782,0.000000
915.996948,962.267725,-10955.047942,-1149.143247
915.997272,-222.061783,-9252.574275,612.876398
915.997596,-296.082377,-9622.677246,459.657299
915.997920,74.020594,-11547.212695,-536.266849
915.998245,-666.185348,-9770.718434,-153.219100
915.998569,-1184.329507,-8586.388927,1149.143247
915.998893,-296.082377,-10658.965565,-536.266849
915.999218,-222.061783,-11103.089130,-1685.410096
915.999542,-444.123565,-9178.553681,306.438199
915.999866,666.185348,-9992.780217,306.438199
916.000190,370.102971,-11843.295072,-1685.410096
916.000515,-296.082377,-9770.718434,-612.876398
916.000839,222.061783,-9178.553681,1149.143247
916.001163,592.164754,-11991.336260,-919.314598
916.001488,-296.082377,-12139.377449,-766.095498
916.001812,-370.102971,-9844.739029,995.924147
916.002136,222.061783,-10658.965565,153.219100
916.002460,-444.123565,-10658.965565,-1608.800546
916.002785,-1554.432478,-8364.327145,229.828649
916.003109,-888.247130,-8142.265362,76.609550
916.003433,148.041188,-10140.821405,-1455.581446
916.003758,0.000000,-9400.615463,-306.438199
916.004082,148.041188,-7402.059420,842.705048
916.004406,444.123565,-8660.409521,-689.485948
916.004730,-222.061783,-9474.636058,-1455.581446
916.005055,74.020594,-8660.409521,689.485948
916.005379,1110.308913,-9030.512492,0.000000
916.005703,1184.329507,-10066.800811,-919.314598
916.006028,0.000000,-9178.553681,0.000000
916.006352,0.000000,-8512.368333,689.485948
916.006676,0.000000,-10066.800811,0.000000
916.007000,-814.226536,-9992.780217,0.000000
916.007325,-962.267725,-8734.430116,1378.971896
916.007649,-444.123565,-9104.533087,842.705048
916.007973,-962.267725,-9844.739029,-383.047749
916.008298,-1924.535449,-8808.450710,612.876398
916.008622,-1110.308913,-8882.471304,459.657299
916.008946,-444.123565,-10140.821405,-1072.533697
916.009270,-1184.329507,-8734.430116,-536.266849
916.009595,-888.247130,-7772.162391,612.876398
916.009919,74.020594,-9474.636058,-383.047749
916.010243,0.000000,-10732.986159,-1302.362347
916.010568,74.020594,-9622.677246,229.828649
916.010892,444.123565,-10066.800811,1072.533697
916.011216,444.123565,-11621.233289,0.000000
916.011540,518.144159,-10066.800811,536.266849
916.011865,962.267725,-8882.471304,2145.067394
916.012189,1776.494261,-11325.150913,459.657299
916.012513,1110.308913,-11621.233289,-153.219100
916.012838,222.061783,-9104.533087,1455.581446
916.013162,296.082377,-8956.491898,306.438199
916.013486,-592.164754,-10584.944971,-1608.800546
916.013810,-1480.411884,-9252.574275,-1762.019645
916.014135,-1036.288319,-8364.327145,-383.047749
916.014459,-296.082377,-10436.903782,-1608.800546
916.014783,-370.102971,-11399.171507,-1378.971896
916.015108,0.000000,-8808.450710,689.485948
916.015432,518.144159,-8956.491898,76.609550
916.015756,0.000000,-10362.883188,-383.047749
916.016080,0.000000,-9474.636058,919.314598
916.016405,1110.308913,-9252.574275,1225.752797
916.016729,1998.556043,-10362.883188,536.266849
916.017053,2146.597232,-10362.883188,1302.362347
916.017377,2368.659014,-9030.512492,2451.505594
916.017702,1850.514855,-9696.697840,536.266849
916.018026,0.000000,-10658.965565,-229.828649
916.018350,-962.267725,-9030.512492,842.705048
916.018675,0.000000,-9622.677246,-153.219100
916.018999,-592.164754,-10584.944971,-1685.410096
916.019323,-1258.350101,-9326.594869,-536.266849
916.019647,-888.247130,-8808.450710,919.314598
916.019972,-518.144159,-10362.883188,-153.219100
916.020296,-888.247130,-10066.800811,229.828649
916.020620,-370.102971,-8290.306550,1685.410096
916.020945,740.205942,-9104.533087,1608.800546
916.021269,888.247130,-10881.027347,1072.533697
916.021593,222.061783,-9548.656652,1608.800546
916.021917,444.123565,-8364.327145,1685.410096
916.022242,296.082377,-9252.574275,766.095498
916.022566,-740.205942,-9030.512492,-383.047749
916.022890,-740.205942,-7772.162391,0.000000
916.023215,-1036.288319,-8882.471304,-306.438199
916.023539,-1628.453072,-10214.842000,-1685.410096
916.023863,-1628.453072,-8956.491898,-1072.533697
916.024187,-814.226536,-8142.265362,-612.876398
916.024512,-1036.288319,-9104.533087,-1838.629195
916.024836,-1406.391290,-9548.656652,-919.314598
916.025160,74.020594,-9326.594869,689.485948
916.025485,1628.453072,-10732.986159,229.828649
916.025809,1776.494261,-10881.027347,76.609550
916.026133,1480.411884,-9178.553681,612.876398
916.026457,1184.329507,-9474.636058,229.828649
916.026782,-148.041188,-10658.965565,-1302.362347
916.027106,-1406.391290,-9844.739029,-1455.581446
916.027430,-888.247130,-9474.636058,-766.095498
916.027755,-1628.453072,-10658.965565,-2681.334243
916.028079,-2442.679609,-10214.842000,-3140.991542
916.028403,-2146.597232,-8734.430116,-1915.238745
916.028727,-962.267725,-10214.842000,-2834.553343
916.029052,-814.226536,-10881.027347,-3064.381992
916.029376,-740.205942,-9474.636058,76.609550
916.029700,1480.411884,-9770.718434,689.485948
916.030025,2220.617826,-11473.192101,-383.047749
916.030349,2220.617826,-10362.883188,689.485948
916.030673,2738.761985,-9844.739029,1685.410096
916.030997,2590.720797,-11325.150913,0.000000
916.031322,1850.514855,-10955.047942,-995.924147
916.031646,1480.411884,-9252.574275,-306.438199
916.031970,1406.391290,-9770.718434,-995.924147
916.032295,74.020594,-11177.109724,-2911.162892
916.032619,-2146.597232,-9918.759623,-2145.067394
916.032943,-2368.659014,-9548.656652,-1378.971896
916.033267,-2294.638420,-11325.150913,-2451.505594
916.033592,-2590.720797,-10436.903782,-1608.800546
916.033916,-1850.514855,-8364.327145,153.219100
916.034240,518.144159,-9474.636058,76.609550
916.034565,1184.329507,-11103.089130,0.000000
916.034889,1776.494261,-9696.697840,1532.190996
916.035213,1924.535449,-9400.615463,2068.457845
916.035537,1110.308913,-10288.862594,0.000000
916.035862,-592.164754,-9178.553681,-306.438199
916.036186,-592.164754,-8216.285956,459.657299
916.036510,-296.082377,-9696.697840,-536.266849
916.036834,-1184.329507,-10436.903782,-2068.457845
916.037159,-1406.391290,-7994.224174,229.828649
916.037483,-1184.329507,-8068.244768,0.000000
916.037807,-962.267725,-9400.615463,-1149.143247
916.038132,-1480.411884,-8586.388927,766.095498
916.038456,74.020594,-8068.244768,2451.505594
916.038780,2294.638420,-9474.636058,1762.019645
916.039104,2812.782580,-9400.615463,2528.115143
916.039429,3108.864956,-7550.100608,3447.429741
916.039753,3034.844362,-7920.203579,2528.115143
916.040077,1776.494261,-9400.615463,919.314598
916.040402,148.041188,-8734.430116,1302.362347
916.040726,74.020594,-7994.224174,612.876398
916.041050,-148.041188,-9252.574275,-995.924147
916.041374,-2442.679609,-9030.512492,-919.314598
916.041699,-1776.494261,-8586.388927,-459.657299
916.042023,-1184.329507,-9918.759623,-536.266849
916.042347,-2146.597232,-10881.027347,-995.924147
916.042672,-1480.411884,-8956.491898,1072.533697
916.042996,518.144159,-9770.718434,1915.238745
916.043320,1628.453072,-11769.274478,1225.752797
916.043644,2146.597232,-10658.965565,2757.943793
916.043969,2146.597232,-9770.718434,2681.334243
916.044293,1702.473667,-10584.944971,1532.190996
916.044617,222.061783,-10140.821405,-766.095498
916.044942,518.144159,-8734.430116,842.705048
916.045266,814.226536,-9030.512492,-919.314598
916.045590,-888.247130,-10362.883188,-3447.429741
916.045914,-2294.638420,-9178.553681,-2681.334243
916.046239,-1850.514855,-9252.574275,-1991.848295
916.046563,-1998.556043,-11325.150913,-3830.477490
916.046887,-2442.679609,-10436.903782,-2145.067394
916.047212,-1332.370696,-9178.553681,-383.047749
916.047536,1258.350101,-11473.192101,0.000000
916.047860,1776.494261,-12657.521608,-383.047749
916.048184,1628.453072,-10436.903782,1838.629195
916.048509,2146.597232,-9918.759623,1915.238745
916.048833,1258.350101,-11029.068536,306.438199
916.049157,370.102971,-10362.883188,0.000000
916.049482,0.000000,-8808.450710,76.609550
916.049806,222.061783,-10214.842000,-1915.238745
916.050130,-1480.411884,-11251.130318,-3064.381992
916.050454,-2590.720797,-9178.553681,-2528.115143
916.050779,-2368.659014,-9104.533087,-3524.039291
916.051103,-3182.885551,-9918.759623,-4519.963438
916.051427,-3404.947333,-9400.615463,-2298.286494
916.051752,-1702.473667,-9622.677246,-383.047749
916.052076,-518.144159,-11103.089130,-536.266849
916.052400,888.247130,-9770.718434,306.438199
916.052724,2294.638420,-8290.306550,2145.067394
916.053049,3034.844362,-9844.739029,2068.457845
916.053373,2516.700203,-9992.780217,1685.410096
916.053697,2294.638420,-8438.347739,3217.601092
916.054022,2294.638420,-8882.471304,2834.553343
916.054346,1184.329507,-9400.615463,-536.266849
916.054670,-1406.391290,-7920.203579,-1685.410096
916.054994,-2664.741391,-7920.203579,-766.095498
916.055319,-1924.535449,-10436.903782,-2374.896044
916.055643,-1850.514855,-10214.842000,-2757.943793
916.055967,-1776.494261,-7994.224174,-689.485948
916.056291,-370.102971,-8660.409521,0.000000
916.056616,1036.288319,-10807.006753,-919.314598
916.056940,888.247130,-9992.780217,1072.533697
916.057264,1406.391290,-9622.677246,2145.067394
916.057589,2368.659014,-10214.842000,1302.362347
916.057913,2146.597232,-9844.739029,1608.800546
916.058237,2294.638420,-8660.409521,3140.991542
916.058561,2442.679609,-9770.718434,2068.457845
916.058886,444.123565,-10362.883188,-612.876398
916.059210,-1998.556043,-8808.450710,-383.047749
916.059534,-2294.638420,-8216.285956,-383.047749
916.059859,-1850.514855,-9400.615463,-2451.505594
916.060183,-2368.659014,-9326.594869,-1762.019645
916.060507,-1924.535449,-8512.368333,229.828649
916.060831,222.061783,-10288.862594,-306.438199
916.061156,518.144159,-11103.089130,-459.657299
916.061480,592.164754,-9178.553681,995.924147
916.061804,1036.288319,-9104.533087,1302.362347
916.062129,1332.370696,-11103.089130,153.219100
916.062453,1332.370696,-10436.903782,1991.848295
916.062777,1702.473667,-9844.739029,2681.334243
916.063101,1406.391290,-10584.944971,383.047749
916.063426,-592.164754,-10658.965565,-689.485948
916.063750,-1332.370696,-9474.636058,153.219100
916.064074,-370.102971,-10288.862594,-229.828649
916.064399,-1184.329507,-10584.944971,-1838.629195
916.064723,-2146.597232,-8956.491898,-229.828649
916.065047,-1628.453072,-8586.388927,306.438199
916.065371,-222.061783,-10510.924376,-689.485948
916.065696,0.000000,-9992.780217,153.219100
916.066020,370.102971,-8956.491898,2374.896044
916.066344,2220.617826,-10807.006753,1685.410096
916.066669,1776.494261,-10436.903782,1762.019645
916.066993,1850.514855,-8586.388927,2068.457845
916.067317,1554.432478,-8586.388927,1149.143247
916.067641,74.020594,-10658.965565,-1225.752797
916.067966,-1628.453072,-10140.821405,-766.095498
916.068290,-1406.391290,-8956.491898,0.000000
916.068614,-1184.329507,-9622.677246,-1532.190996
916.068939,-2368.659014,-9474.636058,-2757.943793
916.069263,-2516.700203,-7920.203579,-1762.019645
916.069587,-814.226536,-8956.491898,-1838.629195
916.069911,0.000000,-11177.109724,-1302.362347
916.070236,296.082377,-9696.697840,459.657299
916.070560,962.267725,-9474.636058,2068.457845
916.070884,740.205942,-10584.944971,1149.143247
916.071209,1258.350101,-9770.718434,306.438199
916.071533,1258.350101,-8882.471304,2068.457845
916.071857,888.247130,-10140.821405,459.657299
916.072181,-518.144159,-10214.842000,-1149.143247
916.072506,-1332.370696,-8438.347739,-459.657299
916.072830,-1628.453072,-7846.182985,-1608.800546
916.073154,-2590.720797,-8882.471304,-3294.210641
916.073479,-3775.050304,-8216.285956,-2911.162892
916.073803,-3182.885551,-8068.244768,-1991.848295
916.074127,-2146.597232,-9400.615463,-1915.238745
916.074451,-1184.329507,-9548.656652,-612.876398
916.074776,-296.082377,-7994.224174,306.438199
916.075100,1332.370696,-9474.636058,1072.533697
916.075424,1702.473667,-10955.047942,1072.533697
916.075749,1924.535449,-10732.986159,2451.505594
916.076073,2294.638420,-10288.862594,2604.724693
916.076397,1998.556043,-10436.903782,1149.143247
916.076721,1702.473667,-9622.677246,306.438199
916.077046,1110.308913,-9030.512492,-842.705048
916.077370,518.144159,-10066.800811,-1608.800546
916.077694,-888.247130,-11103.089130,-2221.676944
916.078018,-962.267725,-9992.780217,-1532.190996
916.078343,0.000000,-10066.800811,-1149.143247
916.078667,148.041188,-11029.068536,-2221.676944
916.078991,148.041188,-10881.027347,-612.876398
916.079316,740.205942,-10436.903782,-383.047749
916.079640,222.061783,-11177.109724,-842.705048
916.079964,0.000000,-11029.068536,0.000000
916.080288,1332.370696,-10436.903782,2145.067394
916.080613,2886.803174,-11251.130318,1991.848295
916.080937,2516.700203,-10732.986159,383.047749
916.081261,888.247130,-8808.450710,536.266849
916.081586,148.041188,-7772.162391,-306.438199
916.081910,-962.267725,-9622.677246,-1991.848295
916.082234,-2146.597232,-9326.594869,-1685.410096
916.082558,-1332.370696,-7846.182985,-229.828649
916.082883,74.020594,-9030.512492,-1762.019645
916.083207,0.000000,-9474.636058,-1608.800546
916.083531,444.123565,-8438.347739,229.828649
916.083856,2072.576638,-9178.553681,995.924147
916.084180,1628.453072,-10362.883188,383.047749
916.084504,666.185348,-9474.636058,1532.190996
916.084828,1850.514855,-7994.224174,2604.724693
916.085153,2368.659014,-10214.842000,1991.848295
916.085477,1184.329507,-11325.150913,1455.581446
916.085801,666.185348,-8956.491898,1685.410096
916.086126,-148.041188,-7846.182985,459.657299
916.086450,-2368.659014,-9326.594869,-1072.533697
916.086774,-3404.947333,-9104.533087,-1302.362347
916.087098,-2442.679609,-8142.265362,0.000000
916.087423,-2072.576638,-9252.574275,-1225.752797
916.087747,-2664.741391,-9474.636058,-1302.362347
916.088071,-1924.535449,-8216.285956,76.609550
916.088396,-1036.288319,-8882.471304,0.000000
916.088720,-1110.308913,-10214.842000,459.657299
916.089044,0.000000,-9178.553681,1608.800546
916.089368,1110.308913,-9326.594869,1991.848295
916.089692,1110.308913,-11177.109724,536.266849
916.090017,1110.308913,-9992.780217,689.485948
916.090341,1554.432478,-8882.471304,1685.410096
916.090665,814.226536,-10658.965565,-306.438199
916.090989,-1258.350101,-10807.006753,-1225.752797
916.091313,-1702.473667,-9622.677246,-689.485948
916.091638,-296.082377,-9400.615463,-919.314598
916.091962,0.000000,-10807.006753,-1991.848295
916.092286,-1036.288319,-10658.965565,-1225.752797
916.092610,-1332.370696,-10140.821405,0.000000
916.092934,-962.267725,-11621.233289,-1072.533697
916.093259,-740.205942,-11177.109724,-995.924147
916.093583,-296.082377,-9696.697840,459.657299
916.093907,1110.308913,-10510.924376,229.828649
916.094231,962.267725,-11399.171507,-229.828649
916.094555,666.185348,-9918.759623,306.438199
916.094880,222.061783,-9548.656652,76.609550
916.095204,-1184.329507,-10881.027347,-1378.971896
916.095528,-2368.659014,-9770.718434,-1608.800546
916.095852,-1258.350101,-8956.491898,-153.219100
916.096176,148.041188,-10288.862594,-383.047749
916.096501,0.000000,-10066.800811,-995.924147
916.096825,-592.164754,-8808.450710,0.000000
916.097149,148.041188,-9178.553681,229.828649
916.097473,74.020594,-10510.924376,-229.828649
916.097798,444.123565,-9474.636058,383.047749
916.098122,1110.308913,-7994.224174,1608.800546
916.098446,1480.411884,-9622.677246,536.266849
916.098770,1554.432478,-10140.821405,383.047749
916.099094,1184.329507,-7994.224174,1378.971896
916.099419,888.247130,-8438.347739,612.876398
916.099743,-592.164754,-9326.594869,-1378.971896
916.100067,-1258.350101,-8068.244768,-306.438199
916.100391,-74.020594,-7698.141797,306.438199
916.100715,74.020594,-9178.553681,-536.266849
916.101040,-666.185348,-9326.594869,0.000000
916.101364,-222.061783,-7624.121203,689.485948
916.101688,444.123565,-8290.306550,-459.657299
916.102012,0.000000,-9178.553681,-459.657299
916.102336,0.000000,-8438.347739,1072.533697
916.102661,1332.370696,-8660.409521,919.314598
916.102985,1702.473667,-10214.842000,459.657299
916.103309,740.205942,-9252.574275,1149.143247
916.103633,444.123565,-7994.224174,1378.971896
916.103957,444.123565,-9474.636058,-536.266849
916.104282,-962.267725,-10140.821405,-459.657299
916.104606,-962.267725,-8956.491898,0.000000
916.104930,0.000000,-8882.471304,-536.266849
916.105254,-222.061783,-10658.965565,-995.924147
916.105578,-296.082377,-10436.903782,153.219100
916.105903,740.205942,-9696.697840,229.828649
916.106227,0.000000,-10658.965565,-306.438199
916.106551,-962.267725,-11103.089130,-919.314598
916.106875,-148.041188,-10140.821405,-153.219100
916.107199,592.164754,-11325.150913,-459.657299
916.107524,74.020594,-11917.315666,-612.876398
916.107848,-296.082377,-11029.068536,842.705048
916.108172,296.082377,-11177.109724,383.047749
916.108496,0.000000,-11843.295072,-153.219100
916.108821,-1924.535449,-10510.924376,-383.047749
916.109145,-1036.288319,-9696.697840,459.657299
916.109469,-148.041188,-11103.089130,76.609550
916.109793,-592.164754,-11325.150913,-612.876398
916.110117,-592.164754,-8660.409521,0.000000
916.110442,-148.041188,-8882.471304,-612.876398
916.110766,0.000000,-11473.192101,-1149.143247
916.111090,-222.061783,-10584.944971,-229.828649
916.111414,1258.350101,-9252.574275,229.828649
916.111738,1554.432478,-10362.883188,-842.705048
916.112063,-296.082377,-10807.006753,-766.095498
916.112387,-296.082377,-9918.759623,-229.828649
916.112711,74.020594,-9992.780217,-536.266849
916.113035,-296.082377,-10362.883188,-612.876398
916.113359,-888.247130,-8586.388927,-306.438199
916.113684,518.144159,-8586.388927,153.219100
916.114008,-222.061783,-9918.759623,-612.876398
916.114332,-888.247130,-9844.739029,229.828649
916.114656,-666.185348,-8808.450710,383.047749
916.114980,-444.123565,-9030.512492,-383.047749
916.115305,-814.226536,-9030.512492,-536.266849
916.115629,0.000000,-7846.182985,229.828649
916.115953,888.247130,-8438.347739,153.219100
916.116277,296.082377,-9992.780217,-1225.752797
916.116601,-296.082377,-9178.553681,229.828649
916.116926,0.000000,-7698.141797,76.609550
916.117250,74.020594,-8586.388927,-612.876398
916.117574,-1110.308913,-8660.409521,-383.047749
916.117898,-222.061783,-7402.059420,383.047749
916.118222,740.205942,-8438.347739,-536.266849
916.118547,-814.226536,-9770.718434,-842.705048
916.118871,-1924.535449,-7846.182985,-459.657299
916.119195,-962.267725,-8068.244768,-76.609550
916.119519,-444.123565,-9992.780217,-1302.362347
916.119844,-1258.350101,-9992.780217,-689.485948
916.120168,-888.247130,-8512.368333,306.438199
916.120492,444.123565,-9844.739029,-229.828649
916.120816,296.082377,-11843.295072,0.000000
916.121140,1110.308913,-10510.924376,1532.190996
916.121465,1924.535449,-11325.150913,1762.019645
916.121789,2072.576638,-13175.665768,459.657299
916.122113,1628.453072,-11621.233289,919.314598
916.122437,1702.473667,-10362.883188,1685.410096
916.122761,1406.391290,-11991.336260,383.047749
916.123086,370.102971,-12879.583391,0.000000
916.123410,222.061783,-10288.862594,689.485948
916.123734,666.185348,-10288.862594,-383.047749
916.124058,-1332.370696,-10436.903782,-1838.629195
916.124382,-2368.659014,-9178.553681,-766.095498
916.124707,-592.164754,-9326.594869,-306.438199
916.125031,148.041188,-10955.047942,-612.876398
916.125355,74.020594,-10288.862594,229.828649
916.125679,518.144159,-8956.491898,1991.848295
916.126003,1554.432478,-9622.677246,995.924147
916.126328,1258.350101,-10214.842000,766.095498
916.126652,1406.391290,-8808.450710,2374.896044
916.126976,2516.700203,-8734.430116,2221.676944
916.127300,2516.700203,-10362.883188,1455.581446
916.127624,1554.432478,-9474.636058,1838.629195
916.127949,1628.453072,-7920.203579,1149.143247
916.128273,0.000000,-8068.244768,-1685.410096
916.128597,-2516.700203,-8290.306550,-1455.581446
916.128921,-2664.741391,-7105.977043,-1072.533697
916.129245,-2220.617826,-7846.182985,-919.314598
916.129570,-2960.823768,-8956.491898,-1608.800546
916.129894,-3330.926739,-7402.059420,-383.047749
916.130218,-1924.535449,-7254.018232,0.000000
916.130542,-1406.391290,-9178.553681,-229.828649
916.130867,-1184.329507,-9474.636058,1149.143247
916.131191,0.000000,-7772.162391,2145.067394
916.131515,962.267725,-9030.512492,1455.581446
916.131839,666.185348,-9918.759623,995.924147
916.132163,740.205942,-9104.533087,1685.410096
916.132488,1332.370696,-8660.409521,766.095498
916.132812,592.164754,-9918.759623,-995.924147
916.133136,-592.164754,-9030.512492,-995.924147
916.133460,0.000000,-8512.368333,-1378.971896
916.133784,74.020594,-9696.697840,-2757.943793
916.134109,-1332.370696,-10584.944971,-2757.943793
916.134433,-1406.391290,-9770.718434,-1991.848295
916.134757,0.000000,-10140.821405,-2451.505594
916.135081,222.061783,-11621.233289,-2681.334243
916.135405,666.185348,-10881.027347,-536.266849
916.135730,2294.638420,-10732.986159,0.000000
916.136054,3034.844362,-12139.377449,0.000000
916.136378,2072.576638,-12583.501014,0.000000
916.136702,1850.514855,-12065.356855,229.828649
916.137026,1554.432478,-11917.315666,-919.314598
916.137351,74.020594,-11621.233289,-2298.286494
916.137675,-814.226536,-10288.862594,-2298.286494
916.137999,-666.185348,-10658.965565,-3064.381992
916.138323,-888.247130,-11991.336260,-3370.820191
916.138647,-2146.597232,-10881.027347,-2757.943793
916.138972,-1776.494261,-9548.656652,-2221.676944
916.139296,-962.267725,-10510.924376,-3217.601092
916.139620,-2146.597232,-10881.027347,-2374.896044
916.139944,-888.247130,-10140.821405,0.000000
916.140269,1628.453072,-10732.986159,459.657299
916.140593,2146.597232,-11991.336260,919.314598
916.140917,1850.514855,-10362.883188,2145.067394
916.141241,2072.576638,-8882.471304,2528.115143
916.141565,1850.514855,-9622.677246,612.876398
916.141890,0.000000,-9030.512492,383.047749
916.142214,-370.102971,-7772.162391,1302.362347
916.142538,-222.061783,-8586.388927,0.000000
916.142862,-1480.411884,-8438.347739,-1149.143247
916.143186,-2664.741391,-6217.729913,-153.219100
916.143511,-1924.535449,-5921.647536,-689.485948
916.143835,-1702.473667,-8216.285956,-536.266849
916.144159,-1480.411884,-8290.306550,612.876398
916.144483,-296.082377,-6735.874072,1762.019645
916.144807,814.226536,-8068.244768,1225.752797
916.145132,666.185348,-9104.533087,1302.362347
916.145456,1110.308913,-8660.409521,2987.772442
916.145780,2220.617826,-8734.430116,2528.115143
916.146104,1110.308913,-9104.533087,1378.971896
916.146428,222.061783,-8586.388927,2221.676944
916.146753,814.226536,-8660.409521,1915.238745
916.147077,592.164754,-9400.615463,-153.219100
916.147401,-1110.308913,-9844.739029,-536.266849
916.147725,-1850.514855,-9030.512492,-306.438199
916.148049,-1480.411884,-9326.594869,-766.095498
916.148374,-2368.659014,-10584.944971,-766.095498
916.148698,-1776.494261,-9770.718434,612.876398
916.149022,962.267725,-9992.780217,842.705048
916.149346,2294.638420,-11843.295072,919.314598
916.149670,2220.617826,-12213.398043,1685.410096
916.149995,2590.720797,-10955.047942,2604.724693
916.150319,2368.659014,-10807.006753,1915.238745
916.150643,1480.411884,-10510.924376,1302.362347
916.150967,148.041188,-9918.759623,689.485948
916.151292,370.102971,-9474.636058,-76.609550
916.151616,-962.267725,-10658.965565,-1225.752797
916.151940,-2146.597232,-10955.047942,-919.314598
916.152264,-1554.432478,-9918.759623,-306.438199
916.152588,-1480.411884,-10362.883188,-842.705048
916.152913,-1924.535449,-10807.006753,76.609550
916.153237,-1702.473667,-9696.697840,689.485948
916.153561,740.205942,-10066.800811,1225.752797
916.153885,1480.411884,-11695.253884,1685.410096
916.154209,1776.494261,-10436.903782,2528.115143
916.154534,2368.659014,-9548.656652,2451.505594
916.154858,1480.411884,-9770.718434,1072.533697
916.155182,0.000000,-9104.533087,1225.752797
916.155506,0.000000,-7624.121203,842.705048
916.155830,-222.061783,-8512.368333,-995.924147
916.156155,-1924.535449,-8660.409521,-1762.019645
916.156479,-3108.864956,-7772.162391,-1608.800546
916.156803,-2664.741391,-8068.244768,-1991.848295
916.157127,-2368.659014,-9474.636058,-2451.505594
916.157451,-2146.597232,-9400.615463,-1072.533697
916.157776,296.082377,-8956.491898,0.000000
916.158100,2368.659014,-9622.677246,-459.657299
916.158424,2516.700203,-9622.677246,689.485948
916.158748,3182.885551,-9326.594869,2451.505594
916.159072,2812.782580,-9400.615463,766.095498
916.159397,814.226536,-9696.697840,-229.828649
916.159721,0.000000,-8586.388927,153.219100
916.160045,814.226536,-8364.327145,-842.705048
916.160369,518.144159,-9474.636058,-2374.896044
916.160693,-1258.350101,-8956.491898,-1838.629195
916.161018,-2146.597232,-8882.471304,-2681.334243
916.161342,-2664.741391,-9400.615463,-3753.867940
916.161666,-3478.967927,-10362.883188,-3677.258390
916.161990,-2960.823768,-10140.821405,-1838.629195
916.162315,-296.082377,-10436.903782,-1378.971896
916.162639,1332.370696,-11695.253884,-842.705048
916.162963,2072.576638,-10732.986159,612.876398
916.163287,3701.029710,-10658.965565,995.924147
916.163611,4515.256246,-11843.295072,919.314598
916.163936,2738.761985,-11991.336260,1225.752797
916.164260,2220.617826,-10214.842000,1302.362347
916.164584,1776.494261,-9474.636058,-536.266849
916.164908,-740.205942,-10140.821405,-3294.210641
916.165232,-2960.823768,-10066.800811,-3064.381992
916.165557,-2738.761985,-10288.862594,-3524.039291
916.165881,-3034.844362,-10288.862594,-4136.915689
916.166205,-4515.256246,-9696.697840,-2604.724693
916.166529,-2590.720797,-8586.388927,-1532.190996
916.166853,-296.082377,-9770.718434,-1762.019645
916.167178,0.000000,-10955.047942,-536.266849
916.167502,1110.308913,-9770.718434,1991.848295
916.167826,2294.638420,-10436.903782,2987.772442
916.168150,3034.844362,-11695.253884,2834.553343
916.168474,2960.823768,-10288.862594,3370.820191
916.168799,3330.926739,-9178.553681,3677.258390
916.169123,2442.679609,-9474.636058,1225.752797
916.169447,-518.144159,-10066.800811,0.000000
916.169771,-2220.617826,-9400.615463,76.609550
916.170095,-1850.514855,-8068.244768,-1455.581446
916.170420,-2812.782580,-8660.409521,-1378.971896
916.170744,-3701.029710,-7846.182985,-153.219100
916.171068,-1702.473667,-7698.141797,-919.314598
916.171392,-370.102971,-8882.471304,-229.828649
916.171716,-444.123565,-8586.388927,1378.971896
916.172041,1036.288319,-7550.100608,2528.115143
916.172365,2812.782580,-8216.285956,2528.115143
916.172689,2220.617826,-9326.594869,3370.820191
916.173013,2220.617826,-8734.430116,4596.572988
916.173338,3330.926739,-8290.306550,3217.601092
916.173662,1702.473667,-8734.430116,1455.581446
916.173986,-740.205942,-9104.533087,1302.362347
916.174310,-1258.350101,-8438.347739,229.828649
916.174634,-1258.350101,-8660.409521,-919.314598
916.174959,-2812.782580,-9252.574275,-689.485948
916.175283,-2886.803174,-7698.141797,-153.219100
916.175607,-814.226536,-8142.265362,-1302.362347
916.175931,-962.267725,-9918.759623,-1072.533697
916.176255,0.000000,-9548.656652,229.828649
916.176580,1184.329507,-9770.718434,1225.752797
916.176904,1110.308913,-11473.192101,459.657299
916.177228,740.205942,-11251.130318,1149.143247
916.177552,1776.494261,-10584.944971,1838.629195
916.177876,2220.617826,-10732.986159,1455.581446
916.178201,888.247130,-11621.233289,0.000000
916.178525,-1110.308913,-11621.233289,153.219100
916.178849,-518.144159,-10658.965565,-1225.752797
916.179173,-962.267725,-10807.006753,-2681.334243
916.179497,-2368.659014,-10807.006753,-2298.286494
916.179822,-1776.494261,-9918.759623,-1532.190996
916.180146,-666.185348,-11029.068536,-2298.286494
916.180470,-962.267725,-11325.150913,-1378.971896
916.180794,0.000000,-10362.883188,-306.438199
916.181118,740.205942,-9770.718434,0.000000
916.181443,1184.329507,-10658.965565,0.000000
916.181767,518.144159,-10066.800811,766.095498
916.182091,1850.514855,-9474.636058,536.266849
916.182415,1554.432478,-10066.800811,76.609550
916.182739,-444.123565,-10807.006753,0.000000
916.183064,-1554.432478,-9030.512492,-229.828649
916.183388,-1702.473667,-7994.224174,-1608.800546
916.183712,-2664.741391,-9178.553681,-1838.629195
916.184036,-2886.803174,-9474.636058,-1149.143247
916.184361,-1406.391290,-9178.553681,-1225.752797
916.184685,-592.164754,-9030.512492,-842.705048
916.185009,-740.205942,-9400.615463,76.609550
916.185333,370.102971,-9252.574275,612.876398
916.185657,1036.288319,-9622.677246,383.047749
916.185982,740.205942,-9770.718434,842.705048
916.186306,1776.494261,-9326.594869,1991.848295
916.186630,3478.967927,-8808.450710,1532.190996
916.186954,2368.659014,-9844.739029,842.705048
916.187278,0.000000,-9030.512492,612.876398
916.187603,-296.082377,-8290.306550,0.000000
916.187927,-814.226536,-8290.306550,-1991.848295
916.188251,-2516.700203,-8660.409521,-1762.019645
916.188575,-2072.576638,-8068.244768,-919.314598
916.188900,0.000000,-8216.285956,-1149.143247
916.189224,370.102971,-8956.491898,-842.705048
916.189548,0.000000,-9474.636058,612.876398
916.189872,1406.391290,-9400.615463,459.657299
916.190196,1480.411884,-10066.800811,153.219100
916.190521,1036.288319,-10288.862594,1302.362347
916.190845,1924.535449,-10066.800811,1838.629195
916.191169,2368.659014,-11325.150913,1225.752797
916.191493,1776.494261,-11621.233289,766.095498
916.191817,370.102971,-9548.656652,842.705048
916.192142,0.000000,-9474.636058,-919.314598
916.192466,-1406.391290,-10510.924376,-2298.286494
916.192790,-2812.782580,-10955.047942,-1685.410096
916.193114,-1554.432478,-9844.739029,-1378.971896
916.193439,-518.144159,-10288.862594,-1608.800546
916.193763,-1036.288319,-10807.006753,-842.705048
916.194087,-1036.288319,-10510.924376,-459.657299
916.194411,888.247130,-10881.027347,-306.438199
916.194735,1036.288319,-11547.212695,995.924147
916.195060,962.267725,-10732.986159,1838.629195
916.195384,1998.556043,-9696.697840,1838.629195
916.195708,2368.659014,-9992.780217,1838.629195
916.196032,1036.288319,-10510.924376,1991.848295
916.196357,740.205942,-9622.677246,1149.143247
916.196681,370.102971,-8142.265362,0.000000
916.197005,-1258.350101,-8808.450710,-612.876398
916.197329,-2146.597232,-8586.388927,-306.438199
916.197653,-740.205942,-8364.327145,-766.095498
916.197978,-592.164754,-8734.430116,-766.095498
916.198302,-1332.370696,-9178.553681,0.000000
916.198626,-222.061783,-8734.430116,536.266849
916.198950,740.205942,-8586.388927,153.219100
916.199274,444.123565,-9400.615463,1225.752797
916.199599,592.164754,-9770.718434,1685.410096
916.199923,1258.350101,-9770.718434,1378.971896
916.200247,444.123565,-10807.006753,1302.362347
916.200571,0.000000,-9844.739029,1838.629195
916.200896,0.000000,-9178.553681,919.314598
916.201220,-1184.329507,-9252.574275,-459.657299
916.201544,-3108.864956,-9622.677246,-689.485948
916.201868,-2960.823768,-9252.574275,-383.047749
916.202192,-1554.432478,-8882.471304,-1302.362347
916.202517,-1406.391290,-8882.471304,-1302.362347
916.202841,-1628.453072,-8290.306550,-689.485948
916.203165,-148.041188,-8142.265362,-536.266849
916.203489,296.082377,-8956.491898,-612.876398
916.203814,-222.061783,-9030.512492,76.609550
916.204138,370.102971,-8586.388927,0.000000
916.204462,814.226536,-8956.491898,-766.095498
916.204786,592.164754,-10214.842000,0.000000
916.205110,888.247130,-10881.027347,766.095498
916.205435,2072.576638,-10584.944971,0.000000
916.205759,1036.288319,-9844.739029,-306.438199
916.206083,-666.185348,-9844.739029,-766.095498
916.206407,0.000000,-10140.821405,-995.924147
916.206731,814.226536,-11177.109724,-1685.410096
916.207056,-148.041188,-11325.150913,-766.095498
916.207380,-518.144159,-10732.986159,-229.828649
916.207704,-148.041188,-10510.924376,-689.485948
916.208028,-666.185348,-10955.047942,-612.876398
916.208353,-1110.308913,-10584.944971,-383.047749
916.208677,0.000000,-10288.862594,-842.705048
916.209001,0.000000,-10807.006753,-1072.533697
916.209325,-592.164754,-11399.171507,-153.219100
916.209649,-222.061783,-10510.924376,0.000000
916.209974,0.000000,-9474.636058,-689.485948
916.210298,-888.247130,-9548.656652,-1225.752797
916.210622,-370.102971,-9252.574275,-459.657299
916.210946,1702.473667,-9548.656652,-612.876398
916.211271,2368.659014,-10732.986159,306.438199
916.211595,1850.514855,-10288.862594,1072.533697
916.211919,2664.741391,-9400.615463,1149.143247
916.212243,2664.741391,-9252.574275,383.047749
916.212567,740.205942,-9696.697840,459.657299
916.212892,740.205942,-9474.636058,1302.362347
916.213216,1480.411884,-9400.615463,995.924147
916.213540,592.164754,-10362.883188,1149.143247
916.213864,-222.061783,-9770.718434,1838.629195
916.214188,-666.185348,-8364.327145,766.095498
916.214513,-2442.679609,-8290.306550,-612.876398
916.214837,-4293.194464,-8438.347739,-306.438199
916.215161,-3034.844362,-8216.285956,-229.828649
916.215485,-1110.308913,-8438.347739,-995.924147
916.215810,-1184.329507,-8660.409521,306.438199
916.216134,-1036.288319,-8290.306550,995.924147
916.216458,0.000000,-8438.347739,0.000000
916.216782,0.000000,-8956.491898,383.047749
916.217106,-444.123565,-9030.512492,1225.752797
916.217431,740.205942,-8882.471304,995.924147
916.217755,2146.597232,-9178.553681,919.314598
916.218079,1406.391290,-9992.780217,2068.457845
916.218403,962.267725,-9622.677246,2221.676944
916.218728,888.247130,-9548.656652,995.924147
916.219052,-740.205942,-8660.409521,306.438199
916.219376,-1110.308913,-8882.471304,612.876398
916.219700,370.102971,-8734.430116,-229.828649
916.220024,592.164754,-9474.636058,-842.705048
916.220349,-1036.288319,-10288.862594,-229.828649
916.220673,-888.247130,-10140.821405,-536.266849
916.220997,-222.061783,-10140.821405,-1149.143247
916.221321,-1110.308913,-10658.965565,-919.314598
916.221646,-1554.432478,-10066.800811,-689.485948
916.221970,74.020594,-10214.842000,-1608.800546
916.222294,74.020594,-11769.274478,-689.485948
916.222618,296.082377,-13027.624579,536.266849
916.222942,1776.494261,-12213.398043,536.266849
916.223267,1702.473667,-10510.924376,153.219100
916.223591,0.000000,-10732.986159,153.219100
916.223915,0.000000,-10510.924376,0.000000
916.224239,1628.453072,-10214.842000,-1225.752797
916.224563,1110.308913,-10732.986159,-536.266849
916.224888,-222.061783,-10362.883188,-306.438199
916.225212,-148.041188,-8586.388927,-1532.190996
916.225536,-592.164754,-8734.430116,-1915.238745
916.225860,-1554.432478,-9400.615463,-1149.143247
916.226185,-222.061783,-8586.388927,-1225.752797
916.226509,74.020594,-7920.203579,-1685.410096
916.226833,74.020594,-9326.594869,0.000000
916.227157,222.061783,-9474.636058,306.438199
916.227481,1776.494261,-9178.553681,459.657299
916.227806,740.205942,-8586.388927,0.000000
916.228130,-370.102971,-9474.636058,536.266849
916.228454,444.123565,-9326.594869,612.876398
916.228778,814.226536,-9622.677246,306.438199
916.229103,-444.123565,-10066.800811,1072.533697
916.229427,-814.226536,-9474.636058,919.314598
916.229751,74.020594,-9178.553681,-306.438199
916.230075,-1110.308913,-9474.636058,-459.657299
916.230399,-2442.679609,-9030.512492,-383.047749
916.230724,-1850.514855,-8512.368333,-383.047749
916.231048,-1406.391290,-9252.574275,-1378.971896
916.231372,-2072.576638,-9992.780217,-229.828649
916.231696,-1332.370696,-9104.533087,459.657299
916.232020,0.000000,-8956.491898,-306.438199
916.232345,-888.247130,-9252.574275,153.219100
916.232669,-740.205942,-9474.636058,612.876398
916.232993,888.247130,-9992.780217,612.876398
916.233317,1184.329507,-10510.924376,536.266849
916.233642,740.205942,-10214.842000,1225.752797
916.233966,1406.391290,-9252.574275,1378.971896
916.234290,1998.556043,-9400.615463,0.000000
916.234614,0.000000,-9474.636058,-229.828649
916.234938,-666.185348,-9326.594869,0.000000
916.235263,0.000000,-9030.512492,-1302.362347
916.235587,-444.123565,-10362.883188,-1302.362347
916.235911,-1184.329507,-10955.047942,-306.438199
916.236235,-370.102971,-9548.656652,-383.047749
916.236560,222.061783,-9770.718434,-459.657299
916.236884,-518.144159,-10584.944971,459.657299
916.237208,370.102971,-10214.842000,383.047749
916.237532,2812.782580,-9918.759623,995.924147
916.237856,2368.659014,-11103.089130,1149.143247
916.238181,2146.597232,-10955.047942,1608.800546
916.238505,2220.617826,-9844.739029,842.705048
916.238829,592.164754,-9918.759623,-612.876398
916.239153,-1036.288319,-10288.862594,0.000000
916.239477,-962.267725,-9548.656652,229.828649
916.239802,444.123565,-9770.718434,-689.485948
916.240126,-222.061783,-9918.759623,-536.266849
916.240450,-592.164754,-9326.594869,229.828649
916.240774,0.000000,-8882.471304,76.609550
916.241099,-666.185348,-9474.636058,306.438199
916.241423,-1406.391290,-9252.574275,1378.971896
916.241747,518.144159,-7698.141797,1532.190996
916.242071,1258.350101,-7402.059420,1072.533697
916.242395,888.247130,-8808.450710,1225.752797
916.242720,888.247130,-8956.491898,1762.019645
916.243044,1258.350101,-8808.450710,1302.362347
916.243368,0.000000,-9252.574275,459.657299
916.243692,-1110.308913,-8882.471304,0.000000
916.244017,-592.164754,-8216.285956,-536.266849
916.244341,-888.247130,-8586.388927,-1455.581446
916.244665,-1776.494261,-9844.739029,-1378.971896
916.244989,-1184.329507,-9696.697840,-766.095498
916.245313,-518.144159,-9622.677246,-1072.533697
916.245638,-962.267725,-10436.903782,-612.876398
916.245962,-296.082377,-10288.862594,459.657299
916.246286,1628.453072,-10362.883188,383.047749
916.246610,1480.411884,-10362.883188,383.047749
916.246934,370.102971,-11029.068536,689.485948
916.247259,666.185348,-10140.821405,229.828649
916.247583,444.123565,-9770.718434,-459.657299
916.247907,-888.247130,-10436.903782,-459.657299
916.248231,-1702.473667,-9844.739029,-919.314598
916.248556,-1554.432478,-9400.615463,-1991.848295
916.248880,-2368.659014,-9696.697840,-1991.848295
916.249204,-2886.803174,-9622.677246,-2221.676944
916.249528,-2146.597232,-9474.636058,-2451.505594
916.249852,-1924.535449,-9622.677246,-2145.067394
916.250177,-1480.411884,-10584.944971,-766.095498
916.250501,592.164754,-10436.903782,229.828649
916.250825,3034.844362,-9474.636058,689.485948
916.251149,3256.906145,-9770.718434,1225.752797
916.251474,2516.700203,-10362.883188,2145.067394
916.251798,2368.659014,-9992.780217,1072.533697
916.252122,1628.453072,-9844.739029,0.000000
916.252446,-296.082377,-10362.883188,306.438199
916.252770,0.000000,-10584.944971,-383.047749
916.253095,0.000000,-9918.759623,-1915.238745
916.253419,-2220.617826,-9696.697840,-1149.143247
916.253743,-3034.844362,-9548.656652,-612.876398
916.254067,-1850.514855,-9696.697840,-1378.971896
916.254392,-1924.535449,-9548.656652,-919.314598
916.254716,-1998.556043,-9474.636058,612.876398
916.255040,0.000000,-8956.491898,995.924147
916.255364,1628.453072,-9474.636058,1149.143247
916.255688,1776.494261,-9992.780217,2068.457845
916.256013,2368.659014,-9844.739029,2451.505594
916.256337,2442.679609,-9178.553681,1378.971896
916.256661,592.164754,-8882.471304,1072.533697
916.256985,-148.041188,-9252.574275,536.266849
916.257309,0.000000,-9030.512492,-612.876398
916.257634,-444.123565,-8956.491898,-1532.190996
916.257958,-2072.576638,-9030.512492,-1378.971896
916.258282,-1110.308913,-8512.368333,-995.924147
916.258606,0.000000,-7846.182985,-1302.362347
916.258931,-1110.308913,-8512.368333,-612.876398
916.259255,-814.226536,-7846.182985,306.438199
916.259579,1258.350101,-8438.347739,1302.362347
916.259903,2294.638420,-9400.615463,1455.581446
916.260227,1998.556043,-10288.862594,2374.896044
916.260552,2294.638420,-10140.821405,2068.457845
916.260876,1776.494261,-10140.821405,1608.800546
916.261200,444.123565,-10288.862594,1149.143247
916.261524,444.123565,-10140.821405,0.000000
916.261849,-222.061783,-9252.574275,-1302.362347
916.262173,-1628.453072,-9844.739029,-1762.019645
916.262497,-2738.761985,-10214.842000,-1685.410096
916.262821,-1628.453072,-9918.759623,-1838.629195
916.263145,-1480.411884,-10436.903782,-1378.971896
916.263470,-2072.576638,-10140.821405,0.000000
916.263794,-592.164754,-9400.615463,0.000000
916.264118,1406.391290,-9474.636058,-153.219100
916.264442,1702.473667,-10732.986159,1225.752797
916.264766,2368.659014,-10658.965565,1685.410096
916.265091,3256.906145,-10066.800811,2145.067394
916.265415,2294.638420,-9844.739029,1225.752797
916.265739,74.020594,-10214.842000,306.438199
916.266063,-370.102971,-9622.677246,-842.705048
916.266388,-1036.288319,-9400.615463,-2374.896044
916.266712,-2294.638420,-9770.718434,-2987.772442
916.267036,-2220.617826,-9104.533087,-2451.505594
916.267360,-2368.659014,-8882.471304,-2911.162892
916.267684,-2368.659014,-8956.491898,-1991.848295
916.268009,-2664.741391,-9918.759623,-1455.581446
916.268333,-1036.288319,-9844.739029,-919.314598
916.268657,814.226536,-10732.986159,153.219100
916.268981,1628.453072,-11251.130318,1455.581446
916.269306,2812.782580,-10362.883188,1685.410096
916.269630,3256.906145,-10436.903782,2145.067394
916.269954,2368.659014,-10807.006753,1838.629195
916.270278,1258.350101,-10807.006753,1378.971896
916.270602,0.000000,-9474.636058,0.000000
916.270927,-1406.391290,-9030.512492,-1225.752797
916.271251,-3108.864956,-9326.594869,-1838.629195
916.271575,-3256.906145,-8808.450710,-2374.896044
916.271899,-3034.844362,-8512.368333,-2681.334243
916.272223,-3034.844362,-7994.224174,-1991.848295
916.272548,-2516.700203,-7994.224174,-919.314598
916.272872,-666.185348,-7920.203579,-995.924147
916.273196,74.020594,-9030.512492,229.828649
916.273520,1184.329507,-9696.697840,1685.410096
916.273845,3256.906145,-9326.594869,2298.286494
916.274169,3256.906145,-10510.924376,3447.429741
916.274493,2072.576638,-10362.883188,2757.943793
916.274817,1184.329507,-9622.677246,2374.896044
916.275141,1036.288319,-9252.574275,766.095498
916.275466,0.000000,-10140.821405,-76.609550
916.275790,-1776.494261,-10732.986159,-995.924147
916.276114,-2590.720797,-10140.821405,-1762.019645
916.276438,-3330.926739,-9474.636058,-1685.410096
916.276763,-3627.009116,-10510.924376,-842.705048
916.277087,-2146.597232,-10066.800811,-995.924147
916.277411,-296.082377,-10584.944971,-919.314598
916.277735,0.000000,-10955.047942,0.000000
916.278059,1110.308913,-11103.089130,1225.752797
916.278384,2886.803174,-10732.986159,1762.019645
916.278708,3034.844362,-10881.027347,2374.896044
916.279032,2368.659014,-10658.965565,2451.505594
916.279356,2664.741391,-9178.553681,1149.143247
916.279680,2368.659014,-8364.327145,0.000000
916.280005,0.000000,-9844.739029,-229.828649
916.280329,-666.185348,-9474.636058,-766.095498
916.280653,-740.205942,-8586.388927,-1762.019645
916.280977,-1998.556043,-8364.327145,-1762.019645
916.281302,-2294.638420,-8882.471304,-766.095498
916.281626,-592.164754,-8512.368333,-612.876398
916.281950,814.226536,-9326.594869,0.000000
916.282274,1184.329507,-9548.656652,1149.143247
916.282598,2072.576638,-9474.636058,1685.410096
916.282923,2886.803174,-9474.636058,1915.238745
916.283247,2368.659014,-10066.800811,2451.505594
916.283571,2072.576638,-9622.677246,2451.505594
916.283895,1332.370696,-8438.347739,842.705048
916.284220,-444.123565,-8734.430116,-689.485948
916.284544,-2294.638420,-9474.636058,-766.095498
916.284868,-2516.700203,-9104.533087,-1302.362347
916.285192,-2590.720797,-8660.409521,-2068.457845
916.285516,-3034.844362,-8956.491898,-1608.800546
916.285841,-2442.679609,-8734.430116,-919.314598
916.286165,0.000000,-9252.574275,-383.047749
916.286489,592.164754,-10066.800811,536.266849
916.286813,1110.308913,-10288.862594,995.924147
916.287138,2072.576638,-9696.697840,919.314598
916.287462,2072.576638,-10510.924376,842.705048
916.287786,1924.535449,-10881.027347,1455.581446
916.288110,2590.720797,-9918.759623,689.485948
916.288434,2072.576638,-9326.594869,-383.047749
916.288759,-592.164754,-10362.883188,-1685.410096
916.289083,-2294.638420,-10658.965565,-1915.238745
916.289407,-2442.679609,-9178.553681,-2834.553343
916.289731,-3108.864956,-9844.739029,-2987.772442
916.290055,-3849.070898,-10288.862594,-2757.943793
916.290379,-2664.741391,-9770.718434,-2068.457845
916.290703,-814.226536,-9918.759623,-842.705048
916.291028,222.061783,-10881.027347,536.266849
916.291352,1480.411884,-11325.150913,1838.629195
916.291676,1776.494261,-10584.944971,919.314598
916.292000,1776.494261,-10584.944971,1685.410096
916.292324,1110.308913,-10362.883188,1302.362347
916.292648,1776.494261,-9548.656652,459.657299
916.292972,1110.308913,-9844.739029,76.609550
916.293296,-518.144159,-10214.842000,-306.438199
916.293620,-740.205942,-9474.636058,-995.924147
916.293944,-1406.391290,-7624.121203,-2834.553343
916.294269,-2664.741391,-7772.162391,-2911.162892
916.294593,-3775.050304,-8438.347739,-2604.724693
916.294917,-2072.576638,-9104.533087,-2221.676944
916.295241,-666.185348,-9622.677246,-612.876398
916.295565,74.020594,-9844.739029,842.705048
916.295889,1628.453072,-9400.615463,1685.410096
916.296213,2294.638420,-9252.574275,919.314598
916.296537,1480.411884,-10807.006753,2068.457845
916.296861,1924.535449,-10732.986159,2911.162892
916.297186,2516.700203,-10807.006753,2604.724693
916.297510,1776.494261,-10732.986159,2374.896044
916.297834,0.000000,-9918.759623,1455.581446
916.298158,-592.164754,-8438.347739,-459.657299
916.298482,-1850.514855,-8660.409521,-2068.457845
916.298806,-3034.844362,-9844.739029,-1532.190996
916.299130,-2664.741391,-9696.697840,-1685.410096
916.299454,-1480.411884,-8734.430116,-1838.629195
916.299778,-1480.411884,-8586.388927,-1072.533697
916.300102,-1184.329507,-9252.574275,-689.485948
916.300427,296.082377,-10140.821405,0.000000
916.300751,1258.350101,-10658.965565,536.266849
916.301075,1924.535449,-9992.780217,1838.629195
916.301399,2812.782580,-9474.636058,1915.238745
916.301723,3182.885551,-9474.636058,1608.800546
916.302047,2590.720797,-10288.862594,1915.238745
916.302371,1628.453072,-10658.965565,1378.971896
916.302695,370.102971,-9770.718434,76.609550
916.303019,-1258.350101,-9696.697840,-229.828649
916.303344,-1998.556043,-10584.944971,-766.095498
916.303668,-1258.350101,-9326.594869,-1149.143247
916.303992,-518.144159,-8956.491898,-1608.800546
916.304316,-1184.329507,-10140.821405,-766.095498
916.304640,-740.205942,-10214.842000,-536.266849
916.304964,518.144159,-9252.574275,-842.705048
916.305288,888.247130,-9030.512492,536.266849
916.305612,1184.329507,-9696.697840,1378.971896
916.305936,2812.782580,-10584.944971,536.266849
916.306260,1776.494261,-10362.883188,-383.047749
916.306585,296.082377,-10436.903782,1072.533697
916.306909,518.144159,-10362.883188,612.876398
916.307233,888.247130,-9770.718434,0.000000
916.307557,-814.226536,-9622.677246,76.609550
916.307881,-1332.370696,-9844.739029,-383.047749
916.308205,-814.226536,-8882.471304,-995.924147
916.308529,0.000000,-9400.615463,-536.266849
916.308853,-296.082377,-9918.759623,0.000000
916.309177,74.020594,-9474.636058,0.000000
916.309501,74.020594,-8586.388927,-306.438199
916.309826,-518.144159,-8882.471304,0.000000
916.310150,0.000000,-9178.553681,-153.219100
916.310474,962.267725,-9030.512492,-995.924147
916.310798,0.000000,-9474.636058,-229.828649
916.311122,-888.247130,-9770.718434,153.219100
916.311446,-592.164754,-9474.636058,-536.266849
916.311770,-1332.370696,-9326.594869,-1225.752797
916.312094,-2812.782580,-9696.697840,-842.705048
916.312418,-2220.617826,-9474.636058,-1685.410096
916.312743,-888.247130,-9622.677246,-1685.410096
916.313067,-1184.329507,-9992.780217,-229.828649
916.313391,-740.205942,-11103.089130,842.705048
916.313715,0.000000,-10658.965565,459.657299
916.314039,222.061783,-10066.800811,153.219100
916.314363,370.102971,-10140.821405,689.485948
916.314687,1332.370696,-10510.924376,229.828649
916.315011,2220.617826,-10214.842000,-153.219100
916.315335,1184.329507,-10807.006753,76.609550
916.315659,0.000000,-10214.842000,-612.876398
916.315984,-296.082377,-9178.553681,-1915.238745
916.316308,-2220.617826,-9844.739029,-1685.410096
916.316632,-2812.782580,-10584.944971,-1455.581446
916.316956,-1554.432478,-9474.636058,-1608.800546
916.317280,-1184.329507,-8808.450710,-689.485948
916.317604,-1332.370696,-10288.862594,-383.047749
916.317928,222.061783,-10955.047942,-536.266849
916.318252,1258.350101,-10214.842000,689.485948
916.318576,1036.288319,-10066.800811,1455.581446
916.318901,1036.288319,-10214.842000,2145.067394
916.319225,2220.617826,-10066.800811,2068.457845
916.319549,2294.638420,-9992.780217,2528.115143
916.319873,1480.411884,-9918.759623,1532.190996
916.320197,888.247130,-9030.512492,229.828649
916.320521,0.000000,-7994.224174,229.828649
916.320845,-1258.350101,-8512.368333,-306.438199
916.321169,-2146.597232,-8882.471304,-1455.581446
916.321493,-1332.370696,-7550.100608,-1608.800546
916.321817,-1554.432478,-8068.244768,-1455.581446
916.322142,-1554.432478,-9400.615463,-1378.971896
916.322466,-296.082377,-8808.450710,-383.047749
916.322790,888.247130,-8290.306550,0.000000
916.323114,444.123565,-9326.594869,766.095498
916.323438,1554.432478,-9474.636058,1225.752797
916.323762,2960.823768,-10140.821405,1915.238745
916.324086,3034.844362,-10955.047942,2298.286494
916.324410,2368.659014,-10658.965565,1608.800546
916.324734,1480.411884,-8956.491898,76.609550
916.325059,0.000000,-8734.430116,-229.828649
916.325383,-1332.370696,-10436.903782,-612.876398
916.325707,-592.164754,-10140.821405,-1455.581446
916.326031,-740.205942,-9252.574275,-1991.848295
916.326355,-1258.350101,-9400.615463,-1685.410096
916.326679,-666.185348,-9844.739029,-1532.190996
916.327003,962.267725,-9622.677246,-1685.410096
916.327327,888.247130,-9030.512492,-766.095498
916.327651,666.185348,-10584.944971,0.000000
916.327975,666.185348,-10140.821405,-689.485948
916.328300,2220.617826,-10214.842000,459.657299
916.328624,1924.535449,-11399.171507,1685.410096
916.328948,1998.556043,-11917.315666,1378.971896
916.329272,1480.411884,-10362.883188,459.657299
916.329596,222.061783,-9992.780217,689.485948
916.329920,-518.144159,-10732.986159,229.828649
916.330244,-814.226536,-10584.944971,-1915.238745
916.330568,-1628.453072,-8882.471304,-766.095498
916.330892,-2368.659014,-9696.697840,-1225.752797
916.331216,-1628.453072,-9992.780217,-2145.067394
916.331541,-1184.329507,-9252.574275,-2145.067394
916.331865,-2072.576638,-8882.471304,-1378.971896
916.332189,-1480.411884,-9178.553681,-1608.800546
916.332513,74.020594,-9400.615463,-1149.143247
916.332837,148.041188,-10140.821405,306.438199
916.333161,-296.082377,-11251.130318,689.485948
916.333485,-444.123565,-9918.759623,0.000000
916.333809,-1110.308913,-9474.636058,-306.438199
916.334133,-1406.391290,-10288.862594,76.609550
916.334458,-444.123565,-10066.800811,459.657299
916.334782,740.205942,-9104.533087,1455.581446
916.335106,666.185348,-9178.553681,1072.533697
916.335430,148.041188,-9030.512492,0.000000
916.335754,74.020594,-8808.450710,-766.095498
916.336078,-592.164754,-9326.594869,-689.485948
916.336402,-1332.370696,-9844.739029,-612.876398
916.336726,-962.267725,-9474.636058,-842.705048
916.337050,-444.123565,-8808.450710,-383.047749
916.337374,-518.144159,-9548.656652,153.219100
916.337699,-518.144159,-9622.677246,0.000000
916.338023,0.000000,-8808.450710,-383.047749
916.338347,-148.041188,-8882.471304,459.657299
916.338671,-444.123565,-10362.883188,766.095498
916.338995,370.102971,-9622.677246,459.657299
916.339319,592.164754,-8660.409521,1838.629195
916.339643,666.185348,-9696.697840,1838.629195
916.339967,74.020594,-10140.821405,153.219100
916.340291,444.123565,-9400.615463,1378.971896
916.340616,74.020594,-9030.512492,1149.143247
916.340940,-148.041188,-10214.842000,459.657299
916.341264,0.000000,-9474.636058,-919.314598
916.341588,-592.164754,-9104.533087,-306.438199
916.341912,-592.164754,-10436.903782,-383.047749
916.342236,-592.164754,-10881.027347,-1072.533697
916.342560,0.000000,-8364.327145,-919.314598
916.342884,-592.164754,-8808.450710,459.657299
916.343208,-444.123565,-9918.759623,76.609550
916.343532,592.164754,-9548.656652,0.000000
916.343857,518.144159,-9178.553681,612.876398
916.344181,0.000000,-10214.842000,1072.533697
916.344505,148.041188,-10436.903782,383.047749
916.344829,-148.041188,-9474.636058,0.000000
916.345153,-1036.288319,-9326.594869,536.266849
916.345477,-370.102971,-9474.636058,-153.219100
916.345801,1184.329507,-9992.780217,-919.314598
916.346125,1036.288319,-9622.677246,-306.438199
916.346449,74.020594,-10362.883188,0.000000
916.346774,148.041188,-10288.862594,-689.485948
916.347098,296.082377,-9918.759623,-459.657299
916.347422,296.082377,-10288.862594,306.438199
916.347746,1184.329507,-10436.903782,-153.219100
916.348070,2294.638420,-9252.574275,-306.438199
916.348394,2072.576638,-9992.780217,766.095498
916.348718,1776.494261,-10732.986159,536.266849
916.349042,666.185348,-9992.780217,153.219100
916.349366,-444.123565,-9548.656652,-995.924147
916.349690,-1998.556043,-9400.615463,-383.047749
916.350015,-1184.329507,-9548.656652,-919.314598
916.350339,-296.082377,-9548.656652,-459.657299
916.350663,-888.247130,-9696.697840,229.828649
916.350987,-1332.370696,-9474.636058,0.000000
916.351311,-740.205942,-8882.471304,229.828649
916.351635,-740.205942,-8660.409521,459.657299
916.351959,-666.185348,-9622.677246,842.705048
916.352283,666.185348,-9400.615463,1225.752797
916.352607,1850.514855,-8660.409521,1302.362347
916.352931,1628.453072,-9622.677246,1378.971896
916.353256,1406.391290,-9844.739029,-306.438199
916.353580,1036.288319,-8364.327145,153.219100
916.353904,0.000000,-8290.306550,-766.095498
916.354228,-666.185348,-9474.636058,-995.924147
916.354552,-444.123565,-9030.512492,-1532.190996
916.354876,-1480.411884,-8142.265362,-995.924147
916.355200,-2368.659014,-9178.553681,-1149.143247
916.355524,-2146.597232,-9992.780217,-1532.190996
916.355848,-1258.350101,-9474.636058,-1225.752797
916.356173,-1554.432478,-9252.574275,76.609550
916.356497,-444.123565,-9992.780217,689.485948
916.356821,1258.350101,-9696.697840,536.266849
916.357145,1332.370696,-9400.615463,766.095498
916.357469,740.205942,-10214.842000,919.314598
916.357793,814.226536,-10732.986159,0.000000
916.358117,814.226536,-10732.986159,-153.219100
916.358441,148.041188,-11177.109724,-153.219100
916.358765,-148.041188,-10510.924376,-919.314598
916.359089,-222.061783,-9696.697840,-1608.800546
916.359414,-1184.329507,-9992.780217,-2221.676944
916.359738,-1850.514855,-10881.027347,-1915.238745
916.360062,-1480.411884,-11177.109724,-1915.238745
916.360386,-962.267725,-10214.842000,-1149.143247
916.360710,-962.267725,-10436.903782,459.657299
916.361034,0.000000,-9992.780217,0.000000
916.361358,1332.370696,-10288.862594,306.438199
916.361682,1406.391290,-10732.986159,919.314598
916.362006,1480.411884,-11473.192101,1378.971896
916.362331,1924.535449,-10807.006753,1225.752797
916.362655,1406.391290,-9770.718434,1225.752797
916.362979,-666.185348,-9770.718434,612.876398
916.363303,-888.247130,-9696.697840,-1838.629195
916.363627,-962.267725,-9474.636058,-1149.143247
916.363951,-2294.638420,-9622.677246,-1149.143247
916.364275,-2738.761985,-9918.759623,-1991.848295
916.364599,-2442.679609,-8808.450710,-1762.019645
916.364923,-1776.494261,-9104.533087,-766.095498
916.365247,-444.123565,-10436.903782,306.438199
916.365572,1110.308913,-9770.718434,229.828649
916.365896,1702.473667,-8364.327145,1149.143247
916.366220,1628.453072,-9030.512492,1532.190996
916.366544,1850.514855,-9548.656652,1225.752797
916.366868,2368.659014,-9326.594869,1302.362347
916.367192,1406.391290,-9474.636058,1532.190996
916.367516,148.041188,-9474.636058,153.219100
916.367840,74.020594,-8290.306550,0.000000
916.368164,-296.082377,-7994.224174,-766.095498
916.368488,-148.041188,-9252.574275,-383.047749
916.368813,-592.164754,-9400.615463,-1532.190996
916.369137,-1184.329507,-8216.285956,-766.095498
916.369461,-1332.370696,-8512.368333,0.000000
916.369785,-296.082377,-9326.594869,153.219100
916.370109,1480.411884,-8290.306550,689.485948
916.370433,2664.741391,-8290.306550,2374.896044
916.370757,2664.741391,-9548.656652,2145.067394
916.371081,2516.700203,-9104.533087,1838.629195
916.371405,1480.411884,-9030.512492,1685.410096
916.371730,0.000000,-9400.615463,1072.533697
916.372054,-814.226536,-9326.594869,-919.314598
916.372378,-1628.453072,-8808.450710,-1302.362347
916.372702,-2146.597232,-9474.636058,-1072.533697
916.373026,-2072.576638,-11103.089130,-1915.238745
916.373350,-1480.411884,-10510.924376,-1225.752797
916.373674,-1776.494261,-9696.697840,-1225.752797
916.373998,-1702.473667,-10214.842000,-995.924147
916.374322,296.082377,-11251.130318,0.000000
916.374646,2072.576638,-11399.171507,1072.533697
916.374971,2590.720797,-11621.233289,1838.629195
916.375295,2812.782580,-11399.171507,1991.848295
916.375619,2664.741391,-10362.883188,612.876398
916.375943,1702.473667,-9548.656652,459.657299
916.376267,518.144159,-10140.821405,-229.828649
916.376591,0.000000,-9992.780217,-1915.238745
916.376915,-962.267725,-9474.636058,-1991.848295
916.377239,-1924.535449,-10140.821405,-2451.505594
916.377563,-2590.720797,-10584.944971,-3064.381992
916.377888,-2886.803174,-10066.800811,-2834.553343
916.378212,-2516.700203,-9844.739029,-2068.457845
916.378536,-2368.659014,-10584.944971,-1378.971896
916.378860,-666.185348,-10288.862594,-1149.143247
916.379184,1110.308913,-9770.718434,76.609550
916.379508,2368.659014,-10584.944971,1455.581446
916.379832,3701.029710,-11621.233289,1608.800546
916.380156,3034.844362,-10732.986159,1455.581446
916.380480,1110.308913,-9400.615463,1378.971896
916.380804,296.082377,-9844.739029,0.000000
916.381129,74.020594,-9400.615463,-1838.629195
916.381453,-814.226536,-9400.615463,-1532.190996
916.381777,-2072.576638,-9992.780217,-1532.190996
916.382101,-2294.638420,-9696.697840,-2757.943793
916.382425,-3108.864956,-8364.327145,-2374.896044
916.382749,-3034.844362,-8660.409521,-1455.581446
916.383073,-1554.432478,-9548.656652,-1225.752797
916.383397,-518.144159,-8734.430116,-536.266849
916.383721,370.102971,-9326.594869,1608.800546
916.384046,1628.453072,-9844.739029,2145.067394
916.384370,2812.782580,-9474.636058,1608.800546
916.384694,2368.659014,-9030.512492,2681.334243
916.385018,1776.494261,-9400.615463,3830.477490
916.385342,1554.432478,-9548.656652,766.095498
916.385666,814.226536,-7772.162391,0.000000
916.385990,-1628.453072,-7624.121203,-153.219100
916.386314,-2220.617826,-9252.574275,-1225.752797
916.386638,-1332.370696,-9474.636058,-2068.457845
916.386962,-1776.494261,-8882.471304,-1532.190996
916.387287,-2812.782580,-8956.491898,0.000000
916.387611,-2516.700203,-9030.512492,-995.924147
916.387935,-444.123565,-9474.636058,-153.219100
916.388259,444.123565,-10807.006753,1455.581446
916.388583,1480.411884,-11547.212695,1991.848295
916.388907,2738.761985,-10881.027347,1838.629195
916.389231,2368.659014,-10732.986159,2911.162892
916.389555,2442.679609,-10955.047942,3677.258390
916.389879,2516.700203,-10066.800811,2298.286494
916.390203,1258.350101,-9918.759623,1532.190996
916.390528,-1480.411884,-10584.944971,0.000000
916.390852,-1850.514855,-10436.903782,-1225.752797
916.391176,-1776.494261,-9474.636058,-1302.362347
916.391500,-2442.679609,-9548.656652,-919.314598
916.391824,-2516.700203,-9548.656652,-995.924147
916.392148,-1184.329507,-8734.430116,-1685.410096
916.392472,222.061783,-9252.574275,229.828649
916.392796,1406.391290,-10584.944971,1149.143247
916.393120,2368.659014,-9770.718434,1608.800546
916.393444,2664.741391,-9104.533087,1838.629195
916.393768,1776.494261,-9104.533087,2451.505594
916.394092,2368.659014,-9696.697840,1838.629195
916.394416,2960.823768,-8882.471304,689.485948
916.394740,1480.411884,-8216.285956,1072.533697
916.395064,-666.185348,-9474.636058,536.266849
916.395388,-1776.494261,-9474.636058,-1838.629195
916.395712,-2516.700203,-8290.306550,-2068.457845
916.396037,-3404.947333,-8734.430116,-1378.971896
916.396361,-2516.700203,-10066.800811,-1762.019645
916.396685,-1184.329507,-9474.636058,-1608.800546
916.397009,-740.205942,-9326.594869,-229.828649
916.397333,-222.061783,-10436.903782,153.219100
916.397657,1924.535449,-10362.883188,-153.219100
916.397981,2220.617826,-9622.677246,842.705048
916.398305,1036.288319,-10066.800811,766.095498
916.398629,1110.308913,-9622.677246,-459.657299
916.398953,1036.288319,-9548.656652,-306.438199
916.399277,0.000000,-10436.903782,-76.609550
916.399601,-1110.308913,-10140.821405,-1991.848295
916.399925,-1850.514855,-8142.265362,-3140.991542
916.400249,-2812.782580,-7698.141797,-3064.381992
916.400573,-2664.741391,-10362.883188,-2451.505594
916.400897,-1332.370696,-10955.047942,-2298.286494
916.401221,-148.041188,-9326.594869,-1149.143247
916.401546,0.000000,-9474.636058,-153.219100
916.401870,740.205942,-10510.924376,-536.266849
916.402194,1628.453072,-10140.821405,-1762.019645
916.402518,1184.329507,-9770.718434,153.219100
916.402842,1776.494261,-11103.089130,459.657299
916.403166,2960.823768,-11399.171507,-306.438199
916.403490,2220.617826,-10288.862594,0.000000
916.403814,74.020594,-10436.903782,-153.219100
916.404138,-1258.350101,-10807.006753,-1378.971896
916.404462,-1776.494261,-9770.718434,-2757.943793
916.404786,-2442.679609,-10362.883188,-1838.629195
916.405110,-3256.906145,-11029.068536,-919.314598
916.405434,-1924.535449,-9918.759623,-1532.190996
916.405758,-1184.329507,-9104.533087,-536.266849
916.406082,-740.205942,-10510.924376,383.047749
916.406406,296.082377,-10881.027347,0.000000
916.406730,1184.329507,-9770.718434,766.095498
916.407055,740.205942,-9622.677246,2528.115143
916.407379,1110.308913,-10066.800811,2145.067394
916.407703,2146.597232,-8956.491898,1455.581446
916.408027,666.185348,-9104.533087,1149.143247
916.408351,-666.185348,-9474.636058,153.219100
916.408675,-962.267725,-9178.553681,-612.876398
916.408999,-1184.329507,-8438.347739,-689.485948
916.409323,-1702.473667,-9030.512492,229.828649
916.409647,-1184.329507,-9326.594869,0.000000
916.409971,74.020594,-7846.182985,-306.438199
916.410295,0.000000,-8364.327145,689.485948
916.410619,518.144159,-9622.677246,1302.362347
916.410943,2146.597232,-9474.636058,1302.362347
916.411267,2368.659014,-8660.409521,2911.162892
916.411591,2368.659014,-9104.533087,3370.820191
916.411915,3034.844362,-10288.862594,2451.505594
916.412239,2960.823768,-9326.594869,2604.724693
916.412564,1924.535449,-9104.533087,1762.019645
916.412888,0.000000,-9474.636058,766.095498
916.413212,-1184.329507,-8438.347739,-1149.143247
916.413536,-2368.659014,-7402.059420,-1149.143247
916.413860,-2812.782580,-9030.512492,-919.314598
916.414184,-2072.576638,-9844.739029,-1149.143247
916.414508,-1332.370696,-8956.491898,-995.924147
916.414832,-1332.370696,-9252.574275,0.000000
916.415156,-740.205942,-10066.800811,153.219100
916.415480,814.226536,-10288.862594,0.000000
916.415804,444.123565,-10658.965565,1225.752797
916.416128,518.144159,-11325.150913,1455.581446
916.416452,1258.350101,-11029.068536,536.266849
916.416776,888.247130,-10066.800811,842.705048
916.417100,-148.041188,-10732.986159,1302.362347
916.417424,-518.144159,-10584.944971,-842.705048
916.417748,-888.247130,-9474.636058,-1302.362347
916.418073,-2294.638420,-9548.656652,-766.095498
916.418397,-2738.761985,-10510.924376,-919.314598
916.418721,-1110.308913,-10140.821405,-1685.410096
916.419045,-148.041188,-9474.636058,-612.876398
916.419369,814.226536,-10066.800811,153.219100
916.419693,1776.494261,-9770.718434,-306.438199
916.420017,1776.494261,-10362.883188,0.000000
916.420341,1258.350101,-10288.862594,0.000000
916.420665,1702.473667,-10140.821405,0.000000
916.420989,2072.576638,-10362.883188,0.000000
916.421313,1184.329507,-10732.986159,383.047749
916.421637,0.000000,-9992.780217,-459.657299
916.421961,0.000000,-8956.491898,-1072.533697
916.422285,-1924.535449,-8660.409521,-1762.019645
916.422609,-3182.885551,-9696.697840,-1608.800546
916.422933,-2812.782580,-9770.718434,-2298.286494
916.423257,-1776.494261,-8438.347739,-1991.848295
916.423582,-1184.329507,-8660.409521,-1149.143247
916.423906,-1110.308913,-9474.636058,-1225.752797
916.424230,-740.205942,-9030.512492,-1072.533697
916.424554,-740.205942,-9400.615463,0.000000
916.424878,0.000000,-10510.924376,306.438199
916.425202,1776.494261,-10436.903782,-229.828649
916.425526,2220.617826,-9696.697840,459.657299
916.425850,1850.514855,-10288.862594,842.705048
916.426174,1776.494261,-10955.047942,-536.266849
916.426498,1406.391290,-9474.636058,-766.095498
916.426822,-444.123565,-9252.574275,-536.266849
916.427146,-1184.329507,-10066.800811,-995.924147
916.427470,-666.185348,-9178.553681,-2145.067394
916.427794,-296.082377,-8364.327145,-1072.533697
916.428118,-592.164754,-9918.759623,0.000000
916.428442,148.041188,-10881.027347,-842.705048
916.428766,296.082377,-9104.533087,-153.219100
916.429091,0.000000,-8734.430116,1455.581446
916.429415,0.000000,-9252.574275,-153.219100
916.429739,1110.308913,-9844.739029,0.000000
916.430063,1480.411884,-10362.883188,1608.800546
916.430387,1184.329507,-11251.130318,1532.190996
916.430711,740.205942,-9918.759623,76.609550
916.431035,-962.267725,-8290.306550,0.000000
916.431359,-2294.638420,-9992.780217,0.000000
916.431683,-1406.391290,-11399.171507,-689.485948
916.432007,-444.123565,-9844.739029,-306.438199
916.432331,-370.102971,-10436.903782,536.266849
916.432655,-370.102971,-10955.047942,383.047749
916.432979,222.061783,-10362.883188,0.000000
916.433303,444.123565,-9400.615463,995.924147
916.433627,0.000000,-10066.800811,1302.362347
916.433951,1036.288319,-10658.965565,919.314598
916.434275,1702.473667,-9622.677246,2068.457845
916.434600,1702.473667,-9548.656652,2298.286494
916.434924,1258.350101,-9992.780217,1455.581446
916.435248,740.205942,-9104.533087,536.266849
916.435572,-518.144159,-8216.285956,842.705048
916.435896,-962.267725,-9252.574275,1149.143247
916.436220,-296.082377,-8660.409521,-306.438199
916.436544,74.020594,-7476.080014,306.438199
916.436868,-592.164754,-7994.224174,1149.143247
916.437192,-222.061783,-9548.656652,383.047749
916.437516,444.123565,-8808.450710,153.219100
916.437840,0.000000,-7846.182985,842.705048
916.438164,-592.164754,-8882.471304,1991.848295
916.438488,-148.041188,-9474.636058,842.705048
916.438812,0.000000,-9326.594869,1378.971896
916.439136,-518.144159,-10140.821405,1838.629195
916.439460,-740.205942,-10362.883188,842.705048
916.439784,-148.041188,-8956.491898,153.219100
916.440109,-888.247130,-8808.450710,1302.362347
916.440433,-888.247130,-10214.842000,919.314598
916.440757,0.000000,-9992.780217,76.609550
916.441081,0.000000,-9178.553681,536.266849
916.441405,-370.102971,-9992.780217,1302.362347
916.441729,0.000000,-9844.739029,-383.047749
916.442053,370.102971,-7994.224174,-1378.971896
916.442377,-1258.350101,-9400.615463,-153.219100
916.442701,-1850.514855,-10510.924376,-1762.019645
916.443025,-370.102971,-8734.430116,-2374.896044
916.443349,-296.082377,-8068.244768,-383.047749
916.443673,0.000000,-9474.636058,-919.314598
916.443997,666.185348,-10658.965565,-1072.533697
916.444321,-148.041188,-9548.656652,-842.705048
916.444645,-1036.288319,-9474.636058,-459.657299
916.444969,-592.164754,-11029.068536,-1378.971896
916.445293,518.144159,-10510.924376,-1608.800546
916.445618,666.185348,-10214.842000,-689.485948
916.445942,-444.123565,-11843.295072,-536.266849
916.446266,-74.020594,-11473.192101,-2145.067394
916.446590,148.041188,-11325.150913,-2528.115143
916.446914,-518.144159,-11843.295072,-1225.752797
916.447238,74.020594,-11695.253884,-1838.629195
916.447562,888.247130,-10732.986159,-2604.724693
916.447886,-370.102971,-11251.130318,-1302.362347
916.448210,-370.102971,-11843.295072,-842.705048
916.448534,1184.329507,-11325.150913,-1455.581446
916.448858,1036.288319,-9474.636058,-459.657299
916.449182,0.000000,-9770.718434,842.705048
916.449506,518.144159,-10362.883188,-306.438199
916.449830,1332.370696,-8956.491898,-306.438199
916.450154,222.061783,-8956.491898,1149.143247
916.450478,0.000000,-9030.512492,0.000000
916.450802,148.041188,-7624.121203,-919.314598
916.451127,0.000000,-7179.997637,306.438199
916.451451,-222.061783,-7772.162391,0.000000
916.451775,444.123565,-7994.224174,-1072.533697
916.452099,0.000000,-6883.915261,-612.876398
916.452423,-888.247130,-8586.388927,153.219100
916.452747,-740.205942,-9696.697840,0.000000
916.453071,296.082377,-8142.265362,153.219100
916.453395,1036.288319,-8068.244768,1685.410096
916.453719,296.082377,-9696.697840,1532.190996
916.454043,1110.308913,-10214.842000,536.266849
916.454367,962.267725,-9622.677246,1455.581446
916.454691,0.000000,-10955.047942,1762.019645
916.455015,-370.102971,-10732.986159,459.657299
916.455339,-296.082377,-8882.471304,153.219100
916.455663,-814.226536,-9178.553681,1302.362347
916.455987,-1036.288319,-10214.842000,229.828649
916.456311,-74.020594,-9844.739029,-766.095498
916.456636,-814.226536,-9400.615463,306.438199
916.456960,-1480.411884,-10214.842000,536.266849
916.457284,-1258.350101,-9548.656652,-459.657299
916.457608,-1110.308913,-7920.203579,229.828649
916.457932,-666.185348,-8882.471304,1072.533697
916.458256,148.041188,-10288.862594,459.657299
916.458580,2072.576638,-9252.574275,1302.362347
916.458904,1998.556043,-9252.574275,1915.238745
916.459228,1110.308913,-10214.842000,1685.410096
916.459552,1036.288319,-10140.821405,536.266849
916.459876,444.123565,-9400.615463,536.266849
916.460200,-814.226536,-10288.862594,153.219100
916.460524,-1110.308913,-10732.986159,-689.485948
916.460848,-1184.329507,-9474.636058,-1378.971896
916.461172,-962.267725,-10362.883188,459.657299
916.461496,-666.185348,-11843.295072,0.000000
916.461820,-148.041188,-10362.883188,-459.657299
916.462145,-518.144159,-9252.574275,1302.362347
916.462469,-222.061783,-9992.780217,1302.362347
916.462793,888.247130,-10510.924376,459.657299
916.463117,1776.494261,-9770.718434,1762.019645
916.463441,1258.350101,-10584.944971,1685.410096
916.463765,1332.370696,-10214.842000,459.657299
916.464089,518.144159,-8882.471304,-306.438199
916.464413,-370.102971,-8586.388927,0.000000
916.464737,-666.185348,-9770.718434,-919.314598
916.465061,-888.247130,-9030.512492,-2145.067394
916.465385,-1332.370696,-8068.244768,-1225.752797
916.465709,-1332.370696,-9104.533087,-612.876398
916.466033,-740.205942,-10140.821405,-1915.238745
916.466357,-444.123565,-8956.491898,-919.314598
916.466681,-518.144159,-8364.327145,383.047749
916.467005,370.102971,-9696.697840,383.047749
916.467329,1998.556043,-9622.677246,229.828649
916.467654,2442.679609,-9030.512492,1608.800546
916.467978,2146.597232,-10288.862594,2298.286494
916.468302,1554.432478,-10584.944971,-383.047749
916.468626,1332.370696,-9400.615463,-306.438199
916.468950,444.123565,-9474.636058,0.000000
916.469274,-592.164754,-10214.842000,-1838.629195
916.469598,-1036.288319,-9030.512492,-2911.162892
916.469922,-2294.638420,-8734.430116,-1991.848295
916.470246,-2220.617826,-10732.986159,-1149.143247
916.470570,-888.247130,-10436.903782,-2145.067394
916.470894,-666.185348,-8734.430116,-1302.362347
916.471218,-1554.432478,-9104.533087,229.828649
916.471542,-370.102971,-10436.903782,-459.657299
916.471866,1406.391290,-9622.677246,-306.438199
916.472190,1406.391290,-9844.739029,1378.971896
916.472514,962.267725,-11029.068536,995.924147
916.472839,1554.432478,-9548.656652,-612.876398
916.473163,0.000000,-8512.368333,-842.705048
916.473487,-1850.514855,-9474.636058,-919.314598
916.473811,-1776.494261,-10362.883188,-2604.724693
916.474135,-1628.453072,-9474.636058,-3064.381992
916.474459,-2368.659014,-9992.780217,-1685.410096
916.474783,-1628.453072,-11325.150913,-1915.238745
916.475107,-888.247130,-10732.986159,-1762.019645
916.475431,-1036.288319,-9992.780217,-536.266849
916.475755,-888.247130,-11251.130318,919.314598
916.476079,1110.308913,-12213.398043,612.876398
916.476403,2590.720797,-11547.212695,1991.848295
916.476727,2590.720797,-11769.274478,2681.334243
916.477051,2220.617826,-11325.150913,1685.410096
916.477375,2368.659014,-9696.697840,1072.533697
916.477699,370.102971,-9548.656652,995.924147
916.478023,-888.247130,-9992.780217,-536.266849
916.478348,-1702.473667,-8586.388927,-1762.019645
916.478672,-1924.535449,-7105.977043,-995.924147
916.478996,-1776.494261,-8660.409521,-919.314598
916.479320,-740.205942,-8882.471304,-1608.800546
916.479644,-370.102971,-7105.977043,-612.876398
916.479968,-962.267725,-7328.038826,1149.143247
916.480292,-592.164754,-8808.450710,1685.410096
916.480616,1036.288319,-8660.409521,1455.581446
916.480940,2664.741391,-8216.285956,3294.210641
916.481264,3034.844362,-9252.574275,3370.820191
916.481588,3182.885551,-9252.574275,1532.190996
916.481912,1998.556043,-8216.285956,1455.581446
916.482236,0.000000,-8660.409521,1532.190996
916.482560,-444.123565,-9104.533087,-842.705048
916.482884,-888.247130,-8216.285956,-1225.752797
916.483208,-1924.535449,-8586.388927,-536.266849
916.483532,-1924.535449,-10214.842000,-612.876398
916.483857,-1480.411884,-10140.821405,-1072.533697
916.484181,-1258.350101,-9178.553681,306.438199
916.484505,-1332.370696,-10140.821405,842.705048
916.484829,296.082377,-11029.068536,842.705048
916.485153,2072.576638,-10510.924376,1685.410096
916.485477,3108.864956,-11843.295072,3217.601092
916.485801,2442.679609,-12065.356855,2451.505594
916.486125,1184.329507,-10140.821405,766.095498
916.486449,-962.267725,-8956.491898,766.095498
916.486773,-1406.391290,-9400.615463,-229.828649
916.487097,-518.144159,-9770.718434,-2528.115143
916.487421,-370.102971,-8364.327145,-1915.238745
916.487745,-2072.576638,-8512.368333,-1608.800546
916.488069,-1480.411884,-9474.636058,-2604.724693
916.488393,-1406.391290,-8364.327145,-2987.772442
916.488717,-2072.576638,-8660.409521,-1532.190996
916.489041,-1480.411884,-11103.089130,-612.876398
916.489366,1554.432478,-11103.089130,-919.314598
916.489690,3182.885551,-9992.780217,995.924147
916.490014,3552.988522,-11103.089130,2221.676944
916.490338,3552.988522,-11177.109724,459.657299
916.490662,2368.659014,-11177.109724,383.047749
916.490986,-222.061783,-10807.006753,1149.143247
916.491310,-740.205942,-10658.965565,-842.705048
916.491634,-296.082377,-9696.697840,-2145.067394
916.491958,-2294.638420,-9178.553681,-1302.362347
916.492282,-2812.782580,-11029.068536,-1608.800546
916.492607,-2886.803174,-10288.862594,-2987.772442
916.492931,-3256.906145,-8882.471304,-2528.115143
916.493255,-4145.153275,-9400.615463,-1072.533697
916.493579,-2960.823768,-10436.903782,-1302.362347
916.493903,-296.082377,-9178.553681,-459.657299
916.494227,1406.391290,-9548.656652,1762.019645
916.494551,3108.864956,-10510.924376,2298.286494
916.494875,4145.153275,-9326.594869,1685.410096
916.495200,2960.823768,-7624.121203,3140.991542
916.495524,2738.761985,-8660.409521,3064.381992
916.495848,2738.761985,-8586.388927,459.657299
916.496172,962.267725,-7402.059420,-306.438199
916.496496,-2294.638420,-8216.285956,-229.828649
916.496820,-3330.926739,-10584.944971,-1838.629195
916.497144,-2960.823768,-8586.388927,-2987.772442
916.497468,-2738.761985,-7624.121203,-995.924147
916.497793,-2812.782580,-9252.574275,-306.438199
916.498117,-1554.432478,-10436.903782,-1225.752797
916.498441,-148.041188,-9992.780217,229.828649
916.498765,814.226536,-10807.006753,2374.896044
916.499089,2812.782580,-11769.274478,1685.410096
916.499413,2886.803174,-11029.068536,1302.362347
916.499737,1702.473667,-10658.965565,2757.943793
916.500062,1332.370696,-10436.903782,2221.676944
916.500386,962.267725,-10658.965565,306.438199
916.500710,-370.102971,-10362.883188,-306.438199
916.501034,-1776.494261,-10436.903782,-1149.143247
916.501358,-1628.453072,-10066.800811,-1915.238745
916.501682,-1554.432478,-8808.450710,-2451.505594
916.502006,-2368.659014,-9104.533087,-1225.752797
916.502330,-2294.638420,-9326.594869,-689.485948
916.502655,-666.185348,-8364.327145,-995.924147
916.502979,962.267725,-8216.285956,766.095498
916.503303,2664.741391,-9326.594869,1915.238745
916.503627,4219.173869,-9622.677246,1762.019645
916.503951,3775.050304,-9400.615463,2451.505594
916.504275,2886.803174,-9548.656652,2987.772442
916.504599,1628.453072,-9770.718434,1532.190996
916.504923,444.123565,-9252.574275,0.000000
916.505248,-1332.370696,-9548.656652,0.000000
916.505572,-2442.679609,-10510.924376,-1532.190996
916.505896,-1924.535449,-9918.759623,-1838.629195
916.506220,-2146.597232,-8660.409521,-919.314598
916.506544,-2368.659014,-9696.697840,-612.876398
916.506868,-1924.535449,-9844.739029,-1302.362347
916.507192,-592.164754,-8512.368333,-1455.581446
916.507516,-148.041188,-9252.574275,383.047749
916.507841,222.061783,-11325.150913,536.266849
916.508165,1110.308913,-10658.965565,919.314598
916.508489,1776.494261,-9474.636058,2374.896044
916.508813,2368.659014,-10362.883188,2528.115143
916.509137,1850.514855,-9992.780217,536.266849
916.509461,814.226536,-8956.491898,459.657299
916.509785,-1332.370696,-9104.533087,76.609550
916.510109,-2146.597232,-10510.924376,-1838.629195
916.510434,-2294.638420,-8882.471304,-2451.505594
916.510758,-2294.638420,-7698.141797,-1838.629195
916.511082,-2294.638420,-9474.636058,-2374.896044
916.511406,-740.205942,-9548.656652,-2451.505594
916.511730,222.061783,-8364.327145,-612.876398
916.512054,1628.453072,-9992.780217,612.876398
916.512378,2220.617826,-11399.171507,229.828649
916.512702,2294.638420,-10881.027347,766.095498
916.513027,1924.535449,-10362.883188,2451.505594
916.513351,1628.453072,-11695.253884,1915.238745
916.513675,888.247130,-11325.150913,0.000000
916.513999,-888.247130,-9326.594869,0.000000
916.514323,-2368.659014,-9104.533087,-1532.190996
916.514647,-2886.803174,-9696.697840,-2911.162892
916.514971,-3108.864956,-8660.409521,-2681.334243
916.515295,-3404.947333,-8808.450710,-1991.848295
916.515620,-3108.864956,-9400.615463,-2298.286494
916.515944,-1332.370696,-8512.368333,-2068.457845
916.516268,370.102971,-7698.141797,-689.485948
916.516592,1258.350101,-10362.883188,76.609550
916.516916,1480.411884,-10584.944971,1072.533697
916.517240,2368.659014,-10436.903782,1378.971896
916.517564,2590.720797,-10140.821405,2604.724693
916.517888,2368.659014,-10362.883188,1378.971896
916.518213,2294.638420,-9326.594869,842.705048
916.518537,666.185348,-9474.636058,459.657299
916.518861,-444.123565,-10658.965565,-536.266849
916.519185,-1480.411884,-9400.615463,-2451.505594
916.519509,-2368.659014,-8216.285956,-1991.848295
916.519833,-2664.741391,-9622.677246,-1455.581446
916.520157,-1258.350101,-9992.780217,-2451.505594
916.520482,0.000000,-8956.491898,-1838.629195
916.520806,222.061783,-9696.697840,0.000000
916.521130,370.102971,-10658.965565,-153.219100
916.521454,1628.453072,-10436.903782,995.924147
916.521778,2442.679609,-9844.739029,2298.286494
916.522102,2516.700203,-10436.903782,2145.067394
916.522426,2368.659014,-9992.780217,459.657299
916.522750,1406.391290,-9252.574275,459.657299
916.523075,666.185348,-9844.739029,689.485948
916.523399,444.123565,-10584.944971,0.000000
916.523723,0.000000,-8512.368333,-1378.971896
916.524047,-1628.453072,-7698.141797,-766.095498
916.524371,-1702.473667,-8956.491898,-1149.143247
916.524695,-296.082377,-9252.574275,-1378.971896
916.525019,0.000000,-8512.368333,-612.876398
916.525343,-222.061783,-9622.677246,383.047749
916.525668,444.123565,-11029.068536,536.266849
916.525992,1406.391290,-9474.636058,459.657299
916.526316,1480.411884,-9326.594869,2604.724693
916.526640,1110.308913,-9918.759623,995.924147
916.526964,888.247130,-9844.739029,0.000000
916.527288,74.020594,-9548.656652,995.924147
916.527612,-444.123565,-10955.047942,1225.752797
916.527936,-148.041188,-10658.965565,-306.438199
916.528261,-888.247130,-8660.409521,0.000000
916.528585,-2590.720797,-8734.430116,-536.266849
916.528909,-2960.823768,-9918.759623,-1225.752797
916.529233,-2664.741391,-9548.656652,-1378.971896
916.529557,-1998.556043,-9696.697840,536.266849
916.529881,-962.267725,-11325.150913,1225.752797
916.530205,296.082377,-11029.068536,919.314598
916.530529,666.185348,-9252.574275,1608.800546
916.530854,296.082377,-9030.512492,1225.752797
916.531178,814.226536,-9844.739029,0.000000
916.531502,1184.329507,-8882.471304,0.000000
916.531826,592.164754,-9400.615463,919.314598
916.532150,74.020594,-9622.677246,0.000000
916.532474,-296.082377,-8142.265362,-1302.362347
916.532798,-1628.453072,-7698.141797,-1455.581446
916.533122,-2368.659014,-9474.636058,-1302.362347
916.533447,-2516.700203,-9770.718434,-2757.943793
916.533771,-962.267725,-8364.327145,-919.314598
916.534095,296.082377,-9030.512492,1302.362347
916.534419,1554.432478,-11103.089130,306.438199
916.534743,1924.535449,-10510.924376,-153.219100
916.535067,1554.432478,-9696.697840,1072.533697
916.535391,1998.556043,-10584.944971,612.876398
916.535715,2442.679609,-10807.006753,-153.219100
916.536040,1850.514855,-9918.759623,612.876398
916.536364,962.267725,-10436.903782,842.705048
916.536688,370.102971,-10881.027347,-995.924147
916.537012,-592.164754,-10140.821405,-1685.410096
916.537336,-2664.741391,-9474.636058,-1302.362347
916.537660,-3552.988522,-10288.862594,-1915.238745
916.537984,-2072.576638,-9770.718434,-1685.410096
916.538309,-1554.432478,-9030.512492,-536.266849
916.538633,-888.247130,-9770.718434,76.609550
916.538957,-666.185348,-9696.697840,-766.095498
916.539281,-370.102971,-8734.430116,0.000000
916.539605,222.061783,-9104.533087,1225.752797
916.539929,1628.453072,-9770.718434,1225.752797
916.540253,2442.679609,-9474.636058,1762.019645
916.540577,1850.514855,-9622.677246,2145.067394
916.540902,1110.308913,-9326.594869,766.095498
916.541226,666.185348,-9104.533087,-383.047749
916.541550,-814.226536,-8808.450710,-766.095498
916.541874,-2072.576638,-9992.780217,-995.924147
916.542198,-1628.453072,-10214.842000,-2068.457845
916.542522,-1036.288319,-9326.594869,-1532.190996
916.542846,-518.144159,-9770.718434,-536.266849
916.543170,-740.205942,-11251.130318,0.000000
916.543495,0.000000,-10807.006753,-766.095498
916.543819,1036.288319,-9326.594869,842.705048
916.544143,1036.288319,-9770.718434,1225.752797
916.544467,1480.411884,-10732.986159,306.438199
916.544791,1702.473667,-10436.903782,1225.752797
916.545115,1332.370696,-10807.006753,1838.629195
916.545439,370.102971,-10288.862594,0.000000
916.545763,-1110.308913,-9104.533087,-1149.143247
916.546088,-2294.638420,-8586.388927,-306.438199
916.546412,-2294.638420,-9770.718434,-612.876398
916.546736,-370.102971,-9252.574275,-1455.581446
916.547060,518.144159,-8512.368333,-842.705048
916.547384,222.061783,-9326.594869,76.609550
916.547708,1110.308913,-9548.656652,-536.266849
916.548032,2146.597232,-8068.244768,76.609550
916.548356,1554.432478,-7994.224174,1072.533697
916.548681,2146.597232,-9770.718434,1225.752797
916.549005,1924.535449,-9770.718434,229.828649
916.549329,1554.432478,-9252.574275,1532.190996
916.549653,518.144159,-10436.903782,1532.190996
916.549977,0.000000,-10881.027347,153.219100
916.550301,-1184.329507,-8882.471304,0.000000
916.550625,-2146.597232,-8734.430116,995.924147
916.550949,-1480.411884,-9992.780217,0.000000
916.551274,-666.185348,-9178.553681,-995.924147
916.551598,-1184.329507,-9252.574275,459.657299
916.551922,-1332.370696,-9992.780217,-229.828649
916.552246,-1406.391290,-9696.697840,-1608.800546
916.552570,-1628.453072,-8438.347739,-612.876398
916.552894,-1628.453072,-9844.739029,766.095498
916.553218,-592.164754,-10955.047942,-842.705048
916.553542,222.061783,-9696.697840,-612.876398
916.553867,296.082377,-9548.656652,919.314598
916.554191,1184.329507,-11251.130318,153.219100
916.554515,1406.391290,-10732.986159,-995.924147
916.554839,740.205942,-9104.533087,153.219100
916.555163,148.041188,-10066.800811,536.266849
916.555487,592.164754,-11177.109724,-459.657299
916.555811,592.164754,-9400.615463,76.609550
916.556135,592.164754,-8660.409521,0.000000
916.556460,0.000000,-9622.677246,-459.657299
916.556784,-592.164754,-9622.677246,-1378.971896
916.557108,-1332.370696,-9104.533087,-383.047749
916.557432,-1406.391290,-9696.697840,-536.266849
916.557756,-1406.391290,-10066.800811,-1838.629195
916.558080,-1554.432478,-9326.594869,-919.314598
916.558404,-1406.391290,-10881.027347,0.000000
916.558729,-370.102971,-11399.171507,-612.876398
916.559053,444.123565,-9548.656652,-842.705048
916.559377,222.061783,-9400.615463,1072.533697
916.559701,592.164754,-11177.109724,229.828649
916.560025,1554.432478,-10362.883188,-612.876398
916.560349,1628.453072,-9326.594869,919.314598
916.560673,888.247130,-9918.759623,383.047749
916.560997,888.247130,-10584.944971,-919.314598
916.561322,74.020594,-9252.574275,-459.657299
916.561646,-740.205942,-9326.594869,1225.752797
916.561970,-222.061783,-10066.800811,-842.705048
916.562294,-370.102971,-9326.594869,-1455.581446
916.562618,-1036.288319,-8882.471304,536.266849
916.562942,-592.164754,-9844.739029,0.000000
916.563266,296.082377,-9770.718434,-1225.752797
916.563590,-222.061783,-7772.162391,229.828649
916.563915,-296.082377,-8660.409521,919.314598
916.564239,1258.350101,-10214.842000,-383.047749
916.564563,1628.453072,-9474.636058,-229.828649
916.564887,1184.329507,-9104.533087,1608.800546
916.565211,1184.329507,-10436.903782,536.266849
916.565535,666.185348,-10288.862594,-842.705048
916.565859,-370.102971,-8660.409521,0.000000
916.566183,-518.144159,-9696.697840,229.828649
916.566508,370.102971,-11547.212695,-1072.533697
916.566832,148.041188,-9622.677246,-383.047749
916.567156,-518.144159,-9030.512492,919.314598
916.567480,-444.123565,-9844.739029,-459.657299
916.567804,-592.164754,-9104.533087,-1915.238745
916.568128,-1776.494261,-7994.224174,0.000000
916.568452,-1628.453072,-9474.636058,306.438199
916.568776,0.000000,-10362.883188,-459.657299
916.569101,888.247130,-8882.471304,1225.752797
916.569425,1036.288319,-8808.450710,1838.629195
916.569749,1036.288319,-9696.697840,-153.219100
916.570073,370.102971,-9770.718434,-1378.971896
916.570397,-370.102971,-9326.594869,842.705048
916.570721,-148.041188,-10066.800811,459.657299
916.571045,222.061783,-9918.759623,-919.314598
916.571369,-1110.308913,-8438.347739,76.609550
916.571694,-1406.391290,-10066.800811,76.609550
916.572018,-666.185348,-11547.212695,-1225.752797
916.572342,-444.123565,-10288.862594,-153.219100
916.572666,-814.226536,-9622.677246,1685.410096
916.572990,0.000000,-10510.924376,1838.629195
916.573314,888.247130,-9622.677246,383.047749
916.573638,740.205942,-9770.718434,2374.896044
916.573962,74.020594,-10807.006753,1225.752797
916.574287,-148.041188,-10584.944971,-842.705048
916.574611,-592.164754,-8734.430116,-153.219100
916.574935,-888.247130,-8216.285956,459.657299
916.575259,0.000000,-9992.780217,-1225.752797
916.575583,-666.185348,-9030.512492,-3294.210641
916.575907,-1702.473667,-8216.285956,-459.657299
916.576231,-592.164754,-10584.944971,-612.876398
916.576556,592.164754,-10807.006753,-1685.410096
916.576880,444.123565,-8142.265362,-383.047749
916.577204,444.123565,-8586.388927,842.705048
916.577528,1406.391290,-10436.903782,-306.438199
916.577852,2590.720797,-9548.656652,229.828649
916.578176,1924.535449,-8956.491898,2068.457845
916.578500,1998.556043,-9696.697840,842.705048
916.578824,1406.391290,-9178.553681,-919.314598
916.579149,-444.123565,-8290.306550,0.000000
916.579473,-1924.535449,-9400.615463,-612.876398
916.579797,-2146.597232,-9992.780217,-2987.772442
916.580121,-2516.700203,-8438.347739,-2528.115143
916.580445,-2368.659014,-8956.491898,-1072.533697
916.580769,-1628.453072,-10510.924376,-2757.943793
916.581093,-888.247130,-9918.759623,-2221.676944
916.581417,-814.226536,-9474.636058,229.828649
916.581742,0.000000,-10807.006753,76.609550
916.582066,1702.473667,-11695.253884,-842.705048
916.582390,2516.700203,-10510.924376,1838.629195
916.582714,2960.823768,-11325.150913,2911.162892
916.583038,3627.009116,-12213.398043,1225.752797
916.583362,2368.659014,-10510.924376,1225.752797
916.583686,148.041188,-9030.512492,1608.800546
916.584010,-592.164754,-9992.780217,-153.219100
916.584335,-1332.370696,-9474.636058,-2374.896044
916.584659,-2738.761985,-7328.038826,-1302.362347
916.584983,-3182.885551,-8586.388927,-1072.533697
916.585307,-2738.761985,-9992.780217,-2757.943793
916.585631,-3034.844362,-8512.368333,-1915.238745
916.585955,-2220.617826,-8290.306550,842.705048
916.586279,-444.123565,-10214.842000,76.609550
916.586603,1406.391290,-10436.903782,76.609550
916.586928,2146.597232,-9474.636058,2145.067394
916.587252,2812.782580,-10140.821405,2911.162892
916.587576,2886.803174,-11177.109724,1302.362347
916.587900,2294.638420,-11103.089130,2145.067394
916.588224,740.205942,-9622.677246,2298.286494
916.588548,296.082377,-9622.677246,-383.047749
916.588872,-888.247130,-8956.491898,-1455.581446
916.589196,-2146.597232,-8808.450710,-842.705048
916.589521,-2368.659014,-9622.677246,-1685.410096
916.589845,-1480.411884,-9474.636058,-1838.629195
916.590169,-1776.494261,-8734.430116,919.314598
916.590493,-1036.288319,-9326.594869,229.828649
916.590817,592.164754,-9622.677246,0.000000
916.591141,1110.308913,-8882.471304,1225.752797
916.591465,1776.494261,-9104.533087,3064.381992
916.591790,2590.720797,-10510.924376,2298.286494
916.592114,2664.741391,-9548.656652,842.705048
916.592438,1184.329507,-8068.244768,2374.896044
916.592762,740.205942,-8808.450710,1991.848295
916.593086,0.000000,-9178.553681,-1225.752797
916.593411,-1776.494261,-8142.265362,-995.924147
916.593735,-3034.844362,-8586.388927,-612.876398
916.594059,-2812.782580,-9696.697840,-1915.238745
916.594383,-2146.597232,-8956.491898,-1532.190996
916.594707,-1554.432478,-8586.388927,76.609550
916.595032,-888.247130,-10288.862594,306.438199
916.595356,666.185348,-11177.109724,306.438199
916.595680,1776.494261,-9918.759623,2068.457845
916.596004,2368.659014,-10732.986159,3140.991542
916.596328,3256.906145,-12065.356855,1532.190996
916.596652,2738.761985,-10510.924376,919.314598
916.596977,1036.288319,-9326.594869,1991.848295
916.597301,370.102971,-10362.883188,-306.438199
916.597625,-148.041188,-10436.903782,-2145.067394
916.597949,-2146.597232,-9030.512492,-1762.019645
916.598273,-2812.782580,-9548.656652,-2068.457845
916.598598,-2146.597232,-11177.109724,-3140.991542
916.598922,-1998.556043,-10140.821405,-2298.286494
916.599246,-1850.514855,-8956.491898,-1455.581446
916.599570,-1184.329507,-9918.759623,-2068.457845
916.599894,444.123565,-10436.903782,-766.095498
916.600218,2812.782580,-8882.471304,689.485948
916.600543,3256.906145,-11473.192101,2145.067394
916.600867,3034.844362,-11843.295072,612.876398
916.601191,1924.535449,-8660.409521,76.609550
916.601515,-444.123565,-8956.491898,383.047749
916.601839,-888.247130,-10140.821405,-2451.505594
916.602164,-814.226536,-8660.409521,-2911.162892
916.602488,-1184.329507,-7846.182985,-1149.143247
916.602812,-1776.494261,-9770.718434,-2298.286494
916.603136,-1702.473667,-10807.006753,-2681.334243
916.603460,-1036.288319,-8512.368333,-1532.190996
916.603785,-1554.432478,-9178.553681,-1302.362347
916.604109,-1406.391290,-10658.965565,-1762.019645
916.604433,0.000000,-9474.636058,-612.876398
916.604757,1406.391290,-9474.636058,1149.143247
916.605081,2368.659014,-11621.233289,1685.410096
916.605405,2590.720797,-11251.130318,1455.581446
916.605730,2294.638420,-9548.656652,2145.067394
916.606054,962.267725,-9622.677246,1302.362347
916.606378,518.144159,-9030.512492,-1762.019645
916.606702,-740.205942,-8290.306550,-1455.581446
916.607026,-1924.535449,-9252.574275,-1149.143247
916.607351,-2072.576638,-10436.903782,-1838.629195
916.607675,-1554.432478,-8882.471304,-2221.676944
916.607999,-1184.329507,-7476.080014,-689.485948
916.608323,-1628.453072,-9622.677246,-536.266849
916.608647,-444.123565,-10584.944971,-1225.752797
916.608971,1184.329507,-9252.574275,612.876398
916.609296,1924.535449,-9844.739029,2145.067394
916.609620,2146.597232,-11325.150913,2145.067394
916.609944,2220.617826,-11103.089130,2528.115143
916.610268,1998.556043,-9622.677246,3064.381992
916.610592,1998.556043,-9474.636058,1225.752797
916.610917,1184.329507,-9474.636058,-383.047749
916.611241,-740.205942,-9252.574275,229.828649
916.611565,-2072.576638,-9622.677246,-383.047749
916.611889,-2516.700203,-10214.842000,-1378.971896
916.612213,-3108.864956,-9326.594869,-1149.143247
916.612538,-3108.864956,-8660.409521,-766.095498
916.612862,-2368.659014,-9252.574275,-1532.190996
916.613186,-1406.391290,-8808.450710,-229.828649
916.613510,296.082377,-9030.512492,1532.190996
916.613834,2294.638420,-10436.903782,2528.115143
916.614158,3034.844362,-10955.047942,2298.286494
916.614483,2442.679609,-9326.594869,2681.334243
916.614807,2220.617826,-9178.553681,3217.601092
916.615131,1924.535449,-9696.697840,1225.752797
916.615455,740.205942,-9252.574275,306.438199
916.615779,-518.144159,-9178.553681,919.314598
916.616104,-1776.494261,-9844.739029,0.000000
916.616428,-2590.720797,-9474.636058,-842.705048
916.616752,-2590.720797,-8068.244768,-459.657299
916.617076,-2368.659014,-8438.347739,-153.219100
916.617400,-1702.473667,-9696.697840,-1072.533697
916.617724,-1184.329507,-8512.368333,-995.924147
916.618049,-592.164754,-8660.409521,766.095498
916.618373,74.020594,-10584.944971,306.438199
916.618697,1184.329507,-10807.006753,919.314598
916.619021,2590.720797,-9844.739029,1685.410096
916.619345,3256.906145,-9252.574275,229.828649
916.619670,3182.885551,-8364.327145,-1838.629195
916.619994,2368.659014,-8734.430116,-1149.143247
916.620318,1628.453072,-10807.006753,-1685.410096
916.620642,814.226536,-11991.336260,-2528.115143
916.620966,518.144159,-10510.924376,-2528.115143
916.621291,-370.102971,-9252.574275,-2528.115143
916.621615,-1036.288319,-10140.821405,-2451.505594
916.621939,296.082377,-9622.677246,-3064.381992
916.622263,2516.700203,-9622.677246,-1532.190996
916.622587,3182.885551,-10214.842000,-306.438199
916.622911,3775.050304,-9844.739029,-919.314598
916.623236,3849.070898,-8882.471304,-536.266849
916.623560,3404.947333,-9030.512492,-995.924147
916.623884,2738.761985,-9474.636058,-2221.676944
916.624208,1628.453072,-9400.615463,-3217.601092
916.624532,-296.082377,-9918.759623,-3447.429741
916.624857,-1998.556043,-10732.986159,-3753.867940
916.625181,-2146.597232,-10362.883188,-4213.525239
916.625505,-1850.514855,-9474.636058,-4060.306139
916.625829,-1406.391290,-9474.636058,-3830.477490
916.626153,-296.082377,-10140.821405,-3600.648841
916.626477,1776.494261,-9844.739029,-2681.334243
916.626802,3997.112087,-9548.656652,-1455.581446
916.627126,5403.503377,-10436.903782,0.000000
916.627450,6439.791695,-10807.006753,76.609550
916.627774,5773.606348,-9696.697840,-536.266849
916.628098,3552.988522,-9400.615463,-1302.362347
916.628423,1628.453072,-10881.027347,-2221.676944
916.628747,814.226536,-10807.006753,-2451.505594
916.629071,-148.041188,-9326.594869,-3217.601092
916.629395,-962.267725,-9400.615463,-3217.601092
916.629719,0.000000,-9178.553681,-3753.867940
916.630044,1258.350101,-8364.327145,-3907.087040
916.630368,888.247130,-7994.224174,-3217.601092
916.630692,148.041188,-8660.409521,-2604.724693
916.631016,1924.535449,-8808.450710,-2298.286494
916.631340,3627.009116,-9030.512492,-1378.971896
916.631664,4219.173869,-9696.697840,-383.047749
916.631989,4441.235652,-10955.047942,76.609550
916.632313,5477.523971,-12213.398043,1149.143247
916.632637,5329.482782,-11695.253884,612.876398
916.632961,3552.988522,-10436.903782,-612.876398
916.633285,1110.308913,-10288.862594,-995.924147
916.633610,592.164754,-11621.233289,-1915.238745
916.633934,592.164754,-10955.047942,-3370.820191
916.634258,-296.082377,-8586.388927,-4366.744339
916.634582,-1332.370696,-7105.977043,-4366.744339
916.634906,222.061783,-8586.388927,-3753.867940
916.635230,3182.885551,-9474.636058,-2911.162892
