#time,accel_x,accel_y,accel_z
907.850571,0.000000,-9696.697840,0.000000
907.850895,0.000000,-9696.697840,0.000000
907.851219,0.000000,-9622.677246,0.000000
907.851543,0.000000,-9770.718434,-229.828649
907.851867,0.000000,-9622.677246,0.000000
907.852191,0.000000,-9770.718434,-383.047749
907.852515,148.041188,-9548.656652,0.000000
907.852838,74.020594,-9178.553681,0.000000
907.853162,0.000000,-9770.718434,0.000000
907.853486,148.041188,-9622.677246,0.000000
907.853810,0.000000,-9770.718434,-153.219100
907.854134,-148.041188,-9178.553681,-153.219100
907.854458,74.020594,-9474.636058,0.000000
907.854782,148.041188,-9474.636058,-153.219100
907.855106,-296.082377,-9252.574275,-612.876398
907.855430,0.000000,-9622.677246,-306.438199
907.855753,0.000000,-9770.718434,0.000000
907.856077,222.061783,-9844.739029,0.000000
907.856401,222.061783,-9770.718434,76.609550
907.856725,148.041188,-9326.594869,-153.219100
907.857049,74.020594,-9178.553681,0.000000
907.857373,0.000000,-9696.697840,459.657299
907.857697,148.041188,-9474.636058,-153.219100
907.858021,74.020594,-9918.759623,0.000000
907.858345,-222.061783,-9622.677246,0.000000
907.858668,-222.061783,-9474.636058,0.000000
907.858992,-222.061783,-9622.677246,-229.828649
907.859316,-296.082377,-9770.718434,76.609550
907.859640,0.000000,-9474.636058,76.609550
907.859964,-222.061783,-9474.636058,0.000000
907.860288,0.000000,-9400.615463,76.609550
907.860612,-148.041188,-9696.697840,0.000000
907.860936,-148.041188,-9770.718434,0.000000
907.861260,-148.041188,-9918.759623,-153.219100
907.861583,-296.082377,-9770.718434,0.000000
907.861907,0.000000,-9474.636058,-153.219100
907.862231,-222.061783,-9474.636058,0.000000
907.862555,0.000000,-9474.636058,0.000000
907.862879,-148.041188,-9622.677246,0.000000
907.863203,0.000000,-9770.718434,0.000000
907.863527,-148.041188,-9918.759623,0.000000
907.863851,-222.061783,-9844.739029,0.000000
907.864175,-222.061783,-9474.636058,229.828649
907.864498,-296.082377,-9326.594869,-306.438199
907.864822,0.000000,-9474.636058,-306.438199
907.865146,-296.082377,-9548.656652,229.828649
907.865470,0.000000,-9992.780217,229.828649
907.865794,74.020594,-9992.780217,0.000000
907.866118,74.020594,-9770.718434,-153.219100
907.866442,-296.082377,-9696.697840,153.219100
907.866766,74.020594,-9696.697840,0.000000
907.867090,0.000000,-9696.697840,459.657299
907.867413,0.000000,-9992.780217,536.266849
907.867737,444.123565,-9918.759623,76.609550
907.868061,-148.041188,-9918.759623,76.609550
907.868385,-888.247130,-9770.718434,76.609550
907.868709,-1332.370696,-9696.697840,229.828649
907.869033,-1628.453072,-9252.574275,306.438199
907.869357,-1184.329507,-8438.347739,612.876398
907.869681,-666.185348,-8438.347739,766.095498
907.870005,296.082377,-9474.636058,153.219100
907.870328,666.185348,-9696.697840,842.705048
907.870652,0.000000,-10288.862594,1149.143247
907.870976,-592.164754,-10436.903782,536.266849
907.871300,-1554.432478,-10510.924376,536.266849
907.871624,-2738.761985,-10436.903782,766.095498
907.871948,-2590.720797,-10807.006753,689.485948
907.872272,-2516.700203,-10584.944971,1838.629195
907.872596,-2072.576638,-9844.739029,995.924147
907.872919,-1110.308913,-9104.533087,919.314598
907.873243,-296.082377,-8586.388927,1302.362347
907.873567,148.041188,-8734.430116,1685.410096
907.873891,0.000000,-8808.450710,1455.581446
907.874215,-962.267725,-9622.677246,1532.190996
907.874539,-2590.720797,-9548.656652,1532.190996
907.874863,-3330.926739,-9992.780217,1455.581446
907.875187,-3182.885551,-10658.965565,1225.752797
907.875511,-3330.926739,-10436.903782,1685.410096
907.875834,-3404.947333,-11029.068536,1455.581446
907.876158,-3108.864956,-10436.903782,1455.581446
907.876482,-2368.659014,-9548.656652,2221.676944
907.876806,-2072.576638,-8290.306550,1991.848295
907.877130,-518.144159,-8808.450710,2145.067394
907.877454,-740.205942,-8808.450710,2298.286494
907.877778,-370.102971,-9252.574275,2451.505594
907.878102,-962.267725,-9400.615463,2374.896044
907.878426,-1776.494261,-9548.656652,2451.505594
907.878749,-2738.761985,-9992.780217,2298.286494
907.879073,-3997.112087,-10584.944971,2298.286494
907.879397,-4959.379811,-10955.047942,2451.505594
907.879721,-5551.544565,-11029.068536,2757.943793
907.880045,-5625.565159,-10362.883188,2374.896044
907.880369,-5699.585753,-9770.718434,2528.115143
907.880693,-5107.421000,-9548.656652,2451.505594
907.881017,-3849.070898,-9474.636058,3064.381992
907.881341,-2294.638420,-9474.636058,3830.477490
907.881664,-296.082377,-9400.615463,4596.572988
907.881988,1406.391290,-8882.471304,4136.915689
907.882312,1998.556043,-8512.368333,4366.744339
907.882636,1776.494261,-8438.347739,3677.258390
907.882960,814.226536,-8882.471304,3217.601092
907.883284,-370.102971,-9030.512492,3217.601092
907.883608,-2146.597232,-8882.471304,2298.286494
907.883932,-4663.297435,-8068.244768,1378.971896
907.884256,-5477.523971,-7698.141797,459.657299
907.884579,-7550.100608,-9696.697840,229.828649
907.884903,-7920.203579,-11843.295072,995.924147
907.885227,-5625.565159,-11621.233289,1532.190996
907.885551,-2738.761985,-9844.739029,3294.210641
907.885875,148.041188,-8216.285956,4749.792088
907.886199,3478.967927,-8808.450710,4290.134789
907.886523,4293.194464,-9400.615463,4366.744339
907.886847,4293.194464,-9770.718434,4826.401637
907.887171,3404.947333,-9992.780217,4290.134789
907.887494,1258.350101,-9622.677246,2604.724693
907.887818,-1850.514855,-8586.388927,1072.533697
907.888142,-4515.256246,-8808.450710,0.000000
907.888466,-6143.709319,-9992.780217,-1302.362347
907.888790,-5995.668130,-11103.089130,-1838.629195
907.889114,-5329.482782,-10362.883188,-766.095498
907.889438,-2960.823768,-8956.491898,306.438199
907.889762,-1998.556043,-8586.388927,1149.143247
907.890086,-2590.720797,-8808.450710,1378.971896
907.890409,-3330.926739,-9474.636058,1838.629195
907.890733,-2812.782580,-10510.924376,1455.581446
907.891057,-962.267725,-11547.212695,3140.991542
907.891381,2516.700203,-11399.171507,4443.353888
907.891705,5181.441594,-10881.027347,4366.744339
907.892029,5699.585753,-10140.821405,3983.696590
907.892353,2664.741391,-10214.842000,2374.896044
907.892677,-1332.370696,-10066.800811,459.657299
907.893001,-4663.297435,-8808.450710,-612.876398
907.893324,-6069.688724,-7624.121203,-2298.286494
907.893648,-6661.853478,-7994.224174,-1915.238745
907.893972,-5477.523971,-10658.965565,-1455.581446
907.894296,-4515.256246,-11917.315666,-1149.143247
907.894620,-4737.318029,-10955.047942,-383.047749
907.894944,-5921.647536,-9474.636058,229.828649
907.895268,-6069.688724,-8660.409521,536.266849
907.895592,-4219.173869,-8438.347739,1072.533697
907.895915,-1924.535449,-9696.697840,2528.115143
907.896239,740.205942,-11843.295072,3753.867940
907.896563,2294.638420,-12509.480420,3600.648841
907.896887,2072.576638,-11843.295072,3600.648841
907.897211,518.144159,-9844.739029,3064.381992
907.897535,-296.082377,-8956.491898,1991.848295
907.897859,-1184.329507,-9104.533087,1455.581446
907.898183,-2220.617826,-9474.636058,1149.143247
907.898507,-3552.988522,-9326.594869,612.876398
907.898830,-4737.318029,-9326.594869,229.828649
907.899154,-5329.482782,-8290.306550,536.266849
907.899478,-4737.318029,-8068.244768,1455.581446
907.899802,-3849.070898,-7550.100608,766.095498
907.900126,-4441.235652,-7698.141797,689.485948
907.900450,-5921.647536,-8586.388927,766.095498
907.900774,-5921.647536,-9548.656652,919.314598
907.901098,-3552.988522,-10066.800811,2221.676944
907.901422,0.000000,-9770.718434,3294.210641
907.901745,518.144159,-9030.512492,2604.724693
907.902069,-666.185348,-9474.636058,2528.115143
907.902393,-888.247130,-11547.212695,2911.162892
907.902717,296.082377,-11843.295072,3294.210641
907.903041,1850.514855,-11029.068536,2451.505594
907.903365,666.185348,-9548.656652,2221.676944
907.903689,-1702.473667,-9548.656652,2604.724693
907.904013,-2664.741391,-10881.027347,2451.505594
907.904337,-3034.844362,-10362.883188,2298.286494
907.904660,-3404.947333,-8512.368333,1991.848295
907.904984,-3775.050304,-6809.894666,1455.581446
907.905308,-3775.050304,-6513.812290,1915.238745
907.905632,-2738.761985,-8438.347739,3064.381992
907.905956,-1554.432478,-9474.636058,2604.724693
907.906280,-2146.597232,-8956.491898,2068.457845
907.906604,-3552.988522,-9178.553681,1378.971896
907.906928,-3182.885551,-10140.821405,1915.238745
907.907252,0.000000,-11325.150913,2681.334243
907.907575,1554.432478,-12139.377449,3064.381992
907.907899,444.123565,-12361.439231,3524.039291
907.908223,-296.082377,-12139.377449,4136.915689
907.908547,74.020594,-11103.089130,3217.601092
907.908871,444.123565,-10288.862594,3447.429741
907.909195,-962.267725,-9548.656652,3294.210641
907.909519,-2146.597232,-9696.697840,2911.162892
907.909843,-2220.617826,-9326.594869,2145.067394
907.910167,-666.185348,-7402.059420,1991.848295
907.910490,222.061783,-7031.956449,2528.115143
907.910814,-1924.535449,-7994.224174,1149.143247
907.911138,-4071.132681,-8808.450710,306.438199
907.911462,-4145.153275,-8142.265362,306.438199
907.911786,-2664.741391,-8438.347739,995.924147
907.912110,-1702.473667,-9844.739029,919.314598
907.912434,-962.267725,-9104.533087,383.047749
907.912758,-592.164754,-7254.018232,919.314598
907.913082,296.082377,-7179.997637,995.924147
907.913405,1406.391290,-9474.636058,1149.143247
907.913729,1924.535449,-10288.862594,1378.971896
907.914053,2516.700203,-9474.636058,1991.848295
907.914377,2368.659014,-8882.471304,1915.238745
907.914701,1702.473667,-10288.862594,1532.190996
907.915025,0.000000,-10510.924376,612.876398
907.915349,-1924.535449,-9474.636058,383.047749
907.915673,-2590.720797,-10362.883188,-153.219100
907.915997,-1776.494261,-11843.295072,-1532.190996
907.916321,-1702.473667,-9770.718434,-2145.067394
907.916645,-1850.514855,-7402.059420,-1762.019645
907.916968,-1258.350101,-9400.615463,-3064.381992
907.917292,-1036.288319,-10362.883188,-3983.696590
907.917616,-518.144159,-9030.512492,-2987.772442
907.917940,148.041188,-9474.636058,-1072.533697
907.918264,1776.494261,-11843.295072,-1455.581446
907.918588,1998.556043,-13249.686362,-1302.362347
907.918912,814.226536,-11251.130318,76.609550
907.919236,-518.144159,-11473.192101,766.095498
907.919560,-1702.473667,-13249.686362,0.000000
907.919884,-962.267725,-11991.336260,-995.924147
907.920208,-222.061783,-9252.574275,76.609550
907.920532,592.164754,-8882.471304,-842.705048
907.920855,1036.288319,-9770.718434,-2528.115143
907.921179,1332.370696,-8290.306550,-2221.676944
907.921503,1110.308913,-7624.121203,-1915.238745
907.921827,666.185348,-9622.677246,-2681.334243
907.922151,-296.082377,-10214.842000,-3217.601092
907.922475,0.000000,-8586.388927,-1608.800546
907.922799,222.061783,-9918.759623,-1225.752797
907.923123,0.000000,-12287.418637,-2221.676944
907.923447,-370.102971,-10658.965565,-1532.190996
907.923771,-1702.473667,-9622.677246,76.609550
907.924095,-1628.453072,-10288.862594,0.000000
907.924418,-1184.329507,-10362.883188,-306.438199
907.924742,-666.185348,-9326.594869,1072.533697
907.925066,666.185348,-8882.471304,1072.533697
907.925390,1850.514855,-9548.656652,306.438199
907.925714,1924.535449,-8586.388927,229.828649
907.926038,1628.453072,-6957.935855,919.314598
907.926362,518.144159,-9252.574275,766.095498
907.926686,-1036.288319,-10362.883188,-612.876398
907.927010,-1480.411884,-9252.574275,153.219100
907.927334,-1332.370696,-9030.512492,612.876398
907.927658,-962.267725,-10510.924376,0.000000
907.927982,-1184.329507,-9770.718434,-383.047749
907.928305,-1184.329507,-8216.285956,995.924147
907.928629,-740.205942,-8068.244768,995.924147
907.928953,-1554.432478,-8882.471304,-383.047749
907.929277,-2072.576638,-8216.285956,766.095498
907.929601,-888.247130,-7846.182985,2221.676944
907.929925,592.164754,-9992.780217,1838.629195
907.930249,1998.556043,-10732.986159,1149.143247
907.930573,2072.576638,-9400.615463,2145.067394
907.930897,1628.453072,-10140.821405,1685.410096
907.931221,666.185348,-11843.295072,0.000000
907.931545,-296.082377,-10214.842000,612.876398
907.931869,0.000000,-9548.656652,1685.410096
907.932192,0.000000,-11399.171507,306.438199
907.932516,-740.205942,-12287.418637,-689.485948
907.932840,-740.205942,-9844.739029,1149.143247
907.933164,-296.082377,-9474.636058,1532.190996
907.933488,-444.123565,-10807.006753,-153.219100
907.933812,-1628.453072,-9030.512492,-153.219100
907.934136,-1702.473667,-7476.080014,1225.752797
907.934460,0.000000,-9770.718434,1072.533697
907.934784,888.247130,-11251.130318,-76.609550
907.935108,1184.329507,-9326.594869,1072.533697
907.935432,1258.350101,-8438.347739,1762.019645
907.935756,740.205942,-10955.047942,459.657299
907.936079,518.144159,-10214.842000,0.000000
907.936403,0.000000,-8660.409521,995.924147
907.936727,962.267725,-10066.800811,1455.581446
907.937051,1110.308913,-11177.109724,0.000000
907.937375,592.164754,-9104.533087,612.876398
907.937699,518.144159,-7846.182985,1455.581446
907.938023,444.123565,-9474.636058,76.609550
907.938347,-666.185348,-9696.697840,-612.876398
907.938671,-1850.514855,-7031.956449,0.000000
907.938995,-1850.514855,-7031.956449,0.000000
907.939319,-1036.288319,-9474.636058,-689.485948
907.939642,-1036.288319,-9474.636058,-306.438199
907.939966,-740.205942,-8438.347739,383.047749
907.940290,-962.267725,-9030.512492,459.657299
907.940614,-740.205942,-9918.759623,-459.657299
907.940938,370.102971,-8956.491898,1072.533697
907.941262,1332.370696,-9252.574275,2145.067394
907.941586,2146.597232,-11029.068536,536.266849
907.941910,1924.535449,-10066.800811,153.219100
907.942234,1776.494261,-8438.347739,612.876398
907.942558,1258.350101,-9918.759623,-536.266849
907.942882,0.000000,-10658.965565,-1532.190996
907.943206,-1110.308913,-8216.285956,-1915.238745
907.943529,-814.226536,-7920.203579,-842.705048
907.943853,-518.144159,-10510.924376,-2528.115143
907.944177,-1036.288319,-10955.047942,-2451.505594
907.944501,-1702.473667,-9622.677246,-1762.019645
907.944825,-1850.514855,-9992.780217,-2681.334243
907.945149,-1998.556043,-11695.253884,-3064.381992
907.945473,-1332.370696,-11251.130318,-842.705048
907.945797,370.102971,-10436.903782,0.000000
907.946121,1554.432478,-11621.233289,0.000000
907.946445,2368.659014,-11473.192101,-1072.533697
907.946769,2368.659014,-9770.718434,229.828649
907.947093,2442.679609,-10807.006753,306.438199
907.947416,1776.494261,-11769.274478,-995.924147
907.947740,148.041188,-9696.697840,-1455.581446
907.948064,-296.082377,-8512.368333,-1378.971896
907.948388,-296.082377,-10584.944971,-2604.724693
907.948712,-592.164754,-11917.315666,-3753.867940
907.949036,-1110.308913,-10066.800811,-2451.505594
907.949360,-592.164754,-9622.677246,-1608.800546
907.949684,-1406.391290,-10955.047942,-2451.505594
907.950008,-1776.494261,-10066.800811,-1149.143247
907.950332,-1036.288319,-8068.244768,1149.143247
907.950656,740.205942,-9104.533087,766.095498
907.950980,1480.411884,-9400.615463,1302.362347
907.951303,1702.473667,-8956.491898,2451.505594
907.951627,1776.494261,-9474.636058,2911.162892
907.951951,1406.391290,-11325.150913,2374.896044
907.952275,814.226536,-9326.594869,536.266849
907.952599,-740.205942,-5625.565159,-306.438199
907.952923,-2886.803174,-6883.915261,-1302.362347
907.953247,-3775.050304,-10807.006753,-2298.286494
907.953571,-2516.700203,-10807.006753,-2604.724693
907.953895,-2220.617826,-8660.409521,-919.314598
907.954219,-2368.659014,-9178.553681,0.000000
907.954543,-1924.535449,-10140.821405,-536.266849
907.954867,-1258.350101,-8956.491898,153.219100
907.955190,-370.102971,-8956.491898,2681.334243
907.955514,1036.288319,-10288.862594,2451.505594
907.955838,2812.782580,-11177.109724,2604.724693
907.956162,2812.782580,-10066.800811,4290.134789
907.956486,3034.844362,-9400.615463,3907.087040
907.956810,1998.556043,-9548.656652,2221.676944
907.957134,-592.164754,-8808.450710,1072.533697
907.957458,-1628.453072,-8290.306550,536.266849
907.957782,-1480.411884,-9770.718434,-919.314598
907.958106,-1036.288319,-9474.636058,-2221.676944
907.958430,-592.164754,-7624.121203,-459.657299
907.958753,-1258.350101,-8512.368333,-536.266849
907.959077,-888.247130,-10436.903782,-919.314598
907.959401,-1628.453072,-9844.739029,76.609550
907.959725,-592.164754,-8586.388927,1915.238745
907.960049,962.267725,-9474.636058,2145.067394
907.960373,2072.576638,-10658.965565,1378.971896
907.960697,2812.782580,-9474.636058,3064.381992
907.961021,3108.864956,-10214.842000,3217.601092
907.961345,2960.823768,-10881.027347,1762.019645
907.961669,2294.638420,-9030.512492,1378.971896
907.961993,1628.453072,-8512.368333,1072.533697
907.962317,1258.350101,-10510.924376,-612.876398
907.962640,444.123565,-11473.192101,-1838.629195
907.962964,-740.205942,-9474.636058,-1072.533697
907.963288,-1480.411884,-9178.553681,-919.314598
907.963612,-2220.617826,-10510.924376,-1762.019645
907.963936,-2664.741391,-10066.800811,-1225.752797
907.964260,-1628.453072,-8586.388927,76.609550
907.964584,0.000000,-9104.533087,459.657299
907.964908,444.123565,-10732.986159,383.047749
907.965232,444.123565,-10066.800811,1225.752797
907.965556,962.267725,-8956.491898,1608.800546
907.965880,814.226536,-9474.636058,995.924147
907.966204,148.041188,-9770.718434,689.485948
907.966527,0.000000,-8512.368333,76.609550
907.966851,-592.164754,-8882.471304,-995.924147
907.967175,-1184.329507,-10955.047942,-2528.115143
907.967499,-1110.308913,-10362.883188,-2681.334243
907.967823,-592.164754,-9548.656652,-2451.505594
907.968147,-888.247130,-10288.862594,-3064.381992
907.968471,-518.144159,-11103.089130,-2451.505594
907.968795,222.061783,-9622.677246,-612.876398
907.969119,888.247130,-9992.780217,-153.219100
907.969443,666.185348,-11325.150913,-459.657299
907.969767,888.247130,-10066.800811,229.828649
907.970091,1628.453072,-9326.594869,1302.362347
907.970414,1702.473667,-10732.986159,1149.143247
907.970738,518.144159,-10214.842000,459.657299
907.971062,148.041188,-7920.203579,-842.705048
907.971386,-592.164754,-8512.368333,-1991.848295
907.971710,-1850.514855,-10214.842000,-3830.477490
907.972034,-2516.700203,-10066.800811,-4290.134789
907.972358,-2960.823768,-8808.450710,-3447.429741
907.972682,-2738.761985,-10066.800811,-2757.943793
907.973006,-2886.803174,-10955.047942,-3064.381992
907.973330,-2442.679609,-9696.697840,-1532.190996
907.973654,-962.267725,-9400.615463,76.609550
907.973977,1554.432478,-11325.150913,153.219100
907.974301,3330.926739,-11843.295072,1762.019645
907.974625,4441.235652,-10362.883188,2528.115143
907.974949,4145.153275,-10732.986159,3140.991542
907.975273,2960.823768,-11991.336260,2681.334243
907.975597,3034.844362,-10658.965565,1685.410096
907.975921,1998.556043,-7624.121203,766.095498
907.976245,-666.185348,-7920.203579,-1762.019645
907.976569,-2442.679609,-9548.656652,-2528.115143
907.976893,-2516.700203,-9622.677246,-2987.772442
907.977217,-2516.700203,-9178.553681,-3140.991542
907.977541,-3923.091493,-9400.615463,-1378.971896
907.977864,-3404.947333,-8660.409521,-1762.019645
907.978188,-1628.453072,-7698.141797,306.438199
907.978512,0.000000,-9030.512492,1225.752797
907.978836,370.102971,-10140.821405,1225.752797
907.979160,2072.576638,-9548.656652,2987.772442
907.979484,2886.803174,-9770.718434,4060.306139
907.979808,2664.741391,-10510.924376,4519.963438
907.980132,2664.741391,-8512.368333,3217.601092
907.980456,1480.411884,-7179.997637,2911.162892
907.980780,0.000000,-10066.800811,2068.457845
907.981104,-888.247130,-11399.171507,-1762.019645
907.981428,-444.123565,-8660.409521,-1225.752797
907.981751,-962.267725,-7402.059420,-536.266849
907.982075,-2072.576638,-9844.739029,-1608.800546
907.982399,-2886.803174,-9178.553681,-2298.286494
907.982723,-3034.844362,-7254.018232,-1225.752797
907.983047,-2812.782580,-7994.224174,306.438199
907.983371,-1110.308913,-9918.759623,-229.828649
907.983695,666.185348,-8882.471304,1455.581446
907.984019,2442.679609,-8438.347739,3830.477490
907.984343,2738.761985,-10584.944971,2757.943793
907.984667,2220.617826,-10436.903782,1302.362347
907.984991,1554.432478,-7994.224174,2451.505594
907.985315,1554.432478,-9178.553681,2145.067394
907.985638,1332.370696,-11399.171507,-766.095498
907.985962,296.082377,-10584.944971,-1915.238745
907.986286,-518.144159,-9030.512492,-919.314598
907.986610,-962.267725,-11473.192101,-2298.286494
907.986934,-1184.329507,-13249.686362,-3064.381992
907.987258,-1628.453072,-10658.965565,-1072.533697
907.987582,-1332.370696,-9104.533087,0.000000
907.987906,0.000000,-12361.439231,-153.219100
907.988230,370.102971,-12065.356855,76.609550
907.988554,814.226536,-10214.842000,1991.848295
907.988878,740.205942,-10214.842000,2298.286494
907.989202,222.061783,-10807.006753,1455.581446
907.989525,370.102971,-9252.574275,1302.362347
907.989849,1332.370696,-8734.430116,2987.772442
907.990173,1998.556043,-9770.718434,612.876398
907.990497,1110.308913,-8586.388927,-2451.505594
907.990821,-1628.453072,-6883.915261,-2068.457845
907.991145,-2220.617826,-8660.409521,-2987.772442
907.991469,-1702.473667,-11251.130318,-4060.306139
907.991793,-2516.700203,-9992.780217,-1608.800546
907.992117,-2220.617826,-7624.121203,-229.828649
907.992441,-666.185348,-8660.409521,-383.047749
907.992765,0.000000,-10436.903782,-1072.533697
907.993088,296.082377,-9400.615463,1762.019645
907.993412,1406.391290,-9252.574275,2528.115143
907.993736,888.247130,-9474.636058,1149.143247
907.994060,74.020594,-8364.327145,1838.629195
907.994384,148.041188,-7550.100608,2528.115143
907.994708,1184.329507,-9104.533087,1378.971896
907.995032,296.082377,-9252.574275,-1991.848295
907.995356,-2146.597232,-6587.832884,-3064.381992
907.995680,-3256.906145,-6883.915261,-3217.601092
907.996004,-2368.659014,-11103.089130,-4060.306139
907.996328,-2368.659014,-10955.047942,-4136.915689
907.996652,-2368.659014,-8956.491898,-1225.752797
907.996975,-1184.329507,-10214.842000,-459.657299
907.997299,0.000000,-13249.686362,-1302.362347
907.997623,592.164754,-12065.356855,-306.438199
907.997947,1850.514855,-9622.677246,1762.019645
907.998271,3182.885551,-10955.047942,2145.067394
907.998595,3256.906145,-11843.295072,1225.752797
907.998919,2368.659014,-9622.677246,2834.553343
907.999243,2812.782580,-9474.636058,3140.991542
907.999567,2738.761985,-9770.718434,-612.876398
907.999891,148.041188,-9548.656652,-2681.334243
908.000215,-2294.638420,-9844.739029,-2068.457845
908.000539,-592.164754,-10510.924376,-3600.648841
908.000862,-222.061783,-11325.150913,-3830.477490
908.001186,-2294.638420,-9622.677246,-612.876398
908.001510,-1036.288319,-9178.553681,-842.705048
908.001834,0.000000,-11325.150913,-1838.629195
908.002158,74.020594,-11621.233289,-1149.143247
908.002482,592.164754,-9844.739029,1685.410096
908.002806,2368.659014,-10807.006753,2528.115143
908.003130,2516.700203,-12065.356855,2681.334243
908.003454,1924.535449,-10140.821405,4060.306139
908.003778,1406.391290,-8512.368333,2911.162892
908.004102,814.226536,-9400.615463,459.657299
908.004426,0.000000,-10584.944971,-383.047749
908.004749,0.000000,-9252.574275,0.000000
908.005073,148.041188,-8142.265362,-689.485948
908.005397,-1258.350101,-9104.533087,-1532.190996
908.005721,-3108.864956,-7328.038826,-1532.190996
908.006045,-2368.659014,-6735.874072,-1608.800546
908.006369,-1554.432478,-8512.368333,-1302.362347
908.006693,-518.144159,-8956.491898,-153.219100
908.007017,888.247130,-7624.121203,1838.629195
908.007341,1850.514855,-7105.977043,2757.943793
908.007665,1702.473667,-8956.491898,2528.115143
908.007989,888.247130,-8364.327145,2604.724693
908.008312,518.144159,-8364.327145,3600.648841
908.008636,740.205942,-9770.718434,2604.724693
908.008960,1406.391290,-10066.800811,2145.067394
908.009284,962.267725,-8364.327145,1762.019645
908.009608,-518.144159,-8808.450710,383.047749
908.009932,-2368.659014,-10214.842000,-1685.410096
908.010256,-3256.906145,-10658.965565,-2221.676944
908.010580,-2960.823768,-9548.656652,-1302.362347
908.010904,-2220.617826,-10436.903782,-536.266849
908.011228,-1850.514855,-10955.047942,-536.266849
908.011552,-222.061783,-10214.842000,459.657299
908.011876,592.164754,-10140.821405,995.924147
908.012199,296.082377,-10955.047942,0.000000
908.012523,0.000000,-9844.739029,919.314598
908.012847,444.123565,-8142.265362,2145.067394
908.013171,1850.514855,-8734.430116,1378.971896
908.013495,1628.453072,-9400.615463,-153.219100
908.013819,0.000000,-8586.388927,-536.266849
908.014143,-296.082377,-8660.409521,-1149.143247
908.014467,0.000000,-10881.027347,-2681.334243
908.014791,-444.123565,-10584.944971,-2757.943793
908.015115,0.000000,-8808.450710,-1455.581446
908.015439,518.144159,-9474.636058,-1149.143247
908.015763,666.185348,-12805.562797,-1991.848295
908.016087,222.061783,-12435.459826,-1915.238745
908.016411,444.123565,-11177.109724,-229.828649
908.016735,370.102971,-11917.315666,-1072.533697
908.017059,148.041188,-11843.295072,-1302.362347
908.017383,296.082377,-10214.842000,612.876398
908.017707,444.123565,-10288.862594,459.657299
908.018031,-444.123565,-12065.356855,-1225.752797
908.018355,-1480.411884,-11029.068536,-2145.067394
908.018679,-1406.391290,-8882.471304,-1072.533697
908.019003,-962.267725,-9918.759623,-2221.676944
908.019327,-1258.350101,-10584.944971,-2834.553343
908.019651,-1850.514855,-8882.471304,-1302.362347
908.019975,-1332.370696,-8216.285956,-459.657299
908.020299,-666.185348,-9918.759623,-1762.019645
908.020623,0.000000,-9770.718434,-612.876398
908.020947,1480.411884,-8290.306550,766.095498
908.021271,1998.556043,-8882.471304,1532.190996
908.021595,1628.453072,-9844.739029,1149.143247
908.021919,1850.514855,-8216.285956,1991.848295
908.022243,2220.617826,-7328.038826,2451.505594
908.022567,518.144159,-8734.430116,1532.190996
908.022891,666.185348,-9474.636058,1302.362347
908.023215,592.164754,-7772.162391,1072.533697
908.023539,-444.123565,-8364.327145,383.047749
908.023863,-2368.659014,-9918.759623,-842.705048
908.024187,-3034.844362,-9030.512492,-1072.533697
908.024511,-2664.741391,-7179.997637,-766.095498
908.024835,-1924.535449,-9104.533087,-612.876398
908.025159,-1184.329507,-11029.068536,-383.047749
908.025483,518.144159,-9918.759623,1072.533697
908.025807,740.205942,-9474.636058,1455.581446
908.026131,370.102971,-10140.821405,842.705048
908.026455,444.123565,-10066.800811,842.705048
908.026779,962.267725,-9104.533087,1991.848295
908.027103,1036.288319,-9844.739029,1685.410096
908.027427,592.164754,-10362.883188,459.657299
908.027751,1036.288319,-8660.409521,689.485948
908.028075,1258.350101,-8438.347739,229.828649
908.028399,444.123565,-10362.883188,-612.876398
908.028723,-592.164754,-10214.842000,-1532.190996
908.029047,-444.123565,-8586.388927,-919.314598
908.029371,296.082377,-9178.553681,-229.828649
908.029695,1036.288319,-11029.068536,-842.705048
908.030019,1480.411884,-10288.862594,-1378.971896
908.030343,1776.494261,-9030.512492,383.047749
908.030667,1110.308913,-11325.150913,0.000000
908.030991,222.061783,-12139.377449,-689.485948
908.031315,296.082377,-9992.780217,612.876398
908.031639,148.041188,-9770.718434,1302.362347
908.031963,-370.102971,-11547.212695,306.438199
908.032287,-148.041188,-10881.027347,0.000000
908.032611,-296.082377,-9992.780217,459.657299
908.032935,-962.267725,-11473.192101,153.219100
908.033259,-2146.597232,-11621.233289,-1532.190996
908.033583,-1776.494261,-9178.553681,-689.485948
908.033907,-666.185348,-8142.265362,383.047749
908.034231,296.082377,-10584.944971,-689.485948
908.034555,0.000000,-10140.821405,-1608.800546
908.034879,1184.329507,-8586.388927,229.828649
908.035203,814.226536,-9400.615463,229.828649
908.035527,666.185348,-10807.006753,-689.485948
908.035851,814.226536,-8512.368333,-612.876398
908.036175,1036.288319,-7550.100608,842.705048
908.036499,1036.288319,-10066.800811,-153.219100
908.036823,370.102971,-10584.944971,-1762.019645
908.037147,0.000000,-7698.141797,0.000000
908.037471,-222.061783,-8216.285956,689.485948
908.037795,-1332.370696,-11103.089130,-995.924147
908.038119,-2220.617826,-8882.471304,-766.095498
908.038443,-1406.391290,-6809.894666,766.095498
908.038767,-1110.308913,-9400.615463,0.000000
908.039091,-888.247130,-11251.130318,-842.705048
908.039415,74.020594,-9030.512492,0.000000
908.039739,666.185348,-8438.347739,1149.143247
908.040063,-666.185348,-10658.965565,-612.876398
908.040387,-1850.514855,-9918.759623,-536.266849
908.040711,-1702.473667,-8068.244768,842.705048
908.041035,-814.226536,-9992.780217,-229.828649
908.041359,-148.041188,-11103.089130,-1608.800546
908.041683,0.000000,-8512.368333,-383.047749
908.042007,296.082377,-7846.182985,306.438199
908.042331,148.041188,-10955.047942,-766.095498
908.042655,0.000000,-10658.965565,-1532.190996
908.042979,0.000000,-8216.285956,919.314598
908.043303,666.185348,-8956.491898,1149.143247
908.043627,888.247130,-11473.192101,-153.219100
908.043951,1036.288319,-10140.821405,229.828649
908.044275,962.267725,-9326.594869,1225.752797
908.044599,74.020594,-11177.109724,383.047749
908.044923,-666.185348,-10658.965565,-1225.752797
908.045247,0.000000,-8882.471304,0.000000
908.045571,-296.082377,-8956.491898,612.876398
908.045895,-296.082377,-11621.233289,-689.485948
908.046219,296.082377,-11029.068536,-536.266849
908.046543,74.020594,-9474.636058,536.266849
908.046867,-592.164754,-10807.006753,0.000000
908.047191,-1480.411884,-11769.274478,0.000000
908.047515,-1184.329507,-9400.615463,536.266849
908.047839,-814.226536,-8734.430116,919.314598
908.048163,0.000000,-11177.109724,229.828649
908.048487,888.247130,-11251.130318,-459.657299
908.048811,1406.391290,-8512.368333,0.000000
908.049135,740.205942,-9030.512492,229.828649
908.049459,74.020594,-11399.171507,0.000000
908.049783,814.226536,-10066.800811,-306.438199
908.050107,740.205942,-7772.162391,536.266849
908.050431,1110.308913,-9104.533087,536.266849
908.050755,888.247130,-10436.903782,-689.485948
908.051079,1258.350101,-9400.615463,229.828649
908.051403,592.164754,-8586.388927,1225.752797
908.051727,0.000000,-10140.821405,229.828649
908.052051,-296.082377,-9252.574275,229.828649
908.052375,-518.144159,-6957.935855,1608.800546
908.052699,-1036.288319,-8290.306550,1149.143247
908.053023,-740.205942,-9104.533087,-383.047749
908.053347,-148.041188,-7920.203579,0.000000
908.053671,-222.061783,-8290.306550,612.876398
908.053995,-444.123565,-9696.697840,-383.047749
908.054319,-222.061783,-9252.574275,-383.047749
908.054643,74.020594,-7402.059420,459.657299
908.054967,-148.041188,-8808.450710,-689.485948
908.055291,0.000000,-10955.047942,-1455.581446
908.055615,0.000000,-9474.636058,0.000000
908.055939,444.123565,-9400.615463,1302.362347
908.056263,444.123565,-10140.821405,229.828649
908.056587,296.082377,-9770.718434,153.219100
908.056911,148.041188,-8586.388927,1225.752797
908.057235,148.041188,-9696.697840,1378.971896
908.057559,0.000000,-11177.109724,76.609550
908.057883,222.061783,-9696.697840,689.485948
908.058207,0.000000,-8438.347739,536.266849
908.058531,-296.082377,-9992.780217,-1302.362347
908.058855,-1036.288319,-10807.006753,-1685.410096
908.059179,-1554.432478,-9252.574275,-1072.533697
908.059503,-814.226536,-9474.636058,-1149.143247
908.059827,-1110.308913,-11843.295072,-1608.800546
908.060151,-370.102971,-11029.068536,-1762.019645
908.060475,0.000000,-9400.615463,-459.657299
908.060799,0.000000,-11325.150913,-919.314598
908.061123,-740.205942,-11991.336260,-1225.752797
908.061447,0.000000,-9844.739029,306.438199
908.061771,888.247130,-9770.718434,1838.629195
908.062095,1332.370696,-12065.356855,229.828649
908.062419,2220.617826,-10881.027347,306.438199
908.062743,2146.597232,-8438.347739,1455.581446
908.063067,888.247130,-10066.800811,0.000000
908.063391,-888.247130,-10658.965565,-2451.505594
908.063715,-1110.308913,-8216.285956,-1302.362347
908.064039,-814.226536,-8734.430116,-1225.752797
908.064363,-1406.391290,-10584.944971,-2911.162892
908.064687,-2072.576638,-9030.512492,-3064.381992
908.065011,-1776.494261,-7624.121203,-1225.752797
908.065335,-1480.411884,-9770.718434,-1532.190996
908.065659,-1332.370696,-11547.212695,-1762.019645
908.065983,-1036.288319,-9030.512492,0.000000
908.066307,296.082377,-8660.409521,1532.190996
908.066631,1776.494261,-11843.295072,919.314598
908.066955,2220.617826,-11547.212695,1225.752797
908.067279,2738.761985,-9622.677246,2528.115143
908.067603,1776.494261,-10288.862594,1685.410096
908.067927,370.102971,-11177.109724,-689.485948
908.068251,-888.247130,-8808.450710,-766.095498
908.068575,-814.226536,-8142.265362,-306.438199
908.068899,-1036.288319,-10732.986159,-1991.848295
908.069223,-1554.432478,-10955.047942,-2451.505594
908.069547,-1184.329507,-8068.244768,-536.266849
908.069871,-1036.288319,-8068.244768,-536.266849
908.070195,-1850.514855,-9992.780217,-2145.067394
908.070519,-1480.411884,-9104.533087,-689.485948
908.070843,296.082377,-8068.244768,1455.581446
908.071167,1776.494261,-9844.739029,1838.629195
908.071491,1924.535449,-10510.924376,1762.019645
908.071815,2294.638420,-8364.327145,2374.896044
908.072139,2590.720797,-8364.327145,1991.848295
908.072463,1554.432478,-10288.862594,919.314598
908.072787,0.000000,-9918.759623,0.000000
908.073111,-962.267725,-7476.080014,153.219100
908.073435,-296.082377,-8438.347739,0.000000
908.073759,-296.082377,-10436.903782,-1225.752797
908.074083,-888.247130,-9252.574275,-1378.971896
908.074407,-1628.453072,-7624.121203,-306.438199
908.074731,-1628.453072,-9992.780217,-919.314598
908.075055,-2072.576638,-10955.047942,-1378.971896
908.075379,-1110.308913,-8438.347739,612.876398
908.075703,0.000000,-8660.409521,1991.848295
908.076027,888.247130,-11399.171507,1915.238745
908.076351,2664.741391,-10510.924376,1991.848295
908.076675,2960.823768,-8290.306550,3064.381992
908.076999,2072.576638,-10140.821405,2604.724693
908.077323,592.164754,-10436.903782,229.828649
908.077647,296.082377,-7920.203579,306.438199
908.077971,0.000000,-7772.162391,0.000000
908.078295,-1184.329507,-10881.027347,-2221.676944
908.078619,-1480.411884,-10288.862594,-2451.505594
908.078943,-740.205942,-8216.285956,-995.924147
908.079267,-1184.329507,-9252.574275,-1149.143247
908.079591,-1628.453072,-10732.986159,-1915.238745
908.079915,-1332.370696,-8808.450710,76.609550
908.080239,-222.061783,-9326.594869,1149.143247
908.080563,814.226536,-12435.459826,1608.800546
908.080887,1702.473667,-12509.480420,1608.800546
908.081211,2590.720797,-9844.739029,2681.334243
908.081535,2220.617826,-9770.718434,3064.381992
908.081859,666.185348,-11029.068536,0.000000
908.082183,-296.082377,-9844.739029,-612.876398
908.082507,-1332.370696,-8586.388927,-153.219100
908.082831,-2146.597232,-10807.006753,-3294.210641
908.083155,-2590.720797,-10362.883188,-4366.744339
908.083479,-1776.494261,-8438.347739,-2987.772442
908.083803,-1406.391290,-9400.615463,-2451.505594
908.084127,-1258.350101,-11695.253884,-2834.553343
908.084451,-444.123565,-10510.924376,-1608.800546
908.084775,1110.308913,-8808.450710,842.705048
908.085099,1554.432478,-9844.739029,306.438199
908.085423,1406.391290,-10807.006753,76.609550
908.085747,1480.411884,-9548.656652,1532.190996
908.086071,1776.494261,-9326.594869,2068.457845
908.086395,962.267725,-10436.903782,383.047749
908.086719,74.020594,-9030.512492,-689.485948
908.087043,444.123565,-6513.812290,459.657299
908.087367,74.020594,-8068.244768,-1991.848295
908.087691,-370.102971,-10658.965565,-3294.210641
908.088015,-518.144159,-9252.574275,-2374.896044
908.088339,0.000000,-8216.285956,-2451.505594
908.088663,-1184.329507,-10066.800811,-2451.505594
908.088987,-2220.617826,-10140.821405,-1991.848295
908.089311,-1184.329507,-9030.512492,-306.438199
908.089635,0.000000,-10288.862594,1149.143247
908.089959,1110.308913,-11917.315666,1685.410096
908.090283,2368.659014,-10436.903782,2298.286494
908.090607,2664.741391,-8660.409521,3983.696590
908.090931,1110.308913,-10214.842000,2374.896044
908.091255,0.000000,-9696.697840,766.095498
908.091579,-296.082377,-7476.080014,995.924147
908.091903,-592.164754,-8216.285956,459.657299
908.092227,-1184.329507,-10066.800811,-2221.676944
908.092551,-1554.432478,-8882.471304,-1991.848295
908.092875,-1406.391290,-7624.121203,-995.924147
908.093199,-1554.432478,-10288.862594,-1762.019645
908.093523,-1850.514855,-11473.192101,-2145.067394
908.093847,-1776.494261,-9474.636058,-306.438199
908.094171,-296.082377,-9252.574275,1378.971896
908.094495,1332.370696,-11843.295072,919.314598
908.094819,1480.411884,-11621.233289,1302.362347
908.095143,2146.597232,-9474.636058,3753.867940
908.095467,1924.535449,-10288.862594,2987.772442
908.095791,1480.411884,-11547.212695,1762.019645
908.096115,0.000000,-9474.636058,1915.238745
908.096439,-222.061783,-8290.306550,1532.190996
908.096763,-1184.329507,-9696.697840,-1225.752797
908.097087,-2294.638420,-9770.718434,-2221.676944
908.097411,-1998.556043,-7994.224174,-1685.410096
908.097735,-2368.659014,-8586.388927,-1455.581446
908.098059,-2664.741391,-10214.842000,-2221.676944
908.098383,-2738.761985,-9178.553681,-1915.238745
908.098707,-1628.453072,-7476.080014,0.000000
908.099031,-296.082377,-9770.718434,229.828649
908.099355,1036.288319,-10510.924376,766.095498
908.099679,3034.844362,-8882.471304,3217.601092
908.100003,4663.297435,-8956.491898,3677.258390
908.100327,4145.153275,-10732.986159,2757.943793
908.100651,3552.988522,-9326.594869,2757.943793
908.100975,3034.844362,-7254.018232,2298.286494
908.101299,2146.597232,-8660.409521,76.609550
908.101623,0.000000,-10807.006753,-1762.019645
908.101947,-814.226536,-10066.800811,-1225.752797
908.102271,-518.144159,-9400.615463,-1302.362347
908.102595,-1480.411884,-10140.821405,-2604.724693
908.102919,-2738.761985,-9622.677246,-2911.162892
908.103243,-1924.535449,-8512.368333,-1149.143247
908.103567,-1480.411884,-10658.965565,383.047749
908.103891,-444.123565,-12583.501014,459.657299
908.104215,666.185348,-10140.821405,1149.143247
908.104539,1850.514855,-9178.553681,2451.505594
908.104863,1110.308913,-11029.068536,2068.457845
908.105187,1406.391290,-11547.212695,1838.629195
908.105511,2368.659014,-9178.553681,2374.896044
908.105835,888.247130,-8734.430116,689.485948
908.106159,-1036.288319,-10214.842000,-2298.286494
908.106483,-1998.556043,-9252.574275,-2757.943793
908.106807,-1184.329507,-8586.388927,-2145.067394
908.107131,-370.102971,-10362.883188,-2911.162892
908.107455,-1480.411884,-11177.109724,-3753.867940
908.107779,-1702.473667,-7920.203579,-1762.019645
908.108103,-1036.288319,-8068.244768,-536.266849
908.108427,-592.164754,-11177.109724,-536.266849
908.108751,740.205942,-10584.944971,0.000000
908.109075,1924.535449,-9104.533087,1838.629195
908.109399,814.226536,-9696.697840,1685.410096
908.109722,74.020594,-9622.677246,459.657299
908.110046,0.000000,-7772.162391,612.876398
908.110370,222.061783,-7624.121203,1225.752797
908.110694,-740.205942,-10214.842000,-1378.971896
908.111018,-1924.535449,-9548.656652,-2604.724693
908.111342,-1776.494261,-7772.162391,-2068.457845
908.111666,-1702.473667,-9474.636058,-2757.943793
908.111990,-2368.659014,-11399.171507,-3370.820191
908.112314,-2664.741391,-9474.636058,-2374.896044
908.112638,-1332.370696,-9400.615463,-383.047749
908.112962,0.000000,-11991.336260,-995.924147
908.113286,1258.350101,-11843.295072,76.609550
908.113610,2738.761985,-9918.759623,2068.457845
908.113934,2516.700203,-10658.965565,2757.943793
908.114258,1554.432478,-11991.336260,1608.800546
908.114582,1258.350101,-9992.780217,1532.190996
908.114907,592.164754,-8216.285956,2528.115143
908.115231,592.164754,-9252.574275,76.609550
908.115555,-518.144159,-9400.615463,-2604.724693
908.115879,-1924.535449,-8068.244768,-1608.800546
908.116203,-1332.370696,-8882.471304,-2374.896044
908.116527,-1258.350101,-10658.965565,-3447.429741
908.116851,-1924.535449,-9770.718434,-2221.676944
908.117175,-444.123565,-8290.306550,-306.438199
908.117499,592.164754,-10510.924376,-383.047749
908.117823,888.247130,-12361.439231,0.000000
908.118148,2146.597232,-10732.986159,1991.848295
908.118472,3256.906145,-10362.883188,3217.601092
908.118796,2886.803174,-12139.377449,2681.334243
908.119120,2220.617826,-10955.047942,2528.115143
908.119444,2220.617826,-8216.285956,3753.867940
908.119768,1110.308913,-8734.430116,1762.019645
908.120092,-1258.350101,-9844.739029,-459.657299
908.120416,-2368.659014,-8068.244768,-1455.581446
908.120740,-1924.535449,-6957.935855,-1532.190996
908.121064,-2146.597232,-8882.471304,-2834.553343
908.121388,-3330.926739,-9178.553681,-3064.381992
908.121713,-1998.556043,-7179.997637,-1072.533697
908.122037,-740.205942,-8068.244768,-383.047749
908.122361,74.020594,-10510.924376,-306.438199
908.122685,1776.494261,-9104.533087,1072.533697
908.123009,3552.988522,-7920.203579,2681.334243
908.123333,3552.988522,-10214.842000,3140.991542
908.123657,2516.700203,-10881.027347,2681.334243
908.123981,2146.597232,-8956.491898,3370.820191
908.124305,1702.473667,-8438.347739,3830.477490
908.124629,888.247130,-10510.924376,689.485948
908.124954,-592.164754,-9030.512492,-1072.533697
908.125278,-1776.494261,-7179.997637,-995.924147
908.125602,-2812.782580,-8956.491898,-2604.724693
908.125926,-3182.885551,-10362.883188,-4673.182538
908.126250,-3552.988522,-9030.512492,-2604.724693
908.126574,-2442.679609,-8438.347739,-919.314598
908.126898,-1702.473667,-11177.109724,-1532.190996
908.127222,-444.123565,-11177.109724,-1225.752797
908.127546,1406.391290,-9178.553681,1302.362347
908.127870,2368.659014,-10584.944971,1762.019645
908.128194,1776.494261,-13027.624579,766.095498
908.128519,1480.411884,-10658.965565,1608.800546
908.128843,2516.700203,-9104.533087,2987.772442
908.129167,2368.659014,-11251.130318,1455.581446
908.129491,666.185348,-11473.192101,-1149.143247
908.129815,-370.102971,-8142.265362,-1532.190996
908.130139,-740.205942,-8142.265362,-1838.629195
908.130463,-1702.473667,-10732.986159,-4290.134789
908.130787,-2294.638420,-9770.718434,-4749.792088
908.131111,-1924.535449,-7476.080014,-2374.896044
908.131435,-666.185348,-10066.800811,-1991.848295
908.131760,-222.061783,-12287.418637,-2757.943793
908.132084,-296.082377,-10362.883188,-612.876398
908.132408,0.000000,-9548.656652,842.705048
908.132732,518.144159,-11917.315666,0.000000
908.133056,740.205942,-11843.295072,229.828649
908.133380,888.247130,-9178.553681,1838.629195
908.133704,666.185348,-9770.718434,2221.676944
908.134028,0.000000,-11843.295072,0.000000
908.134352,-666.185348,-9474.636058,-229.828649
908.134676,-962.267725,-7698.141797,689.485948
908.135000,-2146.597232,-9252.574275,-1915.238745
908.135325,-3108.864956,-9548.656652,-3064.381992
908.135649,-2590.720797,-7698.141797,-1608.800546
908.135973,-1554.432478,-8438.347739,-689.485948
908.136297,-666.185348,-10955.047942,-1532.190996
908.136621,0.000000,-9474.636058,-842.705048
908.136945,1036.288319,-7920.203579,919.314598
908.137269,1258.350101,-9844.739029,995.924147
908.137593,1036.288319,-10362.883188,1072.533697
908.137917,1776.494261,-8586.388927,2834.553343
908.138241,1406.391290,-8512.368333,2987.772442
908.138566,1110.308913,-10140.821405,1685.410096
908.138890,740.205942,-8808.450710,766.095498
908.139214,1036.288319,-7624.121203,2145.067394
908.139538,1184.329507,-10288.862594,689.485948
908.139862,0.000000,-11029.068536,-995.924147
908.140186,-1184.329507,-8364.327145,0.000000
908.140510,-1036.288319,-7920.203579,-153.219100
908.140834,-888.247130,-10955.047942,-1302.362347
908.141158,-222.061783,-11621.233289,-995.924147
908.141482,1036.288319,-10066.800811,689.485948
908.141806,1406.391290,-10510.924376,689.485948
908.142131,1036.288319,-11103.089130,0.000000
908.142455,370.102971,-9104.533087,919.314598
908.142779,1110.308913,-9178.553681,2451.505594
908.143103,1110.308913,-11695.253884,1378.971896
908.143427,296.082377,-11473.192101,842.705048
908.143751,74.020594,-8438.347739,1532.190996
908.144075,-222.061783,-8364.327145,383.047749
908.144399,-1480.411884,-10362.883188,-1608.800546
908.144723,-1850.514855,-9326.594869,-1838.629195
908.145047,-740.205942,-7476.080014,-459.657299
908.145372,0.000000,-9326.594869,-383.047749
908.145696,0.000000,-10658.965565,-1302.362347
908.146020,962.267725,-8290.306550,153.219100
908.146344,1628.453072,-8364.327145,919.314598
908.146668,444.123565,-11547.212695,229.828649
908.146992,0.000000,-10658.965565,229.828649
908.147316,148.041188,-7920.203579,1991.848295
908.147640,0.000000,-9104.533087,2374.896044
908.147964,-148.041188,-10584.944971,-229.828649
908.148288,-518.144159,-8364.327145,459.657299
908.148612,-518.144159,-8142.265362,1378.971896
908.148937,-1554.432478,-10510.924376,-766.095498
908.149261,-2442.679609,-9474.636058,-1608.800546
908.149585,-2664.741391,-6883.915261,-459.657299
908.149909,-1036.288319,-8734.430116,-229.828649
908.150233,0.000000,-11769.274478,-1685.410096
908.150557,1110.308913,-10584.944971,-766.095498
908.150881,1554.432478,-8586.388927,536.266849
908.151205,814.226536,-10436.903782,-383.047749
908.151529,222.061783,-11325.150913,-995.924147
908.151853,1110.308913,-9030.512492,536.266849
908.152177,1332.370696,-8882.471304,689.485948
908.152502,962.267725,-11473.192101,76.609550
908.152826,444.123565,-11103.089130,-766.095498
908.153150,444.123565,-9474.636058,229.828649
908.153474,-592.164754,-10214.842000,-1225.752797
908.153798,-2516.700203,-11325.150913,-2451.505594
908.154122,-2738.761985,-9622.677246,-1532.190996
908.154446,-1850.514855,-9622.677246,-1991.848295
908.154770,-1628.453072,-11621.233289,-2068.457845
908.155094,-1036.288319,-10658.965565,-1838.629195
908.155418,518.144159,-9104.533087,-229.828649
908.155743,962.267725,-10140.821405,-536.266849
908.156067,370.102971,-11473.192101,-1072.533697
908.156391,370.102971,-8956.491898,383.047749
908.156715,1110.308913,-8808.450710,689.485948
908.157039,1184.329507,-10658.965565,76.609550
908.157363,740.205942,-10288.862594,-536.266849
908.157687,592.164754,-7550.100608,536.266849
908.158011,518.144159,-8734.430116,-229.828649
908.158335,-888.247130,-10807.006753,-1149.143247
908.158659,-1702.473667,-8586.388927,-612.876398
908.158983,-740.205942,-6661.853478,-459.657299
908.159308,-1036.288319,-9104.533087,-766.095498
908.159632,-1110.308913,-9622.677246,-1378.971896
908.159956,444.123565,-8142.265362,0.000000
908.160280,370.102971,-8956.491898,766.095498
908.160604,0.000000,-11103.089130,153.219100
908.160928,0.000000,-9474.636058,0.000000
908.161252,1480.411884,-8216.285956,1685.410096
908.161576,1110.308913,-10362.883188,1685.410096
908.161900,518.144159,-11843.295072,0.000000
908.162224,740.205942,-9770.718434,842.705048
908.162549,222.061783,-9400.615463,1302.362347
908.162873,-666.185348,-11547.212695,0.000000
908.163197,-1554.432478,-11399.171507,-229.828649
908.163521,-1332.370696,-8808.450710,306.438199
908.163845,-814.226536,-9252.574275,306.438199
908.164169,-296.082377,-11325.150913,-306.438199
908.164493,74.020594,-10066.800811,0.000000
908.164817,666.185348,-8290.306550,766.095498
908.165141,148.041188,-9844.739029,0.000000
908.165465,0.000000,-10436.903782,76.609550
908.165789,740.205942,-9252.574275,1149.143247
908.166114,1036.288319,-9104.533087,1532.190996
908.166438,888.247130,-10436.903782,612.876398
908.166762,1110.308913,-9400.615463,536.266849
908.167086,1480.411884,-8290.306550,612.876398
908.167410,444.123565,-9622.677246,306.438199
908.167734,-1184.329507,-9992.780217,-612.876398
908.168058,-962.267725,-8512.368333,0.000000
908.168382,-370.102971,-8216.285956,306.438199
908.168706,74.020594,-10658.965565,766.095498
908.169030,370.102971,-10140.821405,229.828649
908.169355,1184.329507,-7772.162391,919.314598
908.169679,518.144159,-9252.574275,0.000000
908.170003,-888.247130,-10584.944971,-383.047749
908.170327,-666.185348,-9252.574275,0.000000
908.170651,370.102971,-8290.306550,153.219100
908.170975,0.000000,-9844.739029,-459.657299
908.171299,0.000000,-10066.800811,0.000000
908.171623,-222.061783,-8586.388927,689.485948
908.171947,0.000000,-9622.677246,842.705048
908.172271,-1184.329507,-11029.068536,-383.047749
908.172595,-1332.370696,-9474.636058,-153.219100
908.172920,-888.247130,-7846.182985,612.876398
908.173244,222.061783,-9844.739029,306.438199
908.173568,1258.350101,-10881.027347,-306.438199
908.173892,1554.432478,-9178.553681,0.000000
908.174216,518.144159,-9252.574275,0.000000
908.174540,-1258.350101,-10140.821405,-1149.143247
908.174864,-592.164754,-9918.759623,-1302.362347
908.175188,222.061783,-8364.327145,-612.876398
908.175512,0.000000,-10066.800811,-1302.362347
908.175836,-666.185348,-10955.047942,-1685.410096
908.176161,222.061783,-9474.636058,-1225.752797
908.176485,370.102971,-9474.636058,-919.314598
908.176809,-296.082377,-11325.150913,-919.314598
908.177133,-592.164754,-10807.006753,-1149.143247
908.177457,74.020594,-9326.594869,-383.047749
908.177781,814.226536,-10584.944971,76.609550
908.178105,814.226536,-12065.356855,-383.047749
908.178429,666.185348,-10140.821405,-536.266849
908.178753,0.000000,-8660.409521,-689.485948
908.179077,-148.041188,-10955.047942,-1149.143247
908.179401,-296.082377,-11029.068536,-1455.581446
908.179726,0.000000,-9030.512492,-1072.533697
908.180050,-1258.350101,-9030.512492,-1149.143247
908.180374,-1998.556043,-10510.924376,-2604.724693
908.180698,-1184.329507,-9474.636058,-1685.410096
908.181022,-222.061783,-8660.409521,-383.047749
908.181346,-740.205942,-10288.862594,-995.924147
908.181670,-888.247130,-10510.924376,-842.705048
908.181994,-592.164754,-8438.347739,306.438199
908.182318,74.020594,-9326.594869,1225.752797
908.182642,740.205942,-11399.171507,459.657299
908.182967,1406.391290,-10288.862594,919.314598
908.183291,2294.638420,-8586.388927,1762.019645
908.183615,888.247130,-10066.800811,1072.533697
908.183939,-222.061783,-10436.903782,0.000000
908.184263,-592.164754,-8142.265362,1072.533697
908.184587,-518.144159,-7624.121203,76.609550
908.184911,-1332.370696,-9992.780217,-1378.971896
908.185235,-1702.473667,-9992.780217,-1072.533697
908.185559,-888.247130,-8216.285956,153.219100
908.185883,-592.164754,-9104.533087,-459.657299
908.186207,-1184.329507,-10066.800811,0.000000
908.186532,-444.123565,-8882.471304,919.314598
908.186856,518.144159,-8956.491898,1685.410096
908.187180,814.226536,-10955.047942,2068.457845
908.187504,1702.473667,-11103.089130,2145.067394
908.187828,2442.679609,-9252.574275,2834.553343
908.188152,1924.535449,-9326.594869,2451.505594
908.188476,518.144159,-10732.986159,1149.143247
908.188800,148.041188,-9252.574275,995.924147
908.189124,814.226536,-8142.265362,1378.971896
908.189448,0.000000,-9770.718434,229.828649
908.189773,-592.164754,-9992.780217,-459.657299
908.190097,-296.082377,-7550.100608,-383.047749
908.190421,-962.267725,-7994.224174,-383.047749
908.190745,-2146.597232,-10362.883188,-306.438199
908.191069,-1924.535449,-9252.574275,536.266849
908.191393,0.000000,-7624.121203,2298.286494
908.191717,740.205942,-9030.512492,2451.505594
908.192041,1332.370696,-10436.903782,1685.410096
908.192365,1776.494261,-8808.450710,2068.457845
908.192689,1628.453072,-9030.512492,2528.115143
908.193013,148.041188,-10658.965565,1072.533697
908.193338,-666.185348,-10066.800811,383.047749
908.193662,-962.267725,-7772.162391,306.438199
908.193986,-1258.350101,-8956.491898,-306.438199
908.194310,-1554.432478,-11473.192101,-1532.190996
908.194634,-962.267725,-10362.883188,-1532.190996
908.194958,-370.102971,-8956.491898,-689.485948
908.195282,-1258.350101,-10066.800811,-459.657299
908.195606,-1184.329507,-10658.965565,-612.876398
908.195930,-592.164754,-8956.491898,-306.438199
908.196254,0.000000,-9474.636058,689.485948
908.196579,0.000000,-11843.295072,536.266849
908.196903,1332.370696,-10881.027347,995.924147
908.197227,2072.576638,-9326.594869,2221.676944
908.197551,1554.432478,-10214.842000,1608.800546
908.197875,592.164754,-10510.924376,-919.314598
908.198199,740.205942,-8068.244768,-306.438199
908.198523,0.000000,-8660.409521,-1378.971896
908.198847,-888.247130,-10362.883188,-3217.601092
908.199171,-1480.411884,-9992.780217,-3600.648841
908.199495,-888.247130,-8734.430116,-2604.724693
908.199819,-592.164754,-10658.965565,-2834.553343
908.200144,-888.247130,-11917.315666,-3064.381992
908.200468,-518.144159,-9918.759623,-1532.190996
908.200792,444.123565,-9030.512492,-153.219100
908.201116,370.102971,-11547.212695,153.219100
908.201440,1702.473667,-11621.233289,0.000000
908.201764,3034.844362,-9770.718434,1302.362347
908.202088,2664.741391,-10140.821405,1225.752797
908.202412,1036.288319,-11251.130318,-536.266849
908.202736,518.144159,-9030.512492,-1072.533697
908.203060,-296.082377,-7550.100608,-383.047749
908.203385,-1332.370696,-9548.656652,-2681.334243
908.203709,-2664.741391,-9844.739029,-3830.477490
908.204033,-2146.597232,-8586.388927,-2987.772442
908.204357,-2072.576638,-9030.512492,-2681.334243
908.204681,-2220.617826,-10658.965565,-2528.115143
908.205005,-1258.350101,-8882.471304,-1532.190996
908.205329,592.164754,-7179.997637,536.266849
908.205653,1332.370696,-9548.656652,1302.362347
908.205977,2442.679609,-11399.171507,1838.629195
908.206301,3404.947333,-8734.430116,2528.115143
908.206625,3330.926739,-8586.388927,2987.772442
908.206950,2072.576638,-9992.780217,1915.238745
908.207274,740.205942,-8660.409521,1225.752797
908.207598,74.020594,-7105.977043,1302.362347
908.207922,-1850.514855,-8142.265362,-689.485948
908.208246,-3478.967927,-9918.759623,-2451.505594
908.208570,-2812.782580,-8586.388927,-2221.676944
908.208894,-2664.741391,-7994.224174,-1762.019645
908.209218,-3404.947333,-10288.862594,-1608.800546
908.209542,-2960.823768,-10436.903782,-1532.190996
908.209866,-1554.432478,-8586.388927,0.000000
908.210191,148.041188,-9696.697840,1302.362347
908.210515,1406.391290,-11843.295072,153.219100
908.210839,3404.947333,-11621.233289,2374.896044
908.211163,4515.256246,-10658.965565,3983.696590
908.211487,3108.864956,-11843.295072,3140.991542
908.211811,1702.473667,-12139.377449,1685.410096
908.212135,888.247130,-9918.759623,1685.410096
908.212459,518.144159,-9770.718434,536.266849
908.212783,-814.226536,-11547.212695,-1378.971896
908.213107,-2146.597232,-9844.739029,-2068.457845
908.213431,-2146.597232,-8586.388927,-1225.752797
908.213756,-2146.597232,-10510.924376,-1532.190996
908.214080,-2220.617826,-11547.212695,-1915.238745
908.214404,-1480.411884,-8512.368333,-536.266849
908.214728,-666.185348,-7698.141797,536.266849
908.215052,740.205942,-10214.842000,1149.143247
908.215376,2590.720797,-10732.986159,2528.115143
908.215700,4589.276840,-8808.450710,4366.744339
908.216025,3627.009116,-9326.594869,4060.306139
908.216349,2072.576638,-10066.800811,2757.943793
908.216673,1406.391290,-8438.347739,2145.067394
908.216997,1258.350101,-7698.141797,1991.848295
908.217322,0.000000,-8660.409521,-229.828649
908.217646,-1776.494261,-8586.388927,-1378.971896
908.217970,-2664.741391,-7105.977043,-1608.800546
908.218294,-2368.659014,-7476.080014,-1838.629195
908.218619,-3108.864956,-9252.574275,-1838.629195
908.218943,-2738.761985,-8586.388927,-1378.971896
908.219267,-2220.617826,-7698.141797,0.000000
908.219591,-518.144159,-9178.553681,842.705048
908.219916,1332.370696,-10436.903782,1685.410096
908.220240,3182.885551,-8956.491898,2681.334243
908.220564,3330.926739,-9104.533087,3064.381992
908.220888,1332.370696,-10510.924376,2451.505594
908.221213,888.247130,-10066.800811,1685.410096
908.221537,888.247130,-8216.285956,2068.457845
908.221861,0.000000,-8290.306550,-459.657299
908.222185,-1628.453072,-9178.553681,-3140.991542
908.222510,-1998.556043,-8438.347739,-3370.820191
908.222834,-2072.576638,-8734.430116,-3677.258390
908.223158,-2368.659014,-10658.965565,-3830.477490
908.223482,-3108.864956,-9844.739029,-3524.039291
908.223807,-2516.700203,-7994.224174,-2145.067394
908.224131,-1406.391290,-9918.759623,-1455.581446
908.224455,0.000000,-12435.459826,-766.095498
908.224779,2590.720797,-11843.295072,1072.533697
908.225103,4219.173869,-10510.924376,1762.019645
908.225428,3256.906145,-11621.233289,1225.752797
908.225752,2442.679609,-12065.356855,1149.143247
908.226076,2442.679609,-10584.944971,1532.190996
908.226400,1480.411884,-10807.006753,459.657299
908.226725,-370.102971,-11843.295072,-2528.115143
908.227049,-2368.659014,-10436.903782,-4060.306139
908.227373,-2664.741391,-9030.512492,-3600.648841
908.227697,-2516.700203,-10955.047942,-4596.572988
908.228022,-2664.741391,-11917.315666,-3524.039291
908.228346,-2812.782580,-10066.800811,-2528.115143
908.228670,-2516.700203,-9104.533087,-2145.067394
908.228994,-1998.556043,-10955.047942,-1532.190996
908.229319,222.061783,-10955.047942,0.000000
908.229643,2590.720797,-9474.636058,1762.019645
908.229967,3552.988522,-10584.944971,2298.286494
908.230291,3478.967927,-10807.006753,2757.943793
908.230616,3256.906145,-9548.656652,3447.429741
908.230940,2368.659014,-9622.677246,3140.991542
908.231264,1036.288319,-10288.862594,1225.752797
908.231588,-666.185348,-8216.285956,-1915.238745
908.231913,-1258.350101,-5995.668130,-1608.800546
908.232237,-2294.638420,-7624.121203,-1685.410096
908.232561,-2146.597232,-9844.739029,-3830.477490
908.232885,-2590.720797,-7920.203579,-2298.286494
908.233210,-2220.617826,-6883.915261,-459.657299
908.233534,-666.185348,-9474.636058,-383.047749
908.233858,296.082377,-10510.924376,-306.438199
908.234182,1628.453072,-8068.244768,1915.238745
908.234507,2664.741391,-7476.080014,3140.991542
908.234831,2738.761985,-11103.089130,2145.067394
908.235155,1924.535449,-10658.965565,2834.553343
908.235479,2368.659014,-7698.141797,4290.134789
908.235804,1776.494261,-8660.409521,2911.162892
908.236128,0.000000,-9844.739029,-153.219100
908.236452,-1702.473667,-8734.430116,0.000000
908.236776,-2294.638420,-7994.224174,-1455.581446
908.237100,-2442.679609,-9918.759623,-2911.162892
908.237425,-3552.988522,-9474.636058,-2374.896044
908.237749,-2220.617826,-7328.038826,-1608.800546
908.238073,-296.082377,-9326.594869,-459.657299
908.238397,370.102971,-11621.233289,-383.047749
908.238722,1480.411884,-9844.739029,459.657299
908.239046,2294.638420,-8290.306550,1991.848295
908.239370,2368.659014,-10881.027347,1685.410096
908.239694,1480.411884,-10881.027347,1991.848295
908.240019,1924.535449,-9770.718434,2604.724693
908.240343,1776.494261,-9474.636058,2757.943793
908.240667,148.041188,-11251.130318,612.876398
908.240991,-1110.308913,-10214.842000,-383.047749
908.241316,-1924.535449,-9030.512492,-229.828649
908.241640,-2368.659014,-10732.986159,-919.314598
908.241964,-2886.803174,-11991.336260,-2298.286494
908.242288,-2738.761985,-9770.718434,-1608.800546
908.242613,-1924.535449,-9030.512492,-689.485948
908.242937,-1554.432478,-11547.212695,-689.485948
908.243261,-74.020594,-11843.295072,-383.047749
908.243585,1332.370696,-9918.759623,1225.752797
908.243910,1776.494261,-10955.047942,1915.238745
908.244234,1924.535449,-11843.295072,1762.019645
908.244558,1924.535449,-9770.718434,2298.286494
908.244882,2516.700203,-9178.553681,2451.505594
908.245207,1110.308913,-10658.965565,1225.752797
908.245531,0.000000,-10214.842000,0.000000
908.245855,-444.123565,-8142.265362,-153.219100
908.246179,-1036.288319,-8068.244768,-1838.629195
908.246504,-2146.597232,-9178.553681,-2757.943793
908.246828,-1850.514855,-8142.265362,-1991.848295
908.247152,-444.123565,-7254.018232,-689.485948
908.247476,0.000000,-9178.553681,-229.828649
908.247801,0.000000,-9696.697840,-919.314598
908.248125,962.267725,-7994.224174,383.047749
908.248449,1850.514855,-8956.491898,1149.143247
908.248773,1924.535449,-11399.171507,689.485948
908.249098,1776.494261,-10288.862594,1225.752797
908.249422,1998.556043,-8586.388927,2604.724693
908.249746,1850.514855,-9252.574275,1455.581446
908.250070,1480.411884,-10214.842000,-842.705048
908.250394,0.000000,-8956.491898,-766.095498
908.250719,-1850.514855,-8364.327145,-1762.019645
908.251043,-3627.009116,-10066.800811,-3447.429741
908.251367,-4071.132681,-9252.574275,-3294.210641
908.251691,-3849.070898,-7476.080014,-2221.676944
908.252016,-3182.885551,-9400.615463,-1608.800546
908.252340,-2220.617826,-11621.233289,-2221.676944
908.252664,-296.082377,-9844.739029,-1149.143247
908.252988,1110.308913,-9474.636058,689.485948
908.253313,962.267725,-11695.253884,459.657299
908.253637,1110.308913,-11917.315666,459.657299
908.253961,1924.535449,-9770.718434,1991.848295
908.254285,2664.741391,-9844.739029,1762.019645
908.254610,2368.659014,-11103.089130,306.438199
908.254934,1480.411884,-10362.883188,-459.657299
908.255258,592.164754,-9696.697840,-306.438199
908.255582,-370.102971,-11029.068536,-1302.362347
908.255907,-1776.494261,-11399.171507,-2068.457845
908.256231,-1406.391290,-9030.512492,-1378.971896
908.256555,-1480.411884,-8216.285956,-1072.533697
908.256879,-1036.288319,-10658.965565,-995.924147
908.257204,592.164754,-11251.130318,-229.828649
908.257528,1332.370696,-8882.471304,766.095498
908.257852,370.102971,-9326.594869,1225.752797
908.258176,0.000000,-10288.862594,612.876398
908.258501,1036.288319,-9178.553681,1838.629195
908.258825,1258.350101,-8660.409521,2528.115143
908.259149,444.123565,-10362.883188,1838.629195
908.259473,-222.061783,-9992.780217,689.485948
908.259798,-444.123565,-8216.285956,612.876398
908.260122,-1036.288319,-9548.656652,306.438199
908.260446,-1850.514855,-10955.047942,-612.876398
908.260770,-1554.432478,-8808.450710,-536.266849
908.261095,-814.226536,-7402.059420,-766.095498
908.261419,-222.061783,-9474.636058,306.438199
908.261743,518.144159,-9992.780217,0.000000
908.262067,1554.432478,-8586.388927,919.314598
908.262391,2146.597232,-9104.533087,1762.019645
908.262716,1184.329507,-10436.903782,995.924147
908.263040,666.185348,-9326.594869,1532.190996
908.263364,370.102971,-7846.182985,2374.896044
908.263688,-148.041188,-9252.574275,1838.629195
908.264013,-1110.308913,-9400.615463,689.485948
908.264337,-1332.370696,-7920.203579,689.485948
908.264661,-1850.514855,-8364.327145,306.438199
908.264985,-2146.597232,-9696.697840,-229.828649
908.265310,-1628.453072,-9030.512492,-612.876398
908.265634,-1184.329507,-7402.059420,-536.266849
908.265958,-1184.329507,-8808.450710,-919.314598
908.266282,-370.102971,-10807.006753,-1225.752797
908.266607,1480.411884,-10214.842000,-459.657299
908.266931,2072.576638,-9474.636058,612.876398
908.267255,962.267725,-11325.150913,0.000000
908.267579,962.267725,-11547.212695,-306.438199
908.267904,1702.473667,-9992.780217,536.266849
908.268228,1702.473667,-10584.944971,0.000000
908.268552,592.164754,-12213.398043,-766.095498
908.268876,74.020594,-10584.944971,-383.047749
908.269201,74.020594,-9474.636058,0.000000
908.269525,-1480.411884,-10584.944971,-995.924147
908.269849,-1924.535449,-10881.027347,-1838.629195
908.270173,-1110.308913,-8956.491898,-1302.362347
908.270498,-296.082377,-9104.533087,-766.095498
908.270822,592.164754,-10881.027347,-306.438199
908.271146,2072.576638,-10510.924376,-153.219100
908.271470,1924.535449,-8882.471304,-306.438199
908.271795,518.144159,-9918.759623,-536.266849
908.272119,-518.144159,-11103.089130,-1378.971896
908.272443,-222.061783,-9548.656652,-919.314598
908.272767,0.000000,-9104.533087,229.828649
908.273092,518.144159,-10362.883188,153.219100
908.273416,1184.329507,-10214.842000,-153.219100
908.273740,1406.391290,-8438.347739,229.828649
908.274064,-296.082377,-8512.368333,0.000000
908.274389,-1924.535449,-9622.677246,-995.924147
908.274713,-2072.576638,-8364.327145,-459.657299
908.275037,-1036.288319,-7994.224174,306.438199
908.275361,-888.247130,-9696.697840,306.438199
908.275685,-148.041188,-9770.718434,-536.266849
908.276010,0.000000,-8364.327145,-306.438199
908.276334,-1924.535449,-7846.182985,-229.828649
908.276658,-2146.597232,-10881.027347,-1302.362347
908.276982,-1554.432478,-9918.759623,-612.876398
908.277307,-666.185348,-8142.265362,383.047749
908.277631,-518.144159,-9696.697840,0.000000
908.277955,-296.082377,-11029.068536,-459.657299
908.278279,0.000000,-9474.636058,536.266849
908.278604,666.185348,-9696.697840,1302.362347
908.278928,-444.123565,-10955.047942,612.876398
908.279252,-1110.308913,-9770.718434,-229.828649
908.279576,-370.102971,-8438.347739,612.876398
908.279901,0.000000,-10584.944971,689.485948
908.280225,888.247130,-12213.398043,153.219100
908.280549,1776.494261,-9474.636058,0.000000
908.280873,814.226536,-9104.533087,459.657299
908.281198,-148.041188,-11399.171507,-229.828649
908.281522,-222.061783,-11103.089130,-842.705048
908.281846,518.144159,-9030.512492,0.000000
908.282170,296.082377,-9104.533087,-306.438199
908.282495,0.000000,-10955.047942,-766.095498
908.282819,666.185348,-9844.739029,-153.219100
908.283143,1406.391290,-8438.347739,1302.362347
908.283467,962.267725,-10214.842000,1838.629195
908.283792,814.226536,-9696.697840,459.657299
908.284116,592.164754,-7698.141797,1302.362347
908.284440,0.000000,-8290.306550,1532.190996
908.284764,444.123565,-10881.027347,919.314598
908.285089,666.185348,-10140.821405,76.609550
908.285413,740.205942,-8364.327145,459.657299
908.285737,74.020594,-9252.574275,-153.219100
908.286061,0.000000,-9770.718434,-689.485948
908.286386,0.000000,-8290.306550,0.000000
908.286710,0.000000,-8364.327145,76.609550
908.287034,-222.061783,-10584.944971,-229.828649
908.287358,222.061783,-10140.821405,-689.485948
908.287682,740.205942,-8068.244768,-153.219100
908.288007,148.041188,-8956.491898,766.095498
908.288331,0.000000,-11029.068536,459.657299
908.288655,296.082377,-9992.780217,995.924147
908.288979,0.000000,-8512.368333,2068.457845
908.289304,-296.082377,-10066.800811,1378.971896
908.289628,74.020594,-10214.842000,0.000000
908.289952,148.041188,-8364.327145,383.047749
908.290276,-592.164754,-9178.553681,306.438199
908.290601,-1628.453072,-10066.800811,-1225.752797
908.290925,-1554.432478,-9104.533087,-919.314598
908.291249,-1184.329507,-7772.162391,-1072.533697
908.291573,-518.144159,-10066.800811,-919.314598
908.291898,0.000000,-11547.212695,-1685.410096
908.292222,888.247130,-9992.780217,-766.095498
908.292546,740.205942,-9622.677246,0.000000
908.292870,740.205942,-11473.192101,-306.438199
908.293195,444.123565,-11103.089130,536.266849
908.293519,814.226536,-9400.615463,1762.019645
908.293843,962.267725,-10658.965565,1302.362347
908.294167,1110.308913,-11547.212695,229.828649
908.294492,814.226536,-9622.677246,536.266849
908.294816,0.000000,-8882.471304,76.609550
908.295140,-1332.370696,-9844.739029,-1685.410096
908.295464,-2516.700203,-9252.574275,-2298.286494
908.295789,-2368.659014,-7994.224174,-1991.848295
908.296113,-1998.556043,-9104.533087,-2374.896044
908.296437,-1554.432478,-10436.903782,-2298.286494
908.296761,-740.205942,-9252.574275,-1838.629195
908.297086,-370.102971,-8438.347739,-842.705048
908.297410,-444.123565,-10066.800811,-766.095498
908.297734,-370.102971,-10955.047942,-842.705048
908.298058,1406.391290,-9696.697840,1378.971896
908.298383,1850.514855,-9178.553681,1532.190996
908.298707,1776.494261,-11177.109724,1685.410096
908.299031,1776.494261,-11251.130318,1225.752797
908.299355,1776.494261,-9622.677246,1072.533697
908.299680,0.000000,-9844.739029,0.000000
908.300004,-1924.535449,-9844.739029,-1455.581446
908.300328,-1924.535449,-8808.450710,-1685.410096
908.300652,-2146.597232,-8734.430116,-1685.410096
908.300976,-2368.659014,-10140.821405,-1532.190996
908.301301,-1776.494261,-9548.656652,-1838.629195
908.301625,-1184.329507,-8068.244768,-995.924147
908.301949,-1036.288319,-9326.594869,-536.266849
908.302273,-666.185348,-10658.965565,-383.047749
908.302598,740.205942,-8956.491898,1072.533697
908.302922,740.205942,-8808.450710,2145.067394
908.303246,1332.370696,-10807.006753,2298.286494
908.303570,2590.720797,-11103.089130,1378.971896
908.303895,3256.906145,-9178.553681,1838.629195
908.304219,2072.576638,-9474.636058,1072.533697
908.304543,0.000000,-10807.006753,-536.266849
908.304867,-962.267725,-9474.636058,-1072.533697
908.305192,-962.267725,-7920.203579,-766.095498
908.305516,-1258.350101,-8660.409521,-1225.752797
908.305840,-370.102971,-9918.759623,-1915.238745
908.306164,148.041188,-8438.347739,-1149.143247
908.306489,0.000000,-8956.491898,-229.828649
908.306813,-148.041188,-11103.089130,76.609550
908.307137,222.061783,-9918.759623,689.485948
908.307461,888.247130,-8438.347739,1685.410096
908.307786,518.144159,-9844.739029,1991.848295
908.308110,1480.411884,-11547.212695,2451.505594
908.308434,2590.720797,-10214.842000,2757.943793
908.308758,1998.556043,-9474.636058,2681.334243
908.309083,0.000000,-10510.924376,995.924147
908.309407,-1184.329507,-9844.739029,0.000000
908.309731,-1554.432478,-7994.224174,-689.485948
908.310055,-2368.659014,-8660.409521,-1608.800546
908.310380,-2442.679609,-9770.718434,-1838.629195
908.310704,-1702.473667,-8734.430116,-1149.143247
908.311028,-370.102971,-8068.244768,-459.657299
908.311352,-296.082377,-9252.574275,-153.219100
908.311677,0.000000,-9696.697840,229.828649
908.312001,962.267725,-8586.388927,1378.971896
908.312325,1702.473667,-9400.615463,2757.943793
908.312649,1850.514855,-10955.047942,2528.115143
908.312973,2294.638420,-9844.739029,2221.676944
908.313298,1332.370696,-8512.368333,2604.724693
908.313622,-296.082377,-9474.636058,689.485948
908.313946,-1850.514855,-9770.718434,-1378.971896
908.314270,-2442.679609,-8142.265362,-1455.581446
908.314595,-2442.679609,-7846.182985,-2528.115143
908.314919,-3034.844362,-9474.636058,-3677.258390
908.315243,-1998.556043,-9696.697840,-3140.991542
908.315567,-814.226536,-9030.512492,-2451.505594
908.315892,-1110.308913,-10362.883188,-2145.067394
908.316216,-1258.350101,-11251.130318,-2298.286494
908.316540,0.000000,-9770.718434,-995.924147
908.316864,1628.453072,-9918.759623,536.266849
908.317189,2738.761985,-12065.356855,1225.752797
908.317513,3627.009116,-12065.356855,1149.143247
908.317837,3552.988522,-10362.883188,1915.238745
908.318161,1924.535449,-10214.842000,766.095498
908.318486,-296.082377,-11029.068536,-766.095498
908.318810,-814.226536,-9548.656652,-1685.410096
908.319134,-962.267725,-8586.388927,-2298.286494
908.319458,-1850.514855,-10066.800811,-3140.991542
908.319782,-2146.597232,-10066.800811,-3677.258390
908.320107,-1184.329507,-8734.430116,-2681.334243
908.320431,-1110.308913,-9252.574275,-2681.334243
908.320755,-1480.411884,-11029.068536,-2451.505594
908.321079,-222.061783,-10584.944971,-1532.190996
908.321403,1332.370696,-9622.677246,689.485948
908.321728,2220.617826,-11399.171507,1608.800546
908.322052,3034.844362,-11843.295072,2451.505594
908.322376,3404.947333,-10658.965565,2911.162892
908.322700,2368.659014,-10140.821405,2757.943793
908.323025,592.164754,-11325.150913,1838.629195
908.323349,-296.082377,-9918.759623,689.485948
908.323673,-1924.535449,-7846.182985,-153.219100
908.323997,-3330.926739,-8438.347739,-1302.362347
908.324321,-3256.906145,-9918.759623,-2451.505594
908.324646,-2738.761985,-8290.306550,-2911.162892
908.324970,-2960.823768,-7476.080014,-2451.505594
908.325294,-3478.967927,-8586.388927,-2298.286494
908.325618,-2516.700203,-9030.512492,-1532.190996
908.325942,-296.082377,-7920.203579,459.657299
908.326267,1776.494261,-8956.491898,2681.334243
908.326591,3404.947333,-11103.089130,3447.429741
908.326915,4367.215058,-9770.718434,3677.258390
908.327239,4219.173869,-8290.306550,4443.353888
908.327563,2442.679609,-10436.903782,3907.087040
908.327888,592.164754,-10214.842000,2374.896044
908.328212,-740.205942,-7920.203579,1225.752797
908.328536,-2294.638420,-7328.038826,-153.219100
908.328860,-3108.864956,-8882.471304,-1991.848295
908.329184,-2664.741391,-9030.512492,-2834.553343
908.329509,-2146.597232,-7846.182985,-2145.067394
908.329833,-2294.638420,-9326.594869,-2145.067394
908.330157,-1924.535449,-10362.883188,-2604.724693
908.330481,-518.144159,-9104.533087,-1225.752797
908.330805,1036.288319,-9252.574275,612.876398
908.331130,2886.803174,-11399.171507,1838.629195
908.331454,5255.462188,-11547.212695,2145.067394
908.331778,5995.668130,-10807.006753,3830.477490
908.332102,4145.153275,-10881.027347,4290.134789
908.332426,2368.659014,-11547.212695,2528.115143
908.332751,1110.308913,-9474.636058,1072.533697
908.333075,74.020594,-8290.306550,153.219100
908.333399,-1480.411884,-9696.697840,-995.924147
908.333723,-2812.782580,-10510.924376,-2604.724693
908.334047,-3182.885551,-8956.491898,-2604.724693
908.334372,-3034.844362,-8734.430116,-1991.848295
908.334696,-2738.761985,-9770.718434,-2528.115143
908.335020,-2072.576638,-9622.677246,-2451.505594
908.335344,-1628.453072,-8808.450710,-229.828649
908.335668,1332.370696,-11547.212695,1072.533697
908.335993,4219.173869,-12435.459826,1991.848295
908.336317,5033.400406,-10807.006753,3064.381992
908.336641,3923.091493,-10140.821405,3294.210641
908.336965,1998.556043,-11251.130318,2528.115143
908.337289,1702.473667,-10658.965565,1302.362347
908.337614,296.082377,-8438.347739,1072.533697
908.337938,-1924.535449,-7994.224174,-919.314598
908.338262,-3701.029710,-8882.471304,-2834.553343
908.338586,-4293.194464,-7846.182985,-3370.820191
908.338910,-3997.112087,-8142.265362,-3524.039291
908.339235,-4441.235652,-9474.636058,-3524.039291
908.339559,-4071.132681,-9104.533087,-2681.334243
908.339883,-1850.514855,-7920.203579,-1378.971896
908.340207,222.061783,-9178.553681,0.000000
908.340531,2886.803174,-11547.212695,1378.971896
908.340856,5181.441594,-10658.965565,1685.410096
908.341180,4589.276840,-10288.862594,2757.943793
908.341504,2664.741391,-11399.171507,2298.286494
908.341828,2368.659014,-10732.986159,1838.629195
908.342152,2220.617826,-8882.471304,2221.676944
908.342477,0.000000,-8586.388927,-689.485948
908.342801,-2738.761985,-9030.512492,-2451.505594
908.343125,-4367.215058,-8142.265362,-3983.696590
908.343449,-4663.297435,-8142.265362,-3677.258390
908.343773,-4367.215058,-9548.656652,-3983.696590
908.344098,-4219.173869,-9918.759623,-3447.429741
908.344422,-2960.823768,-8438.347739,-1915.238745
908.344746,-962.267725,-9178.553681,-612.876398
908.345070,1554.432478,-11769.274478,0.000000
908.345394,3849.070898,-11251.130318,383.047749
908.345719,4959.379811,-10436.903782,2068.457845
908.346043,4441.235652,-11621.233289,2374.896044
908.346367,4145.153275,-11769.274478,1915.238745
908.346691,3552.988522,-9622.677246,2145.067394
908.347015,2146.597232,-8882.471304,1608.800546
908.347340,-148.041188,-10807.006753,-766.095498
908.347664,-2146.597232,-10140.821405,-2834.553343
908.347988,-2960.823768,-8438.347739,-2681.334243
908.348312,-3478.967927,-9178.553681,-2987.772442
908.348636,-3775.050304,-10807.006753,-3294.210641
908.348961,-3330.926739,-9474.636058,-2451.505594
908.349285,-2146.597232,-8364.327145,-1532.190996
908.349609,-888.247130,-10214.842000,-766.095498
908.349933,888.247130,-11177.109724,0.000000
908.350257,2516.700203,-10066.800811,1685.410096
908.350582,3552.988522,-10288.862594,2834.553343
908.350906,3256.906145,-11325.150913,2834.553343
908.351230,3108.864956,-10288.862594,2757.943793
908.351554,2516.700203,-8290.306550,2681.334243
908.351878,962.267725,-8956.491898,919.314598
908.352203,-962.267725,-9918.759623,-306.438199
908.352527,-1332.370696,-8364.327145,-842.705048
908.352851,-2738.761985,-7402.059420,-1302.362347
908.353175,-4145.153275,-8586.388927,-1838.629195
908.353499,-4589.276840,-8290.306550,-2068.457845
908.353824,-3182.885551,-6883.915261,-1225.752797
908.354148,-1110.308913,-7179.997637,0.000000
908.354472,666.185348,-9252.574275,1225.752797
908.354796,3256.906145,-9252.574275,2145.067394
908.355120,4293.194464,-8660.409521,3294.210641
908.355445,3997.112087,-10140.821405,3370.820191
908.355769,3034.844362,-9474.636058,2987.772442
908.356093,2590.720797,-8808.450710,2911.162892
908.356417,1184.329507,-9918.759623,1302.362347
908.356741,0.000000,-10436.903782,0.000000
908.357066,-740.205942,-9252.574275,0.000000
908.357390,-1850.514855,-8808.450710,-766.095498
908.357714,-3256.906145,-10658.965565,-1762.019645
908.358038,-3701.029710,-10955.047942,-1991.848295
908.358362,-2664.741391,-8882.471304,-1225.752797
908.358687,-2146.597232,-9474.636058,-459.657299
908.359011,-1036.288319,-11547.212695,-306.438199
908.359335,1258.350101,-10214.842000,689.485948
908.359659,2590.720797,-9326.594869,1378.971896
908.359983,2516.700203,-11621.233289,1991.848295
908.360308,1850.514855,-12139.377449,1532.190996
908.360632,2368.659014,-10807.006753,1608.800546
908.360956,2294.638420,-9474.636058,1149.143247
908.361280,666.185348,-10214.842000,-153.219100
908.361605,-592.164754,-10288.862594,-1991.848295
908.361929,-1480.411884,-9400.615463,-2451.505594
908.362253,-2738.761985,-9474.636058,-2451.505594
908.362577,-3627.009116,-10140.821405,-2911.162892
908.362901,-2664.741391,-8586.388927,-2451.505594
908.363226,-2368.659014,-7846.182985,-1685.410096
908.363550,-1776.494261,-9696.697840,-1225.752797
908.363874,-222.061783,-10436.903782,-766.095498
908.364198,1258.350101,-9030.512492,76.609550
908.364522,962.267725,-9178.553681,1608.800546
908.364847,888.247130,-10881.027347,995.924147
908.365171,1406.391290,-10214.842000,919.314598
908.365495,1332.370696,-8956.491898,919.314598
908.365819,370.102971,-10584.944971,306.438199
908.366143,-222.061783,-11843.295072,-1072.533697
908.366468,0.000000,-9770.718434,-1532.190996
908.366792,-1480.411884,-8438.347739,-1608.800546
908.367116,-3108.864956,-9844.739029,-2528.115143
908.367440,-3330.926739,-9252.574275,-2451.505594
908.367764,-2368.659014,-8438.347739,-1532.190996
908.368089,-2294.638420,-9400.615463,-766.095498
908.368413,-1110.308913,-10066.800811,-459.657299
908.368737,814.226536,-9104.533087,153.219100
908.369061,1480.411884,-8808.450710,1838.629195
908.369385,1480.411884,-10140.821405,1915.238745
908.369710,1998.556043,-10436.903782,2451.505594
908.370034,2072.576638,-9474.636058,2451.505594
908.370358,518.144159,-9326.594869,1838.629195
908.370682,148.041188,-8956.491898,383.047749
908.371006,444.123565,-9030.512492,76.609550
908.371331,148.041188,-9178.553681,-766.095498
908.371655,-1258.350101,-9326.594869,-1762.019645
908.371979,-1702.473667,-9178.553681,-1685.410096
908.372303,-814.226536,-7772.162391,-1455.581446
908.372627,0.000000,-8956.491898,-1302.362347
908.372952,74.020594,-10510.924376,-1072.533697
908.373276,814.226536,-9770.718434,-459.657299
908.373600,2146.597232,-9178.553681,229.828649
908.373924,2220.617826,-10881.027347,842.705048
908.374248,2072.576638,-10807.006753,1762.019645
908.374573,2442.679609,-9992.780217,2068.457845
908.374897,1258.350101,-9918.759623,1532.190996
908.375221,0.000000,-11177.109724,689.485948
908.375545,0.000000,-10584.944971,383.047749
908.375869,444.123565,-9326.594869,0.000000
908.376194,-444.123565,-9770.718434,-842.705048
908.376518,-1258.350101,-9992.780217,-1378.971896
908.376842,-1110.308913,-9030.512492,-995.924147
908.377166,-1332.370696,-8808.450710,-1608.800546
908.377490,-962.267725,-10362.883188,-1608.800546
908.377815,0.000000,-10140.821405,-1225.752797
908.378139,1184.329507,-9548.656652,-306.438199
908.378463,962.267725,-9770.718434,76.609550
908.378787,296.082377,-10658.965565,0.000000
908.379111,814.226536,-9992.780217,229.828649
908.379436,1110.308913,-8882.471304,1072.533697
908.379760,888.247130,-10288.862594,919.314598
908.380084,370.102971,-10362.883188,306.438199
908.380408,444.123565,-8586.388927,76.609550
908.380732,-444.123565,-9178.553681,0.000000
908.381057,-1850.514855,-10807.006753,-612.876398
908.381381,-1258.350101,-9548.656652,-995.924147
908.381705,-518.144159,-7994.224174,-229.828649
908.382029,-740.205942,-9548.656652,0.000000
908.382353,-1036.288319,-10955.047942,-919.314598
908.382678,-370.102971,-9548.656652,-536.266849
908.383002,-592.164754,-9400.615463,-383.047749
908.383326,-1184.329507,-10510.924376,-612.876398
908.383650,-148.041188,-9770.718434,-459.657299
908.383974,888.247130,-8734.430116,612.876398
908.384299,444.123565,-9844.739029,1072.533697
908.384623,222.061783,-10955.047942,-153.219100
908.384947,0.000000,-9918.759623,383.047749
908.385271,-814.226536,-9474.636058,306.438199
908.385595,-1850.514855,-10288.862594,0.000000
908.385920,-1702.473667,-9770.718434,0.000000
908.386244,-1110.308913,-8364.327145,0.000000
908.386568,-814.226536,-9104.533087,459.657299
908.386892,-666.185348,-10732.986159,0.000000
908.387216,370.102971,-9696.697840,0.000000
908.387541,444.123565,-8142.265362,0.000000
908.387865,-444.123565,-9104.533087,76.609550
908.388189,-222.061783,-10362.883188,76.609550
908.388513,370.102971,-9030.512492,0.000000
908.388837,296.082377,-7994.224174,536.266849
908.389162,-296.082377,-9326.594869,536.266849
908.389486,666.185348,-9548.656652,76.609550
908.389810,1480.411884,-8364.327145,536.266849
908.390134,370.102971,-8882.471304,612.876398
908.390458,-1110.308913,-9474.636058,153.219100
908.390783,-814.226536,-9474.636058,306.438199
908.391107,-740.205942,-9622.677246,306.438199
908.391431,-740.205942,-10510.924376,842.705048
908.391755,74.020594,-10066.800811,-229.828649
908.392079,444.123565,-9326.594869,-459.657299
908.392404,-666.185348,-10436.903782,0.000000
908.392728,-666.185348,-11547.212695,-612.876398
908.393052,518.144159,-10436.903782,-229.828649
908.393376,444.123565,-9548.656652,76.609550
908.393700,0.000000,-11177.109724,-229.828649
908.394025,-148.041188,-11843.295072,-383.047749
908.394349,518.144159,-10510.924376,-459.657299
908.394673,-296.082377,-10362.883188,-153.219100
908.394997,-518.144159,-11325.150913,-76.609550
908.395321,-148.041188,-10140.821405,-306.438199
908.395646,148.041188,-9104.533087,-153.219100
908.395970,0.000000,-9770.718434,0.000000
908.396294,0.000000,-10140.821405,-995.924147
908.396618,0.000000,-9326.594869,-536.266849
908.396942,0.000000,-8808.450710,-612.876398
908.397267,-222.061783,-9326.594869,-995.924147
908.397591,0.000000,-9030.512492,-612.876398
908.397915,814.226536,-8068.244768,-459.657299
908.398239,814.226536,-9400.615463,-459.657299
908.398563,1332.370696,-10362.883188,-153.219100
908.398888,1776.494261,-8882.471304,76.609550
908.399212,962.267725,-8512.368333,229.828649
908.399536,0.000000,-10140.821405,0.000000
908.399860,148.041188,-10140.821405,229.828649
908.400185,962.267725,-8808.450710,919.314598
908.400509,888.247130,-9474.636058,919.314598
908.400833,592.164754,-11029.068536,306.438199
908.401157,1406.391290,-9696.697840,76.609550
908.401481,740.205942,-8438.347739,-459.657299
908.401806,-814.226536,-9548.656652,0.000000
908.402130,-1998.556043,-9326.594869,-842.705048
908.402454,-1628.453072,-8438.347739,-766.095498
908.402778,-962.267725,-8586.388927,0.000000
908.403102,-962.267725,-9844.739029,0.000000
908.403427,-148.041188,-9474.636058,-229.828649
908.403751,0.000000,-8290.306550,306.438199
908.404075,-1480.411884,-8882.471304,-153.219100
908.404399,-1036.288319,-10362.883188,536.266849
908.404723,222.061783,-9104.533087,1149.143247
908.405048,592.164754,-9104.533087,1762.019645
908.405372,1110.308913,-9844.739029,1072.533697
908.405696,1702.473667,-9548.656652,306.438199
908.406020,1554.432478,-8882.471304,229.828649
908.406344,148.041188,-9918.759623,-153.219100
908.406669,-296.082377,-10510.924376,-919.314598
908.406993,-444.123565,-8734.430116,-1685.410096
908.407317,-888.247130,-8216.285956,-1685.410096
908.407641,-1628.453072,-10436.903782,-2068.457845
908.407965,-1258.350101,-11029.068536,-2451.505594
908.408290,-222.061783,-9844.739029,-1149.143247
908.408614,0.000000,-10436.903782,0.000000
908.408938,-1110.308913,-11325.150913,76.609550
908.409262,0.000000,-10214.842000,612.876398
908.409586,814.226536,-9474.636058,1072.533697
908.409911,962.267725,-11251.130318,1302.362347
908.410235,1406.391290,-11917.315666,689.485948
908.410559,1998.556043,-10214.842000,383.047749
908.410883,1110.308913,-9252.574275,229.828649
908.411207,0.000000,-10214.842000,-1762.019645
908.411532,-1036.288319,-9622.677246,-2221.676944
908.411856,-1554.432478,-9104.533087,-1532.190996
908.412180,-1406.391290,-10362.883188,-2068.457845
908.412504,-518.144159,-10658.965565,-1685.410096
908.412828,222.061783,-9178.553681,-1302.362347
908.413153,-296.082377,-9030.512492,-612.876398
908.413477,-814.226536,-10658.965565,0.000000
908.413801,74.020594,-11251.130318,306.438199
908.414125,1110.308913,-9252.574275,1378.971896
908.414449,1184.329507,-9326.594869,2451.505594
908.414774,1258.350101,-10362.883188,2145.067394
908.415098,1702.473667,-9918.759623,1685.410096
908.415422,148.041188,-8660.409521,1225.752797
908.415746,-814.226536,-9548.656652,689.485948
908.416070,-962.267725,-9474.636058,229.828649
908.416395,-1184.329507,-7624.121203,-842.705048
908.416719,-1702.473667,-7772.162391,-1149.143247
908.417043,-2072.576638,-9474.636058,-1532.190996
908.417367,-1406.391290,-9252.574275,-1685.410096
908.417691,-1406.391290,-8808.450710,-995.924147
908.418015,-1850.514855,-9548.656652,-536.266849
908.418339,-1258.350101,-9326.594869,76.609550
908.418663,1036.288319,-8290.306550,919.314598
908.418987,2294.638420,-9104.533087,2068.457845
908.419312,2886.803174,-10214.842000,2451.505594
908.419636,3108.864956,-9918.759623,2757.943793
908.419960,2590.720797,-8882.471304,2987.772442
908.420284,444.123565,-8956.491898,1302.362347
908.420608,-1036.288319,-9622.677246,76.609550
908.420932,-1036.288319,-8956.491898,-919.314598
908.421256,-1332.370696,-8660.409521,-1762.019645
908.421580,-2072.576638,-9030.512492,-1838.629195
908.421905,-1776.494261,-9474.636058,-1915.238745
908.422229,-1332.370696,-9252.574275,-2298.286494
908.422553,-1480.411884,-10066.800811,-1225.752797
908.422877,-1110.308913,-11029.068536,-689.485948
908.423201,222.061783,-10066.800811,-153.219100
908.423525,1554.432478,-9992.780217,1149.143247
908.423849,2516.700203,-11103.089130,1915.238745
908.424173,3330.926739,-11029.068536,1991.848295
908.424498,4145.153275,-10066.800811,2068.457845
908.424822,2738.761985,-9992.780217,1455.581446
908.425146,592.164754,-10881.027347,229.828649
908.425470,-370.102971,-9696.697840,-536.266849
908.425794,-518.144159,-9178.553681,-1455.581446
908.426118,-1110.308913,-10288.862594,-1838.629195
908.426442,-1036.288319,-10881.027347,-2068.457845
908.426766,-444.123565,-9252.574275,-1378.971896
908.427090,-592.164754,-9252.574275,-1608.800546
908.427415,-1406.391290,-10066.800811,-1532.190996
908.427739,-592.164754,-9548.656652,-995.924147
908.428063,666.185348,-8956.491898,536.266849
908.428387,740.205942,-9696.697840,995.924147
908.428711,1406.391290,-10362.883188,1838.629195
908.429035,2442.679609,-9474.636058,2374.896044
908.429359,2072.576638,-9474.636058,2298.286494
908.429683,148.041188,-9918.759623,1225.752797
908.430008,-1184.329507,-9104.533087,-689.485948
908.430332,-1998.556043,-7994.224174,-1149.143247
908.430656,-2590.720797,-8808.450710,-1991.848295
908.430980,-2664.741391,-9992.780217,-2604.724693
908.431304,-1924.535449,-8956.491898,-2145.067394
908.431628,-1776.494261,-7846.182985,-1991.848295
908.431952,-1924.535449,-9326.594869,-1915.238745
908.432276,-1184.329507,-9918.759623,-919.314598
908.432601,666.185348,-9326.594869,-229.828649
908.432925,2072.576638,-9918.759623,1302.362347
908.433249,3701.029710,-11547.212695,2145.067394
908.433573,4663.297435,-10584.944971,1991.848295
908.433897,3923.091493,-9252.574275,2145.067394
908.434221,1850.514855,-10732.986159,1455.581446
908.434545,-444.123565,-11251.130318,0.000000
908.434869,-1554.432478,-9326.594869,-1302.362347
908.435193,-2368.659014,-7846.182985,-1915.238745
908.435518,-4071.132681,-9030.512492,-2451.505594
908.435842,-3997.112087,-9918.759623,-3294.210641
908.436166,-3404.947333,-8956.491898,-2911.162892
908.436490,-4145.153275,-9252.574275,-2068.457845
908.436814,-3330.926739,-10140.821405,-1455.581446
908.437138,-296.082377,-10288.862594,-536.266849
908.437462,1480.411884,-9770.718434,1149.143247
908.437786,2664.741391,-10955.047942,2298.286494
908.438111,3478.967927,-11547.212695,2298.286494
908.438435,4145.153275,-10436.903782,2451.505594
908.438759,2960.823768,-10807.006753,3600.648841
908.439083,2442.679609,-11399.171507,2681.334243
908.439407,2220.617826,-9104.533087,919.314598
908.439731,0.000000,-6883.915261,-383.047749
908.440055,-2442.679609,-8216.285956,-1915.238745
908.440379,-3627.009116,-9844.739029,-2834.553343
908.440704,-2738.761985,-8660.409521,-3524.039291
908.441028,-3627.009116,-8142.265362,-2298.286494
908.441352,-3701.029710,-9844.739029,-1455.581446
908.441676,-1924.535449,-9696.697840,-995.924147
908.442000,-370.102971,-8734.430116,-689.485948
908.442324,1480.411884,-10066.800811,1991.848295
908.442648,3701.029710,-11843.295072,2834.553343
908.442972,5551.544565,-11473.192101,3447.429741
908.443296,4959.379811,-10214.842000,4826.401637
908.443621,4071.132681,-10436.903782,3600.648841
908.443945,2738.761985,-9770.718434,1685.410096
908.444269,444.123565,-8290.306550,76.609550
908.444593,-2516.700203,-8882.471304,-1149.143247
908.444917,-3330.926739,-9770.718434,-2298.286494
908.445241,-2442.679609,-8882.471304,-2834.553343
908.445565,-2886.803174,-8438.347739,-2145.067394
908.445889,-3849.070898,-9474.636058,-1762.019645
908.446214,-3552.988522,-9474.636058,-2374.896044
908.446538,-2294.638420,-8734.430116,-612.876398
908.446862,-888.247130,-8808.450710,689.485948
908.447186,1554.432478,-10214.842000,1991.848295
908.447510,3997.112087,-10140.821405,2834.553343
908.447834,5181.441594,-9400.615463,3600.648841
908.448158,4441.235652,-9992.780217,3983.696590
908.448482,4145.153275,-10658.965565,3217.601092
908.448807,3552.988522,-9326.594869,2757.943793
908.449131,1702.473667,-7550.100608,689.485948
908.449455,-666.185348,-7476.080014,-1378.971896
908.449779,-2368.659014,-8290.306550,-2911.162892
908.450103,-3256.906145,-9326.594869,-3370.820191
908.450427,-4293.194464,-10066.800811,-3447.429741
908.450751,-4737.318029,-9400.615463,-2987.772442
908.451075,-3182.885551,-7698.141797,-1608.800546
908.451399,-2664.741391,-8808.450710,-1072.533697
908.451724,-1036.288319,-10881.027347,0.000000
908.452048,1332.370696,-10584.944971,459.657299
908.452372,2590.720797,-9622.677246,1532.190996
908.452696,2368.659014,-11103.089130,2145.067394
908.453020,2516.700203,-12065.356855,2834.553343
908.453344,2812.782580,-11029.068536,2834.553343
908.453668,1776.494261,-10584.944971,2451.505594
908.453992,-296.082377,-10288.862594,1225.752797
908.454317,-1258.350101,-9252.574275,-1608.800546
908.454641,-1998.556043,-5699.585753,-6281.983084
908.454965,-4589.276840,-7994.224174,-4903.011187
908.455289,-4885.359217,-12583.501014,-3524.039291
908.455613,-1406.391290,-12879.583391,-4366.744339
908.455937,-1702.473667,-9992.780217,-766.095498
908.456261,-2442.679609,-9252.574275,0.000000
908.456585,222.061783,-10807.006753,-1378.971896
908.456910,2368.659014,-11325.150913,-612.876398
908.457234,3849.070898,-10658.965565,1532.190996
908.457558,3997.112087,-11547.212695,3140.991542
908.457882,4071.132681,-11769.274478,2528.115143
908.458206,2294.638420,-9326.594869,2911.162892
908.458530,1184.329507,-8364.327145,2221.676944
908.458854,-666.185348,-8142.265362,-1455.581446
908.459178,-3552.988522,-8586.388927,-4366.744339
908.459502,-5329.482782,-9178.553681,-3983.696590
908.459827,-3849.070898,-9622.677246,-3370.820191
908.460151,-2294.638420,-9844.739029,-2451.505594
908.460475,-2516.700203,-8956.491898,-306.438199
908.460799,-2146.597232,-8956.491898,0.000000
908.461123,444.123565,-10732.986159,-919.314598
908.461447,2368.659014,-10214.842000,306.438199
908.461771,2960.823768,-9474.636058,2528.115143
908.462095,3923.091493,-10214.842000,3294.210641
908.462420,4441.235652,-10881.027347,3600.648841
908.462744,3404.947333,-9622.677246,3600.648841
908.463068,962.267725,-8216.285956,2068.457845
908.463392,-592.164754,-7920.203579,-766.095498
908.463716,-1924.535449,-8438.347739,-1302.362347
908.464040,-2590.720797,-9030.512492,-1302.362347
908.464364,-2664.741391,-9178.553681,-2068.457845
908.464688,-2960.823768,-8438.347739,-1991.848295
908.465013,-2664.741391,-7698.141797,-1072.533697
908.465337,-2072.576638,-8586.388927,-612.876398
908.465661,-148.041188,-10140.821405,0.000000
908.465985,1924.535449,-9770.718434,1455.581446
908.466309,3701.029710,-9104.533087,2911.162892
908.466633,5033.400406,-9770.718434,3064.381992
908.466957,4293.194464,-11547.212695,3217.601092
908.467281,3108.864956,-10214.842000,3447.429741
908.467605,2368.659014,-9030.512492,2528.115143
908.467930,148.041188,-11029.068536,1915.238745
908.468254,-1036.288319,-10584.944971,-306.438199
908.468578,-1850.514855,-9030.512492,-1532.190996
908.468902,-3404.947333,-9474.636058,-2374.896044
908.469226,-3552.988522,-11103.089130,-2987.772442
908.469550,-3256.906145,-9844.739029,-2221.676944
908.469874,-2368.659014,-8290.306550,-1915.238745
908.470198,-1628.453072,-9030.512492,-1378.971896
908.470523,0.000000,-10066.800811,0.000000
908.470847,2442.679609,-10362.883188,919.314598
908.471171,2812.782580,-10362.883188,1685.410096
908.471495,2368.659014,-11029.068536,2145.067394
908.471819,2812.782580,-10214.842000,2604.724693
908.472143,3108.864956,-9770.718434,2834.553343
908.472467,1702.473667,-10066.800811,1991.848295
908.472791,0.000000,-9770.718434,1149.143247
908.473116,-1036.288319,-9252.574275,-1072.533697
908.473440,-2812.782580,-8364.327145,-2221.676944
908.473764,-4145.153275,-9030.512492,-2757.943793
908.474088,-3923.091493,-9104.533087,-2221.676944
908.474412,-2812.782580,-7920.203579,-2068.457845
908.474736,-2368.659014,-8808.450710,-689.485948
908.475060,-1554.432478,-10362.883188,-306.438199
908.475384,740.205942,-10214.842000,0.000000
908.475708,2146.597232,-9548.656652,1991.848295
908.476033,2368.659014,-10436.903782,2298.286494
908.476357,2590.720797,-10732.986159,1915.238745
908.476681,2368.659014,-9400.615463,2221.676944
908.477005,962.267725,-9178.553681,1991.848295
908.477329,-518.144159,-10066.800811,229.828649
908.477653,-1110.308913,-9622.677246,-1455.581446
908.477977,-2220.617826,-8512.368333,-2145.067394
908.478301,-3330.926739,-8956.491898,-2298.286494
908.478626,-3108.864956,-9918.759623,-3370.820191
908.478950,-2886.803174,-8808.450710,-2757.943793
908.479274,-2812.782580,-8512.368333,-1838.629195
908.479598,-2146.597232,-10140.821405,-1455.581446
908.479922,0.000000,-10881.027347,-1378.971896
908.480246,1702.473667,-9770.718434,0.000000
908.480570,2072.576638,-10214.842000,1225.752797
908.480894,3256.906145,-11547.212695,919.314598
908.481219,3478.967927,-10881.027347,1991.848295
908.481543,2516.700203,-9992.780217,1302.362347
908.481867,962.267725,-10658.965565,153.219100
908.482191,0.000000,-10510.924376,-1378.971896
908.482515,0.000000,-9252.574275,-1685.410096
908.482839,-814.226536,-9548.656652,-1838.629195
908.483163,-1480.411884,-10732.986159,-2298.286494
908.483487,-1776.494261,-9622.677246,-2451.505594
908.483811,-1628.453072,-9252.574275,-1838.629195
908.484136,-1110.308913,-10288.862594,-1225.752797
908.484460,74.020594,-11177.109724,-1225.752797
908.484784,1406.391290,-10140.821405,76.609550
908.485108,1406.391290,-9992.780217,995.924147
908.485432,1258.350101,-11029.068536,1225.752797
908.485756,2220.617826,-10436.903782,2068.457845
908.486080,1776.494261,-9104.533087,1991.848295
908.486404,1406.391290,-9918.759623,1455.581446
908.486729,962.267725,-10140.821405,76.609550
908.487053,666.185348,-8882.471304,-229.828649
908.487377,-444.123565,-8142.265362,689.485948
908.487701,-2072.576638,-9622.677246,-919.314598
908.488025,-2590.720797,-9252.574275,-1915.238745
908.488349,-1702.473667,-7994.224174,-919.314598
908.488673,-888.247130,-9030.512492,-306.438199
908.488997,222.061783,-10140.821405,-153.219100
908.489322,1332.370696,-9844.739029,612.876398
908.489646,1110.308913,-8882.471304,1685.410096
908.489970,1258.350101,-9474.636058,1685.410096
908.490294,1554.432478,-9622.677246,2911.162892
908.490618,1850.514855,-8660.409521,2451.505594
908.490942,1406.391290,-8586.388927,2374.896044
908.491266,444.123565,-9178.553681,1378.971896
908.491590,222.061783,-8660.409521,995.924147
908.491914,-370.102971,-7920.203579,689.485948
908.492239,-1702.473667,-9104.533087,0.000000
908.492563,-1850.514855,-9030.512492,0.000000
908.492887,-1702.473667,-7698.141797,-459.657299
908.493211,-1258.350101,-8068.244768,-459.657299
908.493535,-1332.370696,-9918.759623,0.000000
908.493859,-740.205942,-10362.883188,0.000000
908.494183,-222.061783,-9252.574275,459.657299
908.494507,-222.061783,-9030.512492,1149.143247
908.494832,666.185348,-9696.697840,1072.533697
908.495156,1258.350101,-9548.656652,1608.800546
908.495480,1776.494261,-9992.780217,2374.896044
908.495804,888.247130,-11177.109724,1302.362347
908.496128,-370.102971,-10955.047942,612.876398
908.496452,-740.205942,-9474.636058,459.657299
908.496776,-1702.473667,-9770.718434,0.000000
908.497100,-1924.535449,-11325.150913,-842.705048
908.497425,-1628.453072,-9918.759623,-1072.533697
908.497749,-1332.370696,-9104.533087,-995.924147
908.498073,-1036.288319,-10214.842000,-995.924147
908.498397,740.205942,-11325.150913,-1072.533697
908.498721,1628.453072,-10140.821405,-919.314598
908.499045,0.000000,-9770.718434,-842.705048
908.499369,-1332.370696,-10732.986159,-1455.581446
908.499693,-1258.350101,-10807.006753,-1378.971896
908.500017,592.164754,-10362.883188,0.000000
908.500342,888.247130,-10955.047942,-842.705048
908.500666,592.164754,-11103.089130,-919.314598
908.500990,740.205942,-10140.821405,-383.047749
908.501314,592.164754,-10955.047942,-383.047749
908.501638,0.000000,-11917.315666,-229.828649
908.501962,-148.041188,-10362.883188,-995.924147
908.502286,0.000000,-8364.327145,-1225.752797
908.502610,518.144159,-9252.574275,-689.485948
908.502935,888.247130,-11103.089130,-612.876398
908.503259,1036.288319,-10140.821405,-1149.143247
908.503583,0.000000,-8734.430116,-766.095498
908.503907,-888.247130,-9622.677246,-842.705048
908.504231,-518.144159,-9770.718434,-1378.971896
908.504555,148.041188,-8068.244768,-766.095498
908.504879,370.102971,-8290.306550,153.219100
908.505203,518.144159,-9622.677246,306.438199
908.505528,666.185348,-9104.533087,689.485948
908.505852,0.000000,-7920.203579,1149.143247
908.506176,-740.205942,-8512.368333,919.314598
908.506500,-518.144159,-8216.285956,383.047749
908.506824,518.144159,-7550.100608,306.438199
908.507148,666.185348,-7476.080014,766.095498
908.507472,592.164754,-9178.553681,-306.438199
908.507796,444.123565,-9104.533087,-459.657299
908.508120,-222.061783,-8142.265362,-459.657299
908.508445,-1184.329507,-8734.430116,-536.266849
908.508769,-2072.576638,-9770.718434,-766.095498
908.509093,-2072.576638,-9178.553681,-689.485948
908.509417,-1776.494261,-8882.471304,-153.219100
908.509741,-1332.370696,-10436.903782,153.219100
908.510065,-148.041188,-11029.068536,459.657299
908.510389,888.247130,-9992.780217,842.705048
908.510713,740.205942,-10140.821405,2221.676944
908.511038,740.205942,-11103.089130,1685.410096
908.511362,1184.329507,-10436.903782,1072.533697
908.511686,1184.329507,-9622.677246,919.314598
908.512010,814.226536,-11029.068536,536.266849
908.512334,666.185348,-11769.274478,-612.876398
908.512658,-148.041188,-10584.944971,-766.095498
908.512982,-1184.329507,-10214.842000,-1149.143247
908.513306,-1332.370696,-10807.006753,-1149.143247
908.513631,-666.185348,-10140.821405,-1072.533697
908.513955,-148.041188,-8808.450710,-459.657299
908.514279,148.041188,-9696.697840,-153.219100
908.514603,444.123565,-10436.903782,-306.438199
908.514927,814.226536,-9252.574275,383.047749
908.515251,518.144159,-9030.512492,689.485948
908.515575,-518.144159,-9474.636058,1149.143247
908.515899,222.061783,-9474.636058,1149.143247
908.516223,1110.308913,-9474.636058,1532.190996
908.516548,1036.288319,-10140.821405,1532.190996
908.516872,1258.350101,-10955.047942,459.657299
908.517196,1184.329507,-9474.636058,-536.266849
908.517520,-148.041188,-8660.409521,0.000000
908.517844,-1184.329507,-10288.862594,76.609550
908.518168,-1332.370696,-10066.800811,-995.924147
908.518492,-666.185348,-8216.285956,-153.219100
908.518816,-518.144159,-8660.409521,229.828649
908.519141,0.000000,-10140.821405,-306.438199
908.519465,888.247130,-9178.553681,-229.828649
908.519789,518.144159,-7698.141797,306.438199
908.520113,0.000000,-8586.388927,1225.752797
908.520437,444.123565,-9474.636058,1762.019645
908.520761,592.164754,-8956.491898,1149.143247
908.521085,222.061783,-8956.491898,2068.457845
908.521409,-444.123565,-9548.656652,919.314598
908.521733,0.000000,-9178.553681,0.000000
908.522057,-148.041188,-8734.430116,153.219100
908.522381,-666.185348,-9030.512492,-459.657299
908.522705,-962.267725,-9178.553681,-1302.362347
908.523029,-1110.308913,-8068.244768,-1225.752797
908.523353,-444.123565,-8808.450710,-1532.190996
908.523677,-296.082377,-10436.903782,-1915.238745
908.524001,74.020594,-10288.862594,-1608.800546
908.524326,592.164754,-9252.574275,-766.095498
908.524650,1184.329507,-10510.924376,-229.828649
908.524974,1036.288319,-11325.150913,766.095498
908.525298,1480.411884,-10066.800811,1072.533697
908.525622,888.247130,-9326.594869,1225.752797
908.525946,222.061783,-11473.192101,1072.533697
908.526270,814.226536,-11473.192101,76.609550
908.526594,518.144159,-9474.636058,-612.876398
908.526918,-1406.391290,-9252.574275,-919.314598
908.527242,-2368.659014,-10362.883188,-1762.019645
908.527566,-2368.659014,-9104.533087,-2528.115143
908.527890,-2442.679609,-7624.121203,-2757.943793
908.528214,-2146.597232,-9474.636058,-2604.724693
908.528538,-1036.288319,-10807.006753,-2451.505594
908.528862,444.123565,-9548.656652,-1455.581446
908.529186,888.247130,-9770.718434,-383.047749
908.529510,1110.308913,-11251.130318,383.047749
908.529834,2146.597232,-11473.192101,-459.657299
908.530158,2368.659014,-10066.800811,1685.410096
908.530483,2146.597232,-10881.027347,2068.457845
908.530807,2146.597232,-11843.295072,1455.581446
908.531131,1998.556043,-10955.047942,1072.533697
908.531455,0.000000,-10066.800811,0.000000
908.531779,-2738.761985,-10436.903782,-1149.143247
908.532103,-3034.844362,-9104.533087,-2145.067394
908.532427,-2886.803174,-7698.141797,-2298.286494
908.532751,-3182.885551,-8808.450710,-2145.067394
908.533075,-2442.679609,-10066.800811,-2221.676944
908.533399,-1776.494261,-9104.533087,-1608.800546
908.533723,-1332.370696,-8734.430116,-842.705048
908.534047,-888.247130,-10066.800811,-153.219100
908.534371,592.164754,-9844.739029,76.609550
908.534695,2294.638420,-9252.574275,1225.752797
908.535019,2294.638420,-9474.636058,2451.505594
908.535343,2886.803174,-11473.192101,1991.848295
908.535667,2960.823768,-10732.986159,2068.457845
908.535991,2072.576638,-9252.574275,1991.848295
908.536315,148.041188,-9400.615463,842.705048
908.536639,-1184.329507,-9104.533087,-612.876398
908.536964,-1850.514855,-8142.265362,-766.095498
908.537288,-2960.823768,-7772.162391,-1608.800546
908.537612,-2368.659014,-9104.533087,-1608.800546
908.537936,-1554.432478,-8512.368333,-1762.019645
908.538260,-962.267725,-7698.141797,-612.876398
908.538584,-1036.288319,-8956.491898,76.609550
908.538908,-296.082377,-9770.718434,842.705048
908.539232,1702.473667,-8956.491898,1762.019645
908.539556,2368.659014,-9104.533087,2987.772442
908.539880,3330.926739,-10881.027347,2987.772442
908.540204,4219.173869,-9918.759623,2987.772442
908.540528,4071.132681,-9104.533087,2451.505594
908.540852,1406.391290,-9474.636058,1225.752797
908.541176,-444.123565,-10510.924376,0.000000
908.541500,-666.185348,-9548.656652,0.000000
908.541824,-1332.370696,-8142.265362,-1378.971896
908.542148,-1702.473667,-9178.553681,-1915.238745
908.542472,-1776.494261,-9548.656652,-1838.629195
908.542796,-1036.288319,-9326.594869,-1608.800546
908.543121,-962.267725,-9770.718434,-1072.533697
908.543445,-1258.350101,-10214.842000,0.000000
908.543769,0.000000,-10214.842000,1149.143247
908.544093,1480.411884,-9622.677246,1991.848295
908.544417,2294.638420,-11103.089130,2681.334243
908.544741,3182.885551,-11325.150913,2451.505594
908.545065,2960.823768,-10510.924376,2451.505594
908.545389,888.247130,-10066.800811,1685.410096
908.545713,-1110.308913,-9992.780217,0.000000
908.546037,-2220.617826,-8956.491898,-1225.752797
908.546361,-2812.782580,-7772.162391,-2451.505594
908.546685,-3256.906145,-9326.594869,-3140.991542
908.547009,-2886.803174,-9474.636058,-3217.601092
908.547333,-1628.453072,-9030.512492,-3217.601092
908.547657,-1258.350101,-9104.533087,-2298.286494
908.547981,-1554.432478,-10066.800811,-1685.410096
908.548305,-962.267725,-10510.924376,-689.485948
908.548629,592.164754,-10436.903782,459.657299
908.548953,1998.556043,-11473.192101,2145.067394
908.549278,3627.009116,-12287.418637,1532.190996
908.549602,4737.318029,-10807.006753,2451.505594
908.549926,3552.988522,-9474.636058,2451.505594
908.550250,1406.391290,-10362.883188,995.924147
908.550574,-962.267725,-9474.636058,-1532.190996
908.550898,-2812.782580,-8290.306550,-2681.334243
908.551222,-3627.009116,-8216.285956,-3294.210641
908.551546,-3256.906145,-10066.800811,-3753.867940
908.551870,-1924.535449,-9474.636058,-3064.381992
908.552194,-2146.597232,-7772.162391,-2298.286494
908.552518,-2516.700203,-9252.574275,-995.924147
908.552842,-2220.617826,-10584.944971,-919.314598
908.553166,-666.185348,-9104.533087,0.000000
908.553490,518.144159,-8512.368333,1838.629195
908.553814,2072.576638,-10436.903782,2068.457845
908.554138,3849.070898,-12139.377449,2834.553343
908.554462,4737.318029,-11843.295072,4213.525239
908.554786,3182.885551,-11029.068536,3753.867940
908.555110,1406.391290,-9770.718434,2298.286494
908.555435,-148.041188,-5773.606348,-1685.410096
908.555759,-2368.659014,-5921.647536,-3140.991542
908.556083,-4071.132681,-10362.883188,-2298.286494
908.556407,-2146.597232,-11473.192101,-2911.162892
908.556731,-1406.391290,-8808.450710,-2145.067394
908.557055,-3108.864956,-8068.244768,0.000000
908.557379,-2368.659014,-10066.800811,-229.828649
908.557703,-296.082377,-9918.759623,-842.705048
908.558027,666.185348,-8808.450710,0.000000
908.558351,2664.741391,-10214.842000,2987.772442
908.558675,5403.503377,-12139.377449,3294.210641
908.558999,5033.400406,-11325.150913,3677.258390
908.559323,2590.720797,-9178.553681,4290.134789
908.559647,666.185348,-8660.409521,1455.581446
908.559971,-1258.350101,-9918.759623,-1225.752797
908.560295,-3108.864956,-10288.862594,-1915.238745
908.560619,-3701.029710,-9770.718434,-2374.896044
908.560943,-1480.411884,-9770.718434,-2451.505594
908.561267,-296.082377,-9400.615463,-1762.019645
908.561592,-666.185348,-9400.615463,-919.314598
908.561916,-962.267725,-10214.842000,-995.924147
908.562240,-740.205942,-9252.574275,-1991.848295
908.562564,0.000000,-8734.430116,536.266849
908.562888,1480.411884,-10214.842000,1915.238745
908.563212,4367.215058,-11325.150913,2987.772442
908.563536,5551.544565,-10288.862594,3907.087040
908.563860,4071.132681,-9326.594869,3370.820191
908.564184,1406.391290,-9622.677246,2068.457845
908.564508,-148.041188,-9178.553681,229.828649
908.564832,-1776.494261,-7476.080014,-766.095498
908.565156,-3627.009116,-7920.203579,-1991.848295
908.565480,-2886.803174,-9622.677246,-2834.553343
908.565804,-2368.659014,-8586.388927,-2221.676944
908.566128,-2590.720797,-7772.162391,-1532.190996
908.566452,-2442.679609,-9030.512492,-1532.190996
908.566776,-2294.638420,-9252.574275,-1532.190996
908.567100,-1554.432478,-8660.409521,-383.047749
908.567424,-222.061783,-8956.491898,1762.019645
908.567748,1998.556043,-11473.192101,1685.410096
908.568073,3182.885551,-11621.233289,2221.676944
908.568397,2812.782580,-10066.800811,2604.724693
908.568721,1702.473667,-11029.068536,3064.381992
908.569045,1480.411884,-11473.192101,2068.457845
908.569369,962.267725,-8882.471304,0.000000
908.569693,-1628.453072,-7624.121203,-1225.752797
908.570017,-3182.885551,-9992.780217,-2068.457845
908.570341,-2664.741391,-10658.965565,-4060.306139
908.570665,-2220.617826,-8734.430116,-3447.429741
908.570989,-3775.050304,-8142.265362,-1991.848295
908.571313,-2886.803174,-10140.821405,-2145.067394
908.571637,-1406.391290,-10584.944971,-1915.238745
908.571961,444.123565,-9400.615463,0.000000
908.572285,2368.659014,-10214.842000,1149.143247
908.572609,4737.318029,-11547.212695,2068.457845
908.572933,4663.297435,-11621.233289,2681.334243
908.573257,3478.967927,-10881.027347,3294.210641
908.573581,2072.576638,-10510.924376,2834.553343
908.573905,592.164754,-9548.656652,536.266849
908.574230,-1406.391290,-8586.388927,-1608.800546
908.574554,-2664.741391,-8956.491898,-2604.724693
908.574878,-1776.494261,-9770.718434,-3064.381992
908.575202,-1480.411884,-8956.491898,-3600.648841
908.575526,-2294.638420,-7994.224174,-2757.943793
908.575850,-3034.844362,-8660.409521,-2528.115143
908.576174,-2368.659014,-9622.677246,-2374.896044
908.576498,-962.267725,-8956.491898,-1302.362347
908.576822,1110.308913,-9622.677246,842.705048
908.577146,3108.864956,-11695.253884,1455.581446
908.577470,4885.359217,-11843.295072,2681.334243
908.577794,3849.070898,-10658.965565,3370.820191
908.578118,2072.576638,-11029.068536,3064.381992
908.578442,814.226536,-11029.068536,2374.896044
908.578766,-592.164754,-9844.739029,766.095498
908.579090,-2146.597232,-7920.203579,-1532.190996
908.579414,-3034.844362,-7772.162391,-2757.943793
908.579738,-2664.741391,-9030.512492,-3370.820191
908.580062,-1628.453072,-8660.409521,-3753.867940
908.580387,-2146.597232,-9178.553681,-2987.772442
908.580711,-3256.906145,-8956.491898,-1762.019645
908.581035,-2368.659014,-9252.574275,-1302.362347
908.581359,-1110.308913,-10658.965565,-383.047749
908.581683,1110.308913,-11843.295072,766.095498
908.582007,3552.988522,-11621.233289,2068.457845
908.582331,4811.338623,-11621.233289,3600.648841
908.582655,3775.050304,-11695.253884,3753.867940
908.582979,2812.782580,-10362.883188,3524.039291
908.583303,2886.803174,-8586.388927,2221.676944
908.583627,888.247130,-8216.285956,306.438199
908.583951,-1998.556043,-9548.656652,-1991.848295
908.584275,-2516.700203,-8882.471304,-2528.115143
908.584599,-1480.411884,-7772.162391,-2298.286494
908.584923,-1776.494261,-8808.450710,-2374.896044
908.585247,-2664.741391,-9400.615463,-1685.410096
908.585571,-1924.535449,-8216.285956,-1455.581446
908.585895,-888.247130,-7994.224174,-766.095498
908.586219,370.102971,-9992.780217,536.266849
908.586544,2368.659014,-11177.109724,1838.629195
908.586868,4219.173869,-9844.739029,3217.601092
908.587192,3775.050304,-10436.903782,3140.991542
908.587516,2590.720797,-11103.089130,3294.210641
908.587840,1776.494261,-9178.553681,2221.676944
908.588164,296.082377,-8586.388927,1532.190996
908.588488,-1628.453072,-9474.636058,306.438199
908.588812,-2294.638420,-9548.656652,-1072.533697
908.589136,-1554.432478,-8290.306550,-1378.971896
908.589460,-2368.659014,-7624.121203,-1685.410096
908.589784,-3182.885551,-8882.471304,-1762.019645
908.590108,-2960.823768,-8956.491898,-1378.971896
908.590432,-1924.535449,-8364.327145,-995.924147
908.590756,-1332.370696,-9400.615463,229.828649
908.591080,962.267725,-10362.883188,842.705048
908.591404,3108.864956,-9770.718434,1532.190996
908.591728,3330.926739,-10214.842000,2221.676944
908.592052,1702.473667,-11473.192101,2528.115143
908.592376,740.205942,-10658.965565,1838.629195
908.592701,1332.370696,-9844.739029,1149.143247
908.593025,74.020594,-9770.718434,536.266849
908.593349,-1480.411884,-11103.089130,-1378.971896
908.593673,-1998.556043,-10362.883188,-2221.676944
908.593997,-2368.659014,-9992.780217,-1991.848295
908.594321,-2442.679609,-11103.089130,-2145.067394
908.594645,-2294.638420,-10584.944971,-2374.896044
908.594969,-1998.556043,-9104.533087,-1685.410096
908.595293,-1554.432478,-9844.739029,-689.485948
908.595617,-370.102971,-11991.336260,-995.924147
908.595941,1406.391290,-12361.439231,-766.095498
908.596265,1776.494261,-10436.903782,995.924147
908.596589,1406.391290,-10658.965565,995.924147
908.596913,1110.308913,-10732.986159,842.705048
908.597237,1406.391290,-9474.636058,766.095498
908.597561,518.144159,-9252.574275,459.657299
908.597885,-296.082377,-9770.718434,-766.095498
908.598209,-592.164754,-9178.553681,-1915.238745
908.598533,-222.061783,-8142.265362,-1302.362347
908.598857,-592.164754,-8660.409521,-1378.971896
908.599182,-1036.288319,-9548.656652,-1915.238745
908.599506,-1258.350101,-8512.368333,-1608.800546
908.599830,-740.205942,-8068.244768,-1302.362347
908.600154,-296.082377,-9252.574275,-689.485948
908.600478,1036.288319,-10288.862594,-536.266849
908.600802,2220.617826,-9178.553681,0.000000
908.601126,2294.638420,-9178.553681,1149.143247
908.601450,1628.453072,-10140.821405,1455.581446
908.601774,1702.473667,-9178.553681,1072.533697
908.602098,444.123565,-8364.327145,1685.410096
908.602422,-518.144159,-9326.594869,1532.190996
908.602746,-222.061783,-10510.924376,76.609550
908.603070,-814.226536,-8660.409521,306.438199
908.603394,-2294.638420,-8586.388927,153.219100
908.603718,-3627.009116,-9474.636058,-1072.533697
908.604042,-4071.132681,-9030.512492,-1838.629195
908.604366,-3034.844362,-8142.265362,-1455.581446
908.604690,-592.164754,-9178.553681,-383.047749
908.605014,1776.494261,-9548.656652,306.438199
908.605339,2738.761985,-9252.574275,766.095498
908.605663,2442.679609,-8660.409521,1608.800546
908.605987,1998.556043,-9770.718434,1072.533697
908.606311,1554.432478,-9992.780217,842.705048
908.606635,1258.350101,-8808.450710,766.095498
908.606959,444.123565,-9252.574275,919.314598
908.607283,1258.350101,-11177.109724,842.705048
908.607607,1554.432478,-10214.842000,306.438199
908.607931,592.164754,-9474.636058,383.047749
908.608255,-1406.391290,-9992.780217,-383.047749
908.608579,-2516.700203,-10066.800811,-1225.752797
908.608903,-2072.576638,-9030.512492,-1608.800546
908.609227,-1480.411884,-9622.677246,-612.876398
908.609551,-888.247130,-11621.233289,-383.047749
908.609875,444.123565,-11769.274478,-306.438199
908.610199,222.061783,-9844.739029,536.266849
908.610523,-296.082377,-10362.883188,383.047749
908.610847,296.082377,-11621.233289,229.828649
908.611171,1110.308913,-11103.089130,76.609550
908.611496,962.267725,-10955.047942,383.047749
908.611820,1036.288319,-11843.295072,1225.752797
908.612144,1258.350101,-11399.171507,76.609550
908.612468,444.123565,-9770.718434,689.485948
908.612792,-1110.308913,-9622.677246,306.438199
908.613116,-2146.597232,-9770.718434,-919.314598
908.613440,-1776.494261,-8734.430116,-1532.190996
908.613764,-1332.370696,-8068.244768,-383.047749
908.614088,-592.164754,-9326.594869,0.000000
908.614412,0.000000,-9252.574275,0.000000
908.614736,-148.041188,-7846.182985,306.438199
908.615060,-444.123565,-7254.018232,689.485948
908.615384,0.000000,-8364.327145,842.705048
908.615708,592.164754,-7994.224174,-306.438199
908.616032,222.061783,-7254.018232,0.000000
908.616356,-296.082377,-9252.574275,153.219100
908.616680,0.000000,-10658.965565,-229.828649
908.617004,0.000000,-9104.533087,-153.219100
908.617328,148.041188,-9030.512492,76.609550
908.617653,-1036.288319,-10066.800811,-995.924147
908.617977,-444.123565,-9474.636058,-1302.362347
908.618301,296.082377,-8364.327145,-306.438199
908.618625,740.205942,-9770.718434,76.609550
908.618949,1332.370696,-11325.150913,-459.657299
908.619273,962.267725,-10288.862594,-612.876398
908.619597,-814.226536,-8882.471304,153.219100
908.619921,-1554.432478,-9992.780217,0.000000
908.620245,-518.144159,-9844.739029,-1225.752797
908.620569,-592.164754,-9252.574275,0.000000
908.620893,-1110.308913,-10362.883188,0.000000
908.621217,-1110.308913,-10807.006753,-919.314598
908.621541,-740.205942,-9400.615463,-689.485948
908.621865,-296.082377,-8734.430116,-229.828649
908.622189,-888.247130,-10436.903782,-842.705048
908.622513,-666.185348,-11029.068536,0.000000
908.622837,0.000000,-9474.636058,0.000000
908.623161,1036.288319,-10140.821405,76.609550
908.623485,1554.432478,-11399.171507,-153.219100
908.623810,1258.350101,-10807.006753,0.000000
908.624134,370.102971,-10066.800811,229.828649
908.624458,-592.164754,-11029.068536,306.438199
908.624782,-1036.288319,-10436.903782,-536.266849
908.625106,-1184.329507,-9844.739029,76.609550
908.625430,-1184.329507,-9696.697840,0.000000
908.625754,-592.164754,-10288.862594,0.000000
908.626078,0.000000,-10140.821405,0.000000
908.626402,-148.041188,-9474.636058,153.219100
908.626726,-740.205942,-9770.718434,0.000000
908.627050,-1184.329507,-9622.677246,0.000000
908.627374,-370.102971,-8364.327145,76.609550
908.627698,0.000000,-8512.368333,919.314598
908.628022,518.144159,-10436.903782,383.047749
908.628346,1554.432478,-10510.924376,995.924147
908.628670,2220.617826,-9252.574275,1149.143247
908.628994,1406.391290,-9400.615463,1302.362347
908.629318,296.082377,-9400.615463,0.000000
908.629643,222.061783,-8216.285956,0.000000
908.629967,0.000000,-7994.224174,306.438199
908.630291,0.000000,-9326.594869,0.000000
908.630615,74.020594,-9104.533087,0.000000
908.630939,74.020594,-7846.182985,76.609550
908.631263,-666.185348,-8438.347739,-153.219100
908.631587,-962.267725,-8734.430116,-459.657299
908.631911,-296.082377,-8660.409521,0.000000
908.632235,370.102971,-8734.430116,76.609550
908.632559,740.205942,-9474.636058,919.314598
908.632883,1406.391290,-10066.800811,689.485948
908.633207,814.226536,-9474.636058,306.438199
908.633531,-222.061783,-9326.594869,-153.219100
908.633855,-666.185348,-9918.759623,0.000000
908.634179,-222.061783,-9548.656652,-153.219100
908.634503,444.123565,-9326.594869,-383.047749
908.634827,0.000000,-10214.842000,-153.219100
908.635151,0.000000,-11029.068536,-383.047749
908.635476,518.144159,-10881.027347,0.000000
908.635800,0.000000,-10140.821405,229.828649
908.636124,-1036.288319,-10881.027347,76.609550
908.636448,-518.144159,-10658.965565,-229.828649
908.636772,-370.102971,-9326.594869,0.000000
908.637096,-518.144159,-9548.656652,383.047749
908.637420,-222.061783,-10584.944971,-459.657299
908.637744,0.000000,-10436.903782,-536.266849
908.638068,-222.061783,-9696.697840,-459.657299
908.638392,-592.164754,-9992.780217,-766.095498
908.638716,-666.185348,-9548.656652,-919.314598
908.639040,74.020594,-9548.656652,-1532.190996
908.639364,0.000000,-10140.821405,-153.219100
908.639688,444.123565,-11029.068536,-383.047749
908.640012,1110.308913,-10807.006753,-383.047749
908.640336,1036.288319,-9622.677246,0.000000
908.640660,148.041188,-10140.821405,229.828649
908.640984,444.123565,-10658.965565,306.438199
908.641309,518.144159,-9696.697840,0.000000
908.641633,148.041188,-9474.636058,612.876398
908.641957,-666.185348,-10436.903782,153.219100
908.642281,444.123565,-10140.821405,-459.657299
908.642605,518.144159,-8882.471304,153.219100
908.642929,-592.164754,-9030.512492,-383.047749
908.643253,-1850.514855,-9178.553681,-1149.143247
908.643577,-1480.411884,-8512.368333,-1072.533697
908.643901,-370.102971,-8142.265362,-383.047749
908.644225,0.000000,-9326.594869,-995.924147
908.644549,74.020594,-8808.450710,-1608.800546
908.644873,-148.041188,-7624.121203,-919.314598
908.645197,-592.164754,-9178.553681,-536.266849
908.645521,-222.061783,-11029.068536,306.438199
908.645845,592.164754,-9992.780217,1149.143247
908.646169,1184.329507,-9696.697840,2068.457845
908.646493,1628.453072,-10140.821405,1532.190996
908.646817,1998.556043,-9992.780217,766.095498
908.647141,1332.370696,-9474.636058,766.095498
908.647466,370.102971,-9992.780217,689.485948
908.647790,-1258.350101,-9474.636058,-766.095498
908.648114,-2294.638420,-8586.388927,-1532.190996
908.648438,-3108.864956,-7920.203579,-1838.629195
908.648762,-3256.906145,-9400.615463,-2145.067394
908.649086,-2442.679609,-10732.986159,-2068.457845
908.649410,-1332.370696,-9992.780217,-766.095498
908.649734,-888.247130,-9696.697840,76.609550
908.650058,-888.247130,-10140.821405,995.924147
908.650382,296.082377,-10732.986159,612.876398
908.650706,1702.473667,-10362.883188,1532.190996
908.651030,2072.576638,-11029.068536,1991.848295
908.651354,2368.659014,-11843.295072,1838.629195
908.651678,2294.638420,-10436.903782,1149.143247
908.652002,1628.453072,-9178.553681,1455.581446
908.652326,0.000000,-10214.842000,76.609550
908.652650,-666.185348,-10658.965565,-612.876398
908.652974,-296.082377,-9622.677246,-1225.752797
908.653299,-1184.329507,-9474.636058,-1072.533697
908.653623,-1406.391290,-9992.780217,-1225.752797
908.653947,-962.267725,-9696.697840,-766.095498
908.654271,0.000000,-8660.409521,-459.657299
908.654595,296.082377,-9548.656652,229.828649
908.654919,1110.308913,-9844.739029,1378.971896
908.655243,1776.494261,-8586.388927,1608.800546
908.655567,1998.556043,-8438.347739,2451.505594
908.655891,2220.617826,-9770.718434,2528.115143
908.656215,2886.803174,-9548.656652,2374.896044
908.656539,2072.576638,-8586.388927,2068.457845
908.656863,-592.164754,-8808.450710,1302.362347
908.657187,-1702.473667,-8882.471304,153.219100
908.657511,-1184.329507,-8364.327145,-995.924147
908.657835,-1850.514855,-7994.224174,-1149.143247
908.658159,-2368.659014,-8734.430116,-1149.143247
908.658483,-2220.617826,-8808.450710,-1455.581446
