#time,accel_x,accel_y,accel_z
606.075355,74.020594,-9696.697840,76.609550
606.075679,74.020594,-9474.636058,0.000000
606.076003,222.061783,-9696.697840,-229.828649
606.076328,222.061783,-9696.697840,459.657299
606.076652,0.000000,-9696.697840,76.609550
606.076976,-148.041188,-9548.656652,0.000000
606.077300,-296.082377,-9622.677246,76.609550
606.077625,-518.144159,-9770.718434,-153.219100
606.077949,-296.082377,-9696.697840,-76.609550
606.078273,-222.061783,-9474.636058,-153.219100
606.078597,0.000000,-9696.697840,0.000000
606.078922,148.041188,-10214.842000,0.000000
606.079246,0.000000,-9770.718434,0.000000
606.079570,-148.041188,-9622.677246,76.609550
606.079894,0.000000,-9548.656652,76.609550
606.080218,0.000000,-9548.656652,0.000000
606.080543,0.000000,-9474.636058,0.000000
606.080867,-296.082377,-9844.739029,153.219100
606.081191,-518.144159,-9622.677246,-306.438199
606.081515,0.000000,-9622.677246,-229.828649
606.081840,74.020594,-9696.697840,-153.219100
606.082164,148.041188,-9918.759623,0.000000
606.082488,296.082377,-9400.615463,-76.609550
606.082812,740.205942,-9326.594869,0.000000
606.083137,592.164754,-9770.718434,229.828649
606.083461,0.000000,-9622.677246,76.609550
606.083785,0.000000,-9696.697840,-153.219100
606.084109,0.000000,-9770.718434,-306.438199
606.084434,0.000000,-9844.739029,-229.828649
606.084758,0.000000,-9622.677246,-153.219100
606.085082,370.102971,-9844.739029,-383.047749
606.085406,518.144159,-9844.739029,383.047749
606.085730,592.164754,-9770.718434,-306.438199
606.086055,666.185348,-10066.800811,229.828649
606.086379,-296.082377,-10066.800811,153.219100
606.086703,-962.267725,-9622.677246,76.609550
606.087027,-666.185348,-9548.656652,383.047749
606.087352,-148.041188,-9992.780217,536.266849
606.087676,666.185348,-9548.656652,612.876398
606.088000,592.164754,-9178.553681,229.828649
606.088324,1036.288319,-9400.615463,0.000000
606.088649,1036.288319,-9770.718434,306.438199
606.088973,962.267725,-9622.677246,0.000000
606.089297,666.185348,-9844.739029,0.000000
606.089621,-296.082377,-9992.780217,-306.438199
606.089945,-518.144159,-9992.780217,-383.047749
606.090270,-444.123565,-9844.739029,612.876398
606.090594,148.041188,-10066.800811,1149.143247
606.090918,1110.308913,-9770.718434,1685.410096
606.091242,1776.494261,-9622.677246,1685.410096
606.091567,2590.720797,-9474.636058,1608.800546
606.091891,2664.741391,-9770.718434,1608.800546
606.092215,2072.576638,-9474.636058,1378.971896
606.092539,1998.556043,-8956.491898,536.266849
606.092864,1332.370696,-9474.636058,459.657299
606.093188,222.061783,-9696.697840,76.609550
606.093512,-444.123565,-10066.800811,0.000000
606.093836,-592.164754,-9844.739029,0.000000
606.094161,148.041188,-9474.636058,612.876398
606.094485,1554.432478,-9474.636058,1302.362347
606.094809,3256.906145,-9696.697840,2068.457845
606.095133,4515.256246,-9400.615463,3140.991542
606.095457,4737.318029,-9696.697840,2451.505594
606.095782,4737.318029,-9918.759623,2757.943793
606.096106,3997.112087,-10362.883188,2451.505594
606.096430,2960.823768,-10362.883188,1915.238745
606.096754,1850.514855,-10140.821405,1378.971896
606.097079,1110.308913,-10510.924376,919.314598
606.097403,740.205942,-10584.944971,459.657299
606.097727,1036.288319,-10584.944971,1762.019645
606.098051,2368.659014,-9548.656652,2451.505594
606.098376,4293.194464,-9548.656652,2757.943793
606.098700,4663.297435,-9252.574275,3524.039291
606.099024,4737.318029,-9474.636058,4290.134789
606.099348,4589.276840,-9770.718434,4443.353888
606.099672,3701.029710,-9918.759623,4366.744339
606.099997,2072.576638,-9400.615463,4596.572988
606.100321,740.205942,-9178.553681,3753.867940
606.100645,-814.226536,-9326.594869,2374.896044
606.100969,-1332.370696,-8808.450710,2221.676944
606.101294,-1480.411884,-8364.327145,2068.457845
606.101618,-592.164754,-7550.100608,2068.457845
606.101942,148.041188,-7031.956449,2374.896044
606.102266,1480.411884,-6217.729913,3064.381992
606.102591,2886.803174,-5921.647536,3447.429741
606.102915,3849.070898,-7105.977043,3524.039291
606.103239,4737.318029,-8438.347739,4213.525239
606.103563,5255.462188,-9844.739029,4826.401637
606.103888,4959.379811,-10881.027347,4596.572988
606.104212,3627.009116,-11695.253884,4213.525239
606.104536,1332.370696,-11991.336260,3370.820191
606.104860,-740.205942,-11917.315666,2528.115143
606.105184,-1702.473667,-11399.171507,1608.800546
606.105509,-1702.473667,-10362.883188,689.485948
606.105833,-518.144159,-9104.533087,995.924147
606.106157,1110.308913,-8142.265362,1072.533697
606.106481,2368.659014,-7402.059420,842.705048
606.106806,3404.947333,-7402.059420,1149.143247
606.107130,3701.029710,-7624.121203,1072.533697
606.107454,3478.967927,-9030.512492,1455.581446
606.107778,3034.844362,-11029.068536,2221.676944
606.108103,1850.514855,-12361.439231,1685.410096
606.108427,370.102971,-12657.521608,1991.848295
606.108751,-592.164754,-11991.336260,1149.143247
606.109075,-666.185348,-11399.171507,919.314598
606.109399,222.061783,-10881.027347,919.314598
606.109724,1480.411884,-9992.780217,-229.828649
606.110048,2368.659014,-9030.512492,0.000000
606.110372,2886.803174,-9252.574275,-153.219100
606.110696,3182.885551,-9104.533087,0.000000
606.111021,2886.803174,-8956.491898,-153.219100
606.111345,2368.659014,-8808.450710,-153.219100
606.111669,3256.906145,-9178.553681,383.047749
606.111993,4885.359217,-10288.862594,919.314598
606.112318,6439.791695,-11769.274478,2068.457845
606.112642,6661.853478,-13101.645173,2451.505594
606.112966,4293.194464,-12879.583391,1991.848295
606.113290,1332.370696,-12065.356855,1455.581446
606.113615,-1332.370696,-10807.006753,459.657299
606.113939,-2368.659014,-10066.800811,536.266849
606.114263,-1480.411884,-8882.471304,919.314598
606.114587,592.164754,-7920.203579,1072.533697
606.114911,2516.700203,-7772.162391,1072.533697
606.115236,2960.823768,-6809.894666,1149.143247
606.115560,2146.597232,-6365.771101,536.266849
606.115884,1998.556043,-6217.729913,536.266849
606.116208,2590.720797,-6883.915261,842.705048
606.116533,3849.070898,-8734.430116,1225.752797
606.116857,5107.421000,-10214.842000,2604.724693
606.117181,3997.112087,-11325.150913,2451.505594
606.117505,1702.473667,-9844.739029,2757.943793
606.117830,518.144159,-9474.636058,2451.505594
606.118154,518.144159,-9992.780217,1991.848295
606.118478,1184.329507,-10584.944971,2604.724693
606.118802,1258.350101,-10732.986159,2757.943793
606.119127,370.102971,-9622.677246,2834.553343
606.119451,444.123565,-8808.450710,1685.410096
606.119775,1776.494261,-7254.018232,1762.019645
606.120099,2664.741391,-7105.977043,1608.800546
606.120423,2960.823768,-8438.347739,1532.190996
606.120748,2220.617826,-9548.656652,766.095498
606.121072,296.082377,-9400.615463,842.705048
606.121396,-296.082377,-9770.718434,1225.752797
606.121720,1184.329507,-11029.068536,2298.286494
606.122045,3330.926739,-11621.233289,3217.601092
606.122369,4219.173869,-11399.171507,3524.039291
606.122693,3775.050304,-10362.883188,3370.820191
606.123017,2886.803174,-10140.821405,2681.334243
606.123342,2738.761985,-10955.047942,3064.381992
606.123666,2368.659014,-11621.233289,3217.601092
606.123990,1480.411884,-11399.171507,2604.724693
606.124314,888.247130,-10066.800811,2068.457845
606.124638,1628.453072,-9400.615463,1838.629195
606.124963,2812.782580,-9400.615463,1302.362347
606.125287,3552.988522,-10584.944971,1991.848295
606.125611,2886.803174,-10066.800811,1532.190996
606.125935,2220.617826,-8808.450710,1455.581446
606.126260,2442.679609,-9326.594869,2451.505594
606.126584,2886.803174,-10658.965565,3217.601092
606.126908,3256.906145,-11473.192101,4060.306139
606.127232,2812.782580,-10140.821405,4060.306139
606.127557,1998.556043,-9622.677246,3447.429741
606.127881,2664.741391,-9770.718434,3677.258390
606.128205,2590.720797,-9770.718434,3983.696590
606.128529,3034.844362,-9770.718434,4366.744339
606.128854,2886.803174,-9178.553681,3907.087040
606.129178,1628.453072,-7846.182985,2834.553343
606.129502,0.000000,-7179.997637,1915.238745
606.129826,-962.267725,-7254.018232,1225.752797
606.130150,444.123565,-6957.935855,1302.362347
606.130475,2146.597232,-6735.874072,1302.362347
606.130799,3627.009116,-7402.059420,2145.067394
606.131123,4367.215058,-8586.388927,2604.724693
606.131447,5107.421000,-9178.553681,3907.087040
606.131772,5181.441594,-8512.368333,3677.258390
606.132096,3849.070898,-9252.574275,3600.648841
606.132420,2294.638420,-11029.068536,3524.039291
606.132744,2220.617826,-11325.150913,2757.943793
606.133069,2886.803174,-9918.759623,3447.429741
606.133393,2812.782580,-9252.574275,2757.943793
606.133717,1258.350101,-10214.842000,1991.848295
606.134041,-814.226536,-10362.883188,766.095498
606.134365,-2072.576638,-9400.615463,0.000000
606.134690,-3330.926739,-8364.327145,-995.924147
606.135014,-2886.803174,-8586.388927,-995.924147
606.135338,-666.185348,-9400.615463,-306.438199
606.135662,3034.844362,-8882.471304,-766.095498
606.135987,5255.462188,-8882.471304,919.314598
606.136311,6217.729913,-10288.862594,1455.581446
606.136635,5773.606348,-11473.192101,1532.190996
606.136959,4959.379811,-11843.295072,2068.457845
606.137284,3923.091493,-10658.965565,2451.505594
606.137608,3256.906145,-11325.150913,1685.410096
606.137932,1850.514855,-14211.954086,1149.143247
606.138256,666.185348,-13693.809927,766.095498
606.138580,74.020594,-11029.068536,383.047749
606.138904,-1110.308913,-10807.006753,76.609550
606.139228,-1628.453072,-11399.171507,-1149.143247
606.139552,-888.247130,-9104.533087,-1608.800546
606.139876,0.000000,-7772.162391,-689.485948
606.140201,888.247130,-8586.388927,-306.438199
606.140525,2146.597232,-9474.636058,-689.485948
606.140849,3182.885551,-8512.368333,689.485948
606.141173,4737.318029,-9326.594869,2757.943793
606.141497,6513.812290,-9696.697840,3064.381992
606.141821,6587.832884,-9400.615463,2987.772442
606.142145,3330.926739,-9918.759623,3983.696590
606.142469,814.226536,-11547.212695,2911.162892
606.142793,-592.164754,-10436.903782,1302.362347
606.143117,-1850.514855,-8882.471304,1225.752797
606.143442,-2738.761985,-8512.368333,995.924147
606.143766,-1998.556043,-9252.574275,0.000000
606.144090,-518.144159,-8364.327145,-306.438199
606.144414,814.226536,-6069.688724,153.219100
606.144738,888.247130,-5921.647536,-536.266849
606.145062,1998.556043,-7254.018232,-842.705048
606.145386,3404.947333,-7105.977043,612.876398
606.145710,5921.647536,-7698.141797,1991.848295
606.146034,6069.688724,-8734.430116,2451.505594
606.146359,4441.235652,-9474.636058,2528.115143
606.146683,2590.720797,-9474.636058,2604.724693
606.147007,2220.617826,-9252.574275,2911.162892
606.147331,2220.617826,-10510.924376,2987.772442
606.147655,1406.391290,-11177.109724,3524.039291
606.147979,740.205942,-10658.965565,2221.676944
606.148303,-1036.288319,-9770.718434,919.314598
606.148627,-2072.576638,-9030.512492,-229.828649
606.148951,-1332.370696,-8956.491898,-1532.190996
606.149276,-1480.411884,-9918.759623,-1762.019645
606.149600,-1184.329507,-10214.842000,-1685.410096
606.149924,-518.144159,-10658.965565,-1225.752797
606.150248,-296.082377,-11547.212695,153.219100
606.150572,888.247130,-11473.192101,383.047749
606.150896,2294.638420,-11843.295072,766.095498
606.151220,3034.844362,-12213.398043,1762.019645
606.151544,4589.276840,-12361.439231,2374.896044
606.151868,4811.338623,-12435.459826,3294.210641
606.152192,3775.050304,-11029.068536,3983.696590
606.152517,1924.535449,-11473.192101,2987.772442
606.152841,-1406.391290,-11399.171507,1455.581446
606.153165,-3849.070898,-9252.574275,-766.095498
606.153489,-5329.482782,-7920.203579,-1302.362347
606.153813,-4293.194464,-7994.224174,-1302.362347
606.154137,-2368.659014,-7994.224174,-689.485948
606.154461,-814.226536,-8512.368333,306.438199
606.154785,0.000000,-7402.059420,0.000000
606.155109,296.082377,-7624.121203,383.047749
606.155434,1258.350101,-7920.203579,536.266849
606.155758,1924.535449,-9326.594869,1762.019645
606.156082,2294.638420,-10807.006753,2298.286494
606.156406,1554.432478,-10140.821405,2604.724693
606.156730,74.020594,-10436.903782,2374.896044
606.157054,-2442.679609,-9548.656652,766.095498
606.157378,-2738.761985,-9252.574275,-153.219100
606.157702,-2368.659014,-9474.636058,-229.828649
606.158026,-592.164754,-8956.491898,76.609550
606.158350,518.144159,-7846.182985,459.657299
606.158675,962.267725,-6883.915261,612.876398
606.158999,1406.391290,-6291.750507,612.876398
606.159323,1924.535449,-7402.059420,229.828649
606.159647,2516.700203,-8808.450710,153.219100
606.159971,1406.391290,-9030.512492,0.000000
606.160295,-814.226536,-9030.512492,76.609550
606.160619,-1924.535449,-9326.594869,0.000000
606.160943,-1554.432478,-10066.800811,-229.828649
606.161267,-1924.535449,-10362.883188,-766.095498
606.161592,-1924.535449,-10066.800811,-1608.800546
606.161916,-2072.576638,-9474.636058,-2145.067394
606.162240,-296.082377,-8956.491898,-2298.286494
606.162564,1554.432478,-9030.512492,-1455.581446
606.162888,2590.720797,-10584.944971,-689.485948
606.163212,2664.741391,-11547.212695,-612.876398
606.163536,2442.679609,-11251.130318,-766.095498
606.163860,2590.720797,-11177.109724,-306.438199
606.164184,3182.885551,-11843.295072,153.219100
606.164508,2960.823768,-12139.377449,-1378.971896
606.164833,1110.308913,-11917.315666,-2068.457845
606.165157,-962.267725,-12435.459826,-1532.190996
606.165481,-2146.597232,-11621.233289,-2451.505594
606.165805,-2516.700203,-11621.233289,-1991.848295
606.166129,-2664.741391,-11621.233289,-1915.238745
606.166453,-2664.741391,-10362.883188,-2528.115143
606.166777,-3404.947333,-9252.574275,-3830.477490
606.167101,-3627.009116,-9770.718434,-2757.943793
606.167425,-2146.597232,-10214.842000,-1608.800546
606.167750,222.061783,-10288.862594,-1225.752797
606.168074,1036.288319,-9104.533087,-612.876398
606.168398,962.267725,-8216.285956,-459.657299
606.168722,1776.494261,-9400.615463,-153.219100
606.169046,2516.700203,-10807.006753,229.828649
606.169370,1998.556043,-10214.842000,76.609550
606.169694,-370.102971,-8438.347739,-536.266849
606.170018,-1628.453072,-8512.368333,-536.266849
606.170342,-2590.720797,-9622.677246,-1302.362347
606.170666,-2368.659014,-10066.800811,-306.438199
606.170991,-2590.720797,-10066.800811,-76.609550
606.171315,-2516.700203,-9548.656652,0.000000
606.171639,-2368.659014,-8512.368333,229.828649
606.171963,-370.102971,-8586.388927,766.095498
606.172287,592.164754,-8808.450710,76.609550
606.172611,2146.597232,-9178.553681,1149.143247
606.172935,1628.453072,-9474.636058,612.876398
606.173259,740.205942,-8660.409521,-153.219100
606.173583,-296.082377,-9474.636058,153.219100
606.173908,-148.041188,-10214.842000,612.876398
606.174232,962.267725,-10362.883188,306.438199
606.174556,296.082377,-9548.656652,919.314598
606.174880,148.041188,-8586.388927,919.314598
606.175204,-296.082377,-8882.471304,995.924147
606.175528,296.082377,-8882.471304,1378.971896
606.175852,814.226536,-8734.430116,2068.457845
606.176176,444.123565,-9178.553681,2221.676944
606.176500,148.041188,-9030.512492,1991.848295
606.176824,-518.144159,-8290.306550,1302.362347
606.177149,-814.226536,-7624.121203,766.095498
606.177473,-962.267725,-7550.100608,0.000000
606.177797,-1184.329507,-9326.594869,-306.438199
606.178121,-962.267725,-9622.677246,-153.219100
606.178445,0.000000,-9474.636058,-153.219100
606.178769,1332.370696,-9474.636058,0.000000
606.179093,2146.597232,-9918.759623,383.047749
606.179417,1850.514855,-10436.903782,459.657299
606.179741,1628.453072,-10362.883188,306.438199
606.180066,814.226536,-10881.027347,536.266849
606.180390,444.123565,-10955.047942,842.705048
606.180714,962.267725,-10584.944971,766.095498
606.181038,962.267725,-11251.130318,689.485948
606.181362,666.185348,-11769.274478,766.095498
606.181686,592.164754,-11103.089130,919.314598
606.182010,0.000000,-10881.027347,689.485948
606.182334,-592.164754,-11029.068536,383.047749
606.182658,-1332.370696,-10214.842000,-306.438199
606.182982,-1332.370696,-9918.759623,-919.314598
606.183307,-1184.329507,-9992.780217,-766.095498
606.183631,-296.082377,-9844.739029,-306.438199
606.183955,962.267725,-9474.636058,612.876398
606.184279,1628.453072,-9696.697840,536.266849
606.184603,814.226536,-9400.615463,536.266849
606.184927,296.082377,-9400.615463,0.000000
606.185251,0.000000,-9548.656652,383.047749
606.185575,296.082377,-9474.636058,612.876398
606.185899,296.082377,-8882.471304,1072.533697
606.186224,962.267725,-8142.265362,1225.752797
606.186548,296.082377,-7846.182985,766.095498
606.186872,0.000000,-8068.244768,766.095498
606.187196,0.000000,-8068.244768,0.000000
606.187520,0.000000,-7920.203579,-536.266849
606.187844,-666.185348,-8882.471304,0.000000
606.188168,-888.247130,-9252.574275,153.219100
606.188492,-444.123565,-9622.677246,229.828649
606.188816,-740.205942,-8808.450710,-153.219100
606.189141,-518.144159,-9326.594869,-383.047749
606.189465,-740.205942,-10510.924376,-689.485948
606.189789,74.020594,-10881.027347,-153.219100
606.190113,444.123565,-10510.924376,153.219100
606.190437,74.020594,-10288.862594,-306.438199
606.190761,-370.102971,-10214.842000,0.000000
606.191085,-148.041188,-11029.068536,153.219100
606.191409,222.061783,-11251.130318,229.828649
606.191733,-1036.288319,-9400.615463,-536.266849
606.192057,-1776.494261,-8216.285956,-2221.676944
606.192382,-2146.597232,-8068.244768,-1608.800546
606.192706,-1036.288319,-9326.594869,-1378.971896
606.193030,-222.061783,-9770.718434,-383.047749
606.193354,-1110.308913,-9918.759623,-229.828649
606.193678,-1850.514855,-9400.615463,-1225.752797
606.194002,-1702.473667,-8216.285956,-1685.410096
606.194326,-888.247130,-9178.553681,-1838.629195
606.194650,0.000000,-9252.574275,-1455.581446
606.194974,222.061783,-9844.739029,-995.924147
606.195299,148.041188,-11029.068536,-689.485948
606.195623,888.247130,-11399.171507,-459.657299
606.195947,1184.329507,-11769.274478,-229.828649
606.196271,1406.391290,-11251.130318,0.000000
606.196595,1184.329507,-11325.150913,-1072.533697
606.196919,1184.329507,-11473.192101,-1991.848295
606.197243,1110.308913,-10881.027347,-1302.362347
606.197567,1406.391290,-11177.109724,-536.266849
606.197891,1258.350101,-11843.295072,-612.876398
606.198215,444.123565,-10658.965565,-1378.971896
606.198540,0.000000,-9474.636058,-1762.019645
606.198864,-370.102971,-9548.656652,-1608.800546
606.199188,296.082377,-10214.842000,-1378.971896
606.199512,740.205942,-10214.842000,229.828649
606.199836,592.164754,-9844.739029,766.095498
606.200160,296.082377,-9178.553681,0.000000
606.200484,444.123565,-8068.244768,-383.047749
606.200808,1332.370696,-8438.347739,0.000000
606.201132,1628.453072,-9622.677246,536.266849
606.201457,1332.370696,-9474.636058,612.876398
606.201781,0.000000,-8512.368333,459.657299
606.202105,-666.185348,-8586.388927,842.705048
606.202429,-814.226536,-9104.533087,153.219100
606.202753,-592.164754,-9696.697840,153.219100
606.203077,-1036.288319,-8882.471304,306.438199
606.203401,-1258.350101,-8512.368333,459.657299
606.203725,-1184.329507,-8512.368333,766.095498
606.204049,-296.082377,-7772.162391,383.047749
606.204373,-296.082377,-8882.471304,1915.238745
606.204698,-444.123565,-9326.594869,1455.581446
606.205022,-962.267725,-8882.471304,459.657299
606.205346,-1184.329507,-8586.388927,612.876398
606.205670,0.000000,-8512.368333,1072.533697
606.205994,518.144159,-9844.739029,1838.629195
606.206318,0.000000,-10140.821405,1991.848295
606.206642,-518.144159,-9474.636058,1608.800546
606.206966,-740.205942,-9622.677246,1072.533697
606.207290,296.082377,-9326.594869,229.828649
606.207615,518.144159,-9622.677246,842.705048
606.207939,888.247130,-10436.903782,995.924147
606.208263,962.267725,-10140.821405,306.438199
606.208587,0.000000,-9992.780217,612.876398
606.208911,-1258.350101,-9474.636058,0.000000
606.209235,-1258.350101,-10436.903782,153.219100
606.209559,-2072.576638,-11103.089130,-153.219100
606.209883,-2072.576638,-9992.780217,0.000000
606.210207,-1702.473667,-10288.862594,-306.438199
606.210531,-518.144159,-10214.842000,-842.705048
606.210856,148.041188,-9622.677246,-766.095498
606.211180,444.123565,-10807.006753,229.828649
606.211504,518.144159,-9992.780217,-536.266849
606.211828,888.247130,-9548.656652,76.609550
606.212152,518.144159,-9992.780217,229.828649
606.212476,1036.288319,-10214.842000,76.609550
606.212800,1184.329507,-10807.006753,-306.438199
606.213124,444.123565,-10066.800811,0.000000
606.213448,0.000000,-9474.636058,-153.219100
606.213773,370.102971,-8956.491898,-842.705048
606.214097,1332.370696,-9400.615463,459.657299
606.214421,1258.350101,-10214.842000,-306.438199
606.214745,1184.329507,-9326.594869,-1225.752797
606.215069,518.144159,-8882.471304,-1455.581446
606.215393,222.061783,-9770.718434,-1072.533697
606.215717,1110.308913,-9622.677246,-612.876398
606.216041,962.267725,-9992.780217,-306.438199
606.216365,0.000000,-9696.697840,-153.219100
606.216689,-518.144159,-9178.553681,-1532.190996
606.217014,-740.205942,-9400.615463,-1225.752797
606.217338,444.123565,-9548.656652,-612.876398
606.217662,1480.411884,-10214.842000,536.266849
606.217986,1406.391290,-9622.677246,1149.143247
606.218310,222.061783,-8364.327145,689.485948
606.218634,-1258.350101,-8438.347739,229.828649
606.218958,-1184.329507,-9178.553681,-459.657299
606.219282,-666.185348,-9030.512492,-306.438199
606.219606,-444.123565,-9548.656652,919.314598
606.219931,-962.267725,-9326.594869,536.266849
606.220255,-1628.453072,-8364.327145,-459.657299
606.220579,-1406.391290,-7031.956449,0.000000
606.220903,-666.185348,-8290.306550,0.000000
606.221227,0.000000,-9696.697840,-306.438199
606.221551,-370.102971,-8512.368333,-842.705048
606.221875,-592.164754,-7698.141797,-536.266849
606.222199,148.041188,-9400.615463,0.000000
606.222523,888.247130,-11621.233289,153.219100
606.222847,148.041188,-12435.459826,766.095498
606.223172,-1332.370696,-11251.130318,459.657299
606.223496,-962.267725,-10584.944971,-459.657299
606.223820,74.020594,-10881.027347,0.000000
606.224144,1036.288319,-11251.130318,-153.219100
606.224468,296.082377,-11695.253884,-459.657299
606.224792,-296.082377,-11103.089130,-1302.362347
606.225116,-592.164754,-10658.965565,-995.924147
606.225440,-222.061783,-10807.006753,-766.095498
606.225764,148.041188,-10288.862594,-1608.800546
606.226089,222.061783,-10658.965565,-842.705048
606.226413,-666.185348,-10658.965565,-766.095498
606.226737,-666.185348,-11399.171507,-995.924147
606.227061,-1110.308913,-11325.150913,153.219100
606.227385,-592.164754,-10732.986159,612.876398
606.227709,0.000000,-9474.636058,919.314598
606.228033,0.000000,-8068.244768,-689.485948
606.228357,-296.082377,-8142.265362,-612.876398
606.228681,0.000000,-8364.327145,-459.657299
606.229006,962.267725,-8586.388927,-689.485948
606.229330,1406.391290,-8734.430116,-306.438199
606.229654,444.123565,-8734.430116,-229.828649
606.229978,-296.082377,-9622.677246,0.000000
606.230302,-148.041188,-9474.636058,-536.266849
606.230626,0.000000,-9030.512492,-383.047749
606.230950,666.185348,-9844.739029,842.705048
606.231274,1702.473667,-10362.883188,766.095498
606.231598,1702.473667,-9992.780217,1149.143247
606.231922,1628.453072,-8882.471304,689.485948
606.232247,1850.514855,-8660.409521,153.219100
606.232571,1628.453072,-9844.739029,459.657299
606.232895,1702.473667,-9622.677246,995.924147
606.233219,1554.432478,-8290.306550,1149.143247
606.233543,222.061783,-8290.306550,306.438199
606.233867,74.020594,-8586.388927,536.266849
606.234191,296.082377,-8882.471304,229.828649
606.234515,148.041188,-9252.574275,229.828649
606.234839,-296.082377,-8734.430116,459.657299
606.235164,-962.267725,-7846.182985,-76.609550
606.235488,-1480.411884,-8364.327145,536.266849
606.235812,-1554.432478,-9178.553681,1149.143247
606.236136,-1480.411884,-9696.697840,766.095498
606.236460,-2664.741391,-8512.368333,459.657299
606.236784,-2960.823768,-8290.306550,0.000000
606.237108,-2072.576638,-9030.512492,76.609550
606.237432,-370.102971,-9844.739029,995.924147
606.237756,0.000000,-10732.986159,919.314598
606.238080,-370.102971,-10066.800811,229.828649
606.238405,-148.041188,-10214.842000,229.828649
606.238729,962.267725,-10807.006753,0.000000
606.239053,1628.453072,-11695.253884,76.609550
606.239377,1110.308913,-11547.212695,0.000000
606.239701,222.061783,-10732.986159,-306.438199
606.240025,-1036.288319,-11177.109724,229.828649
606.240349,-962.267725,-11621.233289,229.828649
606.240673,-592.164754,-10584.944971,306.438199
606.240997,-222.061783,-10066.800811,306.438199
606.241321,-814.226536,-9696.697840,0.000000
606.241645,-1332.370696,-9400.615463,-612.876398
606.241969,-1184.329507,-9400.615463,-383.047749
606.242294,0.000000,-9548.656652,229.828649
606.242618,444.123565,-10214.842000,306.438199
606.242942,518.144159,-9252.574275,-306.438199
606.243266,-888.247130,-8586.388927,-153.219100
606.243590,-1332.370696,-9548.656652,-1608.800546
606.243914,-740.205942,-9622.677246,-1685.410096
606.244238,-1258.350101,-9992.780217,-612.876398
606.244562,0.000000,-10436.903782,-229.828649
606.244886,2146.597232,-10140.821405,0.000000
606.245210,3108.864956,-9178.553681,0.000000
606.245534,3256.906145,-8808.450710,306.438199
606.245858,2146.597232,-9622.677246,-306.438199
606.246183,888.247130,-10658.965565,-919.314598
606.246507,148.041188,-9918.759623,0.000000
606.246831,518.144159,-9770.718434,-766.095498
606.247155,814.226536,-9252.574275,-1149.143247
606.247479,222.061783,-9030.512492,-766.095498
606.247803,-370.102971,-9548.656652,-919.314598
606.248127,-592.164754,-9326.594869,-1378.971896
606.248451,-666.185348,-9400.615463,-1225.752797
606.248775,370.102971,-8586.388927,-459.657299
606.249099,888.247130,-8512.368333,-995.924147
606.249423,592.164754,-8808.450710,-1072.533697
606.249748,-370.102971,-8882.471304,-919.314598
606.250072,-740.205942,-9622.677246,-919.314598
606.250396,-444.123565,-9918.759623,-383.047749
606.250720,222.061783,-9992.780217,766.095498
606.251044,518.144159,-10066.800811,842.705048
606.251368,370.102971,-9178.553681,689.485948
606.251692,148.041188,-9030.512492,0.000000
606.252016,-592.164754,-9474.636058,229.828649
606.252340,-296.082377,-9696.697840,153.219100
606.252664,-518.144159,-9622.677246,536.266849
606.252988,-962.267725,-9474.636058,1378.971896
606.253312,-1480.411884,-9548.656652,-459.657299
606.253637,-2368.659014,-9104.533087,-995.924147
606.253961,-2738.761985,-8660.409521,-689.485948
606.254285,-2368.659014,-9548.656652,-306.438199
606.254609,-1628.453072,-9992.780217,0.000000
606.254933,-1110.308913,-9474.636058,459.657299
606.255257,-370.102971,-9474.636058,689.485948
606.255581,1998.556043,-9622.677246,842.705048
606.255905,2368.659014,-10807.006753,689.485948
606.256229,1702.473667,-11103.089130,1149.143247
606.256553,0.000000,-10807.006753,1072.533697
606.256877,-740.205942,-11325.150913,842.705048
606.257201,0.000000,-10584.944971,76.609550
606.257526,-444.123565,-10881.027347,153.219100
606.257850,-740.205942,-11769.274478,-306.438199
606.258174,-1110.308913,-10881.027347,0.000000
606.258498,-592.164754,-9844.739029,-536.266849
606.258822,-518.144159,-9326.594869,153.219100
606.259146,-296.082377,-9474.636058,-153.219100
606.259470,-222.061783,-9696.697840,0.000000
606.259794,-740.205942,-9474.636058,0.000000
606.260118,-962.267725,-9474.636058,0.000000
606.260442,-444.123565,-9178.553681,-459.657299
606.260766,148.041188,-9326.594869,995.924147
606.261090,518.144159,-9622.677246,1455.581446
606.261415,2294.638420,-9696.697840,1378.971896
606.261739,2220.617826,-9252.574275,1608.800546
606.262063,1628.453072,-8808.450710,689.485948
606.262387,592.164754,-7846.182985,-842.705048
606.262711,-296.082377,-7772.162391,-1225.752797
606.263035,-370.102971,-7698.141797,-689.485948
606.263359,0.000000,-9400.615463,0.000000
606.263683,1480.411884,-8882.471304,536.266849
606.264007,1628.453072,-7920.203579,153.219100
606.264331,888.247130,-9030.512492,0.000000
606.264655,518.144159,-9770.718434,-306.438199
606.264980,0.000000,-9844.739029,0.000000
606.265304,-296.082377,-9696.697840,-153.219100
606.265628,222.061783,-9770.718434,766.095498
606.265952,814.226536,-9918.759623,919.314598
606.266276,1184.329507,-10214.842000,995.924147
606.266600,444.123565,-9844.739029,0.000000
606.266924,-740.205942,-8808.450710,-1378.971896
606.267248,-1184.329507,-9548.656652,-995.924147
606.267572,-222.061783,-11325.150913,0.000000
606.267896,1110.308913,-11177.109724,229.828649
606.268220,962.267725,-9326.594869,383.047749
606.268544,-370.102971,-8956.491898,-689.485948
606.268869,-888.247130,-9992.780217,-612.876398
606.269193,444.123565,-11029.068536,153.219100
606.269517,1776.494261,-10436.903782,766.095498
606.269841,1554.432478,-9844.739029,1532.190996
606.270165,740.205942,-9770.718434,536.266849
606.270489,592.164754,-10140.821405,0.000000
606.270813,-222.061783,-9992.780217,306.438199
606.271137,-1554.432478,-9918.759623,306.438199
606.271461,-3108.864956,-10881.027347,0.000000
606.271785,-3404.947333,-10362.883188,-995.924147
606.272109,-2294.638420,-9252.574275,-612.876398
606.272433,-1110.308913,-10436.903782,766.095498
606.272758,-222.061783,-10881.027347,0.000000
606.273082,-740.205942,-9844.739029,-995.924147
606.273406,-2220.617826,-9400.615463,-995.924147
606.273730,-1998.556043,-9474.636058,-459.657299
606.274054,-370.102971,-10362.883188,-153.219100
606.274378,296.082377,-10584.944971,766.095498
606.274702,222.061783,-10510.924376,919.314598
606.275026,74.020594,-9770.718434,689.485948
606.275350,0.000000,-8808.450710,0.000000
606.275674,888.247130,-8586.388927,1302.362347
606.275998,1850.514855,-8586.388927,76.609550
606.276322,1924.535449,-8586.388927,459.657299
606.276647,740.205942,-8438.347739,612.876398
606.276971,222.061783,-7994.224174,76.609550
606.277295,0.000000,-7920.203579,-536.266849
606.277619,-592.164754,-9030.512492,-612.876398
606.277943,-1480.411884,-8512.368333,-842.705048
606.278267,-2146.597232,-8290.306550,-995.924147
606.278591,-1998.556043,-8142.265362,-1685.410096
606.278915,-1184.329507,-8290.306550,-1378.971896
606.279239,-444.123565,-10066.800811,-919.314598
606.279563,518.144159,-10288.862594,-1149.143247
606.279887,222.061783,-10362.883188,-842.705048
606.280212,-296.082377,-9474.636058,-1225.752797
606.280536,592.164754,-9770.718434,-306.438199
606.280860,1184.329507,-11251.130318,-459.657299
606.281184,666.185348,-11843.295072,-766.095498
606.281508,-222.061783,-11769.274478,-1149.143247
606.281832,-666.185348,-11251.130318,-1072.533697
606.282156,740.205942,-10881.027347,-1455.581446
606.282480,1702.473667,-11695.253884,-229.828649
606.282804,1406.391290,-11547.212695,306.438199
606.283128,-148.041188,-10510.924376,0.000000
606.283452,-1480.411884,-10584.944971,-1378.971896
606.283776,-1554.432478,-8512.368333,-2068.457845
606.284101,296.082377,-8290.306550,-1302.362347
606.284425,2072.576638,-10214.842000,0.000000
606.284749,2368.659014,-10140.821405,0.000000
606.285073,1480.411884,-8808.450710,0.000000
606.285397,296.082377,-7402.059420,536.266849
606.285721,-370.102971,-9400.615463,612.876398
606.286045,-296.082377,-9992.780217,153.219100
606.286369,0.000000,-8956.491898,459.657299
606.286693,-148.041188,-8882.471304,612.876398
606.287017,0.000000,-9030.512492,459.657299
606.287341,-444.123565,-9992.780217,919.314598
606.287665,-888.247130,-10066.800811,1685.410096
606.287990,-518.144159,-9252.574275,1149.143247
606.288314,-962.267725,-9178.553681,536.266849
606.288638,-888.247130,-9178.553681,153.219100
606.288962,-370.102971,-10066.800811,919.314598
606.289286,148.041188,-10658.965565,1378.971896
606.289610,74.020594,-10288.862594,1378.971896
606.289934,-740.205942,-9548.656652,1685.410096
606.290258,-740.205942,-8882.471304,919.314598
606.290582,-370.102971,-8438.347739,689.485948
606.290906,814.226536,-8956.491898,1225.752797
606.291230,1258.350101,-8438.347739,995.924147
606.291554,444.123565,-8512.368333,766.095498
606.291879,-518.144159,-8142.265362,612.876398
606.292203,-814.226536,-8586.388927,766.095498
606.292527,-962.267725,-8586.388927,459.657299
606.292851,-1036.288319,-8586.388927,536.266849
606.293175,-1702.473667,-9474.636058,1608.800546
606.293499,-740.205942,-9918.759623,459.657299
606.293823,518.144159,-8364.327145,536.266849
606.294147,592.164754,-9400.615463,1532.190996
606.294471,518.144159,-10510.924376,689.485948
606.294795,666.185348,-10510.924376,0.000000
606.295119,148.041188,-9770.718434,-383.047749
606.295443,592.164754,-9696.697840,229.828649
606.295768,518.144159,-11399.171507,76.609550
606.296092,-444.123565,-11917.315666,-306.438199
606.296416,-1628.453072,-11621.233289,-153.219100
606.296740,-1036.288319,-10881.027347,-842.705048
606.297064,518.144159,-9992.780217,-1378.971896
606.297388,1480.411884,-10807.006753,0.000000
606.297712,1258.350101,-10658.965565,-842.705048
606.298036,1258.350101,-9622.677246,-842.705048
606.298360,518.144159,-10362.883188,-689.485948
606.298684,0.000000,-10510.924376,-842.705048
606.299008,296.082377,-9622.677246,-919.314598
606.299333,296.082377,-8956.491898,-1149.143247
606.299657,222.061783,-8808.450710,-1225.752797
606.299981,296.082377,-9474.636058,-919.314598
606.300305,222.061783,-9104.533087,-919.314598
606.300629,370.102971,-9104.533087,-229.828649
606.300953,814.226536,-10362.883188,76.609550
606.301277,666.185348,-10066.800811,-459.657299
606.301601,222.061783,-8216.285956,-383.047749
606.301925,0.000000,-8808.450710,-1072.533697
606.302249,-1184.329507,-9844.739029,-459.657299
606.302573,-1258.350101,-10955.047942,-536.266849
606.302897,-2146.597232,-10362.883188,0.000000
606.303222,-1850.514855,-9844.739029,536.266849
606.303546,-296.082377,-9696.697840,-306.438199
606.303870,1036.288319,-9474.636058,-306.438199
606.304194,148.041188,-9400.615463,-842.705048
606.304518,-1036.288319,-9474.636058,0.000000
606.304842,-888.247130,-9770.718434,153.219100
606.305166,-370.102971,-9918.759623,153.219100
606.305490,740.205942,-9474.636058,689.485948
606.305814,1184.329507,-9844.739029,842.705048
606.306138,1332.370696,-10658.965565,766.095498
606.306462,1332.370696,-10658.965565,1225.752797
606.306786,74.020594,-9696.697840,1378.971896
606.307111,-518.144159,-8882.471304,1532.190996
606.307435,0.000000,-9030.512492,-76.609550
606.307759,-370.102971,-8512.368333,153.219100
606.308083,-370.102971,-8290.306550,459.657299
606.308407,-592.164754,-9178.553681,0.000000
606.308731,-740.205942,-8438.347739,0.000000
606.309055,-1184.329507,-7698.141797,153.219100
606.309379,-1702.473667,-7994.224174,536.266849
606.309703,-1036.288319,-9474.636058,-995.924147
606.310027,-1406.391290,-10140.821405,0.000000
606.310351,-1480.411884,-9474.636058,0.000000
606.310675,-1036.288319,-9770.718434,459.657299
606.311000,-1036.288319,-10214.842000,689.485948
606.311324,-1184.329507,-9844.739029,689.485948
606.311648,0.000000,-10066.800811,-229.828649
606.311972,444.123565,-9474.636058,-229.828649
606.312296,1702.473667,-9326.594869,-612.876398
606.312620,1702.473667,-9918.759623,-842.705048
606.312944,740.205942,-10807.006753,-153.219100
606.313268,0.000000,-11991.336260,-383.047749
606.313592,518.144159,-10436.903782,-1225.752797
606.313916,1036.288319,-9844.739029,76.609550
606.314240,1258.350101,-11695.253884,383.047749
606.314565,1406.391290,-11177.109724,0.000000
606.314889,1332.370696,-9918.759623,-229.828649
606.315213,592.164754,-9548.656652,-919.314598
606.315537,-518.144159,-9400.615463,-1532.190996
606.315861,-1628.453072,-9622.677246,-1915.238745
606.316185,-2812.782580,-9918.759623,-1149.143247
606.316509,-3478.967927,-9770.718434,-919.314598
606.316833,-2812.782580,-8882.471304,-1608.800546
606.317157,-2072.576638,-8586.388927,-536.266849
606.317481,-666.185348,-10288.862594,-153.219100
606.317805,1110.308913,-10066.800811,-306.438199
606.318129,1628.453072,-9474.636058,-306.438199
606.318454,666.185348,-9326.594869,-229.828649
606.318778,1258.350101,-9474.636058,0.000000
606.319102,1332.370696,-10658.965565,689.485948
606.319426,888.247130,-11103.089130,1149.143247
606.319750,0.000000,-10436.903782,536.266849
606.320074,-444.123565,-9548.656652,-383.047749
606.320398,444.123565,-8882.471304,-383.047749
606.320722,1702.473667,-9770.718434,766.095498
606.321046,1924.535449,-9326.594869,536.266849
606.321370,1258.350101,-8734.430116,0.000000
606.321694,0.000000,-8660.409521,612.876398
606.322018,-592.164754,-8364.327145,0.000000
606.322343,-296.082377,-8882.471304,0.000000
606.322667,-444.123565,-9030.512492,842.705048
606.322991,-1184.329507,-9030.512492,1378.971896
606.323315,-1924.535449,-9400.615463,689.485948
606.323639,-1998.556043,-8734.430116,0.000000
606.323963,-1702.473667,-8512.368333,995.924147
606.324287,-370.102971,-10436.903782,689.485948
606.324611,222.061783,-10288.862594,612.876398
606.324935,-444.123565,-9548.656652,689.485948
606.325259,-740.205942,-8808.450710,612.876398
606.325583,666.185348,-9400.615463,612.876398
606.325907,1776.494261,-10584.944971,1532.190996
606.326232,666.185348,-10066.800811,1149.143247
606.326556,-740.205942,-9992.780217,842.705048
606.326880,-2146.597232,-9770.718434,-612.876398
606.327204,-1036.288319,-10214.842000,842.705048
606.327528,444.123565,-10658.965565,612.876398
606.327852,888.247130,-9326.594869,229.828649
606.328176,0.000000,-7254.018232,-459.657299
606.328500,444.123565,-7920.203579,-766.095498
606.328824,1332.370696,-8808.450710,-536.266849
606.329148,1332.370696,-9104.533087,-766.095498
606.329472,148.041188,-8808.450710,-229.828649
606.329797,-666.185348,-9178.553681,-383.047749
606.330121,-370.102971,-9992.780217,-919.314598
606.330445,592.164754,-10288.862594,229.828649
606.330769,1628.453072,-11399.171507,153.219100
606.331093,1554.432478,-11695.253884,-229.828649
606.331417,222.061783,-10510.924376,-689.485948
606.331741,296.082377,-9474.636058,-1225.752797
606.332065,296.082377,-9770.718434,-1378.971896
606.332389,222.061783,-11177.109724,-1072.533697
606.332713,0.000000,-11843.295072,-383.047749
606.333037,518.144159,-11547.212695,-153.219100
606.333361,-296.082377,-10658.965565,-919.314598
606.333686,-592.164754,-9622.677246,-1455.581446
606.334010,-222.061783,-9400.615463,-612.876398
606.334334,0.000000,-10288.862594,0.000000
606.334658,148.041188,-10881.027347,-459.657299
606.334982,-740.205942,-9770.718434,-229.828649
606.335306,-370.102971,-8512.368333,0.000000
606.335630,888.247130,-9326.594869,-306.438199
606.335954,1850.514855,-9844.739029,-383.047749
606.336278,666.185348,-8586.388927,459.657299
606.336602,-74.020594,-7920.203579,76.609550
606.336926,-1628.453072,-8438.347739,383.047749
606.337250,-1332.370696,-8882.471304,153.219100
606.337575,-962.267725,-9918.759623,612.876398
606.337899,-592.164754,-9992.780217,842.705048
606.338223,-518.144159,-8438.347739,842.705048
606.338547,-222.061783,-8290.306550,612.876398
606.338871,74.020594,-8956.491898,689.485948
606.339195,222.061783,-9696.697840,229.828649
606.339519,-666.185348,-9178.553681,766.095498
606.339843,-2072.576638,-9326.594869,229.828649
606.340167,-3034.844362,-9622.677246,-153.219100
606.340491,-2738.761985,-9104.533087,229.828649
606.340815,-1998.556043,-9844.739029,689.485948
606.341139,-962.267725,-9696.697840,842.705048
606.341463,-370.102971,-9030.512492,306.438199
606.341787,814.226536,-9400.615463,459.657299
606.342111,444.123565,-8956.491898,0.000000
606.342435,1110.308913,-9178.553681,306.438199
606.342759,370.102971,-9400.615463,229.828649
606.343083,-888.247130,-10288.862594,459.657299
606.343407,-296.082377,-10362.883188,0.000000
606.343731,1702.473667,-8882.471304,-153.219100
606.344055,1628.453072,-9400.615463,-459.657299
606.344379,814.226536,-9474.636058,-306.438199
606.344703,1258.350101,-10214.842000,0.000000
606.345027,1332.370696,-10288.862594,0.000000
606.345351,1184.329507,-8734.430116,-1072.533697
606.345675,296.082377,-9178.553681,-1225.752797
606.345999,-222.061783,-9696.697840,-1378.971896
606.346323,592.164754,-10584.944971,-919.314598
606.346647,370.102971,-11103.089130,-689.485948
606.346971,0.000000,-10584.944971,-766.095498
606.347295,518.144159,-10140.821405,-1378.971896
606.347619,1036.288319,-11103.089130,-842.705048
606.347944,1702.473667,-11991.336260,-153.219100
606.348268,2146.597232,-11843.295072,-766.095498
606.348592,1924.535449,-10658.965565,-689.485948
606.348916,592.164754,-10140.821405,306.438199
606.349240,888.247130,-10214.842000,-612.876398
606.349564,370.102971,-9918.759623,-1378.971896
606.349888,-888.247130,-9918.759623,-1072.533697
606.350212,-592.164754,-9696.697840,-1302.362347
606.350536,74.020594,-9474.636058,-766.095498
606.350860,296.082377,-9844.739029,306.438199
606.351184,-518.144159,-9696.697840,536.266849
606.351508,-1110.308913,-9178.553681,-995.924147
606.351832,-1258.350101,-8882.471304,-229.828649
606.352156,-1702.473667,-8956.491898,-383.047749
606.352480,-740.205942,-8808.450710,229.828649
606.352804,-148.041188,-8364.327145,1532.190996
606.353128,-370.102971,-8734.430116,766.095498
606.353452,-444.123565,-8734.430116,306.438199
606.353776,-888.247130,-8364.327145,1608.800546
606.354100,-1036.288319,-8438.347739,536.266849
606.354424,-1628.453072,-8216.285956,459.657299
606.354748,-2368.659014,-8364.327145,306.438199
606.355072,-2220.617826,-8808.450710,383.047749
606.355396,-1924.535449,-9104.533087,383.047749
606.355720,-1184.329507,-9326.594869,0.000000
606.356044,-962.267725,-9696.697840,766.095498
606.356368,-740.205942,-9400.615463,0.000000
606.356692,0.000000,-9918.759623,229.828649
606.357016,222.061783,-9770.718434,842.705048
606.357340,1036.288319,-10732.986159,536.266849
606.357664,592.164754,-11103.089130,612.876398
606.357988,-296.082377,-11029.068536,536.266849
606.358312,-740.205942,-10658.965565,0.000000
606.358636,370.102971,-10658.965565,0.000000
606.358960,444.123565,-10214.842000,306.438199
606.359284,444.123565,-9622.677246,153.219100
606.359608,0.000000,-9844.739029,-612.876398
606.359932,-888.247130,-10214.842000,-612.876398
606.360257,-814.226536,-10362.883188,-229.828649
606.360581,0.000000,-9770.718434,0.000000
606.360905,370.102971,-9918.759623,-229.828649
606.361229,666.185348,-9474.636058,-306.438199
606.361553,1406.391290,-9178.553681,-612.876398
606.361877,1776.494261,-9622.677246,-612.876398
606.362201,2590.720797,-10658.965565,229.828649
606.362525,2960.823768,-10732.986159,383.047749
606.362849,2146.597232,-9474.636058,76.609550
606.363173,1258.350101,-10140.821405,-153.219100
606.363497,888.247130,-10214.842000,-459.657299
606.363821,1628.453072,-9770.718434,-1149.143247
606.364145,1184.329507,-10288.862594,-919.314598
606.364469,518.144159,-9918.759623,-766.095498
606.364793,518.144159,-9918.759623,-306.438199
606.365117,814.226536,-10436.903782,-229.828649
606.365441,592.164754,-9844.739029,-766.095498
606.365765,148.041188,-9548.656652,-919.314598
606.366089,-814.226536,-9252.574275,-689.485948
606.366413,-962.267725,-9474.636058,-689.485948
606.366737,-740.205942,-9474.636058,-153.219100
606.367061,148.041188,-8660.409521,306.438199
606.367385,740.205942,-9178.553681,612.876398
606.367709,0.000000,-9326.594869,0.000000
606.368033,-1406.391290,-8882.471304,-1378.971896
606.368357,-2516.700203,-8734.430116,0.000000
606.368681,-1628.453072,-9474.636058,0.000000
606.369005,-740.205942,-10066.800811,459.657299
606.369329,-444.123565,-9474.636058,842.705048
606.369653,-592.164754,-8586.388927,229.828649
606.369977,-814.226536,-8882.471304,-383.047749
606.370301,-222.061783,-9030.512492,-459.657299
606.370625,0.000000,-9474.636058,842.705048
606.370949,0.000000,-10362.883188,1225.752797
606.371273,-666.185348,-9548.656652,0.000000
606.371597,-1554.432478,-9178.553681,229.828649
606.371921,-1184.329507,-9844.739029,766.095498
606.372245,74.020594,-11399.171507,919.314598
606.372570,0.000000,-11621.233289,612.876398
606.372894,-1110.308913,-8882.471304,995.924147
606.373218,-1924.535449,-7994.224174,1225.752797
606.373542,-1332.370696,-9474.636058,766.095498
606.373866,-740.205942,-10066.800811,306.438199
606.374190,-740.205942,-9622.677246,0.000000
606.374514,-1110.308913,-8586.388927,-229.828649
606.374838,0.000000,-9178.553681,-153.219100
606.375162,1036.288319,-9474.636058,153.219100
606.375486,888.247130,-9622.677246,306.438199
606.375810,0.000000,-9548.656652,0.000000
606.376134,-888.247130,-9918.759623,-612.876398
606.376458,-1036.288319,-10881.027347,229.828649
606.376782,370.102971,-10732.986159,995.924147
606.377106,1998.556043,-10214.842000,766.095498
606.377430,1628.453072,-10140.821405,536.266849
606.377754,888.247130,-9992.780217,0.000000
606.378078,370.102971,-10066.800811,-153.219100
606.378402,296.082377,-9474.636058,-459.657299
606.378726,222.061783,-9474.636058,-383.047749
606.379050,222.061783,-9622.677246,-689.485948
606.379374,444.123565,-9992.780217,-842.705048
606.379698,-296.082377,-10510.924376,-689.485948
606.380022,-370.102971,-9918.759623,-1608.800546
606.380346,814.226536,-8808.450710,-1608.800546
606.380670,1258.350101,-10140.821405,-995.924147
606.380994,1628.453072,-10584.944971,-536.266849
606.381318,2220.617826,-9474.636058,383.047749
606.381642,1554.432478,-8882.471304,-153.219100
606.381966,814.226536,-9474.636058,-612.876398
606.382290,0.000000,-10214.842000,-459.657299
606.382614,0.000000,-9770.718434,-766.095498
606.382938,-222.061783,-9474.636058,-153.219100
606.383262,-296.082377,-9548.656652,-995.924147
606.383586,666.185348,-8956.491898,-1302.362347
606.383910,370.102971,-9030.512492,-1378.971896
606.384234,-222.061783,-9474.636058,-1302.362347
606.384558,-666.185348,-9030.512492,-1762.019645
606.384883,-1258.350101,-9178.553681,-1608.800546
606.385207,-1332.370696,-10066.800811,-459.657299
606.385531,74.020594,-10140.821405,383.047749
606.385855,888.247130,-10288.862594,766.095498
606.386179,148.041188,-9474.636058,306.438199
606.386503,-962.267725,-9992.780217,842.705048
606.386827,-888.247130,-10288.862594,612.876398
606.387151,296.082377,-9326.594869,766.095498
606.387475,1258.350101,-8808.450710,1302.362347
606.387799,888.247130,-9104.533087,995.924147
606.388123,0.000000,-8512.368333,0.000000
606.388447,-592.164754,-8586.388927,153.219100
606.388771,-740.205942,-9030.512492,383.047749
606.389095,-1184.329507,-9844.739029,-229.828649
606.389419,-2368.659014,-9030.512492,-1225.752797
606.389743,-3701.029710,-8956.491898,-536.266849
606.390067,-3330.926739,-9548.656652,-612.876398
606.390391,-1554.432478,-10436.903782,0.000000
606.390715,-444.123565,-9992.780217,919.314598
606.391039,296.082377,-9918.759623,1608.800546
606.391363,444.123565,-10362.883188,1225.752797
606.391687,592.164754,-10288.862594,766.095498
606.392011,296.082377,-10288.862594,919.314598
606.392335,-592.164754,-11177.109724,766.095498
606.392659,-1258.350101,-11177.109724,536.266849
606.392983,-1776.494261,-10955.047942,766.095498
606.393307,-2146.597232,-9844.739029,229.828649
606.393631,-1998.556043,-8956.491898,-459.657299
606.393955,-814.226536,-9696.697840,-536.266849
606.394279,222.061783,-9474.636058,-1302.362347
606.394603,592.164754,-8512.368333,-612.876398
606.394927,888.247130,-8068.244768,-612.876398
606.395251,1110.308913,-7994.224174,-995.924147
606.395575,1110.308913,-8882.471304,306.438199
606.395899,1998.556043,-9696.697840,459.657299
606.396223,2368.659014,-9844.739029,383.047749
606.396547,1924.535449,-10732.986159,229.828649
606.396871,2368.659014,-9918.759623,383.047749
606.397196,3849.070898,-10214.842000,919.314598
606.397520,4589.276840,-11103.089130,689.485948
606.397844,4293.194464,-9770.718434,76.609550
606.398168,2294.638420,-9252.574275,-536.266849
606.398492,1702.473667,-8882.471304,-229.828649
606.398816,1332.370696,-9696.697840,-1532.190996
606.399140,444.123565,-10881.027347,-842.705048
606.399464,-518.144159,-9844.739029,-842.705048
606.399788,-1702.473667,-9474.636058,-1532.190996
606.400112,-2368.659014,-9548.656652,-1302.362347
606.400436,-2072.576638,-9252.574275,-1608.800546
606.400760,-1332.370696,-9992.780217,-766.095498
606.401084,-296.082377,-9030.512492,-536.266849
606.401408,370.102971,-9104.533087,0.000000
606.401732,518.144159,-9474.636058,0.000000
606.402056,1036.288319,-9104.533087,-306.438199
606.402380,370.102971,-9252.574275,153.219100
606.402704,-592.164754,-9178.553681,-612.876398
606.403028,-1480.411884,-8586.388927,-689.485948
606.403352,-1110.308913,-9030.512492,-459.657299
606.403676,0.000000,-9696.697840,-306.438199
606.404000,-148.041188,-10658.965565,-153.219100
606.404324,-370.102971,-9918.759623,-536.266849
606.404648,-1258.350101,-9178.553681,-153.219100
606.404972,-1702.473667,-9474.636058,-383.047749
606.405296,-1110.308913,-9326.594869,-536.266849
606.405620,-1702.473667,-9770.718434,306.438199
606.405944,-2812.782580,-10584.944971,-153.219100
606.406268,-2960.823768,-10214.842000,0.000000
606.406592,-2368.659014,-10436.903782,0.000000
606.406916,-1554.432478,-9770.718434,689.485948
606.407240,-1258.350101,-9844.739029,153.219100
606.407564,-1480.411884,-9918.759623,0.000000
606.407888,-1258.350101,-9474.636058,76.609550
606.408212,-148.041188,-9252.574275,-153.219100
606.408536,0.000000,-9326.594869,-229.828649
606.408860,0.000000,-9474.636058,-153.219100
606.409184,222.061783,-9696.697840,0.000000
606.409509,0.000000,-9844.739029,0.000000
606.409833,-888.247130,-9992.780217,0.000000
606.410157,-666.185348,-9474.636058,76.609550
606.410481,1110.308913,-9992.780217,306.438199
606.410805,2368.659014,-9696.697840,1302.362347
606.411129,3182.885551,-9622.677246,919.314598
606.411453,2664.741391,-9622.677246,1455.581446
606.411777,2442.679609,-9178.553681,995.924147
606.412101,2368.659014,-9178.553681,689.485948
606.412425,1628.453072,-9696.697840,536.266849
606.412749,296.082377,-9770.718434,-612.876398
606.413073,-1332.370696,-9844.739029,-919.314598
606.413397,-888.247130,-10288.862594,-1838.629195
606.413721,-296.082377,-10288.862594,-1225.752797
606.414045,592.164754,-10955.047942,-612.876398
606.414369,1110.308913,-10658.965565,-383.047749
606.414693,962.267725,-10510.924376,0.000000
606.415017,1184.329507,-9474.636058,-383.047749
606.415341,2072.576638,-9770.718434,306.438199
606.415665,1702.473667,-10658.965565,536.266849
606.415989,1406.391290,-9326.594869,76.609550
606.416313,444.123565,-8956.491898,229.828649
606.416637,-296.082377,-9622.677246,-229.828649
606.416961,0.000000,-9696.697840,-536.266849
606.417285,296.082377,-9770.718434,306.438199
606.417609,0.000000,-8956.491898,229.828649
606.417933,-1036.288319,-8586.388927,-536.266849
606.418257,-814.226536,-8216.285956,-306.438199
606.418581,-666.185348,-8734.430116,229.828649
606.418905,0.000000,-9400.615463,536.266849
606.419229,-148.041188,-9252.574275,76.609550
606.419553,-888.247130,-9474.636058,1149.143247
606.419877,-740.205942,-10214.842000,842.705048
606.420201,-148.041188,-8956.491898,0.000000
606.420525,-1776.494261,-8808.450710,-229.828649
606.420849,-2516.700203,-9696.697840,0.000000
606.421173,-1110.308913,-9548.656652,229.828649
606.421497,370.102971,-9548.656652,306.438199
606.421822,814.226536,-8956.491898,1455.581446
606.422146,962.267725,-9030.512492,689.485948
606.422470,444.123565,-9622.677246,0.000000
606.422794,-666.185348,-9696.697840,842.705048
606.423118,-1036.288319,-9918.759623,-306.438199
606.423442,-1924.535449,-9696.697840,-766.095498
606.423766,-2072.576638,-9844.739029,-383.047749
606.424090,-1258.350101,-9992.780217,153.219100
606.424414,74.020594,-9992.780217,0.000000
606.424738,0.000000,-10436.903782,-306.438199
606.425062,-222.061783,-10140.821405,-229.828649
606.425386,0.000000,-10066.800811,0.000000
606.425710,518.144159,-10584.944971,-383.047749
606.426034,0.000000,-9992.780217,0.000000
606.426358,-666.185348,-10288.862594,-306.438199
606.426682,-1332.370696,-10881.027347,-995.924147
606.427006,-1554.432478,-10510.924376,-919.314598
606.427330,-1110.308913,-10584.944971,0.000000
606.427654,-296.082377,-10584.944971,229.828649
606.427978,222.061783,-9918.759623,-919.314598
606.428302,0.000000,-8364.327145,-1225.752797
606.428626,0.000000,-8290.306550,-689.485948
606.428950,1258.350101,-10288.862594,-766.095498
606.429274,1702.473667,-10584.944971,-383.047749
606.429598,1406.391290,-9844.739029,0.000000
606.429922,740.205942,-9252.574275,-536.266849
606.430246,1406.391290,-9178.553681,-1532.190996
606.430570,2220.617826,-9844.739029,-1149.143247
606.430894,1924.535449,-10288.862594,-995.924147
606.431218,1480.411884,-9992.780217,76.609550
606.431542,814.226536,-9400.615463,-612.876398
606.431866,666.185348,-8882.471304,-459.657299
606.432190,814.226536,-9696.697840,-689.485948
606.432514,74.020594,-9696.697840,-995.924147
606.432838,148.041188,-9326.594869,-1302.362347
606.433162,0.000000,-9770.718434,0.000000
606.433486,592.164754,-9252.574275,-229.828649
606.433810,888.247130,-8882.471304,-153.219100
606.434135,-740.205942,-9104.533087,-76.609550
606.434459,-1332.370696,-9178.553681,-536.266849
606.434783,-1036.288319,-10510.924376,-229.828649
606.435107,518.144159,-10214.842000,76.609550
606.435431,962.267725,-9474.636058,766.095498
606.435755,814.226536,-8512.368333,459.657299
606.436079,0.000000,-7846.182985,-612.876398
606.436403,-740.205942,-8438.347739,-1072.533697
606.436727,-592.164754,-8290.306550,-1455.581446
606.437051,148.041188,-8956.491898,-536.266849
606.437375,666.185348,-9844.739029,-153.219100
606.437699,518.144159,-9178.553681,0.000000
606.438023,-1036.288319,-9178.553681,306.438199
606.438347,-1776.494261,-9770.718434,-229.828649
606.438671,-962.267725,-11473.192101,0.000000
606.438996,-962.267725,-11473.192101,383.047749
606.439320,-592.164754,-10881.027347,612.876398
606.439645,-962.267725,-10658.965565,842.705048
606.439969,-1036.288319,-11103.089130,766.095498
606.440293,-962.267725,-10288.862594,689.485948
606.440617,-1036.288319,-11029.068536,536.266849
606.440941,-2294.638420,-10066.800811,-306.438199
606.441265,-2294.638420,-8660.409521,-536.266849
606.441589,-1480.411884,-9548.656652,229.828649
606.441914,-148.041188,-10436.903782,0.000000
606.442238,740.205942,-9844.739029,153.219100
606.442562,0.000000,-8956.491898,459.657299
606.442886,-222.061783,-9104.533087,689.485948
606.443210,-814.226536,-9474.636058,0.000000
606.443534,-1110.308913,-8068.244768,842.705048
606.443858,0.000000,-8956.491898,1455.581446
606.444183,296.082377,-9548.656652,1149.143247
606.444507,518.144159,-9178.553681,766.095498
606.444831,0.000000,-7772.162391,459.657299
606.445155,370.102971,-7254.018232,0.000000
606.445479,592.164754,-7994.224174,-229.828649
606.445803,740.205942,-9252.574275,-459.657299
606.446127,1554.432478,-10066.800811,0.000000
606.446451,1628.453072,-10436.903782,766.095498
606.446776,1776.494261,-10362.883188,0.000000
606.447100,740.205942,-10584.944971,-536.266849
606.447424,0.000000,-10584.944971,-459.657299
606.447748,740.205942,-11399.171507,0.000000
606.448072,296.082377,-11547.212695,383.047749
606.448396,296.082377,-10732.986159,0.000000
606.448720,0.000000,-9326.594869,0.000000
606.449045,-296.082377,-9696.697840,-229.828649
606.449369,0.000000,-9622.677246,-995.924147
606.449693,0.000000,-9548.656652,-995.924147
606.450017,222.061783,-8882.471304,-995.924147
606.450341,666.185348,-8438.347739,-306.438199
606.450665,1776.494261,-9844.739029,-536.266849
606.450989,1850.514855,-9622.677246,-842.705048
606.451313,666.185348,-9844.739029,-1302.362347
606.451638,0.000000,-10140.821405,-1302.362347
606.451962,0.000000,-10140.821405,-1378.971896
606.452286,0.000000,-10214.842000,-153.219100
606.452610,666.185348,-9844.739029,153.219100
606.452934,592.164754,-9548.656652,0.000000
606.453258,814.226536,-9770.718434,0.000000
606.453582,1184.329507,-10436.903782,995.924147
606.453907,296.082377,-10955.047942,1532.190996
606.454231,-814.226536,-9696.697840,306.438199
606.454555,-2664.741391,-7846.182985,-536.266849
606.454879,-3478.967927,-7624.121203,-1072.533697
606.455203,-2368.659014,-8882.471304,-1608.800546
606.455527,-1110.308913,-9918.759623,-995.924147
606.455851,-814.226536,-9992.780217,0.000000
606.456176,-740.205942,-10066.800811,689.485948
606.456500,-444.123565,-9474.636058,-153.219100
606.456824,0.000000,-8364.327145,-919.314598
606.457148,-814.226536,-9030.512492,-459.657299
606.457472,0.000000,-10066.800811,459.657299
606.457796,1406.391290,-10140.821405,1149.143247
606.458120,1850.514855,-9844.739029,2451.505594
606.458444,1850.514855,-8660.409521,1149.143247
606.458769,740.205942,-8290.306550,383.047749
606.459093,-1332.370696,-9474.636058,-383.047749
606.459417,-2072.576638,-9918.759623,-536.266849
606.459741,-1998.556043,-9474.636058,-842.705048
606.460065,-1850.514855,-8660.409521,-306.438199
606.460389,-1332.370696,-9104.533087,76.609550
606.460713,-444.123565,-9474.636058,-153.219100
606.461038,444.123565,-10288.862594,0.000000
606.461362,-370.102971,-10584.944971,-612.876398
606.461686,-962.267725,-10140.821405,-842.705048
606.462010,-518.144159,-10436.903782,229.828649
606.462334,296.082377,-11029.068536,229.828649
606.462658,518.144159,-10732.986159,-153.219100
606.462982,0.000000,-9992.780217,-306.438199
606.463306,518.144159,-10288.862594,-766.095498
606.463631,2220.617826,-11399.171507,-612.876398
606.463955,2294.638420,-10807.006753,153.219100
606.464279,2664.741391,-9474.636058,306.438199
606.464603,1554.432478,-9844.739029,-612.876398
606.464927,0.000000,-10288.862594,-1302.362347
606.465251,-888.247130,-10436.903782,-842.705048
606.465575,-592.164754,-10955.047942,-612.876398
606.465900,-222.061783,-9622.677246,229.828649
606.466224,296.082377,-9548.656652,-229.828649
606.466548,592.164754,-9252.574275,0.000000
606.466872,1480.411884,-9252.574275,383.047749
606.467196,1554.432478,-9770.718434,229.828649
606.467520,296.082377,-9474.636058,229.828649
606.467844,-888.247130,-8364.327145,153.219100
606.468168,-1110.308913,-8438.347739,0.000000
606.468493,-888.247130,-8586.388927,-229.828649
606.468817,-222.061783,-8586.388927,-612.876398
606.469141,-1036.288319,-9474.636058,76.609550
606.469465,-1628.453072,-9548.656652,0.000000
606.469789,-1184.329507,-8956.491898,-306.438199
606.470113,0.000000,-7624.121203,229.828649
606.470437,592.164754,-8808.450710,1149.143247
606.470762,444.123565,-10140.821405,459.657299
606.471086,592.164754,-9844.739029,459.657299
606.471410,-370.102971,-8956.491898,229.828649
606.471734,148.041188,-8512.368333,76.609550
606.472058,962.267725,-9770.718434,612.876398
606.472382,592.164754,-11029.068536,153.219100
606.472706,-444.123565,-10510.924376,0.000000
606.473031,-888.247130,-9696.697840,306.438199
606.473355,-370.102971,-9992.780217,-689.485948
606.473679,148.041188,-9844.739029,-536.266849
606.474003,0.000000,-9992.780217,383.047749
606.474327,74.020594,-9770.718434,229.828649
606.474651,222.061783,-9770.718434,-459.657299
606.474975,0.000000,-8956.491898,0.000000
606.475299,-888.247130,-9030.512492,0.000000
606.475624,-1184.329507,-9622.677246,-306.438199
606.475948,-814.226536,-9622.677246,536.266849
606.476272,-1036.288319,-10140.821405,995.924147
606.476596,-518.144159,-10140.821405,383.047749
606.476920,-296.082377,-9548.656652,-306.438199
606.477244,-370.102971,-9844.739029,229.828649
606.477568,370.102971,-9770.718434,76.609550
606.477893,888.247130,-9326.594869,-229.828649
606.478217,740.205942,-9252.574275,0.000000
606.478541,592.164754,-8882.471304,-153.219100
606.478865,1110.308913,-9400.615463,-919.314598
606.479189,888.247130,-10584.944971,0.000000
606.479513,0.000000,-10881.027347,153.219100
606.479837,0.000000,-10362.883188,459.657299
606.480161,-888.247130,-9696.697840,383.047749
606.480486,-370.102971,-10510.924376,0.000000
606.480810,296.082377,-10362.883188,-459.657299
606.481134,-444.123565,-10140.821405,-459.657299
606.481458,-592.164754,-10214.842000,-766.095498
606.481782,222.061783,-10066.800811,-459.657299
606.482106,1406.391290,-10807.006753,689.485948
606.482430,1702.473667,-10732.986159,153.219100
606.482755,74.020594,-10732.986159,-459.657299
606.483079,-1258.350101,-9844.739029,-1225.752797
606.483403,-1480.411884,-9770.718434,-1532.190996
606.483727,-444.123565,-10510.924376,-689.485948
606.484051,444.123565,-10732.986159,-229.828649
606.484375,1036.288319,-9252.574275,-536.266849
606.484699,888.247130,-8808.450710,-842.705048
606.485024,592.164754,-9474.636058,-306.438199
606.485348,0.000000,-9474.636058,-229.828649
606.485672,-1554.432478,-9696.697840,383.047749
606.485996,-2516.700203,-8660.409521,229.828649
606.486320,-2516.700203,-8216.285956,-459.657299
606.486644,-1332.370696,-8660.409521,-383.047749
606.486968,74.020594,-8956.491898,76.609550
606.487292,814.226536,-8956.491898,536.266849
606.487617,592.164754,-8512.368333,842.705048
606.487941,740.205942,-8512.368333,689.485948
606.488265,1036.288319,-9326.594869,612.876398
606.488589,1036.288319,-9474.636058,459.657299
606.488913,518.144159,-9474.636058,0.000000
606.489237,0.000000,-9178.553681,-459.657299
606.489561,-888.247130,-8512.368333,-306.438199
606.489886,-1850.514855,-8808.450710,76.609550
606.490210,-2146.597232,-9252.574275,689.485948
606.490534,-1850.514855,-9474.636058,306.438199
606.490858,-1554.432478,-9548.656652,153.219100
606.491182,-1258.350101,-9252.574275,229.828649
606.491506,-370.102971,-8808.450710,76.609550
606.491830,222.061783,-9326.594869,919.314598
606.492154,296.082377,-9326.594869,995.924147
606.492479,370.102971,-9696.697840,766.095498
606.492803,222.061783,-9252.574275,536.266849
606.493127,0.000000,-9326.594869,842.705048
606.493451,296.082377,-9474.636058,919.314598
606.493775,1332.370696,-9844.739029,0.000000
606.494099,518.144159,-10436.903782,-383.047749
606.494423,-740.205942,-9992.780217,-612.876398
606.494748,-148.041188,-9400.615463,-1225.752797
606.495072,518.144159,-9400.615463,-842.705048
606.495396,1702.473667,-9770.718434,-229.828649
606.495720,1850.514855,-10214.842000,76.609550
606.496044,1110.308913,-11103.089130,153.219100
606.496368,0.000000,-11251.130318,76.609550
606.496692,-518.144159,-10955.047942,459.657299
606.497016,814.226536,-10584.944971,153.219100
606.497341,444.123565,-10732.986159,0.000000
606.497665,518.144159,-10658.965565,0.000000
606.497989,592.164754,-10140.821405,-306.438199
606.498313,518.144159,-9992.780217,-306.438199
606.498637,444.123565,-9474.636058,-383.047749
606.498961,0.000000,-9696.697840,-536.266849
606.499285,-74.020594,-9770.718434,-1378.971896
606.499610,-370.102971,-9918.759623,-1149.143247
606.499934,-370.102971,-10066.800811,-689.485948
606.500258,74.020594,-10066.800811,-459.657299
606.500582,0.000000,-10362.883188,0.000000
606.500906,-518.144159,-9918.759623,229.828649
606.501230,-814.226536,-9992.780217,0.000000
606.501554,0.000000,-9548.656652,383.047749
606.501879,740.205942,-9252.574275,842.705048
606.502203,740.205942,-9178.553681,1072.533697
606.502527,518.144159,-8438.347739,153.219100
606.502851,0.000000,-7402.059420,-153.219100
606.503175,-962.267725,-8586.388927,612.876398
606.503499,-1406.391290,-10288.862594,0.000000
606.503823,-2368.659014,-10140.821405,0.000000
606.504147,-2738.761985,-8956.491898,76.609550
606.504472,-2072.576638,-8290.306550,229.828649
606.504796,-666.185348,-8956.491898,0.000000
606.505120,518.144159,-9696.697840,-459.657299
606.505444,1406.391290,-9252.574275,229.828649
606.505768,1628.453072,-9548.656652,229.828649
606.506092,444.123565,-9918.759623,766.095498
606.506416,0.000000,-10510.924376,842.705048
606.506741,-370.102971,-9622.677246,766.095498
606.507065,-962.267725,-9326.594869,306.438199
606.507389,-1110.308913,-9178.553681,306.438199
606.507713,-666.185348,-8808.450710,-383.047749
606.508037,0.000000,-8660.409521,76.609550
606.508361,148.041188,-8142.265362,689.485948
606.508685,370.102971,-9030.512492,383.047749
606.509009,-592.164754,-9696.697840,229.828649
606.509334,-2072.576638,-9474.636058,-229.828649
606.509658,-2220.617826,-9770.718434,-766.095498
606.509982,-1850.514855,-9622.677246,-919.314598
606.510306,-518.144159,-9400.615463,-766.095498
606.510630,296.082377,-9474.636058,-153.219100
606.510954,1554.432478,-9622.677246,-229.828649
606.511278,1850.514855,-10362.883188,-536.266849
606.511603,2960.823768,-10436.903782,0.000000
606.511927,2886.803174,-10436.903782,0.000000
606.512251,1776.494261,-11325.150913,-229.828649
606.512575,74.020594,-10881.027347,-1149.143247
606.512899,0.000000,-10140.821405,-1532.190996
606.513223,0.000000,-10807.006753,-536.266849
606.513547,-148.041188,-12435.459826,-459.657299
606.513872,0.000000,-12139.377449,0.000000
606.514196,518.144159,-10140.821405,153.219100
606.514520,592.164754,-9696.697840,-229.828649
606.514844,-444.123565,-10288.862594,-1149.143247
606.515168,-592.164754,-10436.903782,-1072.533697
606.515492,-148.041188,-9844.739029,-842.705048
606.515816,962.267725,-9474.636058,-383.047749
606.516140,1554.432478,-9548.656652,0.000000
606.516465,1554.432478,-9104.533087,306.438199
606.516789,1332.370696,-8660.409521,-766.095498
606.517113,296.082377,-9474.636058,-612.876398
606.517437,-740.205942,-9918.759623,-689.485948
606.517761,-740.205942,-9992.780217,-306.438199
606.518085,74.020594,-9104.533087,0.000000
606.518409,1184.329507,-8068.244768,536.266849
606.518734,1036.288319,-8882.471304,995.924147
606.519058,0.000000,-9030.512492,842.705048
606.519382,-1332.370696,-8586.388927,153.219100
606.519706,-1998.556043,-8660.409521,459.657299
606.520030,-962.267725,-8660.409521,0.000000
606.520354,-222.061783,-8956.491898,536.266849
606.520678,-370.102971,-10140.821405,306.438199
606.521002,-444.123565,-10066.800811,383.047749
606.521327,-592.164754,-10066.800811,0.000000
606.521651,0.000000,-10140.821405,536.266849
606.521975,666.185348,-10140.821405,766.095498
606.522299,1036.288319,-10214.842000,842.705048
606.522623,0.000000,-9474.636058,536.266849
606.522947,-962.267725,-9474.636058,383.047749
606.523271,-888.247130,-9326.594869,0.000000
606.523596,-148.041188,-8734.430116,-229.828649
606.523920,-370.102971,-8142.265362,1072.533697
606.524244,-1036.288319,-7772.162391,1072.533697
606.524568,-1184.329507,-8142.265362,459.657299
606.524892,-1628.453072,-8142.265362,536.266849
606.525216,-1406.391290,-7846.182985,229.828649
606.525540,-1776.494261,-7846.182985,0.000000
606.525865,-1776.494261,-8586.388927,-383.047749
606.526189,-296.082377,-9474.636058,-383.047749
606.526513,222.061783,-10288.862594,536.266849
606.526837,740.205942,-10955.047942,842.705048
606.527161,370.102971,-11325.150913,459.657299
606.527485,-148.041188,-10881.027347,0.000000
606.527809,-148.041188,-10807.006753,-306.438199
606.528133,666.185348,-11769.274478,153.219100
606.528458,1998.556043,-12213.398043,612.876398
606.528782,2294.638420,-12065.356855,612.876398
606.529106,1110.308913,-10584.944971,76.609550
606.529430,-888.247130,-10214.842000,76.609550
606.529754,-592.164754,-10955.047942,-153.219100
606.530078,0.000000,-11103.089130,0.000000
606.530402,-222.061783,-10732.986159,0.000000
606.530727,-1258.350101,-8882.471304,-612.876398
606.531051,74.020594,-8216.285956,76.609550
606.531375,1110.308913,-8734.430116,-766.095498
606.531699,1406.391290,-9178.553681,-153.219100
606.532023,962.267725,-8438.347739,153.219100
606.532347,666.185348,-8290.306550,-459.657299
606.532671,962.267725,-8734.430116,-306.438199
606.532995,1628.453072,-9178.553681,76.609550
606.533320,2516.700203,-8660.409521,612.876398
606.533644,3256.906145,-9178.553681,689.485948
606.533968,1998.556043,-8882.471304,536.266849
606.534292,1110.308913,-9252.574275,612.876398
606.534616,-296.082377,-9622.677246,153.219100
606.534940,-740.205942,-9918.759623,-229.828649
606.535264,-1554.432478,-9400.615463,-229.828649
606.535589,-2738.761985,-8956.491898,-919.314598
606.535913,-3182.885551,-9030.512492,-229.828649
606.536237,-2738.761985,-9252.574275,-536.266849
606.536561,-1258.350101,-9400.615463,-612.876398
606.536885,-962.267725,-9548.656652,-229.828649
606.537209,-1406.391290,-10140.821405,0.000000
606.537533,-1554.432478,-10288.862594,-459.657299
606.537857,-1110.308913,-10288.862594,-536.266849
606.538182,-740.205942,-10288.862594,76.609550
606.538506,0.000000,-10362.883188,0.000000
606.538830,444.123565,-10510.924376,-153.219100
606.539154,814.226536,-10288.862594,766.095498
606.539478,1110.308913,-10584.944971,76.609550
606.539802,740.205942,-10362.883188,-995.924147
606.540126,296.082377,-9030.512492,-229.828649
606.540451,888.247130,-9474.636058,76.609550
606.540775,1184.329507,-10140.821405,-459.657299
606.541099,370.102971,-8586.388927,-536.266849
606.541423,-1480.411884,-7846.182985,-995.924147
606.541747,-2442.679609,-8512.368333,-1532.190996
606.542071,-2146.597232,-10066.800811,-1838.629195
606.542395,-2442.679609,-10214.842000,-919.314598
606.542719,-2072.576638,-9474.636058,-689.485948
606.543044,-962.267725,-8586.388927,-612.876398
606.543368,370.102971,-9696.697840,-229.828649
606.543692,1036.288319,-10732.986159,0.000000
606.544016,1406.391290,-11029.068536,-306.438199
606.544340,1702.473667,-10584.944971,0.000000
606.544664,2368.659014,-9992.780217,-383.047749
606.544988,2590.720797,-10066.800811,-153.219100
606.545313,2072.576638,-11399.171507,-153.219100
606.545637,1110.308913,-11769.274478,306.438199
606.545961,-222.061783,-10955.047942,-1532.190996
606.546285,-1110.308913,-9696.697840,-1302.362347
606.546609,-148.041188,-9474.636058,-842.705048
606.546933,962.267725,-9622.677246,-612.876398
606.547257,1110.308913,-9400.615463,-153.219100
606.547581,518.144159,-8068.244768,0.000000
606.547906,-296.082377,-8068.244768,-383.047749
606.548230,-518.144159,-9178.553681,306.438199
606.548554,296.082377,-9474.636058,612.876398
606.548878,1184.329507,-8882.471304,689.485948
606.549202,962.267725,-9178.553681,919.314598
606.549526,370.102971,-9770.718434,76.609550
606.549850,296.082377,-9030.512492,306.438199
606.550175,1258.350101,-8808.450710,306.438199
606.550499,814.226536,-9548.656652,842.705048
606.550823,74.020594,-10066.800811,1225.752797
606.551147,-296.082377,-9622.677246,459.657299
606.551471,-1554.432478,-9548.656652,842.705048
606.551795,-1480.411884,-9992.780217,612.876398
606.552119,-2294.638420,-10214.842000,1072.533697
606.552443,-2664.741391,-9622.677246,1838.629195
606.552768,-2442.679609,-9474.636058,766.095498
606.553092,-2738.761985,-9104.533087,1225.752797
606.553416,-1258.350101,-8216.285956,995.924147
606.553740,444.123565,-9030.512492,842.705048
606.554064,1480.411884,-9548.656652,1455.581446
606.554388,1776.494261,-9474.636058,612.876398
606.554712,1110.308913,-9326.594869,842.705048
606.555037,1480.411884,-9696.697840,919.314598
606.555361,1406.391290,-11251.130318,1225.752797
606.555685,370.102971,-10658.965565,536.266849
606.556009,-296.082377,-9992.780217,153.219100
606.556333,-1184.329507,-10510.924376,612.876398
606.556657,222.061783,-10658.965565,229.828649
606.556981,1110.308913,-10584.944971,1532.190996
606.557305,1258.350101,-9918.759623,766.095498
606.557630,518.144159,-8142.265362,459.657299
606.557954,296.082377,-7698.141797,612.876398
606.558278,148.041188,-8364.327145,-306.438199
606.558602,-814.226536,-9178.553681,-1072.533697
606.558926,-2220.617826,-9252.574275,-842.705048
606.559250,-1850.514855,-9474.636058,-766.095498
606.559574,-962.267725,-10362.883188,-306.438199
606.559899,-370.102971,-10584.944971,306.438199
606.560223,370.102971,-10066.800811,919.314598
606.560547,1110.308913,-9770.718434,76.609550
606.560871,962.267725,-8438.347739,-1072.533697
606.561195,444.123565,-8142.265362,-1378.971896
606.561519,444.123565,-8512.368333,-536.266849
606.561843,1850.514855,-10140.821405,0.000000
606.562167,2072.576638,-10436.903782,-383.047749
606.562492,370.102971,-9178.553681,-919.314598
606.562816,-666.185348,-8808.450710,-1378.971896
606.563140,-740.205942,-9918.759623,-1915.238745
606.563464,-222.061783,-10510.924376,-1991.848295
606.563788,370.102971,-10510.924376,-766.095498
606.564112,962.267725,-10955.047942,-153.219100
606.564436,1776.494261,-10881.027347,-612.876398
606.564760,2220.617826,-9622.677246,-1378.971896
606.565085,2220.617826,-8808.450710,-919.314598
606.565409,666.185348,-9770.718434,-1838.629195
606.565733,-518.144159,-11251.130318,-1378.971896
606.566057,-1480.411884,-10658.965565,-383.047749
606.566381,-1110.308913,-10214.842000,-536.266849
606.566705,-518.144159,-9474.636058,-842.705048
606.567029,-814.226536,-9548.656652,-536.266849
606.567354,-1036.288319,-9770.718434,-689.485948
606.567678,-1406.391290,-9548.656652,-229.828649
606.568002,-1998.556043,-9326.594869,-383.047749
606.568326,-1258.350101,-9326.594869,153.219100
606.568650,-1480.411884,-9622.677246,0.000000
606.568974,-1924.535449,-10214.842000,-612.876398
606.569298,-2368.659014,-9474.636058,-766.095498
606.569622,-1628.453072,-9918.759623,76.609550
606.569947,-444.123565,-10436.903782,919.314598
606.570271,740.205942,-10140.821405,1378.971896
606.570595,740.205942,-9770.718434,1455.581446
606.570919,740.205942,-8586.388927,0.000000
606.571243,888.247130,-9252.574275,459.657299
606.571567,888.247130,-10436.903782,612.876398
606.571891,740.205942,-9992.780217,153.219100
606.572216,0.000000,-8586.388927,536.266849
606.572540,-666.185348,-9178.553681,842.705048
606.572864,-1850.514855,-9696.697840,153.219100
606.573188,-1776.494261,-9178.553681,-229.828649
606.573512,-1332.370696,-9030.512492,612.876398
606.573836,-518.144159,-9622.677246,459.657299
606.574160,74.020594,-9178.553681,0.000000
606.574484,592.164754,-8290.306550,842.705048
606.574809,1258.350101,-8364.327145,383.047749
606.575133,962.267725,-9400.615463,-459.657299
606.575457,148.041188,-9770.718434,0.000000
606.575781,296.082377,-9622.677246,842.705048
606.576105,592.164754,-10436.903782,612.876398
606.576429,444.123565,-10066.800811,383.047749
606.576753,222.061783,-9104.533087,229.828649
606.577078,-148.041188,-9696.697840,229.828649
606.577402,222.061783,-9622.677246,306.438199
606.577726,1332.370696,-9770.718434,153.219100
606.578050,1554.432478,-8882.471304,153.219100
606.578374,1554.432478,-8290.306550,229.828649
606.578698,740.205942,-9622.677246,0.000000
606.579022,0.000000,-9992.780217,-459.657299
606.579346,518.144159,-9918.759623,-306.438199
606.579671,518.144159,-9992.780217,-995.924147
606.579995,814.226536,-10214.842000,-842.705048
606.580319,1332.370696,-10362.883188,-229.828649
606.580643,2368.659014,-10955.047942,612.876398
606.580967,2442.679609,-11103.089130,842.705048
606.581291,1184.329507,-10658.965565,-459.657299
606.581615,222.061783,-8956.491898,-919.314598
606.581940,74.020594,-9992.780217,-919.314598
606.582264,0.000000,-11547.212695,-536.266849
606.582588,-888.247130,-11103.089130,-383.047749
606.582912,-1702.473667,-9992.780217,0.000000
606.583236,-1776.494261,-9030.512492,-153.219100
606.583560,-1406.391290,-10140.821405,-229.828649
606.583884,-1406.391290,-10584.944971,-842.705048
606.584208,-1332.370696,-9252.574275,-459.657299
606.584533,-1332.370696,-8956.491898,0.000000
606.584857,-592.164754,-9326.594869,-229.828649
606.585181,592.164754,-9178.553681,1455.581446
606.585505,518.144159,-9622.677246,995.924147
606.585829,-814.226536,-8882.471304,306.438199
606.586153,-1850.514855,-8956.491898,153.219100
606.586477,-1480.411884,-9474.636058,536.266849
606.586802,-370.102971,-9696.697840,689.485948
606.587126,-222.061783,-9548.656652,1149.143247
606.587450,-962.267725,-9252.574275,1378.971896
606.587774,-1258.350101,-8586.388927,383.047749
606.588098,-148.041188,-8512.368333,306.438199
606.588422,-370.102971,-8438.347739,536.266849
606.588746,-444.123565,-8586.388927,459.657299
606.589070,0.000000,-8956.491898,383.047749
606.589395,-444.123565,-10214.842000,995.924147
606.589719,222.061783,-10288.862594,306.438199
606.590043,0.000000,-8808.450710,-306.438199
606.590367,-1036.288319,-8734.430116,0.000000
606.590691,-962.267725,-9918.759623,153.219100
606.591015,-370.102971,-10584.944971,-383.047749
606.591339,0.000000,-9844.739029,-766.095498
606.591663,-296.082377,-8290.306550,-459.657299
606.591988,0.000000,-9474.636058,-995.924147
606.592312,666.185348,-10732.986159,-919.314598
606.592636,1036.288319,-10955.047942,153.219100
606.592960,148.041188,-10732.986159,76.609550
606.593284,74.020594,-9770.718434,-842.705048
606.593608,-444.123565,-9474.636058,-1838.629195
606.593932,-148.041188,-9474.636058,-1762.019645
606.594257,518.144159,-9400.615463,-1915.238745
606.594581,1628.453072,-10510.924376,-1762.019645
606.594905,2294.638420,-10362.883188,-1378.971896
606.595229,2294.638420,-10658.965565,-842.705048
606.595553,1776.494261,-10732.986159,-612.876398
606.595877,1036.288319,-10140.821405,-1225.752797
606.596201,740.205942,-10732.986159,-1149.143247
606.596525,296.082377,-11251.130318,-2068.457845
606.596850,222.061783,-10214.842000,-1302.362347
606.597174,592.164754,-10658.965565,-306.438199
606.597498,1258.350101,-10436.903782,-536.266849
606.597822,1702.473667,-9918.759623,-1302.362347
606.598146,1702.473667,-9844.739029,-1302.362347
606.598470,1332.370696,-9770.718434,-1455.581446
606.598794,962.267725,-10362.883188,-612.876398
606.599119,0.000000,-9992.780217,-536.266849
606.599443,222.061783,-10066.800811,-306.438199
606.599767,-370.102971,-9844.739029,-459.657299
606.600091,-666.185348,-9326.594869,-229.828649
606.600415,-888.247130,-9474.636058,229.828649
606.600739,-1110.308913,-10214.842000,612.876398
606.601063,-1554.432478,-9252.574275,536.266849
606.601387,-2220.617826,-8438.347739,1149.143247
606.601712,-2368.659014,-7920.203579,612.876398
606.602036,-2368.659014,-8364.327145,536.266849
606.602360,-1776.494261,-9400.615463,1149.143247
606.602684,-1036.288319,-9474.636058,766.095498
606.603008,-592.164754,-8586.388927,1225.752797
606.603332,518.144159,-8216.285956,1991.848295
606.603656,444.123565,-9696.697840,1838.629195
606.603981,0.000000,-9918.759623,1455.581446
606.604305,-1628.453072,-8882.471304,995.924147
606.604629,-1480.411884,-8734.430116,1378.971896
606.604953,-888.247130,-9844.739029,1532.190996
606.605277,0.000000,-9770.718434,1838.629195
606.605601,-370.102971,-9252.574275,2145.067394
606.605925,-740.205942,-8660.409521,1608.800546
606.606249,-962.267725,-8734.430116,1455.581446
606.606574,-1036.288319,-8586.388927,842.705048
606.606898,-962.267725,-8956.491898,1225.752797
606.607222,-1480.411884,-9548.656652,1762.019645
606.607546,-444.123565,-9992.780217,1149.143247
606.607870,148.041188,-9844.739029,459.657299
606.608194,814.226536,-9474.636058,536.266849
606.608518,1628.453072,-9770.718434,383.047749
606.608843,1258.350101,-9474.636058,-229.828649
606.609167,0.000000,-10214.842000,-842.705048
606.609491,-518.144159,-10066.800811,-306.438199
606.609815,0.000000,-9622.677246,-995.924147
606.610139,148.041188,-9992.780217,-536.266849
606.610463,148.041188,-10362.883188,-536.266849
606.610787,444.123565,-9400.615463,-612.876398
606.611111,370.102971,-9622.677246,0.000000
606.611436,1110.308913,-9844.739029,0.000000
606.611760,1850.514855,-9770.718434,0.000000
606.612084,2886.803174,-10214.842000,0.000000
606.612408,2590.720797,-10436.903782,-229.828649
606.612732,1702.473667,-11325.150913,-383.047749
606.613056,1184.329507,-11399.171507,-1532.190996
606.613380,1480.411884,-10584.944971,-842.705048
606.613704,2072.576638,-10807.006753,-1685.410096
606.614029,1628.453072,-10807.006753,-1455.581446
606.614353,592.164754,-10732.986159,-1762.019645
606.614677,-148.041188,-10584.944971,-2221.676944
606.615001,-370.102971,-10436.903782,-1455.581446
606.615325,0.000000,-10658.965565,-1455.581446
606.615649,0.000000,-10140.821405,-842.705048
606.615973,-296.082377,-9770.718434,-1149.143247
606.616298,-222.061783,-8956.491898,-459.657299
606.616622,296.082377,-8438.347739,-919.314598
606.616946,0.000000,-8956.491898,-1072.533697
606.617270,-740.205942,-9400.615463,-459.657299
606.617594,0.000000,-9474.636058,612.876398
606.617918,888.247130,-9770.718434,536.266849
606.618242,962.267725,-9548.656652,766.095498
606.618566,0.000000,-8660.409521,0.000000
606.618891,-1110.308913,-7550.100608,-766.095498
606.619215,-1702.473667,-8438.347739,-689.485948
606.619539,-1998.556043,-9104.533087,-689.485948
606.619863,-1406.391290,-8364.327145,0.000000
606.620187,-814.226536,-8142.265362,1455.581446
606.620511,0.000000,-10288.862594,2528.115143
606.620835,-370.102971,-10214.842000,2374.896044
606.621160,-1628.453072,-8956.491898,1072.533697
606.621484,-2960.823768,-7698.141797,-153.219100
606.621808,-2220.617826,-8586.388927,-612.876398
606.622132,-1332.370696,-9548.656652,-459.657299
606.622456,-1110.308913,-9030.512492,1225.752797
606.622780,-1110.308913,-9326.594869,2068.457845
606.623104,-296.082377,-9548.656652,995.924147
606.623428,-370.102971,-9030.512492,153.219100
606.623753,-592.164754,-9178.553681,459.657299
606.624077,-148.041188,-8882.471304,-459.657299
606.624401,0.000000,-9770.718434,-229.828649
606.624725,74.020594,-10362.883188,689.485948
606.625049,0.000000,-10214.842000,766.095498
606.625373,-370.102971,-10140.821405,229.828649
606.625697,-962.267725,-10362.883188,153.219100
606.626022,-1480.411884,-9696.697840,-689.485948
606.626346,-1406.391290,-10140.821405,-1225.752797
606.626670,-888.247130,-10436.903782,0.000000
606.626994,370.102971,-10658.965565,-1149.143247
606.627318,666.185348,-10140.821405,-689.485948
606.627642,370.102971,-10214.842000,-612.876398
606.627966,592.164754,-11251.130318,-995.924147
606.628290,1036.288319,-11843.295072,-919.314598
606.628615,1184.329507,-11547.212695,-383.047749
606.628939,1332.370696,-10807.006753,-1149.143247
606.629263,0.000000,-10584.944971,-1455.581446
606.629587,-222.061783,-10510.924376,-1378.971896
606.629911,888.247130,-10510.924376,-1225.752797
606.630235,1924.535449,-11029.068536,-766.095498
606.630559,2812.782580,-10362.883188,-383.047749
606.630884,2442.679609,-10066.800811,76.609550
606.631208,1702.473667,-9622.677246,-689.485948
606.631532,1036.288319,-9252.574275,-689.485948
606.631856,962.267725,-9474.636058,-995.924147
606.632180,-222.061783,-8808.450710,-919.314598
606.632504,-74.020594,-8586.388927,-153.219100
606.632828,0.000000,-9030.512492,0.000000
606.633152,592.164754,-8586.388927,-689.485948
606.633477,518.144159,-8512.368333,-766.095498
606.633801,222.061783,-9326.594869,-383.047749
606.634125,0.000000,-8586.388927,-1149.143247
606.634449,148.041188,-8512.368333,153.219100
606.634773,0.000000,-7994.224174,689.485948
606.635097,-1110.308913,-8586.388927,-153.219100
606.635421,-1702.473667,-9178.553681,-536.266849
606.635746,-1554.432478,-9104.533087,536.266849
606.636070,-444.123565,-9326.594869,919.314598
606.636394,0.000000,-8882.471304,1455.581446
606.636718,592.164754,-7994.224174,1991.848295
606.637042,814.226536,-9178.553681,1838.629195
606.637366,296.082377,-9622.677246,536.266849
606.637690,-1332.370696,-9622.677246,612.876398
606.638014,-1776.494261,-9400.615463,153.219100
606.638338,-1184.329507,-9030.512492,153.219100
606.638662,-296.082377,-9770.718434,689.485948
606.638986,-814.226536,-10584.944971,1378.971896
606.639310,-1628.453072,-10955.047942,0.000000
606.639634,-1998.556043,-10140.821405,229.828649
606.639958,-1924.535449,-10214.842000,459.657299
606.640283,-1036.288319,-10807.006753,0.000000
606.640607,-296.082377,-10362.883188,0.000000
606.640931,-370.102971,-9918.759623,1225.752797
606.641255,0.000000,-9844.739029,306.438199
606.641579,-222.061783,-9844.739029,842.705048
606.641903,-592.164754,-10066.800811,612.876398
606.642227,-888.247130,-9622.677246,-383.047749
606.642551,-888.247130,-10066.800811,0.000000
606.642875,-370.102971,-10584.944971,76.609550
606.643199,0.000000,-10510.924376,0.000000
606.643523,74.020594,-10066.800811,-459.657299
606.643847,888.247130,-8808.450710,-229.828649
606.644171,370.102971,-8364.327145,-612.876398
606.644495,666.185348,-8290.306550,-1149.143247
606.644819,666.185348,-8438.347739,-919.314598
606.645143,962.267725,-8882.471304,-383.047749
606.645467,962.267725,-9548.656652,-383.047749
606.645792,-296.082377,-9622.677246,-153.219100
606.646116,-1924.535449,-9844.739029,-459.657299
606.646440,-2294.638420,-8956.491898,-1762.019645
606.646764,-666.185348,-9030.512492,-842.705048
606.647088,1036.288319,-10362.883188,-1225.752797
606.647412,1628.453072,-10807.006753,-766.095498
606.647736,1776.494261,-10066.800811,-766.095498
606.648060,2220.617826,-9918.759623,-229.828649
606.648384,2294.638420,-10584.944971,0.000000
606.648708,2072.576638,-11177.109724,-689.485948
606.649032,1184.329507,-10658.965565,-153.219100
606.649356,370.102971,-11177.109724,-306.438199
606.649680,592.164754,-10732.986159,-1072.533697
606.650004,444.123565,-9992.780217,-995.924147
606.650328,-148.041188,-10066.800811,-689.485948
606.650652,74.020594,-9918.759623,0.000000
606.650977,888.247130,-9474.636058,536.266849
606.651301,-148.041188,-8290.306550,-229.828649
606.651625,-1480.411884,-7698.141797,0.000000
606.651949,-1850.514855,-8068.244768,-995.924147
606.652273,-1480.411884,-8660.409521,-995.924147
606.652597,-1480.411884,-8660.409521,-229.828649
606.652921,-888.247130,-9030.512492,536.266849
606.653245,518.144159,-8808.450710,229.828649
606.653569,1036.288319,-9474.636058,0.000000
606.653893,814.226536,-9326.594869,76.609550
606.654217,592.164754,-9474.636058,306.438199
606.654541,444.123565,-10881.027347,-153.219100
606.654865,444.123565,-11177.109724,689.485948
606.655189,740.205942,-11029.068536,842.705048
606.655513,296.082377,-10955.047942,612.876398
606.655837,-1480.411884,-11843.295072,536.266849
606.656162,-2738.761985,-11473.192101,0.000000
606.656486,-2516.700203,-10288.862594,229.828649
606.656810,-2516.700203,-9474.636058,0.000000
606.657134,-2368.659014,-9400.615463,153.219100
606.657458,-1702.473667,-9030.512492,1149.143247
606.657782,-740.205942,-8660.409521,766.095498
606.658106,-444.123565,-7772.162391,766.095498
606.658430,-1332.370696,-7846.182985,0.000000
606.658754,-1184.329507,-7624.121203,-536.266849
606.659078,-518.144159,-8216.285956,-306.438199
606.659402,-296.082377,-8956.491898,153.219100
606.659726,148.041188,-8586.388927,383.047749
606.660050,814.226536,-8956.491898,766.095498
606.660374,1258.350101,-9474.636058,766.095498
606.660698,1776.494261,-9104.533087,0.000000
606.661022,2960.823768,-8512.368333,536.266849
606.661346,2738.761985,-8512.368333,76.609550
606.661671,2368.659014,-9474.636058,0.000000
606.661995,1332.370696,-10140.821405,0.000000
606.662319,0.000000,-10955.047942,0.000000
606.662643,-518.144159,-11325.150913,-1532.190996
606.662967,0.000000,-10510.924376,-1149.143247
606.663291,740.205942,-10288.862594,-612.876398
606.663615,1110.308913,-11991.336260,-689.485948
606.663939,518.144159,-11769.274478,-1915.238745
606.664263,-296.082377,-10881.027347,-1149.143247
606.664587,222.061783,-10955.047942,-995.924147
606.664911,1258.350101,-11029.068536,-1072.533697
606.665235,1406.391290,-10584.944971,-306.438199
606.665559,1258.350101,-9844.739029,-153.219100
606.665883,518.144159,-9770.718434,0.000000
606.666207,444.123565,-10584.944971,-383.047749
606.666531,592.164754,-10066.800811,76.609550
606.666856,0.000000,-9326.594869,0.000000
606.667180,0.000000,-8068.244768,-306.438199
606.667504,-444.123565,-8364.327145,-383.047749
606.667828,-592.164754,-8956.491898,-153.219100
606.668152,0.000000,-8438.347739,-229.828649
606.668476,-148.041188,-8586.388927,459.657299
606.668800,0.000000,-8068.244768,76.609550
606.669124,-740.205942,-8142.265362,-229.828649
606.669448,-1702.473667,-9030.512492,0.000000
606.669772,-1776.494261,-9548.656652,-306.438199
606.670096,-1702.473667,-11251.130318,766.095498
606.670420,-1628.453072,-11103.089130,842.705048
606.670744,-1702.473667,-9548.656652,383.047749
606.671068,-1776.494261,-9030.512492,0.000000
606.671392,-370.102971,-9178.553681,306.438199
606.671716,444.123565,-10214.842000,612.876398
606.672041,-518.144159,-10807.006753,153.219100
606.672365,-1628.453072,-10214.842000,306.438199
606.672689,-1850.514855,-9622.677246,153.219100
606.673013,-1332.370696,-9326.594869,-383.047749
606.673337,-1480.411884,-9696.697840,0.000000
606.673661,-1258.350101,-10214.842000,383.047749
606.673985,-814.226536,-8660.409521,0.000000
606.674309,-666.185348,-7994.224174,-689.485948
606.674633,-148.041188,-7476.080014,-766.095498
606.674957,444.123565,-7328.038826,-766.095498
606.675281,296.082377,-8068.244768,-995.924147
606.675605,222.061783,-8438.347739,-766.095498
606.675929,-296.082377,-9104.533087,-229.828649
606.676253,-518.144159,-9770.718434,-1072.533697
606.676577,-666.185348,-9474.636058,-919.314598
606.676901,-1184.329507,-10362.883188,-766.095498
606.677225,-1110.308913,-11251.130318,-612.876398
606.677550,-296.082377,-11177.109724,-536.266849
606.677874,592.164754,-10584.944971,-612.876398
606.678198,1998.556043,-9178.553681,-459.657299
606.678522,2516.700203,-10140.821405,-1302.362347
606.678846,1628.453072,-10881.027347,-1608.800546
606.679170,-222.061783,-10584.944971,-1532.190996
606.679494,-1850.514855,-10362.883188,-2528.115143
606.679818,-2664.741391,-8882.471304,-3830.477490
606.680142,-3182.885551,-9548.656652,-2987.772442
606.680466,-3256.906145,-10955.047942,-2451.505594
606.680790,-1776.494261,-11103.089130,-2834.553343
606.681114,-1406.391290,-10436.903782,-2145.067394
606.681438,-888.247130,-10140.821405,-1378.971896
606.681762,296.082377,-9844.739029,-1685.410096
606.682086,1036.288319,-9326.594869,-2298.286494
606.682410,592.164754,-8808.450710,-1149.143247
606.682735,0.000000,-9622.677246,-1149.143247
606.683059,0.000000,-11103.089130,-1532.190996
606.683383,-370.102971,-11547.212695,-612.876398
606.683707,-814.226536,-11621.233289,-1225.752797
606.684031,-1110.308913,-11251.130318,-2298.286494
606.684355,-3034.844362,-11177.109724,-2681.334243
606.684679,-5329.482782,-11251.130318,-2528.115143
606.685003,-5699.585753,-9400.615463,-2451.505594
606.685327,-4219.173869,-8438.347739,-1915.238745
606.685651,-3330.926739,-8216.285956,-2681.334243
606.685975,-3182.885551,-8068.244768,-2681.334243
606.686299,-3552.988522,-9696.697840,-1915.238745
606.686623,-3923.091493,-10807.006753,-1608.800546
606.686947,-3627.009116,-9622.677246,-1302.362347
606.687271,-3478.967927,-7994.224174,-842.705048
606.687595,-3034.844362,-7624.121203,-1225.752797
606.687920,-3923.091493,-8808.450710,-1762.019645
606.688244,-4959.379811,-9770.718434,-2374.896044
606.688568,-3775.050304,-9474.636058,-1455.581446
606.688892,-1628.453072,-8882.471304,-612.876398
606.689216,-148.041188,-9104.533087,-612.876398
606.689540,-296.082377,-8956.491898,-612.876398
606.689864,-888.247130,-8882.471304,-383.047749
606.690188,-1628.453072,-9696.697840,-689.485948
606.690512,-1184.329507,-10436.903782,-842.705048
606.690836,-370.102971,-9474.636058,-1072.533697
606.691160,-1110.308913,-7550.100608,-1915.238745
606.691484,-1850.514855,-6957.935855,-1838.629195
606.691808,-3552.988522,-8216.285956,-2681.334243
606.692132,-5403.503377,-8956.491898,-3753.867940
606.692456,-7179.997637,-9178.553681,-3753.867940
606.692780,-6957.935855,-10436.903782,-3677.258390
606.693104,-4219.173869,-10732.986159,-3140.991542
606.693429,-1924.535449,-9770.718434,-2911.162892
606.693753,-1332.370696,-10510.924376,-1762.019645
606.694077,-518.144159,-11325.150913,-1915.238745
606.694401,222.061783,-10955.047942,-1991.848295
606.694725,962.267725,-9770.718434,-1762.019645
606.695049,1480.411884,-9252.574275,-995.924147
606.695373,1258.350101,-9696.697840,-2298.286494
606.695697,666.185348,-11103.089130,-2528.115143
606.696021,-1850.514855,-11473.192101,-2604.724693
606.696345,-3627.009116,-9918.759623,-4136.915689
606.696669,-5033.400406,-8956.491898,-5056.230287
606.696993,-5625.565159,-9918.759623,-4903.011187
606.697317,-4293.194464,-9622.677246,-4366.744339
606.697641,-1998.556043,-9104.533087,-3447.429741
606.697965,-1776.494261,-8660.409521,-3140.991542
606.698289,-1554.432478,-10214.842000,-3064.381992
606.698614,-740.205942,-10436.903782,-2987.772442
606.698938,-370.102971,-10066.800811,-2451.505594
606.699262,-1036.288319,-10140.821405,-2298.286494
606.699586,-1332.370696,-11547.212695,-2374.896044
606.699910,-1184.329507,-12065.356855,-2911.162892
606.700234,-592.164754,-12731.542202,-2451.505594
606.700558,962.267725,-12435.459826,-2451.505594
606.700882,2072.576638,-11917.315666,-2221.676944
606.701206,1628.453072,-11621.233289,-1991.848295
606.701530,0.000000,-10436.903782,-2298.286494
606.701854,-1258.350101,-10066.800811,-2298.286494
606.702178,-1332.370696,-9178.553681,-2451.505594
606.702502,-1406.391290,-9030.512492,-2528.115143
606.702826,-2812.782580,-7624.121203,-1685.410096
606.703150,-3404.947333,-7105.977043,-1685.410096
606.703474,-2664.741391,-7920.203579,-1532.190996
606.703799,-3404.947333,-7772.162391,-2451.505594
606.704123,-5255.462188,-7550.100608,-2451.505594
606.704447,-6587.832884,-7846.182985,-2298.286494
606.704771,-5107.421000,-8364.327145,-2374.896044
606.705095,-2294.638420,-8808.450710,-1225.752797
606.705419,-1776.494261,-8586.388927,-689.485948
606.705743,-1702.473667,-10066.800811,-153.219100
606.706067,-370.102971,-10732.986159,0.000000
606.706391,1406.391290,-9992.780217,0.000000
606.706715,888.247130,-9326.594869,0.000000
606.707039,-2072.576638,-10140.821405,-919.314598
606.707363,-3997.112087,-11621.233289,-842.705048
606.707687,-4071.132681,-10658.965565,-612.876398
606.708011,-4737.318029,-9252.574275,-1685.410096
606.708335,-6291.750507,-9252.574275,-2298.286494
606.708659,-7624.121203,-9844.739029,-2604.724693
606.708983,-7031.956449,-9178.553681,-2451.505594
606.709308,-5403.503377,-7105.977043,-2145.067394
606.709632,-3849.070898,-8216.285956,-1608.800546
606.709956,-4441.235652,-10140.821405,-1915.238745
606.710280,-4293.194464,-10288.862594,-1915.238745
606.710604,-3701.029710,-9252.574275,-1608.800546
606.710928,-2442.679609,-8882.471304,-1915.238745
606.711252,-962.267725,-9770.718434,-1149.143247
606.711576,592.164754,-10658.965565,-383.047749
606.711900,2294.638420,-10362.883188,383.047749
606.712224,2516.700203,-9474.636058,-995.924147
606.712548,444.123565,-10066.800811,-1378.971896
606.712872,-1258.350101,-11103.089130,-1455.581446
606.713196,-1554.432478,-10584.944971,-1838.629195
606.713520,-888.247130,-9474.636058,-2068.457845
606.713844,-1554.432478,-9474.636058,-2451.505594
606.714168,-4071.132681,-10658.965565,-2451.505594
606.714493,-6365.771101,-9770.718434,-4749.792088
606.714817,-6587.832884,-9474.636058,-5975.544884
606.715141,-5995.668130,-11695.253884,-4060.306139
606.715465,-2664.741391,-13767.830521,-4136.915689
606.715789,0.000000,-12287.418637,-3370.820191
606.716113,0.000000,-10214.842000,-919.314598
606.716437,1406.391290,-8660.409521,-2528.115143
606.716761,1998.556043,-8068.244768,-2987.772442
606.717085,2960.823768,-7994.224174,-2068.457845
606.717409,4737.318029,-7328.038826,-766.095498
606.717733,5255.462188,-8660.409521,-766.095498
606.718057,2368.659014,-10140.821405,-995.924147
606.718381,-1332.370696,-10436.903782,-1225.752797
606.718705,-4145.153275,-10362.883188,-2451.505594
606.719029,-6439.791695,-9622.677246,-3907.087040
606.719353,-7846.182985,-9770.718434,-4673.182538
606.719678,-6513.812290,-9178.553681,-4903.011187
606.720002,-3182.885551,-8586.388927,-3524.039291
606.720326,-592.164754,-8660.409521,-2298.286494
606.720650,0.000000,-8660.409521,-2221.676944
606.720974,-518.144159,-8290.306550,-2681.334243
606.721298,-962.267725,-8808.450710,-2681.334243
606.721622,-740.205942,-9770.718434,-2298.286494
606.721946,-1480.411884,-10955.047942,-1532.190996
606.722270,-2220.617826,-11103.089130,-1455.581446
606.722594,-1924.535449,-11547.212695,-1378.971896
606.722918,-1924.535449,-11103.089130,-1608.800546
606.723242,-2072.576638,-10881.027347,-1608.800546
606.723566,-2738.761985,-10140.821405,-2374.896044
606.723890,-3627.009116,-10066.800811,-2221.676944
606.724214,-4515.256246,-9326.594869,-2604.724693
606.724538,-4959.379811,-9474.636058,-2834.553343
606.724862,-6291.750507,-9030.512492,-2451.505594
606.725187,-7031.956449,-9252.574275,-3294.210641
606.725511,-5995.668130,-9104.533087,-3064.381992
606.725835,-4071.132681,-9548.656652,-2298.286494
606.726159,-1998.556043,-9326.594869,-2068.457845
606.726483,-518.144159,-8956.491898,-1532.190996
606.726807,222.061783,-9178.553681,-2298.286494
606.727131,962.267725,-10066.800811,-995.924147
606.727455,148.041188,-10510.924376,-1302.362347
606.727779,-296.082377,-10658.965565,-1149.143247
606.728103,-1036.288319,-10288.862594,-1302.362347
606.728427,-1850.514855,-10140.821405,-1225.752797
606.728751,-3478.967927,-10732.986159,-1225.752797
606.729075,-4663.297435,-11695.253884,-1149.143247
606.729399,-6217.729913,-11325.150913,-2068.457845
606.729723,-6809.894666,-9844.739029,-2221.676944
606.730047,-5921.647536,-9770.718434,-2604.724693
606.730372,-4219.173869,-9252.574275,-2987.772442
606.730696,-2516.700203,-8956.491898,-2221.676944
606.731020,-592.164754,-8438.347739,-2145.067394
606.731344,814.226536,-7698.141797,-2145.067394
606.731668,1628.453072,-7476.080014,-1762.019645
606.731992,1702.473667,-8364.327145,-842.705048
606.732316,1406.391290,-8808.450710,-689.485948
606.732640,-296.082377,-9770.718434,-1532.190996
606.732964,-1332.370696,-10214.842000,-2145.067394
606.733288,-3182.885551,-9992.780217,-2911.162892
606.733612,-4737.318029,-10288.862594,-3140.991542
606.733936,-4811.338623,-11029.068536,-2681.334243
606.734260,-3478.967927,-11621.233289,-2528.115143
606.734584,-3034.844362,-10732.986159,-1762.019645
606.734908,-1554.432478,-10140.821405,-229.828649
606.735232,-222.061783,-8660.409521,-1149.143247
606.735557,1184.329507,-8290.306550,-1838.629195
606.735881,2442.679609,-7550.100608,-1532.190996
606.736205,3552.988522,-8364.327145,-1149.143247
606.736529,4293.194464,-9696.697840,-536.266849
606.736853,3478.967927,-10288.862594,0.000000
606.737177,148.041188,-9770.718434,-995.924147
606.737501,-2294.638420,-10510.924376,-1915.238745
606.737825,-5403.503377,-12213.398043,-3217.601092
606.738149,-7402.059420,-12805.562797,-3983.696590
606.738473,-7476.080014,-11621.233289,-3140.991542
606.738797,-6143.709319,-10658.965565,-1915.238745
606.739121,-4515.256246,-9474.636058,-1455.581446
606.739445,-3330.926739,-7624.121203,-1302.362347
606.739769,-1628.453072,-7105.977043,-1608.800546
606.740093,0.000000,-7846.182985,-459.657299
606.740417,1110.308913,-9548.656652,0.000000
606.740741,2590.720797,-9548.656652,306.438199
606.741065,3034.844362,-8882.471304,612.876398
606.741389,1924.535449,-8882.471304,76.609550
606.741713,-370.102971,-9622.677246,-1455.581446
606.742037,-2886.803174,-10584.944971,-1991.848295
606.742361,-5181.441594,-10955.047942,-3677.258390
606.742685,-6291.750507,-10066.800811,-2757.943793
606.743009,-7179.997637,-9548.656652,-3140.991542
606.743333,-7698.141797,-9030.512492,-3294.210641
606.743657,-7772.162391,-8882.471304,-3064.381992
606.743981,-6957.935855,-9104.533087,-3217.601092
606.744305,-5033.400406,-9178.553681,-2451.505594
606.744629,-2590.720797,-9252.574275,-1608.800546
606.744953,-222.061783,-9474.636058,-229.828649
606.745277,1332.370696,-9548.656652,0.000000
606.745601,1998.556043,-10214.842000,-536.266849
606.745925,1776.494261,-10584.944971,-919.314598
606.746249,740.205942,-11029.068536,-1608.800546
606.746573,148.041188,-10732.986159,-2298.286494
606.746897,-1036.288319,-10436.903782,-2987.772442
606.747221,-3478.967927,-9918.759623,-3524.039291
606.747545,-5181.441594,-9844.739029,-4519.963438
606.747869,-7031.956449,-9548.656652,-5209.449386
606.748193,-7254.018232,-8512.368333,-5439.278036
606.748517,-6143.709319,-7402.059420,-5132.839837
606.748841,-3997.112087,-6661.853478,-3907.087040
606.749166,-2146.597232,-7179.997637,-2911.162892
606.749490,0.000000,-8734.430116,-2221.676944
606.749814,0.000000,-9696.697840,-1762.019645
606.750138,-222.061783,-10732.986159,-1915.238745
606.750462,-814.226536,-11399.171507,-1991.848295
606.750786,-1924.535449,-11991.336260,-2298.286494
606.751110,-2368.659014,-12879.583391,-2451.505594
606.751434,-2368.659014,-13619.789333,-2451.505594
606.751758,-2220.617826,-13323.706956,-3600.648841
606.752082,-1036.288319,-11991.336260,-3370.820191
606.752406,0.000000,-10436.903782,-3907.087040
606.752730,370.102971,-8808.450710,-3983.696590
606.753054,-370.102971,-8586.388927,-4290.134789
606.753378,-2072.576638,-8586.388927,-4596.572988
606.753702,-4589.276840,-8586.388927,-4443.353888
606.754026,-5921.647536,-8364.327145,-4366.744339
606.754350,-5255.462188,-8364.327145,-3600.648841
606.754674,-5033.400406,-7994.224174,-2681.334243
606.754998,-3404.947333,-8438.347739,-2298.286494
606.755322,-1924.535449,-9474.636058,-2145.067394
606.755646,-1184.329507,-10881.027347,-1685.410096
606.755970,-740.205942,-12139.377449,-1225.752797
606.756294,-74.020594,-12953.603985,-766.095498
606.756618,518.144159,-12435.459826,-383.047749
606.756942,444.123565,-11177.109724,-689.485948
606.757266,814.226536,-9474.636058,-1072.533697
606.757590,1184.329507,-8660.409521,-1532.190996
606.757914,1628.453072,-8586.388927,-1915.238745
606.758238,1702.473667,-8586.388927,-2145.067394
606.758562,-740.205942,-8364.327145,-2451.505594
606.758886,-4145.153275,-7920.203579,-2911.162892
606.759210,-6809.894666,-7772.162391,-3064.381992
606.759534,-7254.018232,-7920.203579,-3370.820191
606.759858,-6513.812290,-7994.224174,-2451.505594
606.760182,-5181.441594,-9030.512492,-1685.410096
606.760506,-4293.194464,-10362.883188,-842.705048
606.760830,-3182.885551,-11399.171507,0.000000
606.761154,-2368.659014,-11547.212695,689.485948
606.761478,-1332.370696,-10955.047942,1149.143247
606.761802,888.247130,-10510.924376,995.924147
606.762126,2960.823768,-9844.739029,689.485948
606.762450,4663.297435,-9548.656652,459.657299
606.762774,3775.050304,-9474.636058,76.609550
606.763098,2368.659014,-8808.450710,-766.095498
606.763422,1036.288319,-7698.141797,-1685.410096
606.763746,-814.226536,-7402.059420,-1302.362347
606.764070,-3997.112087,-8290.306550,-2451.505594
606.764394,-8068.244768,-10066.800811,-2987.772442
606.764718,-11325.150913,-10584.944971,-3600.648841
606.765042,-11177.109724,-9474.636058,-3753.867940
606.765366,-9326.594869,-8364.327145,-3600.648841
606.765690,-7179.997637,-9400.615463,-2451.505594
606.766014,-5551.544565,-10658.965565,-1378.971896
606.766338,-3552.988522,-11103.089130,-919.314598
606.766662,-1776.494261,-11029.068536,612.876398
606.766986,888.247130,-11695.253884,919.314598
606.767310,3997.112087,-12435.459826,1302.362347
606.767634,6587.832884,-10807.006753,766.095498
606.767958,7698.141797,-9178.553681,306.438199
606.768282,6143.709319,-9696.697840,229.828649
606.768606,3256.906145,-11177.109724,-1149.143247
606.768930,-444.123565,-10436.903782,-1762.019645
606.769254,-4737.318029,-8956.491898,-2911.162892
606.769578,-8216.285956,-8290.306550,-3907.087040
606.769902,-10584.944971,-7846.182985,-6358.592633
606.770226,-11769.274478,-7254.018232,-6435.202183
606.770550,-11843.295072,-7624.121203,-5592.497135
606.770874,-9696.697840,-8290.306550,-4903.011187
606.771198,-6291.750507,-8216.285956,-2987.772442
606.771522,-2960.823768,-7994.224174,-1762.019645
606.771846,-370.102971,-7994.224174,-1762.019645
606.772170,1776.494261,-8438.347739,-2068.457845
606.772494,2886.803174,-10732.986159,0.000000
606.772818,6069.688724,-13101.645173,1302.362347
606.773142,9400.615463,-13915.871710,1378.971896
606.773466,9252.574275,-12287.418637,919.314598
606.773790,6809.894666,-11695.253884,76.609550
606.774114,3552.988522,-12583.501014,-2145.067394
606.774438,-1184.329507,-11177.109724,-5439.278036
606.774762,-7624.121203,-10732.986159,-4826.401637
606.775086,-11399.171507,-11917.315666,-4903.011187
606.775410,-10362.883188,-10510.924376,-6971.469032
606.775734,-9474.636058,-6661.853478,-5898.935335
606.776058,-9400.615463,-4145.153275,-4826.401637
606.776382,-8068.244768,-5625.565159,-5745.716235
606.776706,-7254.018232,-8808.450710,-5132.839837
606.777030,-4885.359217,-6957.935855,-3677.258390
606.777354,-962.267725,-6365.771101,-1915.238745
606.777678,1850.514855,-10436.903782,-306.438199
606.778002,3701.029710,-13249.686362,76.609550
606.778326,4441.235652,-12435.459826,459.657299
606.778650,4145.153275,-11029.068536,766.095498
606.778974,2960.823768,-13323.706956,-229.828649
606.779298,1480.411884,-14359.995275,0.000000
606.779622,888.247130,-12213.398043,-1378.971896
606.779946,-740.205942,-10658.965565,-1532.190996
606.780270,-3404.947333,-10732.986159,-3140.991542
606.780594,-5329.482782,-9918.759623,-3907.087040
606.780918,-6439.791695,-9030.512492,-3677.258390
606.781242,-7254.018232,-6587.832884,-3600.648841
606.781566,-6587.832884,-5403.503377,-4979.620737
606.781890,-5921.647536,-5329.482782,-4673.182538
606.782214,-4737.318029,-6957.935855,-3447.429741
606.782538,-3330.926739,-8808.450710,-2451.505594
606.782862,-1776.494261,-10066.800811,-2374.896044
606.783186,-1110.308913,-9252.574275,-1991.848295
606.783510,-1036.288319,-10362.883188,-689.485948
606.783834,-296.082377,-11473.192101,-766.095498
606.784158,518.144159,-12361.439231,-153.219100
606.784482,1776.494261,-12879.583391,0.000000
606.784806,1850.514855,-11843.295072,76.609550
606.785130,1628.453072,-10807.006753,-536.266849
606.785454,814.226536,-10066.800811,-1149.143247
606.785778,444.123565,-8290.306550,-1072.533697
606.786102,-592.164754,-7328.038826,-2451.505594
606.786426,-3552.988522,-8142.265362,-2451.505594
606.786750,-5995.668130,-9030.512492,-4060.306139
606.787074,-8216.285956,-8290.306550,-3983.696590
606.787398,-8586.388927,-7105.977043,-4596.572988
606.787722,-8290.306550,-8290.306550,-3447.429741
606.788046,-6587.832884,-10362.883188,-2834.553343
606.788370,-5329.482782,-11325.150913,-2298.286494
606.788694,-3108.864956,-12213.398043,-1072.533697
606.789018,-2072.576638,-10881.027347,-1072.533697
606.789342,518.144159,-10658.965565,-689.485948
606.789666,2516.700203,-11029.068536,612.876398
606.789990,4219.173869,-11029.068536,919.314598
606.790314,5625.565159,-10362.883188,1302.362347
606.790638,6069.688724,-10658.965565,1302.362347
606.790962,4959.379811,-9918.759623,153.219100
606.791286,3330.926739,-9770.718434,153.219100
606.791610,888.247130,-9252.574275,-1302.362347
606.791934,-1702.473667,-7920.203579,-2374.896044
606.792258,-5921.647536,-7994.224174,-4443.353888
606.792582,-11029.068536,-11473.192101,-3294.210641
606.792906,-10362.883188,-11769.274478,-3677.258390
606.793230,-6809.894666,-9252.574275,-4290.134789
606.793554,-5625.565159,-8660.409521,-1225.752797
606.793878,-2516.700203,-8956.491898,-306.438199
606.794202,814.226536,-9844.739029,-1072.533697
606.794526,2220.617826,-8734.430116,612.876398
606.794850,3701.029710,-7698.141797,1685.410096
606.795174,5181.441594,-9696.697840,1838.629195
606.795498,6365.771101,-11103.089130,1991.848295
606.795822,5329.482782,-11177.109724,3064.381992
606.796146,3849.070898,-10807.006753,2911.162892
606.796470,1184.329507,-9770.718434,995.924147
606.796794,-2738.761985,-8956.491898,-2068.457845
606.797118,-5477.523971,-9178.553681,-2757.943793
606.797442,-6587.832884,-10510.924376,-1302.362347
606.797766,-5921.647536,-10807.006753,-2528.115143
606.798090,-6069.688724,-8216.285956,-1149.143247
606.798414,-5699.585753,-7698.141797,383.047749
606.798738,-2368.659014,-7105.977043,-1532.190996
606.799062,222.061783,-6661.853478,-459.657299
606.799386,1406.391290,-7624.121203,383.047749
606.799710,3034.844362,-8882.471304,995.924147
606.800034,5033.400406,-9474.636058,612.876398
606.800358,4441.235652,-9844.739029,1378.971896
606.800682,4811.338623,-9030.512492,1072.533697
606.801006,5699.585753,-10140.821405,229.828649
606.801330,5107.421000,-11843.295072,383.047749
606.801654,4589.276840,-11917.315666,842.705048
606.801978,4293.194464,-11399.171507,229.828649
606.802302,2220.617826,-10807.006753,612.876398
606.802626,-592.164754,-10510.924376,383.047749
606.802950,-3404.947333,-10362.883188,-612.876398
606.803274,-4589.276840,-9400.615463,-1225.752797
606.803598,-4515.256246,-7920.203579,-1915.238745
606.803922,-3256.906145,-6883.915261,-1532.190996
606.804246,-2516.700203,-7105.977043,-1608.800546
606.804570,-1332.370696,-8734.430116,-1302.362347
606.804894,-1406.391290,-8956.491898,-1915.238745
606.805218,-962.267725,-8882.471304,-1532.190996
606.805542,0.000000,-9918.759623,-842.705048
606.805866,1628.453072,-11473.192101,-306.438199
606.806190,2368.659014,-12879.583391,919.314598
606.806514,2812.782580,-12509.480420,459.657299
606.806838,3256.906145,-11325.150913,1072.533697
606.807162,1480.411884,-11769.274478,995.924147
606.807486,222.061783,-11843.295072,306.438199
606.807810,-1110.308913,-11473.192101,0.000000
606.808134,-2368.659014,-10288.862594,-995.924147
606.808458,-3256.906145,-8586.388927,-2145.067394
606.808782,-4145.153275,-7994.224174,-2528.115143
606.809106,-3552.988522,-8364.327145,-2451.505594
606.809430,-1628.453072,-9474.636058,-1149.143247
606.809754,74.020594,-9400.615463,-306.438199
606.810078,1628.453072,-8660.409521,0.000000
606.810402,1998.556043,-9178.553681,536.266849
606.810726,1480.411884,-9770.718434,229.828649
606.811050,1036.288319,-10584.944971,689.485948
606.811375,-592.164754,-10732.986159,612.876398
606.811699,-1258.350101,-9992.780217,383.047749
606.812023,-1110.308913,-9474.636058,536.266849
606.812347,-962.267725,-9326.594869,383.047749
606.812671,-1332.370696,-8808.450710,0.000000
606.812995,-2220.617826,-9104.533087,0.000000
606.813319,-2886.803174,-9400.615463,-1378.971896
606.813643,-2442.679609,-8068.244768,-1072.533697
606.813967,-1110.308913,-7402.059420,-612.876398
606.814291,296.082377,-7105.977043,-995.924147
606.814615,1776.494261,-8808.450710,-229.828649
606.814939,2146.597232,-9548.656652,-229.828649
606.815263,2590.720797,-10510.924376,612.876398
606.815587,2294.638420,-11177.109724,995.924147
606.815911,2072.576638,-11029.068536,612.876398
606.816235,740.205942,-10066.800811,383.047749
606.816559,-370.102971,-9548.656652,-383.047749
606.816883,-222.061783,-10807.006753,-229.828649
606.817207,74.020594,-11251.130318,-153.219100
606.817531,740.205942,-9696.697840,459.657299
606.817855,1406.391290,-8068.244768,612.876398
606.818179,1702.473667,-7846.182985,0.000000
606.818503,2072.576638,-9252.574275,459.657299
606.818827,2516.700203,-10658.965565,1455.581446
606.819151,2664.741391,-10732.986159,766.095498
606.819475,666.185348,-9252.574275,229.828649
606.819799,-370.102971,-8290.306550,-153.219100
606.820123,592.164754,-9326.594869,0.000000
606.820447,1554.432478,-10881.027347,-153.219100
606.820771,888.247130,-10807.006753,0.000000
606.821095,-444.123565,-9104.533087,306.438199
606.821419,-962.267725,-8364.327145,-919.314598
606.821743,-1776.494261,-8142.265362,-766.095498
606.822067,-1702.473667,-8734.430116,76.609550
606.822391,-1110.308913,-9770.718434,306.438199
606.822715,-888.247130,-10510.924376,536.266849
606.823039,-370.102971,-9992.780217,153.219100
606.823363,-370.102971,-8956.491898,919.314598
606.823687,296.082377,-9030.512492,995.924147
606.824011,222.061783,-10955.047942,766.095498
606.824335,148.041188,-12065.356855,383.047749
606.824659,0.000000,-11029.068536,0.000000
606.824983,148.041188,-9622.677246,-459.657299
606.825307,666.185348,-9548.656652,-383.047749
606.825631,0.000000,-10140.821405,-689.485948
606.825955,-518.144159,-10510.924376,-766.095498
606.826279,-1406.391290,-10658.965565,-919.314598
606.826603,-1702.473667,-10288.862594,-689.485948
606.826927,-1406.391290,-9548.656652,-995.924147
606.827251,-1184.329507,-9030.512492,-1149.143247
606.827575,-2220.617826,-9548.656652,-842.705048
606.827899,-2516.700203,-10510.924376,-536.266849
606.828223,-1850.514855,-9622.677246,-306.438199
606.828547,-814.226536,-8364.327145,153.219100
606.828871,1036.288319,-8734.430116,536.266849
606.829195,1554.432478,-9474.636058,-229.828649
606.829519,1776.494261,-10807.006753,383.047749
606.829843,1776.494261,-11251.130318,306.438199
606.830167,888.247130,-11103.089130,76.609550
606.830491,148.041188,-10362.883188,306.438199
606.830815,-740.205942,-9992.780217,536.266849
606.831139,-370.102971,-10732.986159,153.219100
606.831463,-740.205942,-11103.089130,-229.828649
606.831787,-1776.494261,-10066.800811,0.000000
606.832111,-1924.535449,-9474.636058,0.000000
606.832435,-1332.370696,-9104.533087,-919.314598
606.832759,-1036.288319,-8660.409521,0.000000
606.833083,-740.205942,-8364.327145,0.000000
606.833407,444.123565,-8660.409521,306.438199
606.833731,962.267725,-9030.512492,383.047749
606.834055,1110.308913,-8660.409521,919.314598
606.834379,1924.535449,-9030.512492,842.705048
606.834703,2368.659014,-9400.615463,306.438199
606.835027,2590.720797,-9252.574275,459.657299
606.835351,2294.638420,-9104.533087,459.657299
606.835675,1776.494261,-9548.656652,229.828649
606.835999,888.247130,-8438.347739,383.047749
606.836323,0.000000,-8142.265362,459.657299
606.836647,0.000000,-7772.162391,-459.657299
606.836971,-74.020594,-7772.162391,-919.314598
606.837295,-666.185348,-8068.244768,-612.876398
606.837619,-1258.350101,-7994.224174,-612.876398
606.837943,-1184.329507,-7772.162391,-1455.581446
606.838267,-1258.350101,-7402.059420,-689.485948
606.838591,0.000000,-8438.347739,-153.219100
606.838915,962.267725,-9696.697840,0.000000
606.839239,1480.411884,-10066.800811,-306.438199
606.839563,888.247130,-10436.903782,-306.438199
606.839887,74.020594,-10140.821405,-383.047749
606.840211,148.041188,-11103.089130,-1225.752797
606.840535,0.000000,-12657.521608,-229.828649
606.840859,-296.082377,-12139.377449,-459.657299
606.841183,-370.102971,-12953.603985,-689.485948
606.841507,-592.164754,-12435.459826,-1149.143247
606.841831,-962.267725,-11103.089130,-1608.800546
606.842155,-1258.350101,-11399.171507,-1455.581446
606.842479,0.000000,-11325.150913,-1378.971896
606.842803,888.247130,-10955.047942,-689.485948
606.843128,296.082377,-10955.047942,-1149.143247
606.843452,-666.185348,-10955.047942,-1149.143247
606.843776,-1258.350101,-11029.068536,-1149.143247
606.844100,-1184.329507,-10807.006753,-919.314598
606.844424,-1850.514855,-10732.986159,-536.266849
606.844748,-2590.720797,-10658.965565,-459.657299
606.845072,-2368.659014,-9474.636058,-612.876398
606.845396,-1036.288319,-9252.574275,-229.828649
606.845720,222.061783,-8290.306550,612.876398
606.846044,518.144159,-7846.182985,76.609550
606.846368,-148.041188,-8660.409521,153.219100
606.846692,-888.247130,-7920.203579,0.000000
606.847016,-1184.329507,-8290.306550,306.438199
606.847340,-740.205942,-9030.512492,306.438199
606.847665,-1258.350101,-9252.574275,536.266849
606.847989,-2442.679609,-9030.512492,459.657299
606.848313,-2812.782580,-8142.265362,-612.876398
606.848637,-1776.494261,-8512.368333,0.000000
606.848961,518.144159,-9844.739029,1762.019645
606.849285,2294.638420,-9770.718434,842.705048
606.849609,2442.679609,-8660.409521,766.095498
606.849933,1036.288319,-8068.244768,919.314598
606.850257,888.247130,-8586.388927,689.485948
606.850581,1332.370696,-9474.636058,229.828649
606.850905,814.226536,-9178.553681,76.609550
606.851229,370.102971,-8068.244768,383.047749
606.851553,814.226536,-7476.080014,-306.438199
606.851877,1554.432478,-9030.512492,-306.438199
606.852201,1332.370696,-9918.759623,689.485948
606.852526,1110.308913,-10288.862594,1455.581446
606.852850,814.226536,-10584.944971,1378.971896
606.853174,814.226536,-9622.677246,689.485948
606.853498,1332.370696,-8586.388927,995.924147
606.853822,1184.329507,-8512.368333,536.266849
606.854146,962.267725,-10436.903782,-153.219100
606.854470,-740.205942,-10066.800811,-229.828649
606.854794,-666.185348,-9178.553681,0.000000
606.855118,666.185348,-9474.636058,76.609550
606.855442,1480.411884,-10362.883188,995.924147
606.855766,1406.391290,-11029.068536,229.828649
606.856090,814.226536,-10066.800811,-306.438199
606.856414,-222.061783,-9770.718434,-459.657299
606.856738,-888.247130,-10066.800811,-842.705048
606.857063,-222.061783,-10140.821405,-306.438199
606.857387,370.102971,-9622.677246,689.485948
606.857711,222.061783,-10510.924376,689.485948
606.858035,-962.267725,-11103.089130,612.876398
606.858359,-1184.329507,-10658.965565,0.000000
606.858683,-518.144159,-9548.656652,-612.876398
606.859007,222.061783,-9770.718434,0.000000
606.859331,1036.288319,-10436.903782,-229.828649
606.859655,814.226536,-10732.986159,-153.219100
606.859979,666.185348,-10066.800811,0.000000
606.860303,222.061783,-10732.986159,0.000000
606.860627,-1036.288319,-10362.883188,-766.095498
606.860951,-1702.473667,-10362.883188,-612.876398
606.861275,-3108.864956,-10807.006753,0.000000
606.861600,-2664.741391,-10584.944971,-919.314598
606.861924,-2294.638420,-9918.759623,-842.705048
606.862248,-2960.823768,-9252.574275,-995.924147
606.862572,-2664.741391,-8808.450710,-459.657299
606.862896,-1628.453072,-9030.512492,-459.657299
606.863220,-1184.329507,-9104.533087,-1225.752797
606.863544,-962.267725,-8586.388927,612.876398
606.863868,-814.226536,-9030.512492,229.828649
606.864192,-370.102971,-9474.636058,-383.047749
606.864516,-1036.288319,-9918.759623,0.000000
606.864840,-1036.288319,-9474.636058,-306.438199
606.865164,-222.061783,-9252.574275,-459.657299
606.865488,296.082377,-9548.656652,-153.219100
606.865812,518.144159,-9178.553681,306.438199
606.866137,1036.288319,-9030.512492,76.609550
606.866461,1480.411884,-9252.574275,-612.876398
606.866785,1924.535449,-8734.430116,-383.047749
606.867109,2146.597232,-8882.471304,-383.047749
606.867433,2072.576638,-9326.594869,-229.828649
606.867757,1184.329507,-9326.594869,-153.219100
606.868081,370.102971,-8808.450710,-612.876398
606.868405,592.164754,-9770.718434,0.000000
606.868729,-444.123565,-10510.924376,0.000000
606.869053,-444.123565,-9548.656652,-995.924147
606.869377,0.000000,-8068.244768,-229.828649
606.869701,1332.370696,-8586.388927,-306.438199
606.870025,3256.906145,-9474.636058,-612.876398
606.870349,2886.803174,-9326.594869,459.657299
606.870673,2368.659014,-9696.697840,1685.410096
606.870998,1406.391290,-9770.718434,459.657299
606.871322,0.000000,-9918.759623,-919.314598
606.871646,-1184.329507,-8956.491898,-612.876398
606.871970,-592.164754,-9622.677246,-536.266849
606.872294,0.000000,-11103.089130,-766.095498
606.872618,0.000000,-10584.944971,0.000000
606.872942,-592.164754,-9474.636058,766.095498
606.873266,-444.123565,-9326.594869,76.609550
606.873590,-370.102971,-11103.089130,-995.924147
606.873914,0.000000,-10807.006753,0.000000
606.874238,592.164754,-9844.739029,153.219100
606.874562,-296.082377,-10066.800811,0.000000
606.874886,-1554.432478,-9770.718434,-536.266849
606.875210,-1702.473667,-9622.677246,0.000000
606.875535,-888.247130,-10214.842000,383.047749
606.875859,518.144159,-10658.965565,229.828649
606.876183,296.082377,-10584.944971,306.438199
606.876507,-666.185348,-10066.800811,842.705048
606.876831,-1258.350101,-10140.821405,383.047749
606.877155,-1184.329507,-10436.903782,0.000000
606.877479,-1850.514855,-10214.842000,-383.047749
606.877803,-1850.514855,-9400.615463,0.000000
606.878127,-1628.453072,-9178.553681,229.828649
606.878451,-1110.308913,-9400.615463,-229.828649
606.878775,-740.205942,-9844.739029,76.609550
606.879099,-1184.329507,-8956.491898,0.000000
606.879423,-1850.514855,-9252.574275,-459.657299
606.879747,-2220.617826,-9326.594869,-536.266849
606.880072,0.000000,-9622.677246,459.657299
606.880396,814.226536,-8956.491898,766.095498
606.880720,1480.411884,-9178.553681,766.095498
606.881044,1110.308913,-9548.656652,306.438199
606.881368,1184.329507,-9622.677246,612.876398
606.881692,0.000000,-9696.697840,459.657299
606.882016,-666.185348,-9548.656652,383.047749
606.882340,-370.102971,-9252.574275,766.095498
606.882664,-666.185348,-9474.636058,-459.657299
606.882988,-592.164754,-8956.491898,0.000000
606.883312,0.000000,-8438.347739,153.219100
606.883636,1406.391290,-9030.512492,766.095498
606.883960,2886.803174,-9252.574275,383.047749
606.884284,3256.906145,-9326.594869,919.314598
606.884609,2738.761985,-9844.739029,1225.752797
606.884933,2738.761985,-9400.615463,0.000000
606.885257,1332.370696,-9918.759623,536.266849
606.885581,74.020594,-10955.047942,459.657299
606.885905,-370.102971,-10288.862594,-536.266849
606.886229,0.000000,-9326.594869,-306.438199
606.886553,444.123565,-8068.244768,0.000000
606.886877,1628.453072,-8512.368333,306.438199
606.887201,1258.350101,-8734.430116,306.438199
606.887525,148.041188,-9104.533087,0.000000
606.887849,-1480.411884,-8734.430116,76.609550
606.888173,-1850.514855,-8512.368333,153.219100
606.888497,-1480.411884,-9696.697840,76.609550
606.888821,-1554.432478,-9622.677246,0.000000
606.889145,-962.267725,-9474.636058,153.219100
606.889470,-370.102971,-10436.903782,-153.219100
606.889794,0.000000,-10362.883188,0.000000
606.890118,-148.041188,-9548.656652,76.609550
