#time,accel_x,accel_y,accel_z
573.185764,0.000000,-9770.718434,-229.828649
573.186088,0.000000,-9770.718434,-229.828649
573.186412,-222.061783,-9696.697840,-306.438199
573.186736,222.061783,-9548.656652,0.000000
573.187060,0.000000,-9400.615463,-306.438199
573.187384,0.000000,-9770.718434,0.000000
573.187708,296.082377,-9770.718434,0.000000
573.188032,296.082377,-9844.739029,0.000000
573.188356,0.000000,-9622.677246,0.000000
573.188680,148.041188,-9992.780217,-306.438199
573.189004,0.000000,-9622.677246,-306.438199
573.189328,0.000000,-9622.677246,-229.828649
573.189652,-296.082377,-10066.800811,76.609550
573.189976,0.000000,-9696.697840,0.000000
573.190300,-148.041188,-9696.697840,0.000000
573.190624,0.000000,-9992.780217,-153.219100
573.190948,-222.061783,-9622.677246,-153.219100
573.191272,-222.061783,-9622.677246,-229.828649
573.191596,-222.061783,-9696.697840,-229.828649
573.191920,-740.205942,-9326.594869,-306.438199
573.192244,0.000000,-9770.718434,-153.219100
573.192568,-148.041188,-9770.718434,-153.219100
573.192892,0.000000,-9770.718434,-153.219100
573.193217,0.000000,-9696.697840,-229.828649
573.193541,-296.082377,-9548.656652,0.000000
573.193865,148.041188,-9918.759623,-153.219100
573.194189,-296.082377,-9400.615463,0.000000
573.194513,74.020594,-9548.656652,0.000000
573.194837,592.164754,-9622.677246,229.828649
573.195161,740.205942,-10140.821405,0.000000
573.195485,148.041188,-10066.800811,0.000000
573.195809,-740.205942,-10288.862594,0.000000
573.196133,-1480.411884,-10066.800811,0.000000
573.196457,-1554.432478,-9400.615463,-459.657299
573.196781,-444.123565,-9326.594869,153.219100
573.197105,592.164754,-9992.780217,0.000000
573.197429,1258.350101,-9918.759623,383.047749
573.197753,1776.494261,-9400.615463,612.876398
573.198077,1406.391290,-9474.636058,536.266849
573.198401,962.267725,-9770.718434,306.438199
573.198725,666.185348,-9474.636058,-306.438199
573.199049,444.123565,-9622.677246,0.000000
573.199373,-962.267725,-10140.821405,-153.219100
573.199697,-1184.329507,-10066.800811,-229.828649
573.200021,-592.164754,-10214.842000,0.000000
573.200345,296.082377,-9918.759623,536.266849
573.200670,1332.370696,-9770.718434,766.095498
573.200994,2368.659014,-9474.636058,1455.581446
573.201318,2738.761985,-9474.636058,1378.971896
573.201642,3108.864956,-9622.677246,1225.752797
573.201966,2960.823768,-9474.636058,1532.190996
573.202290,2294.638420,-9030.512492,766.095498
573.202614,1628.453072,-9252.574275,76.609550
573.202938,370.102971,-9918.759623,0.000000
573.203262,-370.102971,-9992.780217,0.000000
573.203586,-296.082377,-9696.697840,0.000000
573.203910,296.082377,-9474.636058,383.047749
573.204234,1998.556043,-9622.677246,1608.800546
573.204558,3627.009116,-9474.636058,1991.848295
573.204882,4663.297435,-9548.656652,2528.115143
573.205206,5033.400406,-9844.739029,2681.334243
573.205530,4515.256246,-10066.800811,2604.724693
573.205854,3775.050304,-10140.821405,2528.115143
573.206178,3404.947333,-9918.759623,1991.848295
573.206502,2294.638420,-10214.842000,1838.629195
573.206826,1480.411884,-10658.965565,919.314598
573.207150,592.164754,-10436.903782,689.485948
573.207474,592.164754,-10066.800811,1532.190996
573.207799,2220.617826,-9992.780217,2298.286494
573.208123,3330.926739,-9474.636058,2681.334243
573.208447,4145.153275,-9474.636058,3294.210641
573.208771,4071.132681,-9696.697840,4060.306139
573.209095,3923.091493,-9992.780217,4213.525239
573.209419,3256.906145,-10140.821405,4519.963438
573.209743,1480.411884,-9474.636058,4213.525239
573.210067,-222.061783,-9474.636058,3447.429741
573.210391,-1480.411884,-8734.430116,2298.286494
573.210715,-1998.556043,-8438.347739,2145.067394
573.211039,-1480.411884,-8068.244768,1455.581446
573.211363,-370.102971,-7105.977043,2221.676944
573.211687,370.102971,-6883.915261,2451.505594
573.212011,1406.391290,-6587.832884,3370.820191
573.212335,2590.720797,-6513.812290,2757.943793
573.212659,3552.988522,-7698.141797,3217.601092
573.212983,4367.215058,-9030.512492,3830.477490
573.213307,4589.276840,-10214.842000,4519.963438
573.213631,4367.215058,-11399.171507,4136.915689
573.213955,3404.947333,-12509.480420,3907.087040
573.214279,888.247130,-12805.562797,2834.553343
573.214603,-962.267725,-12065.356855,1532.190996
573.214927,-1850.514855,-11325.150913,612.876398
573.215252,-1406.391290,-10288.862594,766.095498
573.215576,222.061783,-8956.491898,919.314598
573.215900,2368.659014,-8216.285956,1072.533697
573.216224,4071.132681,-7550.100608,1685.410096
573.216548,4663.297435,-7328.038826,1149.143247
573.216872,5107.421000,-8216.285956,1455.581446
573.217196,3849.070898,-9474.636058,1302.362347
573.217520,2664.741391,-11251.130318,2068.457845
573.217844,1036.288319,-12361.439231,2145.067394
573.218168,-296.082377,-12213.398043,1915.238745
573.218492,-518.144159,-11917.315666,1378.971896
573.218816,222.061783,-10955.047942,1072.533697
573.219140,1850.514855,-10510.924376,995.924147
573.219464,2812.782580,-9770.718434,536.266849
573.219788,3034.844362,-8660.409521,153.219100
573.220112,3404.947333,-8660.409521,459.657299
573.220436,3256.906145,-8808.450710,306.438199
573.220760,2368.659014,-8660.409521,-306.438199
573.221084,2368.659014,-8808.450710,-383.047749
573.221408,3108.864956,-8956.491898,229.828649
573.221732,5329.482782,-10362.883188,1378.971896
573.222056,6587.832884,-11843.295072,2528.115143
573.222380,6069.688724,-12731.542202,2451.505594
573.222705,3552.988522,-12287.418637,2298.286494
573.223029,592.164754,-11399.171507,1455.581446
573.223353,-1554.432478,-10658.965565,995.924147
573.223677,-2368.659014,-9474.636058,842.705048
573.224001,-962.267725,-8512.368333,76.609550
573.224325,740.205942,-7772.162391,1532.190996
573.224649,1998.556043,-7254.018232,1225.752797
573.224973,1850.514855,-7105.977043,1072.533697
573.225297,1332.370696,-5921.647536,383.047749
573.225621,1554.432478,-6291.750507,0.000000
573.225945,2220.617826,-7402.059420,383.047749
573.226269,3552.988522,-8956.491898,1455.581446
573.226593,4219.173869,-11325.150913,2298.286494
573.226917,3256.906145,-11029.068536,2145.067394
573.227241,1554.432478,-10288.862594,2145.067394
573.227565,296.082377,-9622.677246,1991.848295
573.227889,370.102971,-10214.842000,1532.190996
573.228213,518.144159,-10732.986159,1838.629195
573.228537,296.082377,-10436.903782,1838.629195
573.228861,148.041188,-9474.636058,1532.190996
573.229185,666.185348,-8290.306550,1302.362347
573.229509,2220.617826,-7402.059420,1378.971896
573.229833,3775.050304,-7994.224174,1608.800546
573.230158,3701.029710,-9474.636058,1532.190996
573.230482,2368.659014,-10140.821405,1378.971896
573.230806,296.082377,-9770.718434,842.705048
573.231130,-222.061783,-10140.821405,1762.019645
573.231454,1850.514855,-11695.253884,2374.896044
573.231778,3552.988522,-11843.295072,3064.381992
573.232102,3404.947333,-12065.356855,3064.381992
573.232426,2960.823768,-11029.068536,2757.943793
573.232750,2960.823768,-10881.027347,3064.381992
573.233074,3478.967927,-11547.212695,3677.258390
573.233398,3108.864956,-11547.212695,4213.525239
573.233722,1258.350101,-9918.759623,3217.601092
573.234046,370.102971,-8438.347739,1838.629195
573.234370,592.164754,-8068.244768,1149.143247
573.234694,2294.638420,-8882.471304,1455.581446
573.235018,3330.926739,-8586.388927,1685.410096
573.235342,3627.009116,-7846.182985,1915.238745
573.235666,4219.173869,-7031.956449,2681.334243
573.235990,4441.235652,-8438.347739,3064.381992
573.236314,4145.153275,-9696.697840,3524.039291
573.236638,3330.926739,-9992.780217,3907.087040
573.236962,2220.617826,-9178.553681,4290.134789
573.237287,2072.576638,-9622.677246,4136.915689
573.237611,2516.700203,-10140.821405,4060.306139
573.237935,2886.803174,-10362.883188,4366.744339
573.238259,3256.906145,-9548.656652,3677.258390
573.238583,2368.659014,-8882.471304,2528.115143
573.238907,1406.391290,-8290.306550,1685.410096
573.239231,-1110.308913,-8142.265362,842.705048
573.239555,-888.247130,-8068.244768,612.876398
573.239879,888.247130,-8290.306550,1149.143247
573.240203,2812.782580,-8142.265362,1225.752797
573.240527,3775.050304,-8660.409521,2145.067394
573.240851,4515.256246,-9252.574275,2604.724693
573.241175,4885.359217,-9326.594869,3370.820191
573.241499,3923.091493,-9252.574275,2681.334243
573.241823,1850.514855,-10214.842000,3064.381992
573.242147,592.164754,-11843.295072,3370.820191
573.242471,740.205942,-11547.212695,3294.210641
573.242795,1628.453072,-9622.677246,2987.772442
573.243119,1850.514855,-9622.677246,2451.505594
573.243443,370.102971,-10732.986159,1685.410096
573.243767,740.205942,-10584.944971,0.000000
573.244091,-148.041188,-8660.409521,-842.705048
573.244415,-1036.288319,-8660.409521,-612.876398
573.244740,-148.041188,-9770.718434,229.828649
573.245064,2442.679609,-9992.780217,0.000000
573.245388,4737.318029,-9252.574275,919.314598
573.245712,5773.606348,-8660.409521,1685.410096
573.246036,5773.606348,-10436.903782,2374.896044
573.246360,4663.297435,-11621.233289,2221.676944
573.246684,2220.617826,-11029.068536,2834.553343
573.247008,1184.329507,-9548.656652,2987.772442
573.247332,740.205942,-11399.171507,1532.190996
573.247656,-814.226536,-12953.603985,689.485948
573.247980,-1628.453072,-10214.842000,459.657299
573.248304,-1110.308913,-7994.224174,-229.828649
573.248628,-2294.638420,-9104.533087,-2681.334243
573.248952,-2664.741391,-9104.533087,-2604.724693
573.249276,-1628.453072,-6809.894666,-1915.238745
573.249600,-740.205942,-7179.997637,-1225.752797
573.249924,222.061783,-9622.677246,-842.705048
573.250248,2516.700203,-9474.636058,0.000000
573.250572,4885.359217,-9252.574275,995.924147
573.250896,6217.729913,-10436.903782,2451.505594
573.251220,7179.997637,-9992.780217,2604.724693
573.251545,6809.894666,-10658.965565,3140.991542
573.251869,2960.823768,-12139.377449,2757.943793
573.252193,-444.123565,-11991.336260,1378.971896
573.252517,-2664.741391,-11621.233289,383.047749
573.252841,-4663.297435,-9770.718434,-995.924147
573.253165,-5255.462188,-8956.491898,-2451.505594
573.253489,-4441.235652,-9474.636058,-2451.505594
573.253813,-2072.576638,-8660.409521,-2451.505594
573.254137,-518.144159,-7105.977043,-2145.067394
573.254461,0.000000,-7624.121203,-1608.800546
573.254785,1258.350101,-8142.265362,-919.314598
573.255109,4219.173869,-7920.203579,459.657299
573.255433,6809.894666,-8586.388927,2298.286494
573.255757,6809.894666,-10066.800811,2451.505594
573.256081,4219.173869,-10807.006753,1149.143247
573.256405,1332.370696,-9696.697840,919.314598
573.256729,-888.247130,-9844.739029,766.095498
573.257053,-1998.556043,-11325.150913,383.047749
573.257377,-2590.720797,-11103.089130,0.000000
573.257701,-3034.844362,-9548.656652,-842.705048
573.258026,-3182.885551,-9030.512492,-919.314598
573.258350,-1702.473667,-9252.574275,-1991.848295
573.258674,370.102971,-8586.388927,-1149.143247
573.258998,2220.617826,-8734.430116,-383.047749
573.259322,3404.947333,-9918.759623,383.047749
573.259646,3775.050304,-10584.944971,-306.438199
573.259970,1628.453072,-9844.739029,-459.657299
573.260294,-1924.535449,-11547.212695,-1225.752797
573.260618,-3701.029710,-12287.418637,-1762.019645
573.260942,-2738.761985,-12509.480420,-842.705048
573.261266,-2368.659014,-11843.295072,306.438199
573.261590,-1480.411884,-11473.192101,919.314598
573.261914,0.000000,-10807.006753,1225.752797
573.262238,888.247130,-9178.553681,1378.971896
573.262562,888.247130,-7846.182985,2068.457845
573.262886,1258.350101,-8290.306550,1532.190996
573.263210,518.144159,-8734.430116,1685.410096
573.263534,444.123565,-8512.368333,1378.971896
573.263858,148.041188,-8216.285956,459.657299
573.264182,-666.185348,-8068.244768,0.000000
573.264506,-592.164754,-8290.306550,-919.314598
573.264831,-222.061783,-8808.450710,0.000000
573.265155,-444.123565,-9178.553681,-153.219100
573.265479,-1110.308913,-9548.656652,-383.047749
573.265803,-2738.761985,-9918.759623,-383.047749
573.266127,-1850.514855,-9326.594869,536.266849
573.266451,888.247130,-9474.636058,995.924147
573.266775,3034.844362,-10807.006753,1838.629195
573.267099,3701.029710,-11251.130318,3677.258390
573.267423,2664.741391,-11177.109724,2604.724693
573.267747,1628.453072,-10955.047942,2298.286494
573.268071,296.082377,-9474.636058,1532.190996
573.268395,-518.144159,-9474.636058,0.000000
573.268719,-1850.514855,-9622.677246,-1225.752797
573.269043,-2368.659014,-8882.471304,-1455.581446
573.269367,-1702.473667,-8364.327145,-1915.238745
573.269691,-1110.308913,-7920.203579,-2068.457845
573.270015,-444.123565,-7402.059420,-1608.800546
573.270339,370.102971,-7476.080014,-536.266849
573.270663,740.205942,-8660.409521,0.000000
573.270987,370.102971,-9252.574275,383.047749
573.271312,0.000000,-9918.759623,612.876398
573.271636,148.041188,-9918.759623,1225.752797
573.271960,1332.370696,-10214.842000,1072.533697
573.272284,2072.576638,-11325.150913,1685.410096
573.272608,1480.411884,-10955.047942,1991.848295
573.272932,1184.329507,-10807.006753,0.000000
573.273256,-666.185348,-10288.862594,-1149.143247
573.273580,-1924.535449,-9474.636058,-2451.505594
573.273904,-1332.370696,-9622.677246,-2987.772442
573.274228,0.000000,-10510.924376,-1838.629195
573.274552,1036.288319,-10510.924376,-2221.676944
573.274876,370.102971,-10214.842000,-1762.019645
573.275200,-666.185348,-10214.842000,-2221.676944
573.275524,518.144159,-10510.924376,-1072.533697
573.275848,1702.473667,-11325.150913,76.609550
573.276172,1480.411884,-11695.253884,842.705048
573.276496,444.123565,-10658.965565,459.657299
573.276820,-962.267725,-9918.759623,229.828649
573.277144,-1480.411884,-9400.615463,0.000000
573.277468,0.000000,-8364.327145,0.000000
573.277792,518.144159,-8438.347739,-536.266849
573.278117,-296.082377,-7698.141797,-1532.190996
573.278441,-888.247130,-7402.059420,-1685.410096
573.278765,-1036.288319,-8734.430116,-1991.848295
573.279089,-1332.370696,-9770.718434,-1532.190996
573.279413,-1036.288319,-9474.636058,-842.705048
573.279737,-666.185348,-9252.574275,229.828649
573.280061,0.000000,-9030.512492,0.000000
573.280385,0.000000,-10140.821405,76.609550
573.280709,-888.247130,-10732.986159,153.219100
573.281033,-1036.288319,-10436.903782,536.266849
573.281357,-888.247130,-10214.842000,459.657299
573.281681,-666.185348,-9770.718434,1838.629195
573.282005,0.000000,-11029.068536,2298.286494
573.282329,-444.123565,-10066.800811,1302.362347
573.282653,-370.102971,-9178.553681,536.266849
573.282977,-1036.288319,-9030.512492,76.609550
573.283301,-592.164754,-10140.821405,-383.047749
573.283625,-962.267725,-10658.965565,0.000000
573.283949,-1998.556043,-9400.615463,-153.219100
573.284273,-1850.514855,-8290.306550,-1378.971896
573.284597,-1332.370696,-8586.388927,-766.095498
573.284922,0.000000,-8586.388927,-306.438199
573.285246,888.247130,-9326.594869,459.657299
573.285570,1998.556043,-9104.533087,766.095498
573.285894,1998.556043,-8586.388927,1072.533697
573.286218,1110.308913,-9474.636058,1149.143247
573.286542,1332.370696,-9770.718434,1455.581446
573.286866,1480.411884,-9178.553681,1302.362347
573.287190,962.267725,-10584.944971,1149.143247
573.287514,518.144159,-10510.924376,919.314598
573.287838,222.061783,-10584.944971,766.095498
573.288162,0.000000,-10658.965565,383.047749
573.288486,-148.041188,-10066.800811,-612.876398
573.288810,-962.267725,-9474.636058,-1225.752797
573.289134,-2146.597232,-9844.739029,-1149.143247
573.289458,-2664.741391,-10214.842000,-919.314598
573.289782,-2072.576638,-10362.883188,-383.047749
573.290106,-1628.453072,-10362.883188,-229.828649
573.290430,-740.205942,-9178.553681,76.609550
573.290754,148.041188,-9474.636058,153.219100
573.291078,962.267725,-9770.718434,995.924147
573.291403,1628.453072,-9104.533087,1072.533697
573.291727,1480.411884,-9030.512492,995.924147
573.292051,1776.494261,-8216.285956,1072.533697
573.292375,2368.659014,-7994.224174,0.000000
573.292699,2664.741391,-8586.388927,0.000000
573.293023,2738.761985,-8660.409521,-766.095498
573.293347,1332.370696,-8808.450710,-689.485948
573.293671,296.082377,-9548.656652,-689.485948
573.293995,444.123565,-9770.718434,-306.438199
573.294319,1480.411884,-10362.883188,0.000000
573.294643,222.061783,-9770.718434,-383.047749
573.294967,-592.164754,-9844.739029,-536.266849
573.295291,-1184.329507,-10510.924376,-919.314598
573.295615,-1554.432478,-10955.047942,-536.266849
573.295939,-1258.350101,-10066.800811,-153.219100
573.296263,148.041188,-9030.512492,383.047749
573.296587,-74.020594,-9992.780217,689.485948
573.296911,148.041188,-10658.965565,76.609550
573.297235,0.000000,-10510.924376,-1225.752797
573.297559,-1406.391290,-9992.780217,-842.705048
573.297883,-888.247130,-10436.903782,-612.876398
573.298208,0.000000,-10658.965565,-306.438199
573.298532,-296.082377,-10288.862594,842.705048
573.298856,-666.185348,-9474.636058,383.047749
573.299180,-592.164754,-9622.677246,0.000000
573.299504,-1036.288319,-8734.430116,-459.657299
573.299828,148.041188,-8364.327145,689.485948
573.300152,592.164754,-9326.594869,995.924147
573.300476,444.123565,-8882.471304,919.314598
573.300800,-370.102971,-7476.080014,842.705048
573.301124,-962.267725,-7698.141797,306.438199
573.301448,-592.164754,-8142.265362,0.000000
573.301772,-296.082377,-8512.368333,-306.438199
573.302096,-444.123565,-9474.636058,0.000000
573.302420,-962.267725,-10436.903782,306.438199
573.302744,-1110.308913,-10807.006753,0.000000
573.303068,-1480.411884,-10288.862594,0.000000
573.303392,-1184.329507,-9252.574275,-536.266849
573.303716,-814.226536,-9918.759623,-536.266849
573.304040,0.000000,-10436.903782,153.219100
573.304364,518.144159,-10362.883188,995.924147
573.304689,814.226536,-10584.944971,689.485948
573.305013,148.041188,-9474.636058,-306.438199
573.305337,0.000000,-8364.327145,-383.047749
573.305661,666.185348,-9548.656652,0.000000
573.305985,1258.350101,-10807.006753,-153.219100
573.306309,888.247130,-11029.068536,229.828649
573.306633,-518.144159,-9474.636058,-919.314598
573.306957,-962.267725,-9548.656652,-1149.143247
573.307281,-444.123565,-9400.615463,-842.705048
573.307605,74.020594,-9770.718434,-842.705048
573.307929,-370.102971,-9770.718434,-612.876398
573.308253,-444.123565,-9474.636058,-1225.752797
573.308577,-592.164754,-9918.759623,-842.705048
573.308901,0.000000,-9622.677246,-459.657299
573.309225,1184.329507,-9252.574275,-459.657299
573.309549,814.226536,-10362.883188,229.828649
573.309873,666.185348,-10584.944971,76.609550
573.310197,962.267725,-10436.903782,0.000000
573.310521,888.247130,-10658.965565,459.657299
573.310845,1850.514855,-9918.759623,459.657299
573.311169,2368.659014,-10066.800811,0.000000
573.311494,1332.370696,-10807.006753,0.000000
573.311818,-296.082377,-9770.718434,-612.876398
573.312142,-1036.288319,-9622.677246,-1149.143247
573.312466,-1850.514855,-9474.636058,-995.924147
573.312790,-814.226536,-9178.553681,-995.924147
573.313114,888.247130,-9178.553681,-306.438199
573.313438,1776.494261,-8808.450710,229.828649
573.313762,1924.535449,-8882.471304,153.219100
573.314086,1406.391290,-9696.697840,153.219100
573.314410,1184.329507,-9770.718434,766.095498
573.314734,1628.453072,-9400.615463,1149.143247
573.315058,1110.308913,-9770.718434,919.314598
573.315382,666.185348,-9844.739029,1378.971896
573.315706,-222.061783,-10140.821405,612.876398
573.316030,-1332.370696,-10362.883188,612.876398
573.316354,-1110.308913,-9326.594869,459.657299
573.316678,-1406.391290,-8956.491898,0.000000
573.317002,-2072.576638,-9030.512492,-383.047749
573.317326,-1998.556043,-8512.368333,-306.438199
573.317650,-2368.659014,-9474.636058,76.609550
573.317975,-2516.700203,-10362.883188,1302.362347
573.318299,-888.247130,-10214.842000,1608.800546
573.318623,444.123565,-8882.471304,1685.410096
573.318947,518.144159,-8142.265362,2068.457845
573.319271,296.082377,-7846.182985,1915.238745
573.319595,0.000000,-8956.491898,1455.581446
573.319919,-370.102971,-9548.656652,2298.286494
573.320243,888.247130,-8438.347739,2374.896044
573.320567,2072.576638,-7550.100608,1838.629195
573.320891,814.226536,-7105.977043,1455.581446
573.321215,-444.123565,-7698.141797,229.828649
573.321539,-1924.535449,-8808.450710,-306.438199
573.321863,-2072.576638,-9548.656652,-306.438199
573.322187,-1332.370696,-9400.615463,0.000000
573.322511,-888.247130,-9474.636058,-306.438199
573.322835,-444.123565,-9622.677246,306.438199
573.323159,222.061783,-10436.903782,-229.828649
573.323483,-592.164754,-11917.315666,-689.485948
573.323807,-814.226536,-11843.295072,-459.657299
573.324131,148.041188,-10955.047942,-306.438199
573.324455,1036.288319,-11029.068536,76.609550
573.324780,1480.411884,-10955.047942,-153.219100
573.325104,1036.288319,-11917.315666,-842.705048
573.325428,296.082377,-12583.501014,-689.485948
573.325752,814.226536,-11843.295072,-995.924147
573.326076,518.144159,-11621.233289,-919.314598
573.326400,-888.247130,-10881.027347,-536.266849
573.326724,-444.123565,-10510.924376,-919.314598
573.327048,-1184.329507,-10955.047942,-1302.362347
573.327372,-1702.473667,-9770.718434,-1455.581446
573.327696,-370.102971,-8364.327145,-919.314598
573.328020,444.123565,-8216.285956,-919.314598
573.328344,296.082377,-7920.203579,0.000000
573.328668,1406.391290,-7550.100608,-229.828649
573.328992,1628.453072,-8290.306550,-842.705048
573.329316,1554.432478,-8438.347739,-689.485948
573.329640,1924.535449,-8142.265362,-383.047749
573.329964,1480.411884,-9696.697840,229.828649
573.330288,1036.288319,-10658.965565,612.876398
573.330612,-222.061783,-10436.903782,-536.266849
573.330936,-1850.514855,-10140.821405,-995.924147
573.331261,-1406.391290,-9400.615463,-995.924147
573.331585,-296.082377,-9400.615463,-1225.752797
573.331909,0.000000,-10362.883188,-306.438199
573.332233,1110.308913,-9992.780217,0.000000
573.332557,1332.370696,-9030.512492,0.000000
573.332881,1036.288319,-9104.533087,-306.438199
573.333205,1110.308913,-8956.491898,229.828649
573.333529,1480.411884,-9474.636058,0.000000
573.333853,444.123565,-9622.677246,689.485948
573.334177,-666.185348,-9770.718434,995.924147
573.334501,-1406.391290,-9770.718434,0.000000
573.334825,-1628.453072,-9474.636058,459.657299
573.335149,-962.267725,-8586.388927,383.047749
573.335473,74.020594,-8882.471304,153.219100
573.335797,-518.144159,-8956.491898,229.828649
573.336121,-1406.391290,-8586.388927,229.828649
573.336445,-1702.473667,-8142.265362,229.828649
573.336769,-1036.288319,-8660.409521,689.485948
573.337093,-296.082377,-9104.533087,153.219100
573.337417,-592.164754,-9770.718434,612.876398
573.337741,-962.267725,-9992.780217,842.705048
573.338066,-962.267725,-11547.212695,459.657299
573.338390,-1036.288319,-11843.295072,536.266849
573.338714,-1110.308913,-10214.842000,612.876398
573.339038,-296.082377,-10288.862594,0.000000
573.339362,-296.082377,-10955.047942,-383.047749
573.339686,-296.082377,-10658.965565,0.000000
573.340010,-444.123565,-10510.924376,-153.219100
573.340334,-740.205942,-10214.842000,-229.828649
573.340658,-518.144159,-9252.574275,-383.047749
573.340982,296.082377,-10584.944971,76.609550
573.341306,1258.350101,-10807.006753,229.828649
573.341630,592.164754,-10510.924376,536.266849
573.341954,-1184.329507,-11029.068536,76.609550
573.342278,-1480.411884,-10510.924376,-383.047749
573.342602,-1036.288319,-10362.883188,-306.438199
573.342926,-370.102971,-10807.006753,0.000000
573.343250,666.185348,-10140.821405,536.266849
573.343574,1258.350101,-9252.574275,-612.876398
573.343898,740.205942,-8956.491898,-383.047749
573.344222,666.185348,-8660.409521,0.000000
573.344547,1406.391290,-8734.430116,0.000000
573.344871,1554.432478,-9696.697840,689.485948
573.345195,1332.370696,-10066.800811,1149.143247
573.345519,666.185348,-9770.718434,153.219100
573.345843,-518.144159,-9548.656652,0.000000
573.346160,-444.123565,-8956.491898,459.657299
573.346484,814.226536,-9400.615463,459.657299
573.346808,1184.329507,-9696.697840,536.266849
573.347132,518.144159,-7846.182985,766.095498
573.347456,0.000000,-7550.100608,153.219100
573.347780,296.082377,-7328.038826,-689.485948
573.348104,1332.370696,-7105.977043,0.000000
573.348428,1776.494261,-8216.285956,306.438199
573.348752,1628.453072,-8956.491898,383.047749
573.349076,518.144159,-8364.327145,229.828649
573.349400,-148.041188,-9548.656652,153.219100
573.349724,-296.082377,-9548.656652,842.705048
573.350048,814.226536,-10214.842000,76.609550
573.350372,888.247130,-10288.862594,153.219100
573.350696,518.144159,-10436.903782,766.095498
573.351020,666.185348,-10436.903782,612.876398
573.351344,740.205942,-10807.006753,0.000000
573.351668,666.185348,-9400.615463,76.609550
573.351992,740.205942,-9030.512492,-306.438199
573.352316,148.041188,-10510.924376,-612.876398
573.352640,-444.123565,-11029.068536,306.438199
573.352964,-1406.391290,-10955.047942,612.876398
573.353288,-2146.597232,-11251.130318,689.485948
573.353612,-1924.535449,-11103.089130,459.657299
573.353936,-1628.453072,-10436.903782,-229.828649
573.354260,-2220.617826,-9474.636058,76.609550
573.354584,-2220.617826,-8882.471304,-536.266849
573.354908,-2368.659014,-9178.553681,-766.095498
573.355232,-1702.473667,-9030.512492,-459.657299
573.355556,0.000000,-8364.327145,306.438199
573.355880,962.267725,-8808.450710,842.705048
573.356204,0.000000,-10066.800811,1072.533697
573.356528,-740.205942,-9622.677246,459.657299
573.356852,-888.247130,-10066.800811,229.828649
573.357176,-1258.350101,-9548.656652,153.219100
573.357500,-370.102971,-9622.677246,153.219100
573.357824,0.000000,-9992.780217,229.828649
573.358148,-444.123565,-10288.862594,842.705048
573.358472,-814.226536,-10214.842000,383.047749
573.358796,-444.123565,-9622.677246,-612.876398
573.359120,-518.144159,-9030.512492,0.000000
573.359444,74.020594,-9400.615463,-153.219100
573.359768,740.205942,-10732.986159,76.609550
573.360092,296.082377,-10362.883188,76.609550
573.360416,-296.082377,-9770.718434,-383.047749
573.360740,-1258.350101,-10066.800811,76.609550
573.361064,222.061783,-10140.821405,-306.438199
573.361388,1332.370696,-10214.842000,-919.314598
573.361712,1036.288319,-9474.636058,0.000000
573.362036,0.000000,-9104.533087,-612.876398
573.362360,0.000000,-8956.491898,-1762.019645
573.362684,666.185348,-8734.430116,-689.485948
573.363008,1184.329507,-7920.203579,-612.876398
573.363332,2294.638420,-8068.244768,-1225.752797
573.363656,1628.453072,-8882.471304,-1225.752797
573.363980,1258.350101,-9030.512492,-459.657299
573.364305,1258.350101,-10140.821405,0.000000
573.364629,-592.164754,-10288.862594,229.828649
573.364953,-592.164754,-9770.718434,-306.438199
573.365277,-814.226536,-10214.842000,-919.314598
573.365601,-666.185348,-9918.759623,-612.876398
573.365925,-592.164754,-10436.903782,-306.438199
573.366249,1110.308913,-11695.253884,-383.047749
573.366573,1110.308913,-9622.677246,-612.876398
573.366897,1110.308913,-9400.615463,-1072.533697
573.367221,888.247130,-10584.944971,-689.485948
573.367545,888.247130,-11029.068536,0.000000
573.367869,888.247130,-11695.253884,76.609550
573.368193,444.123565,-11547.212695,612.876398
573.368517,0.000000,-10362.883188,229.828649
573.368841,148.041188,-10066.800811,0.000000
573.369165,518.144159,-10658.965565,689.485948
573.369489,444.123565,-10436.903782,612.876398
573.369813,296.082377,-10288.862594,76.609550
573.370137,0.000000,-9178.553681,229.828649
573.370461,1036.288319,-7550.100608,383.047749
573.370785,1036.288319,-7476.080014,536.266849
573.371109,296.082377,-7994.224174,689.485948
573.371433,-444.123565,-8142.265362,153.219100
573.371757,-962.267725,-8882.471304,612.876398
573.372081,-1480.411884,-9104.533087,842.705048
573.372405,-1258.350101,-8808.450710,1225.752797
573.372729,-1702.473667,-8956.491898,1149.143247
573.373053,-2072.576638,-8956.491898,1149.143247
573.373377,-2368.659014,-8586.388927,459.657299
573.373701,-2960.823768,-9104.533087,306.438199
573.374025,-2738.761985,-8734.430116,1149.143247
573.374349,-1332.370696,-8438.347739,383.047749
573.374673,-962.267725,-8882.471304,76.609550
573.374997,-1184.329507,-8956.491898,689.485948
573.375321,-1184.329507,-9474.636058,-383.047749
573.375645,-1776.494261,-9992.780217,-383.047749
573.375969,-1554.432478,-9696.697840,229.828649
573.376293,-518.144159,-9918.759623,-153.219100
573.376617,148.041188,-10955.047942,1149.143247
573.376941,814.226536,-10955.047942,689.485948
573.377265,296.082377,-10436.903782,-153.219100
573.377589,-962.267725,-9548.656652,-995.924147
573.377913,-888.247130,-8216.285956,-1378.971896
573.378237,296.082377,-9252.574275,-919.314598
573.378561,1850.514855,-9992.780217,0.000000
573.378885,2442.679609,-9622.677246,-766.095498
573.379209,740.205942,-10140.821405,-1149.143247
573.379533,296.082377,-10214.842000,-995.924147
573.379857,1628.453072,-10214.842000,-1378.971896
573.380181,962.267725,-11399.171507,-1149.143247
573.380505,-592.164754,-11029.068536,0.000000
573.380829,-1480.411884,-10140.821405,-1608.800546
573.381153,-518.144159,-11325.150913,-1608.800546
573.381477,296.082377,-11695.253884,-459.657299
573.381801,1332.370696,-10807.006753,-919.314598
573.382125,814.226536,-10066.800811,-612.876398
573.382449,74.020594,-10288.862594,0.000000
573.382773,-296.082377,-10807.006753,-383.047749
573.383097,-888.247130,-10732.986159,-612.876398
573.383421,-1258.350101,-9326.594869,0.000000
573.383745,370.102971,-9548.656652,76.609550
573.384069,888.247130,-9696.697840,229.828649
573.384393,1184.329507,-9030.512492,76.609550
573.384717,148.041188,-8660.409521,0.000000
573.385041,-222.061783,-8142.265362,-229.828649
573.385365,888.247130,-7105.977043,-1072.533697
573.385689,1258.350101,-7624.121203,-306.438199
573.386013,740.205942,-8068.244768,766.095498
573.386337,0.000000,-7698.141797,153.219100
573.386661,74.020594,-8068.244768,0.000000
573.386985,518.144159,-7846.182985,383.047749
573.387309,1184.329507,-7994.224174,76.609550
573.387633,740.205942,-9474.636058,842.705048
573.387957,0.000000,-9696.697840,1378.971896
573.388281,0.000000,-9474.636058,459.657299
573.388606,-296.082377,-10214.842000,536.266849
573.388930,0.000000,-9992.780217,995.924147
573.389254,296.082377,-10140.821405,-306.438199
573.389578,-222.061783,-10584.944971,229.828649
573.389902,-1110.308913,-10288.862594,0.000000
573.390226,-1184.329507,-11251.130318,306.438199
573.390550,-1554.432478,-10881.027347,153.219100
573.390874,-296.082377,-9992.780217,306.438199
573.391198,888.247130,-9770.718434,0.000000
573.391522,0.000000,-10658.965565,689.485948
573.391846,-740.205942,-11325.150913,919.314598
573.392170,-1036.288319,-10955.047942,612.876398
573.392494,-1332.370696,-9400.615463,536.266849
573.392818,-814.226536,-8290.306550,0.000000
573.393142,-814.226536,-8882.471304,229.828649
573.393466,-592.164754,-9474.636058,76.609550
573.393790,-222.061783,-9178.553681,229.828649
573.394114,-592.164754,-9104.533087,153.219100
573.394438,-814.226536,-8660.409521,0.000000
573.394762,74.020594,-8956.491898,153.219100
573.395086,1184.329507,-10732.986159,1378.971896
573.395410,1036.288319,-11843.295072,1915.238745
573.395734,0.000000,-11399.171507,689.485948
573.396058,-1480.411884,-10362.883188,459.657299
573.396382,-1406.391290,-9622.677246,0.000000
573.396706,-518.144159,-9844.739029,-766.095498
573.397030,0.000000,-10732.986159,0.000000
573.397354,-444.123565,-10140.821405,612.876398
573.397678,148.041188,-9770.718434,229.828649
573.398002,0.000000,-9030.512492,76.609550
573.398326,518.144159,-8216.285956,153.219100
573.398650,888.247130,-8512.368333,-383.047749
573.398974,74.020594,-9400.615463,0.000000
573.399298,-518.144159,-9178.553681,536.266849
573.399622,-518.144159,-9622.677246,919.314598
573.399946,-370.102971,-8660.409521,1149.143247
573.400270,666.185348,-7920.203579,689.485948
573.400594,444.123565,-7846.182985,-153.219100
573.400918,-370.102971,-8216.285956,-842.705048
573.401242,-296.082377,-8364.327145,-1302.362347
573.401566,-814.226536,-8068.244768,-536.266849
573.401890,296.082377,-7994.224174,0.000000
573.402214,1924.535449,-8364.327145,0.000000
573.402538,1332.370696,-9178.553681,0.000000
573.402862,1036.288319,-9400.615463,0.000000
573.403186,222.061783,-10362.883188,-919.314598
573.403510,-296.082377,-11473.192101,-1072.533697
573.403834,-222.061783,-10584.944971,0.000000
573.404158,740.205942,-10214.842000,-306.438199
573.404482,962.267725,-11251.130318,0.000000
573.404806,1406.391290,-11325.150913,-306.438199
573.405130,1110.308913,-11843.295072,-1225.752797
573.405454,0.000000,-10807.006753,-1149.143247
573.405778,-148.041188,-10732.986159,-1149.143247
573.406102,1110.308913,-10807.006753,-1378.971896
573.406426,1258.350101,-11473.192101,-383.047749
573.406750,740.205942,-11473.192101,-153.219100
573.407074,-148.041188,-11769.274478,-766.095498
573.407398,-518.144159,-10658.965565,-612.876398
573.407722,814.226536,-9770.718434,-612.876398
573.408046,814.226536,-10807.006753,0.000000
573.408370,74.020594,-11177.109724,0.000000
573.408694,-740.205942,-10362.883188,-459.657299
573.409018,-2368.659014,-9992.780217,-842.705048
573.409342,-2294.638420,-9104.533087,-842.705048
573.409666,-666.185348,-8142.265362,-1915.238745
573.409990,148.041188,-8808.450710,-383.047749
573.410314,296.082377,-8586.388927,689.485948
573.410638,-962.267725,-8956.491898,0.000000
573.410962,-2368.659014,-9104.533087,0.000000
573.411286,-2960.823768,-8290.306550,153.219100
573.411610,-2220.617826,-8142.265362,0.000000
573.411934,-1110.308913,-8512.368333,612.876398
573.412258,-1702.473667,-8438.347739,842.705048
573.412582,-1110.308913,-8660.409521,536.266849
573.412907,-1702.473667,-8586.388927,536.266849
573.413231,-1184.329507,-8142.265362,0.000000
573.413555,-740.205942,-8512.368333,-76.609550
573.413879,-592.164754,-8734.430116,459.657299
573.414203,222.061783,-9178.553681,612.876398
573.414527,1184.329507,-9400.615463,229.828649
573.414851,1702.473667,-8882.471304,76.609550
573.415175,1480.411884,-8956.491898,0.000000
573.415499,2072.576638,-9696.697840,-306.438199
573.415823,1998.556043,-10066.800811,612.876398
573.416147,1480.411884,-10362.883188,76.609550
573.416471,-222.061783,-10658.965565,0.000000
573.416795,-444.123565,-9918.759623,-766.095498
573.417119,296.082377,-9474.636058,-1072.533697
573.417443,1036.288319,-10955.047942,-229.828649
573.417767,666.185348,-11029.068536,-229.828649
573.418091,296.082377,-10881.027347,229.828649
573.418415,-592.164754,-11177.109724,-383.047749
573.418739,-296.082377,-10584.944971,-612.876398
573.419063,-222.061783,-11325.150913,-383.047749
573.419387,-296.082377,-12213.398043,229.828649
573.419711,-296.082377,-11843.295072,-612.876398
573.420035,-1480.411884,-10584.944971,-383.047749
573.420359,-1036.288319,-10732.986159,-229.828649
573.420683,74.020594,-10362.883188,-689.485948
573.421007,1480.411884,-9918.759623,-689.485948
573.421331,1628.453072,-9770.718434,459.657299
573.421655,1406.391290,-9030.512492,383.047749
573.421979,962.267725,-9400.615463,0.000000
573.422303,444.123565,-8734.430116,689.485948
573.422627,1554.432478,-8142.265362,229.828649
573.422951,1776.494261,-9030.512492,1149.143247
573.423275,518.144159,-8882.471304,2221.676944
573.423599,-222.061783,-8142.265362,76.609550
573.423923,-1850.514855,-7624.121203,0.000000
573.424247,-1776.494261,-7846.182985,0.000000
573.424571,-740.205942,-8216.285956,153.219100
573.424895,-370.102971,-8068.244768,76.609550
573.425219,-1036.288319,-7254.018232,689.485948
573.425543,-1110.308913,-8142.265362,229.828649
573.425867,-1480.411884,-9474.636058,0.000000
573.426191,-888.247130,-9696.697840,76.609550
573.426515,-1036.288319,-9844.739029,0.000000
573.426839,-1036.288319,-10362.883188,459.657299
573.427163,-962.267725,-10658.965565,766.095498
573.427487,-1184.329507,-10732.986159,766.095498
573.427811,-888.247130,-10288.862594,842.705048
573.428135,0.000000,-9918.759623,536.266849
573.428459,1184.329507,-9696.697840,-612.876398
573.428783,1110.308913,-9030.512492,383.047749
573.429107,1554.432478,-9030.512492,153.219100
573.429431,1258.350101,-9474.636058,0.000000
573.429755,518.144159,-8956.491898,766.095498
573.430079,444.123565,-8882.471304,-766.095498
573.430403,370.102971,-10066.800811,-383.047749
573.430727,222.061783,-9844.739029,0.000000
573.431051,0.000000,-9622.677246,-919.314598
573.431375,-962.267725,-10362.883188,-689.485948
573.431699,-1258.350101,-10066.800811,-995.924147
573.432023,-592.164754,-9844.739029,-919.314598
573.432347,-444.123565,-10584.944971,76.609550
573.432671,-444.123565,-11621.233289,-689.485948
573.432995,0.000000,-11473.192101,-612.876398
573.433319,-444.123565,-10436.903782,-689.485948
573.433643,-370.102971,-9474.636058,-612.876398
573.433967,222.061783,-11251.130318,-612.876398
573.434291,444.123565,-12657.521608,0.000000
573.434615,0.000000,-11547.212695,0.000000
573.434939,-1184.329507,-9918.759623,-689.485948
573.435263,-1036.288319,-9696.697840,-1378.971896
573.435587,0.000000,-9252.574275,-1915.238745
573.435911,666.185348,-9474.636058,-1072.533697
573.436235,666.185348,-8734.430116,0.000000
573.436559,740.205942,-8660.409521,229.828649
573.436883,666.185348,-8882.471304,0.000000
573.437208,962.267725,-8290.306550,689.485948
573.437532,1628.453072,-7698.141797,536.266849
573.437856,1702.473667,-9104.533087,842.705048
573.438180,0.000000,-9178.553681,612.876398
573.438504,-1850.514855,-8956.491898,0.000000
573.438828,-2294.638420,-9030.512492,153.219100
573.439152,-814.226536,-8586.388927,0.000000
573.439476,0.000000,-8660.409521,-842.705048
573.439800,-592.164754,-8142.265362,-612.876398
573.440124,-518.144159,-7994.224174,-459.657299
573.440448,-518.144159,-9400.615463,-229.828649
573.440772,-296.082377,-10066.800811,-306.438199
573.441096,740.205942,-8586.388927,76.609550
573.441420,1776.494261,-9326.594869,0.000000
573.441744,1850.514855,-10807.006753,306.438199
573.442068,1702.473667,-10658.965565,229.828649
573.442392,444.123565,-11325.150913,612.876398
573.442716,-1036.288319,-11103.089130,919.314598
573.443040,-370.102971,-11325.150913,306.438199
573.443364,592.164754,-10436.903782,-229.828649
573.443688,888.247130,-9770.718434,-383.047749
573.444012,296.082377,-9918.759623,-1072.533697
573.444336,74.020594,-9844.739029,-1991.848295
573.444660,-148.041188,-9696.697840,-766.095498
573.444984,370.102971,-9030.512492,-536.266849
573.445308,1628.453072,-9992.780217,0.000000
573.445632,1110.308913,-10362.883188,76.609550
573.445956,222.061783,-11251.130318,-383.047749
573.446280,-1554.432478,-11843.295072,0.000000
573.446604,-1850.514855,-11251.130318,-306.438199
573.446928,-666.185348,-10288.862594,383.047749
573.447253,-518.144159,-10140.821405,306.438199
573.447577,-666.185348,-9844.739029,229.828649
573.447901,-1998.556043,-9178.553681,-995.924147
573.448225,-2220.617826,-9178.553681,-1072.533697
573.448550,-1554.432478,-8586.388927,-383.047749
573.448874,0.000000,-8512.368333,-689.485948
573.449198,-740.205942,-8290.306550,0.000000
573.449522,-1702.473667,-8216.285956,0.000000
573.449847,-1924.535449,-9474.636058,-689.485948
573.450171,-1628.453072,-9696.697840,536.266849
573.450495,-740.205942,-8734.430116,383.047749
573.450819,296.082377,-9178.553681,306.438199
573.451143,444.123565,-9252.574275,995.924147
573.451468,666.185348,-9252.574275,689.485948
573.451792,370.102971,-9474.636058,1225.752797
573.452116,-222.061783,-8956.491898,995.924147
573.452440,370.102971,-8068.244768,-383.047749
573.452765,1036.288319,-8142.265362,-229.828649
573.453089,1184.329507,-8808.450710,229.828649
573.453413,1258.350101,-10362.883188,-383.047749
573.453737,370.102971,-11251.130318,-383.047749
573.454062,-444.123565,-10140.821405,-383.047749
573.454386,-592.164754,-9548.656652,-459.657299
573.454710,0.000000,-9844.739029,-306.438199
573.455034,888.247130,-10362.883188,-153.219100
573.455359,1628.453072,-11325.150913,-306.438199
573.455683,444.123565,-10732.986159,-842.705048
573.456007,0.000000,-9178.553681,-995.924147
573.456331,666.185348,-9474.636058,-536.266849
573.456656,1924.535449,-10436.903782,306.438199
573.456980,2886.803174,-11029.068536,229.828649
573.457304,1702.473667,-11325.150913,0.000000
573.457628,0.000000,-10732.986159,-153.219100
573.457952,518.144159,-10510.924376,-689.485948
573.458277,1184.329507,-10807.006753,-229.828649
573.458601,888.247130,-11177.109724,153.219100
573.458925,296.082377,-9918.759623,-306.438199
573.459249,0.000000,-9770.718434,-306.438199
573.459574,-222.061783,-9252.574275,0.000000
573.459898,1036.288319,-8438.347739,-229.828649
573.460222,370.102971,-8586.388927,-842.705048
573.460546,-814.226536,-8808.450710,-306.438199
573.460871,-962.267725,-8808.450710,-536.266849
573.461195,-1480.411884,-9696.697840,76.609550
573.461519,-1406.391290,-9030.512492,0.000000
573.461843,-1480.411884,-8438.347739,0.000000
573.462168,-1480.411884,-9030.512492,153.219100
573.462492,-1110.308913,-9030.512492,306.438199
573.462816,-888.247130,-9696.697840,0.000000
573.463140,-370.102971,-9622.677246,842.705048
573.463465,888.247130,-9030.512492,612.876398
573.463789,1110.308913,-9400.615463,229.828649
573.464113,666.185348,-9548.656652,842.705048
573.464437,666.185348,-9918.759623,689.485948
573.464762,-148.041188,-10584.944971,76.609550
573.465086,-888.247130,-10362.883188,612.876398
573.465410,-444.123565,-9548.656652,229.828649
573.465734,0.000000,-10214.842000,766.095498
573.466058,-370.102971,-10214.842000,1149.143247
573.466383,-592.164754,-9696.697840,-229.828649
573.466707,-1480.411884,-9104.533087,-153.219100
573.467031,-1998.556043,-8882.471304,-153.219100
573.467355,-666.185348,-8290.306550,-536.266849
573.467680,296.082377,-8290.306550,-459.657299
573.468004,0.000000,-8068.244768,0.000000
573.468328,-888.247130,-8660.409521,-612.876398
573.468652,-1036.288319,-9474.636058,-229.828649
573.468977,0.000000,-9474.636058,689.485948
573.469301,740.205942,-9770.718434,76.609550
573.469625,74.020594,-10362.883188,0.000000
573.469949,-444.123565,-10214.842000,383.047749
573.470274,-444.123565,-10658.965565,0.000000
573.470598,-444.123565,-10510.924376,-383.047749
573.470922,444.123565,-9548.656652,-919.314598
573.471246,1258.350101,-10066.800811,-306.438199
573.471571,2072.576638,-9992.780217,0.000000
573.471895,1258.350101,-9474.636058,-306.438199
573.472219,-296.082377,-10658.965565,153.219100
573.472543,-1332.370696,-11029.068536,-383.047749
573.472867,-814.226536,-10658.965565,-1378.971896
573.473192,-444.123565,-11177.109724,306.438199
573.473516,-444.123565,-10732.986159,919.314598
573.473840,370.102971,-10288.862594,-919.314598
573.474164,-962.267725,-8808.450710,-459.657299
573.474489,-1258.350101,-7772.162391,-689.485948
573.474813,0.000000,-8142.265362,-1302.362347
573.475137,962.267725,-9326.594869,-383.047749
573.475461,1036.288319,-8660.409521,0.000000
573.475786,888.247130,-8216.285956,-383.047749
573.476110,0.000000,-8216.285956,-536.266849
573.476434,74.020594,-8586.388927,-153.219100
573.476758,814.226536,-9696.697840,-919.314598
573.477083,1406.391290,-9770.718434,-306.438199
573.477407,1184.329507,-8882.471304,76.609550
573.477731,888.247130,-9474.636058,76.609550
573.478055,666.185348,-10362.883188,0.000000
573.478380,814.226536,-9844.739029,-842.705048
573.478704,814.226536,-9844.739029,-612.876398
573.479028,0.000000,-10362.883188,-306.438199
573.479352,-222.061783,-10362.883188,-1378.971896
573.479676,222.061783,-10140.821405,-383.047749
573.480001,0.000000,-10510.924376,76.609550
573.480325,666.185348,-11029.068536,-842.705048
573.480649,0.000000,-11325.150913,-766.095498
573.480973,-888.247130,-10288.862594,-536.266849
573.481298,-740.205942,-10288.862594,-1072.533697
573.481622,-1184.329507,-10807.006753,-229.828649
573.481946,148.041188,-10214.842000,0.000000
573.482270,518.144159,-10140.821405,-229.828649
573.482595,0.000000,-10140.821405,-689.485948
573.482919,74.020594,-8734.430116,-612.876398
573.483243,0.000000,-8290.306550,-766.095498
573.483567,-370.102971,-9474.636058,-612.876398
573.483892,444.123565,-9474.636058,536.266849
573.484216,814.226536,-8882.471304,536.266849
573.484540,518.144159,-9548.656652,1685.410096
573.484864,0.000000,-9992.780217,1302.362347
573.485189,-962.267725,-9844.739029,-153.219100
573.485513,-2812.782580,-8808.450710,-766.095498
573.485837,-2738.761985,-8364.327145,-842.705048
573.486161,-1258.350101,-9548.656652,0.000000
573.486486,-370.102971,-10214.842000,1072.533697
573.486810,-518.144159,-8882.471304,383.047749
573.487134,-2072.576638,-8068.244768,-76.609550
573.487458,-2146.597232,-8586.388927,-306.438199
573.487782,-1036.288319,-8956.491898,-919.314598
573.488107,-370.102971,-9178.553681,153.219100
573.488431,-1258.350101,-9400.615463,995.924147
573.488755,-1036.288319,-9400.615463,-229.828649
573.489079,-1776.494261,-9326.594869,383.047749
573.489404,-1184.329507,-9474.636058,1072.533697
573.489728,592.164754,-9474.636058,0.000000
573.490052,962.267725,-9548.656652,689.485948
573.490376,592.164754,-9400.615463,1149.143247
573.490701,1332.370696,-9622.677246,153.219100
573.491025,888.247130,-10066.800811,153.219100
573.491349,740.205942,-9252.574275,0.000000
573.491673,814.226536,-8808.450710,-229.828649
573.491998,0.000000,-9992.780217,-612.876398
573.492322,0.000000,-10510.924376,-766.095498
573.492646,0.000000,-10732.986159,-536.266849
573.492970,-740.205942,-10658.965565,0.000000
573.493295,-296.082377,-9474.636058,-1225.752797
573.493619,148.041188,-9474.636058,-995.924147
573.493943,592.164754,-10066.800811,842.705048
573.494267,1406.391290,-9844.739029,-153.219100
573.494591,370.102971,-10140.821405,-766.095498
573.494916,-370.102971,-9918.759623,0.000000
573.495240,666.185348,-10066.800811,-153.219100
573.495564,1702.473667,-10658.965565,0.000000
573.495888,1702.473667,-10362.883188,995.924147
573.496213,666.185348,-9326.594869,0.000000
573.496537,74.020594,-9770.718434,-842.705048
573.496861,1184.329507,-9696.697840,-689.485948
573.497185,1924.535449,-10362.883188,-766.095498
573.497510,1628.453072,-10807.006753,-536.266849
573.497834,1184.329507,-9770.718434,-459.657299
573.498158,592.164754,-9326.594869,-919.314598
573.498482,-888.247130,-9400.615463,-919.314598
573.498807,0.000000,-8734.430116,-383.047749
573.499131,888.247130,-9918.759623,-383.047749
573.499455,444.123565,-10510.924376,76.609550
573.499779,370.102971,-9696.697840,229.828649
573.500104,0.000000,-9770.718434,0.000000
573.500428,-592.164754,-10362.883188,536.266849
573.500752,-666.185348,-8734.430116,-995.924147
573.501076,-296.082377,-9252.574275,0.000000
573.501400,0.000000,-10955.047942,459.657299
573.501725,-148.041188,-10955.047942,153.219100
573.502049,-444.123565,-10362.883188,0.000000
573.502373,-962.267725,-9252.574275,0.000000
573.502697,-740.205942,-8808.450710,-459.657299
573.503022,-592.164754,-9770.718434,153.219100
573.503346,-1110.308913,-9770.718434,229.828649
573.503670,-1110.308913,-9178.553681,459.657299
573.503994,-1776.494261,-9548.656652,536.266849
573.504319,-1628.453072,-8882.471304,459.657299
573.504643,-1110.308913,-8882.471304,459.657299
573.504967,-740.205942,-8956.491898,919.314598
573.505291,-888.247130,-7994.224174,919.314598
573.505616,-1850.514855,-8438.347739,536.266849
573.505940,-2368.659014,-8290.306550,766.095498
573.506264,-1480.411884,-7994.224174,-383.047749
573.506588,148.041188,-8142.265362,-306.438199
573.506913,0.000000,-8808.450710,0.000000
573.507237,74.020594,-9622.677246,229.828649
573.507561,444.123565,-10362.883188,0.000000
573.507885,222.061783,-9992.780217,995.924147
573.508210,-518.144159,-9400.615463,612.876398
573.508534,74.020594,-9918.759623,-536.266849
573.508858,-888.247130,-10584.944971,-689.485948
573.509182,-518.144159,-10807.006753,-995.924147
573.509506,148.041188,-10732.986159,-689.485948
573.509831,518.144159,-10214.842000,0.000000
573.510155,1776.494261,-9918.759623,0.000000
573.510479,962.267725,-10214.842000,-229.828649
573.510803,370.102971,-10140.821405,-766.095498
573.511128,-592.164754,-10140.821405,-1302.362347
573.511452,-1036.288319,-11399.171507,-536.266849
573.511776,74.020594,-11177.109724,0.000000
573.512100,1258.350101,-10436.903782,-459.657299
573.512425,740.205942,-9992.780217,-383.047749
573.512749,-444.123565,-9770.718434,-766.095498
573.513073,-370.102971,-10288.862594,-919.314598
573.513397,-518.144159,-11177.109724,-766.095498
573.513722,592.164754,-9400.615463,-842.705048
573.514046,1554.432478,-8364.327145,-766.095498
573.514370,1332.370696,-9474.636058,-306.438199
573.514694,1332.370696,-9992.780217,-766.095498
573.515019,1776.494261,-9992.780217,-383.047749
573.515343,2072.576638,-8808.450710,-229.828649
573.515667,2886.803174,-8808.450710,0.000000
573.515991,2368.659014,-10140.821405,0.000000
573.516315,1628.453072,-10288.862594,536.266849
573.516640,148.041188,-9770.718434,0.000000
573.516964,-1332.370696,-10214.842000,-229.828649
573.517288,-1332.370696,-9844.739029,-383.047749
573.517612,74.020594,-8586.388927,-383.047749
573.517937,444.123565,-8512.368333,0.000000
573.518261,1184.329507,-9474.636058,459.657299
573.518585,444.123565,-9400.615463,0.000000
573.518909,-518.144159,-9844.739029,-229.828649
573.519234,-962.267725,-9178.553681,0.000000
573.519558,0.000000,-8882.471304,-229.828649
573.519882,-296.082377,-9622.677246,612.876398
573.520206,-444.123565,-9548.656652,689.485948
573.520531,-296.082377,-10288.862594,689.485948
573.520855,-370.102971,-10140.821405,612.876398
573.521179,222.061783,-9030.512492,842.705048
573.521503,592.164754,-9104.533087,536.266849
573.521828,0.000000,-9104.533087,919.314598
573.522152,-370.102971,-9178.553681,153.219100
573.522476,-1110.308913,-9770.718434,153.219100
573.522800,-1332.370696,-9696.697840,76.609550
573.523124,-740.205942,-8734.430116,-306.438199
573.523449,-888.247130,-9474.636058,536.266849
573.523773,-1628.453072,-10066.800811,842.705048
573.524097,-1702.473667,-10066.800811,-459.657299
573.524421,-3256.906145,-10140.821405,-612.876398
573.524746,-3997.112087,-9696.697840,0.000000
573.525070,-2516.700203,-9104.533087,-383.047749
573.525394,-666.185348,-9326.594869,995.924147
573.525718,148.041188,-9104.533087,1149.143247
573.526043,-370.102971,-8956.491898,-459.657299
573.526367,-1036.288319,-9326.594869,-383.047749
573.526691,-518.144159,-9474.636058,0.000000
573.527015,518.144159,-10362.883188,459.657299
573.527340,814.226536,-10584.944971,689.485948
573.527664,0.000000,-9326.594869,-689.485948
573.527988,-1258.350101,-9474.636058,-689.485948
573.528312,-1184.329507,-11399.171507,-536.266849
573.528637,444.123565,-11399.171507,-1225.752797
573.528961,888.247130,-9770.718434,-766.095498
573.529285,592.164754,-9178.553681,-306.438199
573.529609,1110.308913,-9030.512492,-1149.143247
573.529934,518.144159,-10066.800811,-1915.238745
573.530258,370.102971,-9992.780217,-1302.362347
573.530582,666.185348,-9326.594869,-612.876398
573.530906,1332.370696,-10807.006753,-459.657299
573.531230,1850.514855,-10955.047942,766.095498
573.531555,1702.473667,-10362.883188,612.876398
573.531879,148.041188,-10510.924376,-153.219100
573.532203,-814.226536,-10288.862594,-689.485948
573.532527,0.000000,-9918.759623,-2068.457845
573.532852,222.061783,-9696.697840,0.000000
573.533176,444.123565,-8882.471304,459.657299
573.533500,1258.350101,-8586.388927,-766.095498
573.533824,1258.350101,-8660.409521,-689.485948
573.534149,1924.535449,-8216.285956,-1378.971896
573.534473,2590.720797,-8290.306550,-1149.143247
573.534797,1998.556043,-9400.615463,-229.828649
573.535121,1776.494261,-9992.780217,306.438199
573.535446,1184.329507,-10807.006753,383.047749
573.535770,-518.144159,-10288.862594,612.876398
573.536094,-444.123565,-9622.677246,0.000000
573.536418,518.144159,-10140.821405,-153.219100
573.536743,666.185348,-10214.842000,689.485948
573.537067,1924.535449,-9992.780217,1149.143247
573.537391,1258.350101,-10214.842000,0.000000
573.537715,444.123565,-9548.656652,842.705048
573.538039,444.123565,-8882.471304,-995.924147
573.538364,-296.082377,-9696.697840,-612.876398
573.538688,-666.185348,-10362.883188,229.828649
573.539012,-1258.350101,-10066.800811,-306.438199
573.539336,-2294.638420,-10362.883188,0.000000
573.539661,-2664.741391,-9548.656652,0.000000
573.539985,-1702.473667,-9400.615463,-459.657299
573.540309,-2072.576638,-9474.636058,76.609550
573.540633,-1924.535449,-9252.574275,76.609550
573.540958,-1332.370696,-9696.697840,-153.219100
573.541282,-1628.453072,-9696.697840,842.705048
573.541606,-962.267725,-8438.347739,1225.752797
573.541930,-148.041188,-8734.430116,459.657299
573.542255,-148.041188,-9918.759623,1149.143247
573.542579,-592.164754,-9474.636058,919.314598
573.542903,-1702.473667,-9178.553681,0.000000
573.543227,-2220.617826,-9252.574275,995.924147
573.543552,-1480.411884,-9178.553681,0.000000
573.543876,-1258.350101,-9992.780217,-383.047749
573.544200,-1406.391290,-9844.739029,919.314598
573.544524,-814.226536,-9474.636058,0.000000
573.544849,-1258.350101,-9178.553681,-536.266849
573.545173,-1628.453072,-8216.285956,229.828649
573.545497,0.000000,-7994.224174,0.000000
573.545821,370.102971,-9474.636058,153.219100
573.546145,148.041188,-9918.759623,536.266849
573.546470,148.041188,-9696.697840,229.828649
573.546794,0.000000,-10510.924376,383.047749
573.547118,592.164754,-10510.924376,153.219100
573.547442,740.205942,-9770.718434,-612.876398
573.547767,888.247130,-9696.697840,0.000000
573.548091,1480.411884,-10140.821405,-306.438199
573.548415,1258.350101,-10288.862594,-1072.533697
573.548739,1776.494261,-9992.780217,-383.047749
573.549064,2220.617826,-9178.553681,-919.314598
573.549388,2368.659014,-9696.697840,-689.485948
573.549712,1480.411884,-11177.109724,153.219100
573.550036,1036.288319,-11251.130318,-766.095498
573.550360,-518.144159,-10881.027347,-306.438199
573.550685,-1554.432478,-10510.924376,229.828649
573.551009,-1184.329507,-10066.800811,-612.876398
573.551333,-370.102971,-10732.986159,-612.876398
573.551657,-518.144159,-9622.677246,0.000000
573.551981,-148.041188,-9030.512492,-153.219100
573.552306,222.061783,-9326.594869,-689.485948
573.552630,1406.391290,-8808.450710,76.609550
573.552954,2886.803174,-8438.347739,612.876398
573.553278,3330.926739,-9252.574275,536.266849
573.553602,2664.741391,-8956.491898,689.485948
573.553926,1628.453072,-8216.285956,0.000000
573.554251,148.041188,-9178.553681,-306.438199
573.554575,222.061783,-9474.636058,0.000000
573.554899,1628.453072,-9770.718434,-229.828649
573.555223,1110.308913,-9474.636058,459.657299
573.555547,518.144159,-8734.430116,459.657299
573.555871,-518.144159,-8808.450710,0.000000
573.556196,-1036.288319,-9326.594869,76.609550
573.556520,-148.041188,-8734.430116,-383.047749
573.556844,296.082377,-9326.594869,-229.828649
573.557168,444.123565,-9400.615463,459.657299
573.557492,1184.329507,-9252.574275,0.000000
573.557816,74.020594,-10140.821405,0.000000
573.558141,-1110.308913,-11251.130318,306.438199
573.558465,-1480.411884,-10881.027347,-306.438199
573.558789,-1924.535449,-10955.047942,-459.657299
573.559113,-2368.659014,-10510.924376,536.266849
573.559437,-2072.576638,-10436.903782,306.438199
573.559761,-1924.535449,-10881.027347,229.828649
573.560086,-1850.514855,-9326.594869,76.609550
573.560410,-666.185348,-8290.306550,-153.219100
573.560734,-814.226536,-9474.636058,-153.219100
573.561058,-1036.288319,-9178.553681,229.828649
573.561382,-1184.329507,-9178.553681,0.000000
573.561706,-1480.411884,-9400.615463,-153.219100
573.562031,-1480.411884,-8734.430116,153.219100
573.562355,-740.205942,-9696.697840,-459.657299
573.562679,-888.247130,-10807.006753,153.219100
573.563003,-814.226536,-10288.862594,229.828649
573.563327,-1184.329507,-9918.759623,-306.438199
573.563651,-1480.411884,-9844.739029,-153.219100
573.563976,-592.164754,-9770.718434,-383.047749
573.564300,370.102971,-9474.636058,229.828649
573.564624,888.247130,-9992.780217,995.924147
573.564948,962.267725,-9474.636058,383.047749
573.565272,0.000000,-9992.780217,-229.828649
573.565596,-814.226536,-9918.759623,-306.438199
573.565921,-370.102971,-10140.821405,-229.828649
573.566245,-666.185348,-10214.842000,-842.705048
573.566569,-1406.391290,-9918.759623,76.609550
573.566893,-962.267725,-9696.697840,-459.657299
573.567217,0.000000,-9400.615463,-919.314598
573.567541,740.205942,-9252.574275,-229.828649
573.567866,1850.514855,-8586.388927,-459.657299
573.568190,1850.514855,-9030.512492,-459.657299
573.568514,1406.391290,-8734.430116,-306.438199
573.568838,666.185348,-8068.244768,-1149.143247
573.569162,444.123565,-9326.594869,-766.095498
573.569486,814.226536,-9474.636058,-842.705048
573.569811,2368.659014,-10066.800811,-689.485948
573.570135,1998.556043,-9992.780217,689.485948
573.570459,1776.494261,-9474.636058,536.266849
573.570783,1628.453072,-9770.718434,-536.266849
573.571107,74.020594,-10140.821405,-229.828649
573.571431,444.123565,-9400.615463,-689.485948
573.571756,1258.350101,-9326.594869,-995.924147
573.572080,1776.494261,-10140.821405,76.609550
573.572404,1776.494261,-9696.697840,-383.047749
573.572728,888.247130,-10362.883188,-766.095498
573.573052,0.000000,-10658.965565,-536.266849
573.573376,0.000000,-10288.862594,-612.876398
573.573701,888.247130,-11029.068536,0.000000
573.574025,1332.370696,-10658.965565,766.095498
573.574349,1628.453072,-10066.800811,153.219100
573.574673,296.082377,-10066.800811,0.000000
573.574997,0.000000,-9548.656652,0.000000
573.575321,666.185348,-10658.965565,-383.047749
573.575646,740.205942,-10807.006753,383.047749
573.575970,296.082377,-9326.594869,995.924147
573.576294,-296.082377,-9178.553681,1149.143247
573.576618,-1258.350101,-10066.800811,1149.143247
573.576942,-1184.329507,-9770.718434,-459.657299
573.577266,-740.205942,-9918.759623,306.438199
573.577591,-814.226536,-9548.656652,229.828649
573.577915,-1406.391290,-9326.594869,612.876398
573.578239,-1998.556043,-9400.615463,1149.143247
573.578563,-2516.700203,-9178.553681,1302.362347
573.578887,-2368.659014,-8142.265362,459.657299
573.579211,-3034.844362,-8364.327145,76.609550
573.579536,-2960.823768,-9030.512492,995.924147
573.579860,-1554.432478,-8438.347739,919.314598
573.580184,-962.267725,-8808.450710,1149.143247
573.580508,-1184.329507,-8438.347739,1455.581446
573.580832,-518.144159,-7994.224174,842.705048
573.581156,-592.164754,-9030.512492,842.705048
573.581481,-1332.370696,-10214.842000,1072.533697
573.581805,-1258.350101,-10140.821405,459.657299
573.582129,-2516.700203,-8956.491898,229.828649
573.582453,-1628.453072,-8808.450710,306.438199
573.582777,-592.164754,-9622.677246,153.219100
573.583101,370.102971,-9770.718434,76.609550
573.583426,296.082377,-9178.553681,459.657299
573.583750,222.061783,-9252.574275,-536.266849
573.584074,0.000000,-9252.574275,0.000000
573.584398,888.247130,-9326.594869,-536.266849
573.584722,1110.308913,-9030.512492,-536.266849
573.585046,740.205942,-9622.677246,153.219100
573.585371,518.144159,-9844.739029,0.000000
573.585695,444.123565,-10214.842000,-995.924147
573.586019,0.000000,-10066.800811,-536.266849
573.586343,444.123565,-9400.615463,-306.438199
573.586667,444.123565,-10066.800811,-1378.971896
573.586992,222.061783,-10510.924376,-1072.533697
573.587316,444.123565,-10214.842000,-1762.019645
573.587640,814.226536,-11029.068536,-1532.190996
573.587964,1776.494261,-11029.068536,-1608.800546
573.588288,2960.823768,-10510.924376,-1225.752797
573.588612,3182.885551,-11029.068536,-766.095498
573.588937,3108.864956,-11177.109724,-766.095498
573.589261,1628.453072,-11103.089130,-919.314598
573.589585,1258.350101,-11473.192101,-459.657299
573.589909,962.267725,-10658.965565,-229.828649
573.590233,888.247130,-9622.677246,-995.924147
573.590557,148.041188,-9474.636058,-306.438199
573.590882,-296.082377,-9178.553681,76.609550
573.591206,-222.061783,-9548.656652,-689.485948
573.591530,-1036.288319,-9030.512492,-995.924147
573.591854,-1110.308913,-8364.327145,-1149.143247
573.592178,-222.061783,-8290.306550,-383.047749
573.592502,74.020594,-9030.512492,76.609550
573.592827,592.164754,-8956.491898,0.000000
573.593151,370.102971,-9548.656652,-306.438199
573.593475,-370.102971,-9548.656652,-229.828649
573.593799,0.000000,-8956.491898,-842.705048
573.594123,1184.329507,-9844.739029,-229.828649
573.594447,740.205942,-9918.759623,919.314598
573.594772,74.020594,-9770.718434,306.438199
573.595096,-1184.329507,-9474.636058,-536.266849
573.595420,-2442.679609,-8882.471304,76.609550
573.595744,-1480.411884,-9326.594869,-229.828649
573.596068,-370.102971,-10288.862594,306.438199
573.596392,-1776.494261,-9474.636058,1685.410096
573.596717,-2294.638420,-8882.471304,383.047749
573.597041,-2812.782580,-9474.636058,229.828649
573.597365,-3256.906145,-9474.636058,229.828649
573.597689,-3108.864956,-9548.656652,-229.828649
573.598013,-3404.947333,-9474.636058,0.000000
573.598337,-2590.720797,-8808.450710,306.438199
573.598662,-1332.370696,-9178.553681,-229.828649
573.598986,-888.247130,-9252.574275,536.266849
573.599310,814.226536,-8438.347739,153.219100
573.599634,1628.453072,-8808.450710,612.876398
573.599958,740.205942,-10362.883188,1302.362347
573.600282,814.226536,-9696.697840,919.314598
573.600607,740.205942,-9622.677246,766.095498
573.600931,222.061783,-10140.821405,1302.362347
573.601255,518.144159,-10140.821405,766.095498
573.601579,888.247130,-11103.089130,1302.362347
573.601903,1184.329507,-11029.068536,1838.629195
573.602227,814.226536,-10288.862594,612.876398
573.602552,-370.102971,-9992.780217,0.000000
573.602876,-1110.308913,-9326.594869,-306.438199
573.603200,-444.123565,-8364.327145,-229.828649
573.603524,296.082377,-9104.533087,-689.485948
573.603848,666.185348,-9770.718434,459.657299
573.604172,1554.432478,-9622.677246,383.047749
573.604497,1776.494261,-10584.944971,766.095498
573.604821,1776.494261,-10214.842000,1302.362347
573.605145,1776.494261,-9696.697840,306.438199
573.605469,962.267725,-10288.862594,612.876398
573.605793,518.144159,-10584.944971,1302.362347
573.606117,296.082377,-10510.924376,76.609550
573.606442,222.061783,-10140.821405,612.876398
573.606766,888.247130,-8438.347739,536.266849
573.607090,1628.453072,-7846.182985,0.000000
573.607414,888.247130,-8512.368333,0.000000
573.607738,666.185348,-8290.306550,-766.095498
573.608062,0.000000,-8734.430116,-612.876398
573.608387,-148.041188,-9548.656652,383.047749
573.608711,444.123565,-9104.533087,0.000000
573.609035,814.226536,-9474.636058,0.000000
573.609359,148.041188,-10510.924376,536.266849
573.609683,-148.041188,-9992.780217,-919.314598
573.610007,-666.185348,-10140.821405,-766.095498
573.610332,-518.144159,-10510.924376,153.219100
573.610656,1480.411884,-10066.800811,383.047749
573.610980,1702.473667,-10066.800811,383.047749
573.611304,1480.411884,-9400.615463,919.314598
573.611628,1184.329507,-9326.594869,-153.219100
573.611952,-222.061783,-9696.697840,-1302.362347
573.612277,-1110.308913,-8660.409521,-1302.362347
573.612601,-1480.411884,-8882.471304,-1302.362347
573.612925,-1702.473667,-9770.718434,-383.047749
573.613249,-592.164754,-10066.800811,-383.047749
573.613573,74.020594,-10584.944971,-689.485948
573.613897,-1110.308913,-9548.656652,-842.705048
573.614222,-962.267725,-9178.553681,-1532.190996
573.614546,-740.205942,-9474.636058,-1149.143247
573.614870,-444.123565,-10881.027347,0.000000
573.615194,0.000000,-10658.965565,306.438199
573.615518,-222.061783,-9844.739029,612.876398
573.615842,-1110.308913,-9178.553681,76.609550
573.616167,-666.185348,-9696.697840,-612.876398
573.616491,-740.205942,-10510.924376,-536.266849
573.616815,-962.267725,-10955.047942,383.047749
573.617139,-1332.370696,-11029.068536,0.000000
573.617463,-2368.659014,-10510.924376,-689.485948
573.617787,-2738.761985,-9548.656652,-76.609550
573.618112,-2368.659014,-8068.244768,-1072.533697
573.618436,-1554.432478,-9252.574275,-919.314598
573.618760,-1332.370696,-9178.553681,-229.828649
573.619084,-370.102971,-9548.656652,-306.438199
573.619408,-222.061783,-9326.594869,383.047749
573.619733,0.000000,-7920.203579,612.876398
573.620057,518.144159,-8216.285956,-459.657299
573.620381,74.020594,-9770.718434,459.657299
573.620705,-592.164754,-9622.677246,0.000000
573.621029,-518.144159,-9548.656652,0.000000
573.621353,-1110.308913,-9622.677246,383.047749
573.621678,0.000000,-8956.491898,76.609550
573.622002,1184.329507,-9178.553681,-689.485948
573.622326,888.247130,-9548.656652,0.000000
573.622650,1036.288319,-9474.636058,0.000000
573.622974,1406.391290,-10066.800811,0.000000
573.623298,1554.432478,-10510.924376,153.219100
573.623623,1628.453072,-9770.718434,229.828649
573.623947,1110.308913,-10140.821405,-536.266849
573.624271,-296.082377,-10510.924376,383.047749
573.624595,-296.082377,-11399.171507,0.000000
573.624919,-222.061783,-11769.274478,383.047749
573.625243,0.000000,-9918.759623,842.705048
573.625568,148.041188,-8142.265362,-1072.533697
573.625892,0.000000,-8956.491898,-306.438199
573.626216,444.123565,-9474.636058,153.219100
573.626540,888.247130,-9474.636058,-612.876398
573.626864,-296.082377,-8068.244768,-689.485948
573.627188,-296.082377,-7698.141797,-383.047749
573.627513,2368.659014,-8956.491898,-689.485948
573.627837,4367.215058,-10436.903782,229.828649
573.628161,4071.132681,-10362.883188,1225.752797
573.628485,2590.720797,-11177.109724,842.705048
573.628809,1628.453072,-11843.295072,536.266849
573.629133,1258.350101,-10362.883188,76.609550
573.629458,1110.308913,-9918.759623,0.000000
573.629782,962.267725,-10066.800811,153.219100
573.630106,888.247130,-9770.718434,0.000000
573.630430,-444.123565,-10214.842000,76.609550
573.630754,-1776.494261,-9252.574275,0.000000
573.631078,-1776.494261,-7624.121203,-919.314598
573.631403,-1850.514855,-9400.615463,-383.047749
573.631727,-2072.576638,-10807.006753,229.828649
573.632051,-1554.432478,-10288.862594,0.000000
573.632375,-2294.638420,-9474.636058,766.095498
573.632699,-2442.679609,-9992.780217,842.705048
573.633023,-1110.308913,-9918.759623,-229.828649
573.633348,-888.247130,-9992.780217,459.657299
573.633672,-296.082377,-9474.636058,1455.581446
573.633996,370.102971,-9918.759623,1302.362347
573.634320,592.164754,-10140.821405,1685.410096
573.634644,444.123565,-8808.450710,1685.410096
573.634968,222.061783,-8068.244768,1225.752797
573.635293,-1184.329507,-8956.491898,689.485948
573.635617,-1924.535449,-9252.574275,459.657299
573.635941,-3108.864956,-8734.430116,0.000000
573.636265,-3997.112087,-8438.347739,459.657299
573.636589,-2368.659014,-8438.347739,153.219100
573.636913,-1036.288319,-9178.553681,689.485948
573.637238,-1036.288319,-9252.574275,1608.800546
573.637562,-1110.308913,-8808.450710,1072.533697
573.637886,-814.226536,-9326.594869,689.485948
573.638210,-444.123565,-8586.388927,459.657299
573.638534,518.144159,-9178.553681,689.485948
573.638858,814.226536,-10140.821405,842.705048
573.639183,666.185348,-10436.903782,995.924147
573.639507,518.144159,-10658.965565,612.876398
573.639831,444.123565,-10955.047942,919.314598
573.640155,740.205942,-11103.089130,995.924147
573.640479,1184.329507,-10140.821405,0.000000
573.640803,444.123565,-9030.512492,0.000000
573.641128,0.000000,-8882.471304,-383.047749
573.641452,0.000000,-9104.533087,-1991.848295
573.641776,-666.185348,-8808.450710,-1762.019645
573.642100,592.164754,-7402.059420,-1072.533697
573.642424,2590.720797,-8216.285956,-1149.143247
573.642748,2886.803174,-9992.780217,0.000000
573.643073,2294.638420,-10436.903782,383.047749
573.643397,1628.453072,-10362.883188,-153.219100
573.643721,148.041188,-10732.986159,-689.485948
573.644045,74.020594,-10214.842000,-1225.752797
573.644369,444.123565,-10214.842000,-995.924147
573.644693,1332.370696,-11473.192101,0.000000
573.645018,1628.453072,-10584.944971,-612.876398
573.645342,1480.411884,-9918.759623,-1455.581446
573.645666,814.226536,-9030.512492,-919.314598
573.645990,1480.411884,-9326.594869,-1608.800546
573.646314,2072.576638,-10807.006753,-1532.190996
573.646638,1776.494261,-11103.089130,-1149.143247
573.646963,370.102971,-10881.027347,-1532.190996
573.647287,-1110.308913,-11103.089130,-1455.581446
573.647611,-1998.556043,-10288.862594,-1608.800546
573.647935,-592.164754,-10807.006753,-1225.752797
573.648259,-296.082377,-11103.089130,-689.485948
573.648583,-222.061783,-10362.883188,0.000000
573.648908,74.020594,-9178.553681,-229.828649
573.649232,222.061783,-9104.533087,0.000000
573.649556,962.267725,-8438.347739,0.000000
573.649880,1184.329507,-7994.224174,-536.266849
573.650204,370.102971,-8142.265362,536.266849
573.650528,74.020594,-8808.450710,76.609550
573.650853,-222.061783,-9844.739029,0.000000
573.651177,-1110.308913,-10362.883188,1072.533697
573.651501,-962.267725,-9548.656652,306.438199
573.651825,-888.247130,-9252.574275,-383.047749
573.652149,-2220.617826,-8882.471304,306.438199
573.652473,-2590.720797,-8068.244768,153.219100
573.652798,-2368.659014,-9548.656652,229.828649
573.653122,-2812.782580,-8956.491898,229.828649
573.653446,-2220.617826,-7698.141797,612.876398
573.653770,-2146.597232,-8068.244768,766.095498
573.654094,-2516.700203,-8660.409521,612.876398
573.654418,-2368.659014,-8216.285956,306.438199
573.654742,-2146.597232,-8512.368333,0.000000
573.655067,-1258.350101,-9030.512492,1455.581446
573.655391,-444.123565,-9992.780217,459.657299
573.655715,-1036.288319,-9918.759623,76.609550
573.656039,-1702.473667,-9400.615463,536.266849
573.656363,-1554.432478,-9918.759623,-306.438199
573.656687,-1184.329507,-10881.027347,-536.266849
573.657012,0.000000,-9104.533087,-153.219100
573.657336,1406.391290,-8808.450710,0.000000
573.657660,2442.679609,-10584.944971,1072.533697
573.657984,2886.803174,-11029.068536,536.266849
573.658308,1702.473667,-10807.006753,229.828649
573.658632,0.000000,-10658.965565,689.485948
573.658957,148.041188,-10510.924376,0.000000
573.659281,666.185348,-11103.089130,76.609550
573.659605,296.082377,-10807.006753,306.438199
573.659929,666.185348,-10066.800811,153.219100
573.660253,518.144159,-10658.965565,-536.266849
573.660577,0.000000,-10658.965565,0.000000
573.660901,888.247130,-10362.883188,-153.219100
573.661226,1258.350101,-10955.047942,153.219100
573.661550,740.205942,-11029.068536,229.828649
573.661874,296.082377,-10066.800811,229.828649
573.662198,-740.205942,-10214.842000,459.657299
573.662522,0.000000,-9844.739029,383.047749
573.662846,888.247130,-9178.553681,-306.438199
573.663171,444.123565,-9400.615463,306.438199
573.663495,444.123565,-9030.512492,689.485948
573.663819,1110.308913,-8808.450710,766.095498
573.664143,1110.308913,-8808.450710,919.314598
573.664467,1332.370696,-7476.080014,1225.752797
573.664791,2072.576638,-7846.182985,459.657299
573.665116,1554.432478,-8586.388927,1149.143247
573.665440,1702.473667,-7476.080014,536.266849
573.665764,1258.350101,-7476.080014,76.609550
573.666088,666.185348,-8660.409521,689.485948
573.666412,444.123565,-8512.368333,-383.047749
573.666736,222.061783,-8216.285956,-689.485948
573.667060,-370.102971,-8364.327145,612.876398
573.667385,222.061783,-9252.574275,-536.266849
573.667709,148.041188,-9770.718434,-1378.971896
573.668033,-222.061783,-9178.553681,-306.438199
573.668357,370.102971,-9030.512492,-153.219100
573.668681,1036.288319,-9918.759623,-536.266849
573.669005,888.247130,-10140.821405,0.000000
573.669330,-296.082377,-9992.780217,-306.438199
573.669654,-1184.329507,-10140.821405,76.609550
573.669978,-1110.308913,-10510.924376,-306.438199
573.670302,-1184.329507,-10807.006753,-612.876398
573.670626,-1924.535449,-11177.109724,-383.047749
573.670950,-2368.659014,-11029.068536,-1225.752797
573.671275,-2368.659014,-10584.944971,-1762.019645
573.671599,-2368.659014,-10955.047942,-842.705048
573.671923,-1036.288319,-10066.800811,-1149.143247
573.672247,-592.164754,-10436.903782,-1455.581446
573.672571,-962.267725,-10881.027347,-842.705048
573.672895,-962.267725,-9844.739029,-612.876398
573.673220,-740.205942,-10214.842000,-1149.143247
573.673544,-888.247130,-10362.883188,-536.266849
573.673868,0.000000,-9992.780217,0.000000
573.674192,444.123565,-10732.986159,612.876398
573.674516,148.041188,-11103.089130,459.657299
573.674840,-740.205942,-10140.821405,-306.438199
573.675164,-1850.514855,-10362.883188,-153.219100
573.675489,-1924.535449,-10510.924376,-383.047749
573.675813,-592.164754,-10362.883188,-383.047749
573.676137,370.102971,-10510.924376,306.438199
573.676461,370.102971,-9474.636058,153.219100
573.676785,74.020594,-8660.409521,-995.924147
573.677109,-962.267725,-9030.512492,-459.657299
573.677434,-1184.329507,-9326.594869,-766.095498
573.677758,370.102971,-9252.574275,-766.095498
573.678082,592.164754,-9548.656652,612.876398
573.678406,740.205942,-10288.862594,1608.800546
573.678730,1036.288319,-10584.944971,1838.629195
573.679054,370.102971,-9474.636058,1378.971896
573.679379,0.000000,-6957.935855,229.828649
573.679703,-296.082377,-7105.977043,76.609550
573.680027,-148.041188,-7846.182985,153.219100
573.680351,370.102971,-7105.977043,459.657299
573.680675,0.000000,-7254.018232,1149.143247
573.680999,0.000000,-7402.059420,1302.362347
573.681323,1332.370696,-7031.956449,229.828649
573.681648,1702.473667,-8142.265362,1072.533697
573.681972,1332.370696,-8438.347739,689.485948
573.682296,1702.473667,-8216.285956,-612.876398
573.682620,814.226536,-8512.368333,-612.876398
573.682944,518.144159,-9178.553681,76.609550
573.683268,1998.556043,-9770.718434,-689.485948
573.683593,1776.494261,-10732.986159,-536.266849
573.683917,1406.391290,-9992.780217,-459.657299
573.684241,1628.453072,-10732.986159,-1302.362347
573.684565,888.247130,-11843.295072,-612.876398
573.684889,740.205942,-11843.295072,383.047749
573.685213,1184.329507,-11843.295072,76.609550
573.685538,370.102971,-11843.295072,-306.438199
573.685862,74.020594,-11621.233289,153.219100
573.686186,74.020594,-11769.274478,0.000000
573.686510,592.164754,-13027.624579,306.438199
573.686834,666.185348,-11473.192101,-612.876398
573.687158,-148.041188,-10955.047942,-612.876398
573.687482,-888.247130,-11029.068536,-612.876398
573.687807,-592.164754,-10955.047942,-1378.971896
573.688131,-296.082377,-11251.130318,-919.314598
573.688455,148.041188,-10214.842000,0.000000
573.688779,592.164754,-8956.491898,-1532.190996
573.689103,148.041188,-8734.430116,-766.095498
573.689427,-962.267725,-9252.574275,536.266849
573.689752,-222.061783,-10066.800811,76.609550
573.690076,-740.205942,-10658.965565,766.095498
573.690400,-1628.453072,-9474.636058,1455.581446
573.690724,-1554.432478,-8290.306550,459.657299
573.691048,-1776.494261,-8438.347739,842.705048
573.691372,-2072.576638,-8512.368333,995.924147
573.691697,-2368.659014,-8512.368333,536.266849
573.692021,-3108.864956,-8290.306550,459.657299
573.692345,-2368.659014,-7698.141797,612.876398
573.692669,-888.247130,-7402.059420,-306.438199
573.692993,-740.205942,-7846.182985,766.095498
573.693317,-814.226536,-8142.265362,229.828649
573.693641,-962.267725,-8586.388927,-459.657299
573.693966,-2368.659014,-9104.533087,689.485948
573.694290,-1184.329507,-8512.368333,153.219100
573.694614,-370.102971,-9104.533087,306.438199
573.694938,0.000000,-9696.697840,1378.971896
573.695262,1036.288319,-9622.677246,1608.800546
573.695586,962.267725,-9844.739029,919.314598
573.695911,666.185348,-8808.450710,766.095498
573.696235,1110.308913,-8216.285956,842.705048
573.696559,2516.700203,-9474.636058,76.609550
573.696883,2738.761985,-9918.759623,383.047749
573.697207,2516.700203,-9548.656652,-689.485948
573.697531,740.205942,-9696.697840,-1608.800546
573.697856,148.041188,-10066.800811,-919.314598
573.698180,1184.329507,-10732.986159,-1302.362347
573.698504,1110.308913,-11769.274478,-383.047749
573.698828,0.000000,-10584.944971,0.000000
573.699152,-740.205942,-10288.862594,-1532.190996
573.699476,-2368.659014,-10658.965565,-1302.362347
573.699801,-1924.535449,-10214.842000,-1532.190996
573.700125,-518.144159,-9770.718434,-1455.581446
573.700449,222.061783,-10584.944971,-306.438199
573.700773,1258.350101,-10436.903782,-689.485948
573.701097,1998.556043,-10214.842000,-1378.971896
573.701421,2146.597232,-10214.842000,459.657299
573.701745,3256.906145,-10584.944971,-612.876398
573.702070,3404.947333,-11769.274478,-919.314598
573.702394,2442.679609,-11917.315666,0.000000
573.702718,2072.576638,-11103.089130,-766.095498
573.703042,814.226536,-11029.068536,-1685.410096
573.703366,0.000000,-11399.171507,-995.924147
573.703690,0.000000,-9400.615463,-1455.581446
573.704015,518.144159,-9326.594869,-995.924147
573.704339,592.164754,-8586.388927,-536.266849
573.704663,1036.288319,-8438.347739,-459.657299
573.704987,814.226536,-8364.327145,-306.438199
573.705311,0.000000,-7550.100608,306.438199
573.705635,74.020594,-7772.162391,229.828649
573.705960,-1332.370696,-8956.491898,76.609550
573.706284,-2590.720797,-9030.512492,0.000000
573.706608,-2590.720797,-9548.656652,-1149.143247
573.706932,-2442.679609,-10214.842000,-383.047749
573.707256,-1332.370696,-9770.718434,306.438199
573.707580,-666.185348,-9992.780217,0.000000
573.707904,-1332.370696,-9252.574275,-229.828649
573.708229,-1702.473667,-8956.491898,-536.266849
573.708553,-1776.494261,-9696.697840,-689.485948
573.708877,-1184.329507,-10362.883188,306.438199
573.709201,-148.041188,-9918.759623,536.266849
573.709525,-592.164754,-9548.656652,766.095498
573.709849,-1332.370696,-9474.636058,1072.533697
573.710174,-2072.576638,-10732.986159,842.705048
573.710498,-2590.720797,-10658.965565,689.485948
573.710822,-2368.659014,-9400.615463,0.000000
573.711146,-1184.329507,-8068.244768,459.657299
573.711470,-1036.288319,-7179.997637,0.000000
573.711794,-666.185348,-7698.141797,689.485948
573.712119,0.000000,-8586.388927,76.609550
573.712443,-592.164754,-9400.615463,0.000000
573.712767,-592.164754,-8882.471304,153.219100
573.713091,518.144159,-8290.306550,-459.657299
573.713415,1036.288319,-9326.594869,76.609550
573.713739,1184.329507,-10066.800811,842.705048
573.714063,444.123565,-11325.150913,229.828649
573.714388,0.000000,-12805.562797,766.095498
573.714712,1036.288319,-11103.089130,0.000000
573.715036,2368.659014,-9326.594869,76.609550
573.715360,2072.576638,-9696.697840,766.095498
573.715684,2072.576638,-10140.821405,229.828649
573.716008,666.185348,-11103.089130,-306.438199
573.716333,-666.185348,-10881.027347,0.000000
573.716657,0.000000,-9178.553681,-766.095498
573.716981,814.226536,-9622.677246,-536.266849
573.717305,296.082377,-10807.006753,766.095498
573.717629,74.020594,-10436.903782,153.219100
573.717953,-1036.288319,-10732.986159,-459.657299
573.718278,-1850.514855,-10066.800811,0.000000
573.718602,-444.123565,-9252.574275,-612.876398
573.718926,1850.514855,-10362.883188,229.828649
573.719250,3330.926739,-8808.450710,1225.752797
573.719574,3256.906145,-8290.306550,0.000000
573.719898,1998.556043,-8364.327145,-229.828649
573.720222,1480.411884,-7994.224174,-153.219100
573.720547,1850.514855,-8586.388927,-536.266849
573.720871,1850.514855,-9326.594869,0.000000
573.721195,1184.329507,-9548.656652,306.438199
573.721519,888.247130,-10066.800811,0.000000
573.721843,-222.061783,-10436.903782,612.876398
573.722167,0.000000,-10066.800811,766.095498
573.722492,370.102971,-9548.656652,153.219100
573.722816,-296.082377,-8512.368333,-229.828649
573.723140,-296.082377,-7402.059420,-919.314598
573.723464,-592.164754,-7772.162391,-842.705048
573.723788,-370.102971,-8364.327145,-766.095498
573.724112,0.000000,-8808.450710,-612.876398
573.724437,-370.102971,-9104.533087,-766.095498
573.724761,-370.102971,-9326.594869,-383.047749
573.725085,-370.102971,-9548.656652,-919.314598
573.725409,-444.123565,-11251.130318,-612.876398
573.725733,-740.205942,-11621.233289,0.000000
573.726057,-444.123565,-9992.780217,-1149.143247
573.726382,-592.164754,-10288.862594,-459.657299
573.726706,-888.247130,-9918.759623,459.657299
573.727030,-666.185348,-10066.800811,-1072.533697
573.727354,-1258.350101,-10436.903782,-766.095498
573.727678,-1406.391290,-9770.718434,-536.266849
573.728002,-592.164754,-9622.677246,-919.314598
573.728326,-1110.308913,-10436.903782,0.000000
573.728651,-2072.576638,-9844.739029,0.000000
573.728975,-3330.926739,-10658.965565,-1532.190996
573.729299,-4145.153275,-11399.171507,-1378.971896
573.729623,-3404.947333,-10732.986159,-1302.362347
573.729947,-2072.576638,-10436.903782,-612.876398
573.730271,-1110.308913,-10436.903782,0.000000
573.730596,0.000000,-9474.636058,-306.438199
573.730920,-296.082377,-9474.636058,-766.095498
573.731244,0.000000,-9844.739029,-383.047749
573.731568,592.164754,-8956.491898,0.000000
573.731892,1332.370696,-9326.594869,0.000000
573.732216,592.164754,-9252.574275,612.876398
573.732541,370.102971,-9622.677246,306.438199
573.732865,0.000000,-10584.944971,0.000000
573.733189,0.000000,-10140.821405,76.609550
573.733513,666.185348,-8882.471304,-306.438199
573.733837,148.041188,-9474.636058,153.219100
573.734161,296.082377,-9770.718434,0.000000
573.734485,444.123565,-9474.636058,-459.657299
573.734810,518.144159,-9030.512492,0.000000
573.735134,1332.370696,-8586.388927,0.000000
573.735458,2146.597232,-8142.265362,-919.314598
573.735782,1110.308913,-8216.285956,0.000000
573.736106,888.247130,-8734.430116,-153.219100
573.736430,518.144159,-9548.656652,-842.705048
573.736755,-296.082377,-10288.862594,0.000000
573.737079,-148.041188,-9918.759623,0.000000
573.737403,518.144159,-9696.697840,-612.876398
573.737727,1184.329507,-9844.739029,689.485948
573.738051,1406.391290,-9326.594869,0.000000
573.738375,1628.453072,-9696.697840,0.000000
573.738700,1998.556043,-9474.636058,-459.657299
573.739024,2590.720797,-8660.409521,-689.485948
573.739348,2072.576638,-9326.594869,-459.657299
573.739672,1702.473667,-9474.636058,-306.438199
573.739996,1480.411884,-9918.759623,-153.219100
573.740320,592.164754,-10584.944971,-536.266849
573.740644,-296.082377,-9918.759623,-153.219100
573.740969,-518.144159,-9400.615463,0.000000
573.741293,-296.082377,-10140.821405,-229.828649
573.741617,0.000000,-10066.800811,-229.828649
573.741941,518.144159,-9622.677246,-459.657299
573.742265,148.041188,-9400.615463,-612.876398
573.742589,148.041188,-8660.409521,-689.485948
573.742914,592.164754,-9474.636058,-383.047749
573.743238,740.205942,-10807.006753,689.485948
573.743562,74.020594,-10807.006753,0.000000
573.743886,-888.247130,-9992.780217,-459.657299
573.744210,-1184.329507,-11029.068536,76.609550
573.744534,-592.164754,-11547.212695,76.609550
573.744859,-370.102971,-11547.212695,153.219100
573.745183,-1480.411884,-11029.068536,1302.362347
573.745507,-2738.761985,-9844.739029,229.828649
573.745831,-2960.823768,-10288.862594,0.000000
573.746155,-3330.926739,-9548.656652,-306.438199
573.746479,-2146.597232,-8734.430116,-383.047749
573.746803,-1258.350101,-8882.471304,-229.828649
573.747128,-1332.370696,-9178.553681,842.705048
573.747452,-1184.329507,-9770.718434,1149.143247
573.747776,-1850.514855,-9622.677246,842.705048
573.748100,-2442.679609,-8734.430116,459.657299
573.748424,-1776.494261,-8734.430116,612.876398
573.748748,-1184.329507,-10658.965565,1072.533697
573.749072,-888.247130,-9844.739029,689.485948
573.749396,-1184.329507,-8882.471304,1455.581446
573.749720,-1998.556043,-8734.430116,1072.533697
573.750044,-296.082377,-7846.182985,-306.438199
573.750369,296.082377,-7994.224174,-766.095498
573.750693,222.061783,-8216.285956,689.485948
573.751017,962.267725,-8660.409521,0.000000
573.751341,666.185348,-9548.656652,-153.219100
573.751665,-592.164754,-9400.615463,153.219100
573.751989,296.082377,-8808.450710,0.000000
573.752313,1554.432478,-9696.697840,229.828649
573.752637,1184.329507,-10362.883188,766.095498
573.752961,1036.288319,-9992.780217,-306.438199
573.753285,740.205942,-9474.636058,-306.438199
573.753609,814.226536,-9622.677246,-995.924147
573.753933,962.267725,-8882.471304,-1225.752797
573.754257,814.226536,-9104.533087,-842.705048
573.754581,1036.288319,-9696.697840,-766.095498
573.754905,888.247130,-9474.636058,-1532.190996
573.755230,814.226536,-10288.862594,-842.705048
573.755554,74.020594,-9400.615463,-612.876398
573.755878,1036.288319,-10436.903782,-1072.533697
573.756202,1036.288319,-10955.047942,-1149.143247
573.756526,1258.350101,-10732.986159,-459.657299
573.756850,1480.411884,-10584.944971,-1225.752797
573.757174,2146.597232,-11399.171507,-995.924147
573.757498,2220.617826,-10214.842000,-1072.533697
573.757822,2590.720797,-9918.759623,-1225.752797
573.758146,1924.535449,-10807.006753,-766.095498
573.758470,1036.288319,-9992.780217,-1762.019645
573.758794,148.041188,-10214.842000,-1991.848295
573.759118,296.082377,-9992.780217,-919.314598
573.759442,1628.453072,-10288.862594,-306.438199
573.759766,2368.659014,-11325.150913,0.000000
573.760091,1628.453072,-11103.089130,-229.828649
573.760415,1036.288319,-9844.739029,0.000000
573.760739,-222.061783,-9474.636058,153.219100
573.761063,0.000000,-10066.800811,0.000000
573.761387,-518.144159,-8660.409521,-842.705048
573.761711,-1258.350101,-8734.430116,153.219100
573.762035,-592.164754,-9400.615463,76.609550
573.762359,0.000000,-9696.697840,-689.485948
573.762683,-1258.350101,-9252.574275,-536.266849
573.763007,-1628.453072,-8438.347739,-383.047749
573.763331,-444.123565,-9400.615463,383.047749
573.763655,-518.144159,-10066.800811,689.485948
573.763979,-1184.329507,-9696.697840,1378.971896
573.764303,-2220.617826,-9844.739029,1072.533697
573.764627,-2886.803174,-9770.718434,766.095498
573.764952,-3108.864956,-8586.388927,153.219100
573.765276,-2960.823768,-8512.368333,612.876398
573.765600,-2886.803174,-9104.533087,1378.971896
573.765924,-1480.411884,-9622.677246,1608.800546
573.766248,-1258.350101,-9400.615463,2145.067394
573.766572,-1554.432478,-8956.491898,2068.457845
573.766896,-1850.514855,-7550.100608,229.828649
573.767220,-2738.761985,-7772.162391,-766.095498
573.767544,-3256.906145,-9326.594869,0.000000
573.767868,-2442.679609,-10214.842000,995.924147
573.768192,-1110.308913,-11917.315666,689.485948
573.768516,-888.247130,-9326.594869,995.924147
573.768840,0.000000,-8142.265362,459.657299
573.769164,370.102971,-9548.656652,0.000000
573.769488,1332.370696,-10510.924376,-229.828649
573.769812,1406.391290,-10436.903782,459.657299
573.770137,1702.473667,-10288.862594,1685.410096
573.770461,2516.700203,-9696.697840,1072.533697
573.770785,2960.823768,-9326.594869,76.609550
573.771109,2516.700203,-9844.739029,0.000000
573.771433,1702.473667,-10807.006753,0.000000
573.771757,518.144159,-11917.315666,-919.314598
573.772081,-592.164754,-11399.171507,-306.438199
573.772405,444.123565,-9400.615463,0.000000
573.772729,1702.473667,-9548.656652,-919.314598
573.773053,1184.329507,-10807.006753,-306.438199
573.773377,518.144159,-9992.780217,-1225.752797
573.773701,0.000000,-9622.677246,-1991.848295
573.774025,-148.041188,-9252.574275,-1608.800546
573.774349,1036.288319,-8734.430116,-1378.971896
573.774673,2146.597232,-9326.594869,-689.485948
573.774998,1998.556043,-9844.739029,0.000000
573.775322,1776.494261,-9844.739029,-306.438199
573.775646,962.267725,-9104.533087,-229.828649
573.775970,1036.288319,-9696.697840,-766.095498
573.776294,1332.370696,-9178.553681,-536.266849
573.776618,2368.659014,-9548.656652,-536.266849
573.776942,2812.782580,-9992.780217,0.000000
573.777266,1998.556043,-9844.739029,-459.657299
573.777590,-148.041188,-9474.636058,-1149.143247
573.777914,-148.041188,-9104.533087,-1149.143247
573.778238,592.164754,-9252.574275,-1149.143247
573.778562,962.267725,-9548.656652,-153.219100
573.778886,148.041188,-9918.759623,-536.266849
573.779210,-1184.329507,-9844.739029,-995.924147
573.779534,-2146.597232,-9326.594869,-1149.143247
573.779859,-1554.432478,-9104.533087,-919.314598
573.780183,-740.205942,-9400.615463,-1302.362347
573.780507,-888.247130,-9770.718434,-1072.533697
573.780831,-1628.453072,-8734.430116,-842.705048
573.781155,-1628.453072,-9474.636058,-919.314598
573.781479,-1406.391290,-10214.842000,0.000000
573.781803,-148.041188,-10214.842000,-536.266849
573.782127,518.144159,-10214.842000,536.266849
573.782451,148.041188,-9474.636058,0.000000
573.782775,148.041188,-10214.842000,153.219100
573.783099,-1480.411884,-11325.150913,229.828649
573.783423,-2146.597232,-10584.944971,306.438199
573.783747,-1924.535449,-10066.800811,-153.219100
573.784071,-1998.556043,-9770.718434,0.000000
573.784395,-2072.576638,-9548.656652,0.000000
573.784720,-2590.720797,-9474.636058,-153.219100
573.785044,-3627.009116,-10140.821405,-229.828649
573.785368,-3552.988522,-9326.594869,-766.095498
573.785692,-2664.741391,-7846.182985,-1532.190996
573.786016,-1332.370696,-9030.512492,0.000000
573.786340,296.082377,-10658.965565,383.047749
573.786664,962.267725,-11177.109724,76.609550
573.786988,0.000000,-10955.047942,1302.362347
573.787312,0.000000,-11251.130318,1455.581446
573.787636,222.061783,-11991.336260,536.266849
573.787960,814.226536,-11325.150913,459.657299
573.788284,666.185348,-9252.574275,536.266849
573.788608,592.164754,-9844.739029,612.876398
573.788932,518.144159,-10658.965565,842.705048
573.789256,962.267725,-9326.594869,383.047749
573.789581,962.267725,-7402.059420,995.924147
573.789905,666.185348,-7328.038826,76.609550
573.790229,0.000000,-8216.285956,-919.314598
573.790553,-814.226536,-9252.574275,0.000000
573.790877,-888.247130,-9400.615463,0.000000
573.791201,518.144159,-9178.553681,-459.657299
573.791525,518.144159,-9030.512492,229.828649
573.791849,0.000000,-9030.512492,766.095498
573.792173,-444.123565,-8956.491898,-306.438199
573.792497,-222.061783,-9770.718434,-536.266849
573.792821,1036.288319,-9622.677246,383.047749
573.793145,2738.761985,-9326.594869,766.095498
573.793469,3256.906145,-9474.636058,919.314598
573.793793,3552.988522,-9326.594869,919.314598
573.794117,2738.761985,-9326.594869,76.609550
573.794442,1406.391290,-9252.574275,-919.314598
573.794766,740.205942,-9474.636058,-1225.752797
573.795090,444.123565,-10436.903782,-842.705048
573.795414,666.185348,-11029.068536,229.828649
573.795738,74.020594,-9548.656652,-689.485948
573.796062,-1258.350101,-9696.697840,-689.485948
573.796386,-1332.370696,-9992.780217,-842.705048
573.796710,148.041188,-9770.718434,-1532.190996
573.797034,888.247130,-9252.574275,-459.657299
573.797358,1258.350101,-8882.471304,306.438199
573.797682,1628.453072,-9178.553681,-306.438199
573.798006,1110.308913,-9918.759623,-689.485948
573.798330,592.164754,-10066.800811,0.000000
573.798654,962.267725,-10658.965565,229.828649
573.798978,814.226536,-11325.150913,0.000000
573.799303,666.185348,-10288.862594,-536.266849
573.799627,148.041188,-9844.739029,-153.219100
573.799951,-888.247130,-10658.965565,-459.657299
573.800275,-1406.391290,-10732.986159,-842.705048
573.800599,-1406.391290,-9696.697840,-919.314598
573.800923,-2220.617826,-9030.512492,-459.657299
573.801247,-2072.576638,-9252.574275,-919.314598
573.801571,-2146.597232,-10214.842000,-995.924147
573.801895,-2146.597232,-10066.800811,0.000000
573.802219,-1850.514855,-8956.491898,-153.219100
573.802543,-1480.411884,-10140.821405,306.438199
573.802867,-1850.514855,-10807.006753,536.266849
573.803191,-1036.288319,-10066.800811,0.000000
573.803515,-1702.473667,-10066.800811,612.876398
573.803839,-1924.535449,-10658.965565,612.876398
573.804164,-962.267725,-9992.780217,-153.219100
573.804488,-370.102971,-9178.553681,-229.828649
573.804812,0.000000,-8068.244768,383.047749
573.805136,0.000000,-8882.471304,0.000000
573.805460,-888.247130,-10066.800811,76.609550
573.805784,-1332.370696,-9548.656652,459.657299
573.806108,-1110.308913,-8956.491898,-153.219100
573.806432,-1258.350101,-9474.636058,-612.876398
573.806756,-1406.391290,-9252.574275,-229.828649
573.807080,-1332.370696,-9918.759623,-153.219100
573.807404,-1480.411884,-10362.883188,459.657299
573.807728,-296.082377,-9844.739029,459.657299
573.808052,1036.288319,-8882.471304,0.000000
573.808376,1702.473667,-8734.430116,229.828649
573.808700,2072.576638,-9252.574275,459.657299
573.809025,2072.576638,-10288.862594,0.000000
573.809349,592.164754,-10066.800811,612.876398
573.809673,518.144159,-9474.636058,459.657299
573.809997,444.123565,-9474.636058,-306.438199
573.810321,518.144159,-9992.780217,-229.828649
573.810645,-222.061783,-10066.800811,-612.876398
573.810969,-1258.350101,-10140.821405,-689.485948
573.811293,-1110.308913,-9474.636058,-459.657299
573.811617,-148.041188,-8882.471304,-459.657299
573.811941,370.102971,-8586.388927,-76.609550
573.812265,222.061783,-8068.244768,-689.485948
573.812589,1110.308913,-8882.471304,-766.095498
573.812913,2220.617826,-9474.636058,0.000000
573.813237,3256.906145,-9252.574275,153.219100
573.813561,3849.070898,-9030.512492,459.657299
573.813886,3627.009116,-9474.636058,76.609550
573.814210,3256.906145,-10362.883188,0.000000
573.814534,2886.803174,-11325.150913,-536.266849
573.814858,740.205942,-11251.130318,0.000000
573.815182,444.123565,-10510.924376,-919.314598
573.815506,222.061783,-10066.800811,-536.266849
573.815830,0.000000,-10066.800811,-306.438199
573.816154,-444.123565,-9918.759623,-1378.971896
573.816478,-518.144159,-10140.821405,-995.924147
573.816802,-296.082377,-10288.862594,0.000000
573.817126,370.102971,-9474.636058,-1072.533697
573.817450,222.061783,-9400.615463,0.000000
573.817774,-666.185348,-9918.759623,383.047749
573.818098,-592.164754,-10214.842000,-459.657299
573.818422,-1406.391290,-11103.089130,0.000000
573.818747,-1702.473667,-11103.089130,689.485948
573.819071,-888.247130,-10658.965565,383.047749
573.819395,-444.123565,-9918.759623,459.657299
573.819719,-1110.308913,-8586.388927,229.828649
573.820043,-1554.432478,-8882.471304,-383.047749
573.820367,-1924.535449,-9770.718434,0.000000
573.820691,-1480.411884,-9400.615463,76.609550
573.821015,-1258.350101,-8660.409521,306.438199
573.821339,-1702.473667,-8438.347739,459.657299
573.821663,-2146.597232,-8660.409521,306.438199
573.821987,-3108.864956,-9474.636058,229.828649
573.822311,-3552.988522,-9474.636058,689.485948
573.822635,-2368.659014,-8956.491898,612.876398
573.822959,-1406.391290,-9400.615463,766.095498
573.823283,-962.267725,-9178.553681,689.485948
573.823608,-444.123565,-8438.347739,536.266849
573.823932,-592.164754,-9030.512492,306.438199
573.824256,-370.102971,-8660.409521,76.609550
573.824580,0.000000,-8290.306550,0.000000
573.824904,0.000000,-8956.491898,0.000000
573.825228,370.102971,-9770.718434,229.828649
573.825552,444.123565,-10362.883188,0.000000
573.825876,-1110.308913,-10732.986159,229.828649
573.826200,-1776.494261,-10362.883188,229.828649
573.826524,-1036.288319,-9992.780217,-536.266849
573.826848,-370.102971,-10584.944971,306.438199
573.827172,2220.617826,-10807.006753,459.657299
573.827496,2294.638420,-10066.800811,0.000000
573.827820,1850.514855,-9918.759623,306.438199
573.828144,2442.679609,-9622.677246,383.047749
573.828469,2960.823768,-9400.615463,0.000000
573.828793,2220.617826,-9178.553681,76.609550
573.829117,1554.432478,-9622.677246,0.000000
573.829441,592.164754,-10584.944971,-766.095498
573.829765,222.061783,-10362.883188,-612.876398
573.830089,222.061783,-9548.656652,-306.438199
573.830413,296.082377,-9770.718434,-153.219100
573.830737,148.041188,-10066.800811,-383.047749
573.831061,74.020594,-9622.677246,-383.047749
573.831385,296.082377,-8808.450710,0.000000
573.831709,740.205942,-8290.306550,-229.828649
573.832033,2072.576638,-8364.327145,-689.485948
573.832357,3256.906145,-9326.594869,0.000000
573.832681,3775.050304,-10140.821405,459.657299
573.833005,3182.885551,-10584.944971,229.828649
573.833330,1628.453072,-10436.903782,76.609550
573.833654,1036.288319,-9992.780217,383.047749
573.833978,1554.432478,-10955.047942,-76.609550
573.834302,444.123565,-10732.986159,0.000000
573.834626,0.000000,-10658.965565,229.828649
573.834950,-296.082377,-10214.842000,0.000000
573.835274,-1332.370696,-9992.780217,-383.047749
573.835598,-1702.473667,-8586.388927,-995.924147
573.835922,-962.267725,-8068.244768,0.000000
573.836246,-296.082377,-9400.615463,1149.143247
573.836570,222.061783,-9770.718434,459.657299
573.836894,-740.205942,-9326.594869,383.047749
573.837218,-2368.659014,-9178.553681,766.095498
573.837542,-1702.473667,-9178.553681,-153.219100
573.837866,-740.205942,-9548.656652,-383.047749
573.838191,-1924.535449,-9474.636058,459.657299
573.838515,-1924.535449,-9104.533087,153.219100
573.838839,-2220.617826,-9622.677246,306.438199
573.839163,-1702.473667,-9252.574275,229.828649
573.839487,-518.144159,-8068.244768,612.876398
573.839811,-370.102971,-8956.491898,689.485948
573.840135,-1258.350101,-8956.491898,229.828649
573.840459,-1702.473667,-8734.430116,612.876398
573.840783,-1628.453072,-8956.491898,306.438199
573.841107,-1554.432478,-9178.553681,459.657299
573.841431,-1332.370696,-9548.656652,-229.828649
573.841755,-2220.617826,-10140.821405,0.000000
573.842079,-2738.761985,-9992.780217,76.609550
573.842403,-2368.659014,-9992.780217,-689.485948
573.842727,-2146.597232,-10066.800811,-383.047749
573.843052,-1110.308913,-9474.636058,-612.876398
573.843376,-666.185348,-9622.677246,-1072.533697
573.843700,74.020594,-9992.780217,-766.095498
573.844024,592.164754,-10066.800811,-766.095498
573.844348,444.123565,-10362.883188,-612.876398
573.844672,0.000000,-10732.986159,153.219100
573.844996,518.144159,-10955.047942,0.000000
573.845320,1036.288319,-11325.150913,76.609550
573.845644,1702.473667,-11547.212695,612.876398
573.845968,1776.494261,-10881.027347,383.047749
573.846292,1628.453072,-10807.006753,-459.657299
573.846616,1924.535449,-9696.697840,-612.876398
573.846940,2072.576638,-8290.306550,-459.657299
573.847264,2220.617826,-9252.574275,-383.047749
573.847588,1332.370696,-9992.780217,-536.266849
573.847913,518.144159,-9104.533087,-383.047749
573.848237,-148.041188,-8734.430116,-612.876398
573.848561,0.000000,-9178.553681,-842.705048
573.848885,444.123565,-9992.780217,-383.047749
573.849209,518.144159,-10214.842000,0.000000
573.849533,0.000000,-9030.512492,-229.828649
573.849857,-518.144159,-8882.471304,-612.876398
573.850181,740.205942,-9548.656652,383.047749
573.850505,2442.679609,-9326.594869,153.219100
573.850829,3552.988522,-8882.471304,383.047749
573.851153,2368.659014,-8438.347739,0.000000
573.851477,1628.453072,-8734.430116,-229.828649
573.851801,1850.514855,-10584.944971,0.000000
573.852125,1554.432478,-10955.047942,306.438199
573.852449,1480.411884,-9252.574275,0.000000
573.852774,1184.329507,-9622.677246,306.438199
573.853098,296.082377,-9992.780217,153.219100
573.853422,518.144159,-10436.903782,0.000000
573.853746,-666.185348,-9770.718434,-383.047749
573.854070,-1332.370696,-9030.512492,-689.485948
573.854394,-666.185348,-8512.368333,-995.924147
573.854718,-444.123565,-8808.450710,-153.219100
573.855042,-888.247130,-8438.347739,-306.438199
573.855366,-1554.432478,-8734.430116,-1302.362347
573.855690,-2368.659014,-10066.800811,-1225.752797
573.856014,-2960.823768,-9178.553681,-1532.190996
573.856338,-1628.453072,-9030.512492,-766.095498
573.856662,-2294.638420,-9992.780217,-306.438199
573.856986,-2664.741391,-10584.944971,0.000000
573.857310,-2886.803174,-10436.903782,-383.047749
573.857635,-3404.947333,-10436.903782,0.000000
573.857959,-2220.617826,-9844.739029,-383.047749
573.858283,-1036.288319,-9992.780217,-306.438199
573.858607,-2368.659014,-9622.677246,-612.876398
573.858931,-3330.926739,-9696.697840,-1302.362347
573.859255,-5255.462188,-10214.842000,-1378.971896
573.859579,-5625.565159,-10436.903782,-1762.019645
573.859903,-4589.276840,-8808.450710,-2451.505594
573.860227,-3182.885551,-8290.306550,-1455.581446
573.860551,-2368.659014,-9474.636058,-612.876398
573.860875,-1110.308913,-10584.944971,-229.828649
573.861199,-370.102971,-12065.356855,153.219100
573.861523,-888.247130,-11399.171507,-229.828649
573.861847,-1554.432478,-9474.636058,-1838.629195
573.862171,-2738.761985,-9400.615463,-2145.067394
573.862496,-3256.906145,-10436.903782,-1608.800546
573.862820,-2886.803174,-11695.253884,-1991.848295
573.863144,-2368.659014,-10658.965565,-2068.457845
573.863468,-2368.659014,-8660.409521,-1225.752797
573.863792,-1110.308913,-8660.409521,-1991.848295
573.864116,-296.082377,-8660.409521,-1532.190996
573.864440,74.020594,-8290.306550,-1378.971896
573.864764,148.041188,-8512.368333,-919.314598
573.865088,0.000000,-9474.636058,-1149.143247
573.865412,-296.082377,-9696.697840,-1762.019645
573.865736,-1110.308913,-9474.636058,-842.705048
573.866060,-1628.453072,-9104.533087,-1072.533697
573.866384,-1628.453072,-9400.615463,-2145.067394
573.866708,-2294.638420,-9252.574275,-2834.553343
573.867032,-3034.844362,-10288.862594,-2681.334243
573.867357,-2590.720797,-9770.718434,-3140.991542
573.867681,-2072.576638,-8660.409521,-3294.210641
573.868005,-1702.473667,-9474.636058,-1838.629195
573.868329,74.020594,-10140.821405,-2298.286494
573.868653,1628.453072,-10362.883188,-2221.676944
573.868977,2220.617826,-9992.780217,-306.438199
573.869301,1702.473667,-9992.780217,-459.657299
573.869625,518.144159,-10066.800811,-2221.676944
573.869949,-1554.432478,-9918.759623,-1685.410096
573.870273,-2442.679609,-10066.800811,-2374.896044
573.870597,-2590.720797,-9474.636058,-3600.648841
573.870921,-2664.741391,-8142.265362,-3753.867940
573.871245,-3701.029710,-8660.409521,-3447.429741
573.871569,-4293.194464,-8734.430116,-4443.353888
573.871893,-3849.070898,-9474.636058,-4596.572988
573.872218,-4219.173869,-9400.615463,-3830.477490
573.872542,-3552.988522,-10140.821405,-3294.210641
573.872866,-2368.659014,-10584.944971,-2681.334243
573.873190,-740.205942,-10807.006753,-2757.943793
573.873514,0.000000,-10807.006753,-2221.676944
573.873838,1036.288319,-11695.253884,-1608.800546
573.874162,1406.391290,-13027.624579,-995.924147
573.874486,592.164754,-13323.706956,-1149.143247
573.874810,-962.267725,-12065.356855,-1838.629195
573.875134,-2442.679609,-10658.965565,-1991.848295
573.875458,-2738.761985,-10584.944971,-2911.162892
573.875782,-3478.967927,-9992.780217,-3677.258390
573.876106,-4589.276840,-8660.409521,-3294.210641
573.876430,-4219.173869,-7994.224174,-2451.505594
573.876754,-3108.864956,-8956.491898,-2604.724693
573.877079,-3256.906145,-8956.491898,-2604.724693
573.877403,-5033.400406,-7994.224174,-2757.943793
573.877727,-7031.956449,-8808.450710,-2068.457845
573.878051,-6587.832884,-9918.759623,-2068.457845
573.878375,-5107.421000,-9104.533087,-1838.629195
573.878699,-3997.112087,-8808.450710,-1378.971896
573.879023,-2738.761985,-9844.739029,-919.314598
573.879347,-962.267725,-10510.924376,0.000000
573.879671,962.267725,-10066.800811,0.000000
573.879995,518.144159,-9178.553681,0.000000
573.880319,-1332.370696,-9918.759623,-459.657299
573.880643,-2516.700203,-10140.821405,-383.047749
573.880967,-1554.432478,-9770.718434,-383.047749
573.881291,-962.267725,-8734.430116,-306.438199
573.881615,-3034.844362,-9252.574275,-842.705048
573.881940,-4441.235652,-9548.656652,-1532.190996
573.882264,-4663.297435,-8364.327145,-2145.067394
573.882588,-4515.256246,-6513.812290,-2451.505594
573.882912,-4737.318029,-6883.915261,-2298.286494
573.883236,-5773.606348,-8734.430116,-2451.505594
573.883560,-6143.709319,-9474.636058,-2374.896044
573.883884,-5477.523971,-7920.203579,-2528.115143
573.884208,-3923.091493,-7105.977043,-1762.019645
573.884532,-1554.432478,-8660.409521,-842.705048
573.884856,444.123565,-9696.697840,-383.047749
573.885180,2146.597232,-9252.574275,0.000000
573.885504,3182.885551,-8586.388927,-229.828649
573.885828,2294.638420,-9844.739029,-306.438199
573.886152,1628.453072,-11325.150913,-306.438199
573.886476,2072.576638,-10066.800811,-1225.752797
573.886801,1554.432478,-6957.935855,-4979.620737
573.887125,-2072.576638,-11103.089130,-3983.696590
573.887449,-5773.606348,-16950.716072,-3370.820191
573.887773,-4367.215058,-15174.221811,-6894.859482
573.888097,-4737.318029,-10436.903782,-3600.648841
573.888421,-5181.441594,-7772.162391,-2145.067394
573.888745,-1628.453072,-9400.615463,-4596.572988
573.889069,-888.247130,-10732.986159,-2757.943793
573.889393,-296.082377,-8808.450710,-1762.019645
573.889717,1110.308913,-7624.121203,-1762.019645
573.890041,1036.288319,-9770.718434,-2068.457845
573.890365,370.102971,-10584.944971,-153.219100
573.890689,1924.535449,-9548.656652,919.314598
573.891013,2442.679609,-9474.636058,76.609550
573.891337,-222.061783,-11473.192101,-1915.238745
573.891662,-3775.050304,-11843.295072,-3677.258390
573.891986,-4737.318029,-11473.192101,-4443.353888
573.892310,-4811.338623,-12139.377449,-3064.381992
573.892634,-4663.297435,-11621.233289,-3753.867940
573.892958,-4515.256246,-9844.739029,-2451.505594
573.893282,-3256.906145,-9030.512492,-1149.143247
573.893606,-1110.308913,-7920.203579,-2451.505594
573.893930,-962.267725,-7254.018232,-1915.238745
573.894254,-814.226536,-7105.977043,-1838.629195
573.894578,0.000000,-7994.224174,-1378.971896
573.894902,0.000000,-9474.636058,-1302.362347
573.895226,-2368.659014,-10214.842000,-842.705048
573.895550,-4071.132681,-9474.636058,-383.047749
573.895874,-4589.276840,-9326.594869,-1455.581446
573.896198,-4589.276840,-9548.656652,-1991.848295
573.896523,-3923.091493,-9178.553681,-1838.629195
573.896847,-1998.556043,-9252.574275,-1762.019645
573.897171,-1036.288319,-8956.491898,-1302.362347
573.897495,-1924.535449,-9252.574275,-1608.800546
573.897819,-3923.091493,-9400.615463,-1915.238745
573.898143,-6143.709319,-9918.759623,-2145.067394
573.898467,-6957.935855,-9918.759623,-2528.115143
573.898791,-6069.688724,-9548.656652,-2298.286494
573.899115,-3923.091493,-10066.800811,-1915.238745
573.899439,-1702.473667,-9622.677246,-2068.457845
573.899763,-222.061783,-8956.491898,-2374.896044
573.900087,74.020594,-8808.450710,-2451.505594
573.900411,-296.082377,-8956.491898,-2068.457845
573.900735,-1110.308913,-9622.677246,-2298.286494
573.901059,-1702.473667,-10658.965565,-2068.457845
573.901384,-1702.473667,-10066.800811,-1378.971896
573.901708,-2294.638420,-9770.718434,-2221.676944
573.902032,-3034.844362,-10436.903782,-2757.943793
573.902356,-4515.256246,-11103.089130,-3447.429741
573.902680,-5477.523971,-12583.501014,-2987.772442
573.903004,-4515.256246,-12879.583391,-2374.896044
573.903328,-2146.597232,-11917.315666,-3140.991542
573.903652,-1184.329507,-9622.677246,-1378.971896
573.903976,444.123565,-7105.977043,-1991.848295
573.904300,1184.329507,-7254.018232,-2757.943793
573.904624,1184.329507,-7476.080014,-2757.943793
573.904948,2072.576638,-8142.265362,-1915.238745
573.905272,2368.659014,-9178.553681,-995.924147
573.905596,444.123565,-9622.677246,-1608.800546
573.905920,-2516.700203,-9770.718434,-2528.115143
573.906245,-6069.688724,-10288.862594,-3217.601092
573.906569,-8216.285956,-13027.624579,-3753.867940
573.906893,-7476.080014,-13841.851115,-4366.744339
573.907217,-5181.441594,-12287.418637,-2757.943793
573.907541,-2516.700203,-10510.924376,-689.485948
573.907865,-148.041188,-9252.574275,-459.657299
573.908189,1036.288319,-8290.306550,-459.657299
573.908513,1998.556043,-7179.997637,0.000000
573.908837,3923.091493,-7402.059420,-459.657299
573.909161,4515.256246,-8808.450710,-229.828649
573.909485,4441.235652,-8956.491898,229.828649
573.909809,3182.885551,-8882.471304,229.828649
573.910133,1110.308913,-9622.677246,-919.314598
573.910457,-2442.679609,-11325.150913,-2451.505594
573.910781,-5921.647536,-12435.459826,-2451.505594
573.911106,-7550.100608,-11251.130318,-3294.210641
573.911430,-7698.141797,-10362.883188,-2451.505594
573.911754,-7105.977043,-9326.594869,-1915.238745
573.912078,-5921.647536,-8216.285956,-1685.410096
573.912402,-4219.173869,-6883.915261,-1225.752797
573.912726,-2516.700203,-6957.935855,-919.314598
573.913050,-518.144159,-8142.265362,76.609550
573.913374,1332.370696,-8290.306550,612.876398
573.913698,3330.926739,-8808.450710,1149.143247
573.914022,2960.823768,-8364.327145,1378.971896
573.914346,1332.370696,-9326.594869,229.828649
573.914670,-222.061783,-10214.842000,-919.314598
573.914994,-1480.411884,-10510.924376,-1685.410096
573.915318,-2886.803174,-10732.986159,-1838.629195
573.915642,-4737.318029,-10140.821405,-1378.971896
573.915967,-6735.874072,-9474.636058,-2987.772442
573.916291,-8290.306550,-9178.553681,-3524.039291
573.916615,-9474.636058,-9252.574275,-3983.696590
573.916939,-8216.285956,-8512.368333,-3524.039291
573.917263,-6291.750507,-8808.450710,-2604.724693
573.917587,-2886.803174,-9030.512492,-1685.410096
573.917911,0.000000,-8734.430116,-766.095498
573.918235,2220.617826,-9474.636058,-229.828649
573.918559,2738.761985,-10807.006753,0.000000
573.918883,2294.638420,-11325.150913,-689.485948
573.919207,1702.473667,-11325.150913,-1072.533697
573.919531,740.205942,-11251.130318,-1532.190996
573.919855,-740.205942,-11251.130318,-2451.505594
573.920179,-2664.741391,-11325.150913,-3447.429741
573.920503,-4737.318029,-11325.150913,-4213.525239
573.920828,-6883.915261,-10658.965565,-5132.839837
573.921152,-7772.162391,-9400.615463,-5286.058936
573.921476,-7698.141797,-7698.141797,-5209.449386
573.921800,-5995.668130,-7476.080014,-4596.572988
573.922124,-3997.112087,-7402.059420,-3907.087040
573.922448,-1924.535449,-8216.285956,-2834.553343
573.922772,0.000000,-9474.636058,-2068.457845
573.923096,888.247130,-10214.842000,-1225.752797
573.923420,1332.370696,-10510.924376,-995.924147
573.923744,592.164754,-11251.130318,-1685.410096
573.924068,-666.185348,-12361.439231,-2451.505594
573.924392,-1850.514855,-13619.789333,-2911.162892
573.924716,-2442.679609,-14211.954086,-2451.505594
573.925040,-1480.411884,-12953.603985,-3217.601092
573.925364,-444.123565,-9918.759623,-3600.648841
573.925689,-666.185348,-7772.162391,-3753.867940
573.926013,-962.267725,-7179.997637,-3907.087040
573.926337,-1036.288319,-7031.956449,-4519.963438
573.926661,-2738.761985,-7254.018232,-4443.353888
573.926985,-4737.318029,-7476.080014,-4443.353888
573.927309,-5329.482782,-7624.121203,-3600.648841
573.927633,-4885.359217,-7476.080014,-3140.991542
573.927957,-4441.235652,-8364.327145,-2451.505594
573.928281,-2886.803174,-9844.739029,-1915.238745
573.928605,-1554.432478,-11325.150913,-1915.238745
573.928929,-814.226536,-11695.253884,-1455.581446
573.929253,0.000000,-12509.480420,-995.924147
573.929577,444.123565,-13915.871710,-995.924147
573.929901,814.226536,-13471.748144,-1532.190996
573.930225,74.020594,-10955.047942,-1838.629195
573.930550,444.123565,-8808.450710,-1685.410096
573.930874,1480.411884,-8364.327145,-2068.457845
573.931198,2368.659014,-9104.533087,-1991.848295
573.931522,1184.329507,-8438.347739,-2068.457845
573.931846,-1332.370696,-8364.327145,-2145.067394
573.932170,-4737.318029,-8438.347739,-3140.991542
573.932494,-7550.100608,-8068.244768,-3524.039291
573.932818,-8290.306550,-7105.977043,-2681.334243
573.933142,-7254.018232,-7920.203579,-3600.648841
573.933466,-6513.812290,-9548.656652,-2221.676944
573.933790,-5477.523971,-10658.965565,-1149.143247
573.934114,-3997.112087,-11769.274478,-229.828649
573.934438,-2590.720797,-11621.233289,0.000000
573.934762,-1332.370696,-10955.047942,0.000000
573.935086,518.144159,-10510.924376,766.095498
573.935411,2812.782580,-10807.006753,536.266849
573.935735,3849.070898,-10955.047942,459.657299
573.936059,3701.029710,-10140.821405,-153.219100
573.936383,1998.556043,-8956.491898,-612.876398
573.936707,814.226536,-8364.327145,-1455.581446
573.937031,-740.205942,-8364.327145,-1532.190996
573.937355,-4367.215058,-8660.409521,-2604.724693
573.937679,-9548.656652,-9252.574275,-3217.601092
573.938003,-12065.356855,-10066.800811,-3907.087040
573.938327,-10732.986159,-9474.636058,-3524.039291
573.938651,-7550.100608,-7920.203579,-2911.162892
573.938975,-5699.585753,-7846.182985,-1762.019645
573.939299,-4737.318029,-9030.512492,-995.924147
573.939623,-3478.967927,-10510.924376,-536.266849
573.939947,-1480.411884,-10955.047942,383.047749
573.940272,1850.514855,-11177.109724,1378.971896
573.940596,6069.688724,-10807.006753,1149.143247
573.940920,8956.491898,-9104.533087,1149.143247
573.941244,9326.594869,-8438.347739,842.705048
573.941568,7179.997637,-9474.636058,612.876398
573.941892,3256.906145,-10732.986159,-689.485948
573.942216,-666.185348,-10955.047942,-1378.971896
573.942540,-4441.235652,-9104.533087,-2145.067394
573.942864,-7846.182985,-8216.285956,-3524.039291
573.943188,-10658.965565,-7476.080014,-5132.839837
573.943512,-11917.315666,-6957.935855,-5975.544884
573.943836,-12139.377449,-7994.224174,-5439.278036
573.944160,-9696.697840,-7698.141797,-4443.353888
573.944484,-6217.729913,-7328.038826,-3140.991542
573.944808,-2886.803174,-7772.162391,-1455.581446
573.945133,0.000000,-8660.409521,-689.485948
573.945457,2072.576638,-10732.986159,0.000000
573.945781,4737.318029,-12953.603985,459.657299
573.946105,7846.182985,-12361.439231,1225.752797
573.946429,9030.512492,-10807.006753,536.266849
573.946753,6587.832884,-10955.047942,-153.219100
573.947077,3552.988522,-14359.995275,-766.095498
573.947401,74.020594,-15618.345376,-2451.505594
573.947725,-3775.050304,-13027.624579,-4213.525239
573.948049,-8512.368333,-10140.821405,-3753.867940
573.948373,-10584.944971,-9252.574275,-4979.620737
573.948697,-11251.130318,-8290.306550,-5822.325785
573.949021,-10510.924376,-5403.503377,-6511.811733
573.949346,-9918.759623,-5033.400406,-6205.373534
573.949670,-8512.368333,-8364.327145,-4673.182538
573.949994,-4737.318029,-10584.944971,-4136.915689
573.950318,-962.267725,-7846.182985,-2298.286494
573.950642,1480.411884,-6883.915261,-383.047749
573.950966,3034.844362,-11325.150913,-306.438199
573.951290,3849.070898,-14063.912898,-689.485948
573.951615,4145.153275,-12583.501014,-766.095498
573.951939,4293.194464,-11473.192101,306.438199
573.952263,3404.947333,-13915.871710,-229.828649
573.952587,1480.411884,-14211.954086,-1302.362347
573.952911,-1036.288319,-11547.212695,-1991.848295
573.953235,-3627.009116,-9696.697840,-2757.943793
573.953560,-6143.709319,-9474.636058,-4903.011187
573.953884,-6587.832884,-8586.388927,-5132.839837
573.954208,-7105.977043,-7254.018232,-4213.525239
573.954532,-5921.647536,-5699.585753,-4443.353888
573.954856,-4441.235652,-5551.544565,-5286.058936
573.955180,-4145.153275,-6365.771101,-4290.134789
573.955504,-3627.009116,-7550.100608,-2757.943793
573.955829,-1628.453072,-9474.636058,-2451.505594
573.956153,-1184.329507,-8734.430116,-2374.896044
573.956477,-592.164754,-9474.636058,-2374.896044
573.956801,-814.226536,-12139.377449,-1149.143247
573.957125,666.185348,-14063.912898,-383.047749
573.957449,2516.700203,-13249.686362,-689.485948
573.957773,2812.782580,-11251.130318,536.266849
573.958098,3108.864956,-9548.656652,-459.657299
573.958422,2442.679609,-9844.739029,-689.485948
573.958746,1998.556043,-9474.636058,-689.485948
573.959070,1850.514855,-7698.141797,-842.705048
573.959394,666.185348,-6661.853478,-1149.143247
573.959718,-2146.597232,-7624.121203,-2298.286494
573.960043,-5033.400406,-8956.491898,-2681.334243
573.960367,-7031.956449,-8734.430116,-2757.943793
573.960691,-7402.059420,-9992.780217,-2374.896044
573.961015,-8216.285956,-10881.027347,-2374.896044
573.961339,-7179.997637,-10214.842000,-1762.019645
573.961663,-5181.441594,-10140.821405,-153.219100
573.961987,-2146.597232,-10214.842000,0.000000
573.962312,370.102971,-10362.883188,383.047749
573.962636,1628.453072,-9474.636058,1532.190996
573.962960,2442.679609,-9104.533087,1302.362347
573.963284,4293.194464,-8956.491898,1532.190996
573.963608,4737.318029,-9326.594869,1302.362347
573.963932,4145.153275,-10140.821405,1608.800546
573.964256,1850.514855,-11843.295072,153.219100
573.964581,0.000000,-11991.336260,-153.219100
573.964905,-370.102971,-10881.027347,459.657299
573.965229,222.061783,-10362.883188,459.657299
573.965553,-1184.329507,-10362.883188,229.828649
573.965877,-3182.885551,-9548.656652,76.609550
573.966201,-1776.494261,-9696.697840,1378.971896
573.966526,-296.082377,-8364.327145,459.657299
573.966850,-74.020594,-7624.121203,919.314598
573.967174,-1332.370696,-7846.182985,1072.533697
573.967498,-1110.308913,-8882.471304,1225.752797
573.967822,-296.082377,-9844.739029,1302.362347
573.968146,0.000000,-10140.821405,2068.457845
573.968470,0.000000,-9326.594869,1302.362347
573.968795,444.123565,-9474.636058,919.314598
573.969119,1480.411884,-10436.903782,1378.971896
573.969443,2146.597232,-10362.883188,1608.800546
573.969767,1184.329507,-11177.109724,1455.581446
573.970091,-740.205942,-10436.903782,842.705048
573.970415,-1702.473667,-8512.368333,-536.266849
573.970740,-1554.432478,-7920.203579,0.000000
573.971064,-1332.370696,-8660.409521,459.657299
573.971388,-1406.391290,-8142.265362,-689.485948
573.971712,-1850.514855,-7994.224174,-689.485948
573.972036,-2220.617826,-7698.141797,-612.876398
573.972360,-740.205942,-7994.224174,-1225.752797
573.972684,666.185348,-8956.491898,-153.219100
573.973009,2072.576638,-9104.533087,536.266849
573.973333,2516.700203,-9178.553681,0.000000
573.973657,1628.453072,-10807.006753,689.485948
573.973981,1184.329507,-10214.842000,153.219100
573.974305,2072.576638,-9622.677246,306.438199
573.974629,2886.803174,-9696.697840,-153.219100
573.974953,2516.700203,-9474.636058,-1072.533697
573.975278,1776.494261,-8808.450710,-1302.362347
573.975602,666.185348,-9844.739029,-995.924147
573.975926,-592.164754,-9918.759623,-2068.457845
573.976250,-1332.370696,-9548.656652,-2604.724693
573.976574,-2072.576638,-9770.718434,-1915.238745
573.976898,-1480.411884,-9844.739029,-2145.067394
573.977223,592.164754,-11473.192101,-766.095498
573.977547,0.000000,-12139.377449,-459.657299
573.977871,-740.205942,-11029.068536,-1225.752797
573.978195,-518.144159,-10288.862594,-1225.752797
573.978519,962.267725,-10584.944971,-919.314598
573.978843,2812.782580,-10362.883188,-1072.533697
573.979167,3478.967927,-11177.109724,-766.095498
573.979492,1850.514855,-11251.130318,-383.047749
573.979816,1332.370696,-10214.842000,-2145.067394
573.980140,-222.061783,-9548.656652,-2604.724693
573.980464,-1702.473667,-9770.718434,-2374.896044
573.980788,-2442.679609,-10066.800811,-2451.505594
573.981112,-2664.741391,-11177.109724,-2451.505594
573.981436,-3108.864956,-10288.862594,-842.705048
573.981761,-3330.926739,-9030.512492,-2221.676944
573.982085,-2960.823768,-9770.718434,-2145.067394
573.982409,-2146.597232,-10066.800811,-1225.752797
573.982733,-592.164754,-10362.883188,-459.657299
573.983057,-666.185348,-11769.274478,459.657299
573.983381,-1184.329507,-11029.068536,536.266849
573.983706,-1184.329507,-9474.636058,76.609550
573.984030,-740.205942,-9178.553681,-459.657299
573.984354,444.123565,-9474.636058,-1072.533697
573.984678,0.000000,-10807.006753,-1149.143247
573.985002,-444.123565,-10807.006753,-306.438199
573.985326,74.020594,-8956.491898,-383.047749
573.985650,370.102971,-7698.141797,0.000000
573.985975,222.061783,-7698.141797,689.485948
573.986299,74.020594,-8512.368333,842.705048
573.986623,0.000000,-8586.388927,459.657299
573.986947,370.102971,-7402.059420,766.095498
573.987271,1776.494261,-6883.915261,1225.752797
573.987595,1776.494261,-8068.244768,1685.410096
573.987919,666.185348,-8290.306550,1455.581446
573.988244,518.144159,-7624.121203,1838.629195
573.988568,962.267725,-8364.327145,842.705048
573.988892,296.082377,-8438.347739,766.095498
573.989216,444.123565,-7920.203579,0.000000
573.989540,-370.102971,-8512.368333,306.438199
573.989864,-222.061783,-9326.594869,0.000000
573.990189,0.000000,-10436.903782,0.000000
573.990513,-518.144159,-10732.986159,612.876398
573.990837,-296.082377,-10362.883188,536.266849
573.991161,74.020594,-10436.903782,229.828649
573.991485,-518.144159,-11103.089130,229.828649
573.991809,-740.205942,-11695.253884,689.485948
573.992133,-296.082377,-12213.398043,689.485948
573.992458,592.164754,-11843.295072,612.876398
573.992782,1702.473667,-10436.903782,1685.410096
573.993106,2812.782580,-10214.842000,1302.362347
573.993430,2590.720797,-10066.800811,1762.019645
573.993754,1924.535449,-9918.759623,995.924147
573.994078,1332.370696,-9622.677246,306.438199
573.994403,370.102971,-9770.718434,689.485948
573.994727,962.267725,-9178.553681,-383.047749
573.995051,814.226536,-8586.388927,-459.657299
573.995375,-222.061783,-8956.491898,-383.047749
573.995699,-1332.370696,-9474.636058,-766.095498
573.996023,-1924.535449,-10732.986159,0.000000
573.996347,-1406.391290,-9844.739029,306.438199
573.996672,0.000000,-9178.553681,153.219100
573.996996,222.061783,-8882.471304,612.876398
573.997320,518.144159,-9252.574275,995.924147
573.997644,814.226536,-9400.615463,919.314598
573.997968,592.164754,-9770.718434,1149.143247
573.998292,370.102971,-8808.450710,842.705048
573.998616,0.000000,-7624.121203,-153.219100
573.998941,962.267725,-9030.512492,459.657299
573.999265,962.267725,-9548.656652,229.828649
573.999589,-74.020594,-9770.718434,-995.924147
573.999913,-2516.700203,-9548.656652,-1378.971896
574.000237,-3552.988522,-9178.553681,-842.705048
574.000561,-2368.659014,-9622.677246,-1225.752797
574.000886,-1406.391290,-9474.636058,-612.876398
574.001210,-1036.288319,-8956.491898,-766.095498
