#time,accel_x,accel_y,accel_z
807.553718,-7031.956449,-11769.274478,-306.438199
807.554042,-5329.482782,-9548.656652,1302.362347
807.554366,-6143.709319,-5625.565159,1685.410096
807.554690,-1850.514855,-4145.153275,-995.924147
807.555014,444.123565,-7105.977043,0.000000
807.555338,2886.803174,-8438.347739,1608.800546
807.555662,6217.729913,-9030.512492,3677.258390
807.555986,6143.709319,-10362.883188,2987.772442
807.556310,2368.659014,-9474.636058,995.924147
807.556634,-1702.473667,-11547.212695,995.924147
807.556958,-2738.761985,-14804.118840,0.000000
807.557282,-2146.597232,-16210.510130,-1378.971896
807.557606,-3552.988522,-14656.077652,-995.924147
807.557930,-3923.091493,-9696.697840,-459.657299
807.558254,-2146.597232,-7402.059420,459.657299
807.558578,-1554.432478,-9252.574275,-153.219100
807.558902,-2960.823768,-9104.533087,383.047749
807.559226,-3552.988522,-7846.182985,-459.657299
807.559550,-3404.947333,-8216.285956,383.047749
807.559874,-2960.823768,-9696.697840,2451.505594
807.560198,-1776.494261,-10214.842000,2987.772442
807.560522,-1332.370696,-9252.574275,2911.162892
807.560846,-2590.720797,-10288.862594,995.924147
807.561170,-4589.276840,-12213.398043,-612.876398
807.561494,-3404.947333,-13027.624579,536.266849
807.561818,-222.061783,-13397.727550,3753.867940
807.562143,1480.411884,-12953.603985,3447.429741
807.562467,148.041188,-12065.356855,3753.867940
807.562791,-1332.370696,-10584.944971,2681.334243
807.563115,-1480.411884,-9622.677246,2068.457845
807.563439,-1628.453072,-9400.615463,1762.019645
807.563763,-1702.473667,-9030.512492,2604.724693
807.564087,-1480.411884,-9030.512492,3677.258390
807.564411,-2812.782580,-8586.388927,3064.381992
807.564735,-5403.503377,-7920.203579,3217.601092
807.565059,-7698.141797,-7846.182985,2451.505594
807.565383,-8290.306550,-7772.162391,1455.581446
807.565707,-7550.100608,-9252.574275,2374.896044
807.566031,-5477.523971,-9178.553681,2834.553343
807.566355,-2812.782580,-7105.977043,4060.306139
807.566679,-1258.350101,-6957.935855,4749.792088
807.567003,-666.185348,-9252.574275,5056.230287
807.567327,0.000000,-10510.924376,5209.449386
807.567651,1924.535449,-10214.842000,6128.763984
807.567975,3775.050304,-8660.409521,7048.078582
807.568299,4811.338623,-8068.244768,7048.078582
807.568623,4515.256246,-7920.203579,5669.106685
807.568947,1702.473667,-7254.018232,4749.792088
807.569271,-1776.494261,-7624.121203,3370.820191
807.569595,-5477.523971,-7105.977043,1455.581446
807.569919,-8290.306550,-5181.441594,-842.705048
807.570243,-10510.924376,-6069.688724,-1915.238745
807.570567,-11325.150913,-10066.800811,0.000000
807.570891,-7031.956449,-11843.295072,-229.828649
807.571215,-2368.659014,-10066.800811,1149.143247
807.571539,-444.123565,-8216.285956,4366.744339
807.571863,2738.761985,-8586.388927,4136.915689
807.572187,5329.482782,-10658.965565,4136.915689
807.572511,4885.359217,-11547.212695,4290.134789
807.572835,3849.070898,-12213.398043,4903.011187
807.573159,2368.659014,-13545.768739,4060.306139
807.573483,814.226536,-12287.418637,2681.334243
807.573807,-296.082377,-9696.697840,2451.505594
807.574131,-962.267725,-6735.874072,-1991.848295
807.574455,-2664.741391,-7624.121203,-4290.134789
807.574779,-4515.256246,-11843.295072,-4290.134789
807.575103,-2664.741391,-11843.295072,-5669.106685
807.575427,-1776.494261,-9622.677246,-4673.182538
807.575751,-3330.926739,-9400.615463,-2298.286494
807.576075,-3849.070898,-9992.780217,-2451.505594
807.576399,-3108.864956,-11473.192101,-1762.019645
807.576723,-2294.638420,-11103.089130,-1838.629195
807.577047,0.000000,-10807.006753,842.705048
807.577371,3256.906145,-12361.439231,1838.629195
807.577695,5847.626942,-11991.336260,2451.505594
807.578019,5921.647536,-10584.944971,3064.381992
807.578343,3627.009116,-9474.636058,1915.238745
807.578667,296.082377,-10214.842000,-766.095498
807.578991,-1776.494261,-9770.718434,-3064.381992
807.579315,-2072.576638,-7476.080014,-4290.134789
807.579639,-296.082377,-8216.285956,-4443.353888
807.579963,1036.288319,-10214.842000,-5209.449386
807.580287,888.247130,-10732.986159,-4826.401637
807.580611,-444.123565,-10140.821405,-3983.696590
807.580935,-2812.782580,-10066.800811,-3983.696590
807.581257,-5107.421000,-9474.636058,-3830.477490
807.581581,-6143.709319,-9030.512492,-2451.505594
807.581906,-2960.823768,-8734.430116,-1302.362347
807.582230,518.144159,-8512.368333,-689.485948
807.582554,2886.803174,-8956.491898,229.828649
807.582878,4811.338623,-9548.656652,2374.896044
807.583203,6513.812290,-9622.677246,2298.286494
807.583527,5107.421000,-9696.697840,1608.800546
807.583851,1332.370696,-8882.471304,1225.752797
807.584176,-1406.391290,-8660.409521,0.000000
807.584500,-1924.535449,-9030.512492,-2451.505594
807.584824,-1480.411884,-9622.677246,-3447.429741
807.585149,-296.082377,-11769.274478,-1915.238745
807.585473,1998.556043,-12435.459826,-1915.238745
807.585797,1924.535449,-10732.986159,-2221.676944
807.586122,-2738.761985,-8364.327145,-1072.533697
807.586446,-5699.585753,-7550.100608,-1915.238745
807.586770,-6143.709319,-8216.285956,-2911.162892
807.587095,-5403.503377,-8956.491898,-1532.190996
807.587419,-1406.391290,-8216.285956,1455.581446
807.587743,3775.050304,-8660.409521,2987.772442
807.588067,5847.626942,-9326.594869,4673.182538
807.588392,4737.318029,-9252.574275,4673.182538
807.588716,2368.659014,-9622.677246,3830.477490
807.589040,-1036.288319,-11325.150913,2834.553343
807.589365,-3330.926739,-12139.377449,2451.505594
807.589689,-3108.864956,-10881.027347,1762.019645
807.590013,-296.082377,-9178.553681,1149.143247
807.590338,1702.473667,-10066.800811,383.047749
807.590662,2146.597232,-10732.986159,-536.266849
807.590986,1406.391290,-10140.821405,-1225.752797
807.591311,-740.205942,-8216.285956,-1685.410096
807.591635,-3552.988522,-7772.162391,-766.095498
807.591959,-5255.462188,-8216.285956,-229.828649
807.592284,-4293.194464,-9030.512492,306.438199
807.592608,-1776.494261,-9548.656652,1608.800546
807.592932,1480.411884,-10510.924376,3447.429741
807.593256,4663.297435,-10214.842000,4443.353888
807.593581,5625.565159,-9770.718434,5286.058936
807.593905,4293.194464,-9770.718434,5362.668486
807.594229,888.247130,-9918.759623,4596.572988
807.594554,-1184.329507,-10584.944971,3294.210641
807.594878,-1184.329507,-9992.780217,2528.115143
807.595202,74.020594,-8068.244768,1072.533697
807.595527,2146.597232,-6439.791695,-995.924147
807.595851,2368.659014,-8882.471304,-1072.533697
807.596175,1850.514855,-9474.636058,-2451.505594
807.596500,-518.144159,-9548.656652,-3524.039291
807.596824,-4959.379811,-8808.450710,-2221.676944
807.597148,-6661.853478,-7994.224174,-2528.115143
807.597473,-5995.668130,-9474.636058,-1838.629195
807.597797,-2738.761985,-10214.842000,-459.657299
807.598121,2368.659014,-10214.842000,1838.629195
807.598445,5477.523971,-10807.006753,2681.334243
807.598770,5551.544565,-11177.109724,2911.162892
807.599094,2812.782580,-10732.986159,3677.258390
807.599418,296.082377,-10288.862594,2911.162892
807.599743,-1406.391290,-11029.068536,1838.629195
807.600067,-1332.370696,-11325.150913,612.876398
807.600391,740.205942,-8142.265362,-1072.533697
807.600716,2738.761985,-5551.544565,-4903.011187
807.601040,1628.453072,-8216.285956,-4290.134789
807.601364,666.185348,-10807.006753,-4519.963438
807.601689,-222.061783,-10510.924376,-6052.154434
807.602013,-4293.194464,-9548.656652,-3677.258390
807.602337,-6883.915261,-8808.450710,-2911.162892
807.602662,-5477.523971,-10066.800811,-2834.553343
807.602986,-3034.844362,-10436.903782,-1838.629195
807.603310,1924.535449,-10807.006753,842.705048
807.603634,5329.482782,-10362.883188,2068.457845
807.603959,5477.523971,-11103.089130,1838.629195
807.604283,2812.782580,-10510.924376,3140.991542
807.604607,962.267725,-10955.047942,2987.772442
807.604932,-222.061783,-11473.192101,1685.410096
807.605256,-296.082377,-11177.109724,229.828649
807.605580,1406.391290,-9548.656652,76.609550
807.605905,3627.009116,-5847.626942,-2528.115143
807.606229,2664.741391,-4219.173869,-7124.688131
807.606553,-2516.700203,-9030.512492,-4136.915689
807.606878,-4885.359217,-13397.727550,-4366.744339
807.607202,-4885.359217,-12435.459826,-6281.983084
807.607526,-8364.327145,-10140.821405,-1838.629195
807.607851,-7846.182985,-9252.574275,-766.095498
807.608175,-2442.679609,-10807.006753,-1762.019645
807.608499,1776.494261,-11843.295072,153.219100
807.608823,5477.523971,-9844.739029,3294.210641
807.609148,6513.812290,-9770.718434,3600.648841
807.609472,4737.318029,-11769.274478,3753.867940
807.609796,1258.350101,-10955.047942,4903.011187
807.610121,592.164754,-9104.533087,2834.553343
807.610445,1110.308913,-9104.533087,1532.190996
807.610769,1702.473667,-8216.285956,-1532.190996
807.611094,1258.350101,-6143.709319,-4519.963438
807.611418,1184.329507,-8216.285956,-3370.820191
807.611742,1110.308913,-10362.883188,-2681.334243
807.612067,-1184.329507,-10362.883188,-4060.306139
807.612391,-6439.791695,-9474.636058,-995.924147
807.612715,-7179.997637,-8216.285956,-1915.238745
807.613040,-4885.359217,-8734.430116,-1608.800546
807.613364,-2072.576638,-9844.739029,766.095498
807.613688,3701.029710,-9696.697840,3753.867940
807.614012,7994.224174,-9844.739029,3907.087040
807.614337,7105.977043,-10658.965565,4903.011187
807.614661,2664.741391,-9918.759623,5209.449386
807.614985,666.185348,-9400.615463,3983.696590
807.615310,-222.061783,-10214.842000,2681.334243
807.615634,-888.247130,-9844.739029,153.219100
807.615958,222.061783,-8438.347739,-2528.115143
807.616283,1406.391290,-9252.574275,-2221.676944
807.616607,1406.391290,-10214.842000,-1991.848295
807.616931,-296.082377,-9992.780217,-2528.115143
807.617256,-3997.112087,-8216.285956,-1149.143247
807.617580,-6217.729913,-7476.080014,-1532.190996
807.617904,-5995.668130,-7846.182985,-1685.410096
807.618228,-3108.864956,-9400.615463,919.314598
807.618553,1406.391290,-9400.615463,2528.115143
807.618877,4663.297435,-9696.697840,4136.915689
807.619201,3849.070898,-10807.006753,3600.648841
807.619526,1258.350101,-10436.903782,4213.525239
807.619850,0.000000,-9844.739029,3830.477490
807.620174,-1184.329507,-10658.965565,3140.991542
807.620499,-1480.411884,-11547.212695,2221.676944
807.620823,222.061783,-8956.491898,-383.047749
807.621147,2220.617826,-6809.894666,-3217.601092
807.621472,1258.350101,-9178.553681,-2145.067394
807.621796,1036.288319,-11325.150913,-2911.162892
807.622120,-296.082377,-9992.780217,-3600.648841
807.622445,-4367.215058,-9326.594869,-1838.629195
807.622769,-5921.647536,-8808.450710,-1455.581446
807.623093,-3701.029710,-9696.697840,-1762.019645
807.623417,-1554.432478,-10140.821405,-459.657299
807.623742,1480.411884,-9770.718434,2068.457845
807.624066,3627.009116,-10584.944971,2374.896044
807.624390,3404.947333,-10510.924376,2528.115143
807.624715,888.247130,-9326.594869,3217.601092
807.625039,-148.041188,-9548.656652,2604.724693
807.625363,-370.102971,-10658.965565,1072.533697
807.625688,-148.041188,-10436.903782,-612.876398
807.626012,962.267725,-8882.471304,-2221.676944
807.626336,1924.535449,-8882.471304,-2451.505594
807.626661,2664.741391,-10807.006753,-3217.601092
807.626985,1110.308913,-10510.924376,-3370.820191
807.627309,-1776.494261,-9622.677246,-2451.505594
807.627634,-3404.947333,-9548.656652,-1762.019645
807.627958,-3552.988522,-9474.636058,-2221.676944
807.628282,-2146.597232,-9992.780217,-919.314598
807.628606,0.000000,-9770.718434,766.095498
807.628931,2294.638420,-10214.842000,1072.533697
807.629255,1702.473667,-10881.027347,1149.143247
807.629579,0.000000,-9400.615463,1838.629195
807.629904,0.000000,-9030.512492,1838.629195
807.630228,222.061783,-10584.944971,1685.410096
807.630552,222.061783,-10362.883188,689.485948
807.630877,1258.350101,-9474.636058,-1455.581446
807.631201,2368.659014,-9400.615463,-1532.190996
807.631525,2664.741391,-10066.800811,-2298.286494
807.631850,2368.659014,-10658.965565,-3064.381992
807.632174,148.041188,-9622.677246,-2451.505594
807.632498,-2072.576638,-9400.615463,-2145.067394
807.632823,-3108.864956,-8956.491898,-1762.019645
807.633147,-2960.823768,-9252.574275,-1378.971896
807.633471,-1702.473667,-9252.574275,0.000000
807.633795,148.041188,-9770.718434,842.705048
807.634120,1184.329507,-9696.697840,1225.752797
807.634444,518.144159,-9548.656652,2221.676944
807.634768,-444.123565,-9474.636058,2374.896044
807.635093,-1406.391290,-10288.862594,2451.505594
807.635417,-2220.617826,-11029.068536,2374.896044
807.635741,-740.205942,-10140.821405,1608.800546
807.636066,1110.308913,-8586.388927,-306.438199
807.636390,1924.535449,-8512.368333,-1149.143247
807.636714,1628.453072,-10140.821405,-766.095498
807.637039,1258.350101,-10288.862594,-1455.581446
807.637363,0.000000,-9770.718434,-1072.533697
807.637687,-2812.782580,-9400.615463,0.000000
807.638012,-3478.967927,-8882.471304,0.000000
807.638336,-2738.761985,-9252.574275,-306.438199
807.638660,-666.185348,-9770.718434,766.095498
807.638984,740.205942,-9474.636058,2298.286494
807.639309,1776.494261,-9548.656652,2528.115143
807.639633,1110.308913,-8882.471304,2681.334243
807.639957,0.000000,-8290.306550,3217.601092
807.640282,-296.082377,-8512.368333,2987.772442
807.640606,-370.102971,-9474.636058,1608.800546
807.640930,148.041188,-9252.574275,153.219100
807.641255,1332.370696,-8586.388927,-536.266849
807.641579,2294.638420,-8882.471304,-1225.752797
807.641903,2220.617826,-9104.533087,-1608.800546
807.642228,962.267725,-9474.636058,-1225.752797
807.642552,-962.267725,-9252.574275,-995.924147
807.642876,-2146.597232,-9178.553681,-1225.752797
807.643201,-2368.659014,-9548.656652,-1532.190996
807.643525,-1110.308913,-9770.718434,0.000000
807.643849,1110.308913,-9992.780217,842.705048
807.644173,2368.659014,-9992.780217,1225.752797
807.644498,1258.350101,-10362.883188,2145.067394
807.644822,-296.082377,-9992.780217,2374.896044
807.645146,-1480.411884,-9844.739029,1762.019645
807.645471,-1628.453072,-10436.903782,1378.971896
807.645795,-814.226536,-10881.027347,536.266849
807.646119,222.061783,-9474.636058,-1378.971896
807.646444,1036.288319,-9474.636058,-1991.848295
807.646768,1406.391290,-9770.718434,-2374.896044
807.647092,962.267725,-9548.656652,-2911.162892
807.647417,-740.205942,-9474.636058,-3064.381992
807.647741,-2664.741391,-9252.574275,-2604.724693
807.648065,-2812.782580,-9474.636058,-2298.286494
807.648390,-1184.329507,-9918.759623,-1685.410096
807.648714,962.267725,-10510.924376,0.000000
807.649038,2368.659014,-10658.965565,612.876398
807.649362,1628.453072,-10140.821405,995.924147
807.649687,666.185348,-9918.759623,1608.800546
807.650011,-222.061783,-9770.718434,1302.362347
807.650335,-888.247130,-9918.759623,1455.581446
807.650660,-1258.350101,-10732.986159,612.876398
807.650984,-370.102971,-9622.677246,-842.705048
807.651308,1110.308913,-9474.636058,-1762.019645
807.651633,2590.720797,-10066.800811,-2068.457845
807.651957,2590.720797,-9696.697840,-2757.943793
807.652281,1258.350101,-9918.759623,-2451.505594
807.652606,-740.205942,-9844.739029,-2221.676944
807.652930,-1776.494261,-10066.800811,-2145.067394
807.653254,-2294.638420,-9548.656652,-1838.629195
807.653579,-1406.391290,-9770.718434,-536.266849
807.653903,962.267725,-9844.739029,842.705048
807.654227,2146.597232,-9696.697840,1455.581446
807.654551,1850.514855,-9400.615463,2451.505594
807.654876,296.082377,-9474.636058,2757.943793
807.655200,-1110.308913,-9696.697840,2068.457845
807.655524,-2072.576638,-9696.697840,1685.410096
807.655849,-1406.391290,-9178.553681,1225.752797
807.656173,666.185348,-8882.471304,306.438199
807.656497,2368.659014,-9696.697840,-459.657299
807.656822,2590.720797,-9400.615463,-919.314598
807.657146,1258.350101,-8586.388927,-1302.362347
807.657470,-1036.288319,-8438.347739,-1762.019645
807.657795,-2516.700203,-8734.430116,-1762.019645
807.658119,-3182.885551,-9252.574275,-1302.362347
807.658443,-2146.597232,-9400.615463,-536.266849
807.658768,-370.102971,-10066.800811,919.314598
807.659092,888.247130,-9548.656652,1149.143247
807.659416,962.267725,-9548.656652,2068.457845
807.659740,-370.102971,-9474.636058,2298.286494
807.660065,-1480.411884,-9918.759623,2145.067394
807.660389,-2738.761985,-10584.944971,2068.457845
807.660713,-2368.659014,-10436.903782,1608.800546
807.661038,-518.144159,-9770.718434,383.047749
807.661362,1480.411884,-9326.594869,-689.485948
807.661686,2664.741391,-9622.677246,-1072.533697
807.662011,3182.885551,-10436.903782,-1378.971896
807.662335,2146.597232,-10584.944971,-1915.238745
807.662659,-444.123565,-9474.636058,-1762.019645
807.662984,-2072.576638,-9326.594869,-1762.019645
807.663308,-2516.700203,-9844.739029,-1532.190996
807.663632,-1480.411884,-10658.965565,-766.095498
807.663957,444.123565,-10881.027347,383.047749
807.664281,2664.741391,-10362.883188,1378.971896
807.664605,2960.823768,-9548.656652,2221.676944
807.664929,1924.535449,-9252.574275,2451.505594
807.665254,0.000000,-9696.697840,2374.896044
807.665578,-1924.535449,-10214.842000,1762.019645
807.665902,-2146.597232,-10436.903782,612.876398
807.666227,-296.082377,-10214.842000,-153.219100
807.666551,2146.597232,-9918.759623,-995.924147
807.666875,3182.885551,-9770.718434,-1149.143247
807.667200,2146.597232,-9696.697840,-1532.190996
807.667524,74.020594,-9918.759623,-1991.848295
807.667848,-1702.473667,-10066.800811,-1991.848295
807.668173,-3108.864956,-9548.656652,-1685.410096
807.668497,-2664.741391,-9400.615463,-995.924147
807.668821,-370.102971,-9548.656652,153.219100
807.669145,1628.453072,-9548.656652,1072.533697
807.669470,2368.659014,-9474.636058,1302.362347
807.669794,1110.308913,-8882.471304,2145.067394
807.670118,-888.247130,-8734.430116,2145.067394
807.670443,-2368.659014,-8956.491898,1838.629195
807.670767,-2368.659014,-8660.409521,1685.410096
807.671091,-1036.288319,-8808.450710,689.485948
807.671416,962.267725,-8660.409521,-229.828649
807.671740,2590.720797,-8808.450710,-1072.533697
807.672064,2738.761985,-8290.306550,-919.314598
807.672389,1702.473667,-8882.471304,-2145.067394
807.672713,-222.061783,-9030.512492,-2221.676944
807.673037,-2072.576638,-8808.450710,-2068.457845
807.673362,-2516.700203,-9104.533087,-2068.457845
807.673686,-1480.411884,-9770.718434,-1608.800546
807.674010,444.123565,-10214.842000,-229.828649
807.674334,2072.576638,-10584.944971,919.314598
807.674659,2072.576638,-9548.656652,1532.190996
807.674983,296.082377,-9622.677246,1532.190996
807.675307,-1184.329507,-9992.780217,1532.190996
807.675632,-2294.638420,-10436.903782,919.314598
807.675956,-2294.638420,-10510.924376,459.657299
807.676280,-148.041188,-10214.842000,0.000000
807.676605,1776.494261,-10288.862594,-1838.629195
807.676929,3404.947333,-10658.965565,-1149.143247
807.677253,2590.720797,-10436.903782,-2298.286494
807.677578,666.185348,-10288.862594,-2604.724693
807.677902,-1554.432478,-9992.780217,-2681.334243
807.678226,-2664.741391,-9992.780217,-2298.286494
807.678551,-1850.514855,-10881.027347,-1532.190996
807.678875,-444.123565,-10807.006753,-919.314598
807.679199,1184.329507,-10510.924376,0.000000
807.679523,2368.659014,-10288.862594,1225.752797
807.679848,666.185348,-9770.718434,1072.533697
807.680172,-1110.308913,-9622.677246,1608.800546
807.680496,-2368.659014,-9844.739029,1685.410096
807.680821,-2442.679609,-10881.027347,1915.238745
807.681145,-962.267725,-10584.944971,1378.971896
807.681469,1332.370696,-8956.491898,0.000000
807.681794,2368.659014,-8364.327145,-1302.362347
807.682118,2368.659014,-9474.636058,-1532.190996
807.682442,1702.473667,-10140.821405,-2604.724693
807.682766,-444.123565,-9844.739029,-2374.896044
807.683090,-2812.782580,-9622.677246,-1378.971896
807.683414,-3182.885551,-9696.697840,-2221.676944
807.683738,-1998.556043,-9622.677246,-766.095498
807.684063,-370.102971,-9548.656652,153.219100
807.684387,1776.494261,-9030.512492,1915.238745
807.684711,2664.741391,-9252.574275,2528.115143
807.685035,1924.535449,-8660.409521,3217.601092
807.685359,-666.185348,-8068.244768,3447.429741
807.685683,-1998.556043,-8734.430116,3064.381992
807.686008,-2368.659014,-9474.636058,2681.334243
807.686332,-1258.350101,-9030.512492,1991.848295
807.686656,1036.288319,-7105.977043,-229.828649
807.686980,2072.576638,-6957.935855,-1302.362347
807.687304,1036.288319,-8364.327145,-1915.238745
807.687628,592.164754,-9400.615463,-2068.457845
807.687953,-740.205942,-9326.594869,-1532.190996
807.688277,-2664.741391,-9030.512492,-459.657299
807.688601,-3108.864956,-9326.594869,-612.876398
807.688925,-1702.473667,-10066.800811,0.000000
807.689249,740.205942,-9770.718434,919.314598
807.689573,3108.864956,-10362.883188,2451.505594
807.689898,3627.009116,-10288.862594,2987.772442
807.690222,1332.370696,-10214.842000,3217.601092
807.690546,-518.144159,-9770.718434,3524.039291
807.690870,-1554.432478,-10362.883188,2834.553343
807.691194,-1850.514855,-10658.965565,1378.971896
807.691518,-814.226536,-9992.780217,-1149.143247
807.691842,296.082377,-9104.533087,-1532.190996
807.692167,1480.411884,-9992.780217,-1762.019645
807.692491,2368.659014,-10881.027347,-2834.553343
807.692815,740.205942,-10436.903782,-2834.553343
807.693139,-1554.432478,-10066.800811,-1915.238745
807.693463,-1998.556043,-10362.883188,-2145.067394
807.693787,-2294.638420,-10955.047942,-1685.410096
807.694112,-444.123565,-10584.944971,-229.828649
807.694436,2294.638420,-10140.821405,919.314598
807.694760,4293.194464,-10658.965565,1838.629195
807.695084,2812.782580,-10732.986159,2451.505594
807.695408,296.082377,-9696.697840,2681.334243
807.695732,-1480.411884,-9622.677246,2298.286494
807.696057,-2146.597232,-10066.800811,1149.143247
807.696381,-1480.411884,-9474.636058,0.000000
807.696705,444.123565,-8660.409521,-1685.410096
807.697029,1184.329507,-8586.388927,-2145.067394
807.697353,1554.432478,-9474.636058,-2834.553343
807.697677,740.205942,-9326.594869,-3064.381992
807.698002,-888.247130,-8882.471304,-2374.896044
807.698326,-2812.782580,-8956.491898,-2298.286494
807.698650,-3330.926739,-9474.636058,-1762.019645
807.698974,-2368.659014,-9400.615463,-459.657299
807.699298,0.000000,-9696.697840,689.485948
807.699622,1702.473667,-9474.636058,1302.362347
807.699946,1406.391290,-8882.471304,1838.629195
807.700271,148.041188,-8586.388927,2298.286494
807.700595,-1258.350101,-9400.615463,2298.286494
807.700919,-1776.494261,-10362.883188,2145.067394
807.701243,-1036.288319,-10214.842000,1915.238745
807.701567,592.164754,-8882.471304,1455.581446
807.701891,2960.823768,-7179.997637,919.314598
807.702216,3330.926739,-5403.503377,-2757.943793
807.702540,814.226536,-7105.977043,-2987.772442
807.702864,-1184.329507,-10510.924376,-2604.724693
807.703188,-1110.308913,-11843.295072,-3600.648841
807.703512,-2146.597232,-10881.027347,-1838.629195
807.703836,-3701.029710,-9178.553681,-383.047749
807.704161,-1332.370696,-9474.636058,-1072.533697
807.704485,74.020594,-10584.944971,-842.705048
807.704809,1480.411884,-10140.821405,995.924147
807.705133,2886.803174,-9844.739029,2451.505594
807.705457,2960.823768,-10288.862594,2145.067394
807.705781,1110.308913,-10288.862594,2911.162892
807.706105,74.020594,-9918.759623,2681.334243
807.706430,148.041188,-10436.903782,919.314598
807.706754,-592.164754,-10288.862594,-1685.410096
807.707078,-1184.329507,-10066.800811,-2987.772442
807.707402,-518.144159,-10510.924376,-2757.943793
807.707726,888.247130,-11399.171507,-3600.648841
807.708050,-296.082377,-11251.130318,-3064.381992
807.708375,-2738.761985,-10584.944971,-1608.800546
807.708699,-2738.761985,-9992.780217,-1991.848295
807.709023,-2368.659014,-10732.986159,-1378.971896
807.709347,-1258.350101,-10436.903782,536.266849
807.709671,1628.453072,-9992.780217,2068.457845
807.709995,3552.988522,-9918.759623,2068.457845
807.710320,2146.597232,-10066.800811,2604.724693
807.710644,-592.164754,-9622.677246,3064.381992
807.710968,-962.267725,-9548.656652,2604.724693
807.711292,-518.144159,-9696.697840,2068.457845
807.711616,222.061783,-9770.718434,1608.800546
807.711940,1998.556043,-7328.038826,-689.485948
807.712265,2294.638420,-7328.038826,-2528.115143
807.712589,888.247130,-9474.636058,-1608.800546
807.712913,222.061783,-10362.883188,-2451.505594
807.713237,-1110.308913,-9474.636058,-1915.238745
807.713561,-3108.864956,-8586.388927,-995.924147
807.713885,-3034.844362,-7846.182985,-766.095498
807.714209,-1406.391290,-8512.368333,-153.219100
807.714534,1406.391290,-9030.512492,995.924147
807.714858,2960.823768,-9326.594869,2451.505594
807.715182,3108.864956,-9474.636058,2528.115143
807.715506,1184.329507,-8808.450710,3217.601092
807.715830,-666.185348,-8438.347739,3753.867940
807.716154,-1406.391290,-9622.677246,2221.676944
807.716479,-1776.494261,-10288.862594,1149.143247
807.716803,-740.205942,-9622.677246,-689.485948
807.717127,666.185348,-9326.594869,-1302.362347
807.717451,1554.432478,-10066.800811,-1608.800546
807.717775,1258.350101,-9918.759623,-2298.286494
807.718099,-444.123565,-9326.594869,-1762.019645
807.718424,-1850.514855,-9474.636058,-1838.629195
807.718748,-2442.679609,-9400.615463,-1838.629195
807.719072,-2220.617826,-9104.533087,-919.314598
807.719396,444.123565,-9474.636058,919.314598
807.719720,2664.741391,-10066.800811,2298.286494
807.720044,3330.926739,-10362.883188,2145.067394
807.720369,1184.329507,-9696.697840,2145.067394
807.720693,-1332.370696,-9252.574275,2451.505594
807.721017,-2368.659014,-10510.924376,1685.410096
807.721341,-2220.617826,-10658.965565,1455.581446
807.721665,-1332.370696,-9474.636058,-229.828649
807.721989,666.185348,-9030.512492,-1762.019645
807.722313,1406.391290,-9696.697840,-2451.505594
807.722638,1628.453072,-10732.986159,-3294.210641
807.722962,518.144159,-10436.903782,-3830.477490
807.723286,-1406.391290,-10288.862594,-3294.210641
807.723610,-2590.720797,-10214.842000,-2528.115143
807.723934,-1998.556043,-10881.027347,-2451.505594
807.724258,-296.082377,-10807.006753,-766.095498
807.724583,2146.597232,-10955.047942,459.657299
807.724907,3775.050304,-11399.171507,1302.362347
807.725231,3034.844362,-11177.109724,1838.629195
807.725555,1110.308913,-10140.821405,1991.848295
807.725879,0.000000,-9622.677246,1838.629195
807.726203,-1480.411884,-9770.718434,1149.143247
807.726528,-2146.597232,-9918.759623,-459.657299
807.726852,-1332.370696,-9474.636058,-1915.238745
807.727176,444.123565,-9474.636058,-2374.896044
807.727500,1628.453072,-9474.636058,-2834.553343
807.727824,1406.391290,-9252.574275,-2911.162892
807.728148,222.061783,-8734.430116,-2374.896044
807.728473,-962.267725,-8882.471304,-2298.286494
807.728797,-1850.514855,-9474.636058,-1915.238745
807.729121,-1184.329507,-9474.636058,76.609550
807.729445,962.267725,-9844.739029,1532.190996
807.729769,2738.761985,-10066.800811,2068.457845
807.730093,2368.659014,-9474.636058,2451.505594
807.730417,592.164754,-9326.594869,2528.115143
807.730742,-1480.411884,-9696.697840,2221.676944
807.731066,-2960.823768,-10436.903782,2374.896044
807.731390,-3404.947333,-9844.739029,1532.190996
807.731714,-2072.576638,-8734.430116,1685.410096
807.732038,-222.061783,-7105.977043,-919.314598
807.732362,370.102971,-7402.059420,-2451.505594
807.732687,74.020594,-9104.533087,-1991.848295
807.733011,74.020594,-9918.759623,-2451.505594
807.733335,-592.164754,-9770.718434,-2374.896044
807.733659,-2146.597232,-8808.450710,-153.219100
807.733983,-2368.659014,-8808.450710,0.000000
807.734307,-888.247130,-10214.842000,-306.438199
807.734632,666.185348,-10881.027347,1225.752797
807.734956,2886.803174,-10510.924376,2757.943793
807.735280,3552.988522,-9696.697840,3447.429741
807.735604,1702.473667,-9252.574275,3294.210641
807.735928,-888.247130,-9178.553681,3830.477490
807.736252,-2664.741391,-9400.615463,2604.724693
807.736577,-2812.782580,-9770.718434,1302.362347
807.736901,-1998.556043,-9178.553681,-383.047749
807.737225,-740.205942,-8734.430116,-1225.752797
807.737549,1258.350101,-9326.594869,-1378.971896
807.737873,2072.576638,-10140.821405,-2145.067394
807.738197,740.205942,-9696.697840,-1838.629195
807.738521,-740.205942,-9474.636058,-1302.362347
807.738846,-2368.659014,-9326.594869,-1532.190996
807.739170,-1480.411884,-9770.718434,-689.485948
807.739494,814.226536,-10658.965565,1378.971896
807.739818,3701.029710,-11177.109724,2298.286494
807.740142,4515.256246,-10732.986159,2757.943793
807.740466,2516.700203,-10510.924376,3064.381992
807.740791,0.000000,-9252.574275,2834.553343
807.741115,-1776.494261,-9474.636058,2528.115143
807.741439,-2812.782580,-10214.842000,1149.143247
807.741763,-2368.659014,-9696.697840,-229.828649
807.742087,-1184.329507,-9252.574275,-1838.629195
807.742411,740.205942,-9622.677246,-2068.457845
807.742736,1776.494261,-9770.718434,-2757.943793
807.743060,1480.411884,-9474.636058,-2834.553343
807.743384,-222.061783,-8660.409521,-2451.505594
807.743708,-1258.350101,-9252.574275,-1608.800546
807.744032,-1924.535449,-9474.636058,-1915.238745
807.744356,-296.082377,-9844.739029,-689.485948
807.744681,1702.473667,-9918.759623,459.657299
807.745005,3330.926739,-10436.903782,1225.752797
807.745329,3330.926739,-10362.883188,1762.019645
807.745653,2146.597232,-9548.656652,2298.286494
807.745977,0.000000,-8882.471304,2451.505594
807.746301,-2072.576638,-9474.636058,995.924147
807.746625,-2220.617826,-9252.574275,-306.438199
807.746950,-1702.473667,-8364.327145,-2068.457845
807.747274,-222.061783,-8216.285956,-2757.943793
807.747598,1036.288319,-8586.388927,-3600.648841
807.747922,1480.411884,-8882.471304,-4213.525239
807.748246,370.102971,-8808.450710,-3907.087040
807.748570,-1406.391290,-9030.512492,-3294.210641
807.748895,-1480.411884,-9770.718434,-2451.505594
807.749219,-1332.370696,-10066.800811,-1762.019645
807.749543,0.000000,-10955.047942,-383.047749
807.749867,2220.617826,-11843.295072,383.047749
807.750191,3108.864956,-11621.233289,1149.143247
807.750515,2220.617826,-10955.047942,2221.676944
807.750840,-148.041188,-10214.842000,1608.800546
807.751164,-2146.597232,-10732.986159,1532.190996
807.751488,-2664.741391,-11177.109724,1455.581446
807.751812,-2442.679609,-10510.924376,-153.219100
807.752136,-814.226536,-8956.491898,-1991.848295
807.752460,296.082377,-8364.327145,-2911.162892
807.752785,1036.288319,-9400.615463,-2987.772442
807.753109,1406.391290,-10066.800811,-3753.867940
807.753433,74.020594,-9474.636058,-2834.553343
807.753757,-1332.370696,-9770.718434,-1608.800546
807.754081,-1258.350101,-10140.821405,-1378.971896
807.754405,-740.205942,-10732.986159,0.000000
807.754729,592.164754,-10732.986159,1455.581446
807.755054,2664.741391,-11029.068536,2298.286494
807.755378,3256.906145,-10955.047942,2681.334243
807.755702,1998.556043,-9844.739029,3064.381992
807.756026,-222.061783,-9400.615463,3294.210641
807.756350,-1628.453072,-9474.636058,3140.991542
807.756674,-2294.638420,-9622.677246,2451.505594
807.756999,-2146.597232,-8660.409521,689.485948
807.757323,-962.267725,-6883.915261,-995.924147
807.757647,-148.041188,-7994.224174,-1225.752797
807.757971,148.041188,-9252.574275,-1532.190996
807.758295,296.082377,-9178.553681,-1762.019645
807.758619,-1110.308913,-9030.512492,-842.705048
807.758944,-2590.720797,-8290.306550,229.828649
807.759268,-2294.638420,-9030.512492,459.657299
807.759592,-740.205942,-9400.615463,1302.362347
807.759916,1406.391290,-9474.636058,2451.505594
807.760240,2812.782580,-9400.615463,2987.772442
807.760564,2442.679609,-9474.636058,3294.210641
807.760888,740.205942,-9326.594869,4136.915689
807.761213,-1406.391290,-9178.553681,3600.648841
807.761537,-3108.864956,-9844.739029,2911.162892
807.761861,-2886.803174,-9622.677246,2145.067394
807.762185,-1924.535449,-9178.553681,842.705048
807.762509,592.164754,-7698.141797,-842.705048
807.762833,1702.473667,-8364.327145,-1225.752797
807.763158,1036.288319,-9844.739029,-1149.143247
807.763482,444.123565,-9696.697840,-1302.362347
807.763806,-888.247130,-10066.800811,-1225.752797
807.764130,-2664.741391,-9474.636058,-842.705048
807.764454,-1924.535449,-9844.739029,-766.095498
807.764778,0.000000,-10732.986159,-306.438199
807.765103,2368.659014,-10807.006753,842.705048
807.765427,3849.070898,-10881.027347,1608.800546
807.765751,3404.947333,-10584.944971,1915.238745
807.766075,1850.514855,-9844.739029,2528.115143
807.766399,0.000000,-9844.739029,2068.457845
807.766723,-1850.514855,-10066.800811,459.657299
807.767048,-2368.659014,-10214.842000,-1225.752797
807.767372,-1036.288319,-10584.944971,-1762.019645
807.767696,1258.350101,-10066.800811,-2374.896044
807.768020,2442.679609,-9622.677246,-2604.724693
807.768344,1702.473667,-9030.512492,-2374.896044
807.768668,-296.082377,-8808.450710,-3064.381992
807.768992,-1258.350101,-9326.594869,-3064.381992
807.769317,-1776.494261,-9104.533087,-2604.724693
807.769641,-888.247130,-10140.821405,-1455.581446
807.769965,1184.329507,-10584.944971,-306.438199
807.770289,2664.741391,-10288.862594,459.657299
807.770613,2442.679609,-10214.842000,919.314598
807.770937,296.082377,-9770.718434,1225.752797
807.771262,-2220.617826,-9992.780217,1072.533697
807.771586,-3108.864956,-10732.986159,919.314598
807.771910,-3108.864956,-9918.759623,0.000000
807.772234,-1036.288319,-9474.636058,-1225.752797
807.772558,814.226536,-8956.491898,-1838.629195
807.772882,1850.514855,-9104.533087,-2451.505594
807.773207,1702.473667,-9400.615463,-2145.067394
807.773531,740.205942,-9474.636058,-2911.162892
807.773855,-740.205942,-9326.594869,-2911.162892
807.774179,-2072.576638,-8956.491898,-2298.286494
807.774503,-2072.576638,-9400.615463,-1915.238745
807.774827,-370.102971,-10288.862594,-1072.533697
807.775152,1480.411884,-10584.944971,229.828649
807.775476,2442.679609,-10066.800811,1302.362347
807.775800,2368.659014,-9548.656652,1762.019645
807.776124,444.123565,-9326.594869,1838.629195
807.776448,-1332.370696,-9474.636058,1991.848295
807.776772,-2294.638420,-10214.842000,153.219100
807.777096,-1850.514855,-10214.842000,0.000000
807.777421,-148.041188,-9770.718434,-306.438199
807.777745,1406.391290,-9474.636058,-919.314598
807.778069,2294.638420,-9844.739029,-1072.533697
807.778393,1406.391290,-9474.636058,-1455.581446
807.778717,-296.082377,-9696.697840,-1378.971896
807.779041,-1628.453072,-10140.821405,-1532.190996
807.779366,-2442.679609,-9844.739029,-995.924147
807.779690,-1628.453072,-9918.759623,0.000000
807.780014,296.082377,-9918.759623,919.314598
807.780338,1406.391290,-9992.780217,1455.581446
807.780662,1850.514855,-10066.800811,1838.629195
807.780986,370.102971,-9326.594869,2911.162892
807.781311,-1184.329507,-9326.594869,2528.115143
807.781635,-2590.720797,-9178.553681,2374.896044
807.781959,-3182.885551,-9548.656652,1608.800546
807.782283,-1628.453072,-9474.636058,459.657299
807.782607,296.082377,-9474.636058,0.000000
807.782931,1924.535449,-9622.677246,-612.876398
807.783256,2146.597232,-9474.636058,-919.314598
807.783580,1184.329507,-9474.636058,-842.705048
807.783904,-444.123565,-9474.636058,-995.924147
807.784228,-1554.432478,-9252.574275,-766.095498
807.784552,-1776.494261,-9400.615463,-306.438199
807.784876,-666.185348,-9844.739029,383.047749
807.785201,1480.411884,-9918.759623,1225.752797
807.785525,2812.782580,-9622.677246,1685.410096
807.785849,2664.741391,-9474.636058,2604.724693
807.786173,814.226536,-9252.574275,2757.943793
807.786497,-1258.350101,-9474.636058,2298.286494
807.786821,-2590.720797,-9474.636058,1685.410096
807.787146,-2368.659014,-9474.636058,842.705048
807.787470,-370.102971,-9696.697840,153.219100
807.787794,1628.453072,-9844.739029,-766.095498
807.788118,2738.761985,-9400.615463,-919.314598
807.788442,1850.514855,-9030.512492,-1455.581446
807.788766,148.041188,-9474.636058,-1838.629195
807.789091,-1702.473667,-9400.615463,-1991.848295
807.789415,-2442.679609,-9474.636058,-1685.410096
807.789739,-1998.556043,-9770.718434,-919.314598
807.790063,0.000000,-10436.903782,-229.828649
807.790387,1776.494261,-10288.862594,383.047749
807.790711,2294.638420,-9696.697840,1072.533697
807.791036,1036.288319,-9548.656652,1608.800546
807.791360,-444.123565,-9474.636058,2068.457845
807.791684,-2368.659014,-10214.842000,1838.629195
807.792008,-2516.700203,-10288.862594,1225.752797
807.792332,-1406.391290,-10066.800811,76.609550
807.792656,518.144159,-9252.574275,-919.314598
807.792981,2220.617826,-9696.697840,-1762.019645
807.793305,2664.741391,-9474.636058,-2374.896044
807.793629,1850.514855,-9548.656652,-2298.286494
807.793953,-370.102971,-9474.636058,-2145.067394
807.794277,-2072.576638,-9696.697840,-2528.115143
807.794601,-2368.659014,-10066.800811,-2221.676944
807.794926,-1480.411884,-9918.759623,-1608.800546
807.795250,814.226536,-10140.821405,-229.828649
807.795574,2886.803174,-10584.944971,842.705048
807.795898,2960.823768,-10214.842000,1225.752797
807.796222,1258.350101,-9400.615463,1915.238745
807.796546,-814.226536,-9474.636058,2451.505594
807.796871,-2220.617826,-10140.821405,1378.971896
807.797195,-1998.556043,-10214.842000,612.876398
807.797519,0.000000,-9474.636058,-383.047749
807.797843,1332.370696,-9178.553681,-919.314598
807.798167,2072.576638,-9252.574275,-1762.019645
807.798491,1998.556043,-9548.656652,-2298.286494
807.798816,148.041188,-9474.636058,-2757.943793
807.799140,-1628.453072,-9252.574275,-2681.334243
807.799464,-2368.659014,-9474.636058,-2528.115143
807.799788,-2294.638420,-9474.636058,-1608.800546
807.800112,0.000000,-10362.883188,-383.047749
807.800436,1776.494261,-10658.965565,-229.828649
807.800761,3108.864956,-10732.986159,1225.752797
807.801085,2072.576638,-10066.800811,1991.848295
807.801409,-148.041188,-9474.636058,1915.238745
807.801733,-1702.473667,-9844.739029,1532.190996
807.802057,-2146.597232,-10436.903782,1455.581446
807.802381,-814.226536,-10140.821405,536.266849
807.802706,888.247130,-9326.594869,-536.266849
807.803030,1332.370696,-8586.388927,-1378.971896
807.803354,1480.411884,-9178.553681,-2221.676944
807.803678,1036.288319,-10288.862594,-3064.381992
807.804002,-518.144159,-10362.883188,-2528.115143
807.804326,-2368.659014,-9770.718434,-2221.676944
807.804651,-2812.782580,-9918.759623,-1685.410096
807.804975,-1480.411884,-10362.883188,-1072.533697
807.805299,296.082377,-10362.883188,306.438199
807.805623,2812.782580,-10140.821405,1838.629195
807.805947,3256.906145,-9770.718434,2145.067394
807.806271,1480.411884,-9844.739029,2451.505594
807.806596,-666.185348,-9252.574275,2528.115143
807.806920,-2072.576638,-9696.697840,2298.286494
807.807244,-2072.576638,-10140.821405,2451.505594
807.807568,-592.164754,-9474.636058,612.876398
807.807892,1184.329507,-7402.059420,-766.095498
807.808216,1480.411884,-7179.997637,-1915.238745
807.808541,592.164754,-9326.594869,-2068.457845
807.808865,0.000000,-10436.903782,-2681.334243
807.809189,-1850.514855,-9696.697840,-2298.286494
807.809513,-3627.009116,-9178.553681,-919.314598
807.809837,-3404.947333,-9326.594869,-995.924147
807.810161,-1110.308913,-10510.924376,0.000000
807.810486,1702.473667,-10066.800811,1532.190996
807.810810,3923.091493,-10288.862594,2528.115143
807.811134,3775.050304,-10214.842000,2834.553343
807.811458,1554.432478,-9474.636058,3217.601092
807.811782,-740.205942,-9326.594869,3447.429741
807.812106,-1850.514855,-9696.697840,2681.334243
807.812431,-1258.350101,-10362.883188,2068.457845
807.812755,-740.205942,-9030.512492,-229.828649
807.813079,296.082377,-7254.018232,-1915.238745
807.813403,518.144159,-8956.491898,-1915.238745
807.813727,740.205942,-10362.883188,-2757.943793
807.814051,148.041188,-9696.697840,-2911.162892
807.814376,-2220.617826,-9030.512492,-1149.143247
807.814700,-3330.926739,-8438.347739,-1455.581446
807.815024,-2812.782580,-9252.574275,-1455.581446
807.815348,-888.247130,-10066.800811,306.438199
807.815672,2738.761985,-9770.718434,2451.505594
807.815996,4441.235652,-10066.800811,2451.505594
807.816321,2886.803174,-10362.883188,2604.724693
807.816645,296.082377,-9400.615463,3140.991542
807.816969,-1036.288319,-9918.759623,2757.943793
807.817293,-1332.370696,-10955.047942,2145.067394
807.817617,-1110.308913,-10807.006753,229.828649
807.817941,0.000000,-8734.430116,-2298.286494
807.818266,740.205942,-8808.450710,-2374.896044
807.818590,1184.329507,-10584.944971,-3064.381992
807.818914,740.205942,-10658.965565,-3677.258390
807.819238,-962.267725,-9622.677246,-2681.334243
807.819562,-2516.700203,-9178.553681,-2298.286494
807.819886,-2072.576638,-9548.656652,-1915.238745
807.820211,-1110.308913,-10362.883188,-1685.410096
807.820535,1110.308913,-10584.944971,306.438199
807.820859,3849.070898,-10732.986159,1915.238745
807.821183,3701.029710,-10584.944971,1685.410096
807.821507,1554.432478,-9474.636058,2528.115143
807.821831,-666.185348,-9326.594869,2834.553343
807.822156,-1702.473667,-10436.903782,1072.533697
807.822480,-2146.597232,-10732.986159,76.609550
807.822804,-1184.329507,-8956.491898,-1991.848295
807.823128,370.102971,-7698.141797,-2604.724693
807.823452,1628.453072,-9622.677246,-2911.162892
807.823776,1702.473667,-9770.718434,-3907.087040
807.824101,148.041188,-8882.471304,-3447.429741
807.824425,-1702.473667,-8808.450710,-2834.553343
807.824749,-2294.638420,-9400.615463,-2757.943793
807.825073,-1702.473667,-9474.636058,-2068.457845
807.825397,148.041188,-9770.718434,0.000000
807.825721,2738.761985,-10881.027347,1302.362347
807.826046,3849.070898,-10955.047942,1302.362347
807.826370,1924.535449,-10658.965565,2374.896044
807.826694,-148.041188,-9696.697840,2298.286494
807.827018,-1480.411884,-10584.944971,1915.238745
807.827342,-3108.864956,-11325.150913,1455.581446
807.827666,-2442.679609,-10288.862594,383.047749
807.827991,-444.123565,-8142.265362,-766.095498
807.828315,1036.288319,-7920.203579,-2451.505594
807.828639,370.102971,-9178.553681,-2068.457845
807.828963,148.041188,-10066.800811,-2987.772442
807.829287,-370.102971,-9770.718434,-3064.381992
807.829611,-2516.700203,-9474.636058,-1532.190996
807.829936,-2664.741391,-9326.594869,-536.266849
807.830260,-1480.411884,-9844.739029,76.609550
807.830584,444.123565,-10436.903782,1532.190996
807.830908,2368.659014,-9992.780217,2834.553343
807.831232,2812.782580,-9918.759623,2604.724693
807.831557,1628.453072,-9770.718434,2911.162892
807.831881,-740.205942,-9326.594869,3600.648841
807.832205,-1924.535449,-9770.718434,3217.601092
807.832529,-2072.576638,-10140.821405,2145.067394
807.832853,-1702.473667,-9474.636058,1685.410096
807.833177,0.000000,-7179.997637,-612.876398
807.833502,1258.350101,-6735.874072,-2221.676944
807.833826,0.000000,-9104.533087,-1378.971896
807.834150,-296.082377,-10436.903782,-2145.067394
807.834474,-962.267725,-10436.903782,-1991.848295
807.834798,-3034.844362,-9178.553681,-306.438199
807.835122,-2590.720797,-9030.512492,-459.657299
807.835447,-1406.391290,-9844.739029,459.657299
807.835771,1036.288319,-10066.800811,1685.410096
807.836095,3256.906145,-9918.759623,2834.553343
807.836419,3627.009116,-9770.718434,3294.210641
807.836743,1924.535449,-9770.718434,3524.039291
807.837067,-518.144159,-9400.615463,3753.867940
807.837392,-1554.432478,-9622.677246,3140.991542
807.837716,-1554.432478,-9622.677246,1838.629195
807.838040,-370.102971,-9474.636058,-229.828649
807.838364,592.164754,-8734.430116,-1685.410096
807.838688,1924.535449,-9622.677246,-1532.190996
807.839012,2368.659014,-10140.821405,-2681.334243
807.839337,592.164754,-9252.574275,-2068.457845
807.839661,-1036.288319,-8956.491898,-1455.581446
807.839985,-2072.576638,-8512.368333,-1532.190996
807.840309,-2146.597232,-9400.615463,-995.924147
807.840633,148.041188,-10140.821405,1532.190996
807.840957,3552.988522,-10066.800811,2145.067394
807.841282,4293.194464,-10066.800811,2068.457845
807.841606,2294.638420,-9918.759623,2604.724693
807.841930,296.082377,-9400.615463,2987.772442
807.842254,-1332.370696,-10140.821405,2145.067394
807.842578,-2738.761985,-10881.027347,0.000000
807.842902,-2960.823768,-11029.068536,-919.314598
807.843227,-1406.391290,-9400.615463,-2757.943793
807.843551,666.185348,-9918.759623,-2911.162892
807.843875,1332.370696,-10140.821405,-3447.429741
807.844199,666.185348,-9770.718434,-3447.429741
807.844523,-444.123565,-9474.636058,-3140.991542
807.844847,-1850.514855,-9252.574275,-2987.772442
807.845172,-1924.535449,-9474.636058,-1838.629195
807.845496,74.020594,-9844.739029,-766.095498
807.845820,1924.535449,-10584.944971,536.266849
807.846144,2886.803174,-11103.089130,1149.143247
807.846468,2294.638420,-10140.821405,1532.190996
807.846792,74.020594,-9400.615463,1685.410096
807.847117,-1480.411884,-9548.656652,1378.971896
807.847441,-2442.679609,-10362.883188,842.705048
807.847765,-3034.844362,-9474.636058,-995.924147
807.848089,-1554.432478,-8734.430116,-2451.505594
807.848413,-148.041188,-9178.553681,-2451.505594
807.848737,1036.288319,-9992.780217,-2911.162892
807.849062,1776.494261,-9696.697840,-3600.648841
807.849386,370.102971,-9474.636058,-3064.381992
807.849710,-740.205942,-9474.636058,-2681.334243
807.850034,-962.267725,-9696.697840,-1838.629195
807.850358,296.082377,-10214.842000,-1302.362347
807.850682,1776.494261,-10584.944971,153.219100
807.851007,3034.844362,-10881.027347,995.924147
807.851331,2812.782580,-10436.903782,1302.362347
807.851655,1184.329507,-9770.718434,2298.286494
807.851979,-666.185348,-9548.656652,1915.238745
807.852303,-2368.659014,-9992.780217,995.924147
807.852627,-2960.823768,-9770.718434,383.047749
807.852952,-2294.638420,-9252.574275,-1302.362347
807.853276,-740.205942,-9252.574275,-1838.629195
807.853600,1258.350101,-9474.636058,-2374.896044
807.853924,1776.494261,-9474.636058,-2374.896044
807.854248,1480.411884,-9178.553681,-2451.505594
807.854572,666.185348,-8808.450710,-2451.505594
807.854897,-592.164754,-8808.450710,-1685.410096
807.855221,-592.164754,-9548.656652,-383.047749
807.855545,518.144159,-10436.903782,612.876398
807.855869,1998.556043,-10732.986159,1608.800546
807.856193,2072.576638,-10288.862594,2298.286494
807.856517,888.247130,-9844.739029,2604.724693
807.856842,-1036.288319,-9474.636058,1991.848295
807.857166,-2368.659014,-10066.800811,1915.238745
807.857490,-3923.091493,-9548.656652,1991.848295
807.857814,-3404.947333,-9104.533087,536.266849
807.858138,-2294.638420,-9178.553681,-229.828649
807.858462,-592.164754,-9548.656652,-612.876398
807.858787,888.247130,-9474.636058,-995.924147
807.859111,1258.350101,-9104.533087,-1072.533697
807.859435,370.102971,-8734.430116,-842.705048
807.859759,-1036.288319,-8734.430116,-842.705048
807.860083,-1702.473667,-8734.430116,-536.266849
807.860407,-814.226536,-9696.697840,766.095498
807.860732,518.144159,-10510.924376,1685.410096
807.861056,2146.597232,-10510.924376,2451.505594
807.861380,2368.659014,-10362.883188,3064.381992
807.861704,1110.308913,-9400.615463,2987.772442
807.862028,-962.267725,-9400.615463,2451.505594
807.862352,-3034.844362,-9474.636058,1685.410096
807.862677,-3478.967927,-9474.636058,1685.410096
807.863001,-2368.659014,-9326.594869,689.485948
807.863325,0.000000,-9104.533087,-459.657299
807.863649,1924.535449,-9474.636058,-383.047749
807.863973,2886.803174,-9400.615463,-1149.143247
807.864297,2812.782580,-9696.697840,-1225.752797
807.864622,296.082377,-9548.656652,-766.095498
807.864946,-740.205942,-9474.636058,-842.705048
807.865270,-1406.391290,-10362.883188,-689.485948
807.865594,-444.123565,-10732.986159,0.000000
807.865918,1110.308913,-10436.903782,1072.533697
807.866242,2960.823768,-10362.883188,1455.581446
807.866567,3034.844362,-10436.903782,2221.676944
807.866891,888.247130,-8734.430116,2834.553343
807.867215,-1036.288319,-9030.512492,1915.238745
807.867539,-2368.659014,-9400.615463,1072.533697
807.867863,-3182.885551,-9400.615463,0.000000
807.868187,-1776.494261,-9178.553681,-842.705048
807.868512,592.164754,-9474.636058,-1685.410096
807.868836,2368.659014,-9918.759623,-1762.019645
807.869160,2294.638420,-9844.739029,-1915.238745
807.869484,962.267725,-9400.615463,-2451.505594
807.869808,-1184.329507,-9104.533087,-2145.067394
807.870132,-2368.659014,-9548.656652,-2221.676944
807.870457,-2146.597232,-9844.739029,-1455.581446
807.870781,0.000000,-10288.862594,-306.438199
807.871105,2294.638420,-10658.965565,689.485948
807.871429,2442.679609,-9844.739029,1455.581446
807.871753,1406.391290,-9326.594869,1762.019645
807.872077,-296.082377,-9474.636058,1302.362347
807.872402,-2590.720797,-9252.574275,689.485948
807.872726,-3182.885551,-9474.636058,153.219100
807.873050,-2590.720797,-9252.574275,-842.705048
807.873374,-296.082377,-9400.615463,-1608.800546
807.873698,1998.556043,-9770.718434,-1915.238745
807.874022,3034.844362,-9474.636058,-2987.772442
807.874347,3108.864956,-9770.718434,-2834.553343
807.874671,592.164754,-9030.512492,-2987.772442
807.874995,-962.267725,-9400.615463,-2681.334243
807.875319,-1406.391290,-9844.739029,-2221.676944
807.875643,-1184.329507,-10436.903782,-1532.190996
807.875967,666.185348,-10584.944971,-459.657299
807.876292,2368.659014,-10066.800811,229.828649
807.876616,3478.967927,-10214.842000,459.657299
807.876940,1628.453072,-9622.677246,1455.581446
807.877264,-1184.329507,-9622.677246,995.924147
807.877588,-2960.823768,-10214.842000,153.219100
807.877912,-3923.091493,-10288.862594,-383.047749
807.878237,-2738.761985,-10066.800811,-1225.752797
807.878561,0.000000,-10140.821405,-1838.629195
807.878885,2072.576638,-10584.944971,-1915.238745
807.879209,2368.659014,-9992.780217,-2298.286494
807.879533,2220.617826,-9770.718434,-1838.629195
807.879857,296.082377,-10066.800811,-1838.629195
807.880182,-1036.288319,-9844.739029,-1532.190996
807.880506,-1480.411884,-10214.842000,-842.705048
807.880830,0.000000,-10732.986159,0.000000
807.881154,1554.432478,-10732.986159,1225.752797
807.881478,2220.617826,-9844.739029,536.266849
807.881802,1628.453072,-9548.656652,2451.505594
807.882127,0.000000,-9474.636058,2451.505594
807.882451,-1924.535449,-9548.656652,2145.067394
807.882775,-3108.864956,-9474.636058,1838.629195
807.883099,-2812.782580,-9178.553681,689.485948
807.883424,-1036.288319,-9474.636058,0.000000
807.883748,1036.288319,-9548.656652,0.000000
807.884072,2220.617826,-9474.636058,-536.266849
807.884397,2072.576638,-8882.471304,-306.438199
807.884721,296.082377,-9030.512492,-612.876398
807.885045,-1184.329507,-9030.512492,-229.828649
807.885370,-2146.597232,-9400.615463,76.609550
807.885694,-1258.350101,-9918.759623,766.095498
807.886018,-148.041188,-9844.739029,1915.238745
807.886342,1924.535449,-10140.821405,2298.286494
807.886667,1628.453072,-8512.368333,2987.772442
807.886991,1036.288319,-8660.409521,3370.820191
807.887315,-814.226536,-8734.430116,3447.429741
807.887640,-2516.700203,-9104.533087,2757.943793
807.887964,-3330.926739,-9030.512492,2068.457845
807.888288,-2590.720797,-8438.347739,766.095498
807.888613,-666.185348,-8438.347739,-612.876398
807.888937,888.247130,-8734.430116,-229.828649
807.889261,2294.638420,-9326.594869,-1149.143247
807.889585,1258.350101,-9326.594869,-766.095498
807.889910,0.000000,-9400.615463,-689.485948
807.890234,-1406.391290,-9252.574275,-612.876398
807.890558,-1924.535449,-9548.656652,-229.828649
807.890883,-1184.329507,-9844.739029,153.219100
807.891207,148.041188,-10584.944971,536.266849
807.891531,1480.411884,-10140.821405,1378.971896
807.891856,1998.556043,-10362.883188,2145.067394
807.892180,888.247130,-10140.821405,2451.505594
807.892504,-444.123565,-10066.800811,2068.457845
807.892828,-1850.514855,-10066.800811,842.705048
807.893153,-2368.659014,-9992.780217,0.000000
807.893477,-740.205942,-10881.027347,-995.924147
807.893801,1332.370696,-10658.965565,-1762.019645
807.894126,2516.700203,-10288.862594,-1991.848295
807.894450,2812.782580,-9992.780217,-2374.896044
807.894774,1924.535449,-10140.821405,-2221.676944
807.895099,518.144159,-10288.862594,-2604.724693
807.895423,-814.226536,-10510.924376,-2221.676944
807.895747,-740.205942,-10140.821405,-1149.143247
807.896071,1110.308913,-10658.965565,-995.924147
807.896396,2738.761985,-10510.924376,-306.438199
807.896720,3256.906145,-9918.759623,842.705048
807.897044,2368.659014,-9474.636058,1302.362347
807.897369,592.164754,-9474.636058,1532.190996
807.897693,-1554.432478,-10140.821405,1225.752797
807.898017,-2960.823768,-9844.739029,383.047749
807.898342,-2368.659014,-9252.574275,-306.438199
807.898666,-666.185348,-8586.388927,-1149.143247
807.898990,592.164754,-8956.491898,-1991.848295
807.899314,1406.391290,-9474.636058,-2451.505594
807.899639,1110.308913,-8956.491898,-2298.286494
807.899963,-222.061783,-8734.430116,-2451.505594
807.900287,-1480.411884,-8364.327145,-2221.676944
807.900612,-2442.679609,-8512.368333,-1608.800546
807.900936,-1480.411884,-8882.471304,-1072.533697
807.901260,-148.041188,-10066.800811,306.438199
807.901585,1110.308913,-9992.780217,766.095498
807.901909,1332.370696,-9474.636058,1532.190996
807.902233,0.000000,-9178.553681,1838.629195
807.902557,-1850.514855,-9326.594869,1532.190996
807.902882,-3256.906145,-9622.677246,612.876398
807.903206,-2664.741391,-10140.821405,229.828649
807.903530,-1332.370696,-9252.574275,0.000000
807.903855,148.041188,-8808.450710,-1072.533697
807.904179,1332.370696,-9178.553681,-2221.676944
807.904503,2072.576638,-9474.636058,-2145.067394
807.904828,1406.391290,-9918.759623,-2681.334243
807.905152,74.020594,-9696.697840,-2451.505594
807.905476,-1036.288319,-9474.636058,-1608.800546
807.905800,-1184.329507,-10362.883188,-1532.190996
807.906125,-148.041188,-10658.965565,-459.657299
807.906449,1406.391290,-11029.068536,612.876398
807.906773,2590.720797,-11177.109724,1378.971896
807.907098,2146.597232,-10658.965565,1838.629195
807.907422,296.082377,-10140.821405,2298.286494
807.907746,-1850.514855,-9918.759623,1838.629195
807.908071,-2738.761985,-9992.780217,1072.533697
807.908395,-2294.638420,-10288.862594,612.876398
807.908719,-518.144159,-10140.821405,-306.438199
807.909043,1258.350101,-9770.718434,-1072.533697
807.909368,2368.659014,-9770.718434,-1532.190996
807.909692,2220.617826,-9844.739029,-1685.410096
807.910016,740.205942,-10214.842000,-1991.848295
807.910341,-1110.308913,-10066.800811,-1532.190996
807.910665,-2442.679609,-9622.677246,-1378.971896
807.910989,-1480.411884,-9844.739029,0.000000
807.911314,518.144159,-10436.903782,995.924147
807.911638,2294.638420,-10510.924376,1838.629195
807.911962,2368.659014,-9918.759623,2604.724693
807.912286,1036.288319,-9400.615463,3294.210641
807.912611,-666.185348,-9104.533087,2987.772442
807.912935,-2812.782580,-8956.491898,2528.115143
807.913259,-3108.864956,-9252.574275,1838.629195
807.913584,-1776.494261,-8660.409521,383.047749
807.913908,222.061783,-8290.306550,0.000000
807.914232,1998.556043,-8734.430116,-229.828649
807.914557,2368.659014,-8956.491898,-1302.362347
807.914881,1776.494261,-8512.368333,-1302.362347
807.915205,-370.102971,-8216.285956,-1225.752797
807.915530,-1998.556043,-8364.327145,-1072.533697
807.915854,-2738.761985,-8808.450710,-689.485948
807.916178,-1258.350101,-9400.615463,153.219100
807.916502,1036.288319,-9696.697840,1302.362347
807.916827,2886.803174,-9622.677246,1915.238745
807.917151,2516.700203,-9400.615463,2451.505594
807.917475,1036.288319,-8660.409521,2834.553343
807.917800,-1480.411884,-8956.491898,2604.724693
807.918124,-2812.782580,-10066.800811,1838.629195
807.918448,-3701.029710,-9770.718434,306.438199
807.918773,-1924.535449,-9474.636058,-1149.143247
807.919097,296.082377,-10214.842000,-1915.238745
807.919421,2294.638420,-10584.944971,-2068.457845
807.919745,2664.741391,-10214.842000,-2451.505594
807.920070,1480.411884,-9474.636058,-2374.896044
807.920394,-888.247130,-9474.636058,-2374.896044
807.920718,-1702.473667,-10140.821405,-1685.410096
807.921043,-1406.391290,-10510.924376,-1685.410096
807.921367,518.144159,-10955.047942,-459.657299
807.921691,2368.659014,-11251.130318,689.485948
807.922016,3108.864956,-10955.047942,1149.143247
807.922340,1850.514855,-10214.842000,1838.629195
807.922664,444.123565,-9992.780217,2145.067394
807.922988,-2146.597232,-9918.759623,689.485948
807.923313,-3330.926739,-10362.883188,0.000000
807.923637,-2664.741391,-10288.862594,-1072.533697
807.923961,-518.144159,-10288.862594,-2221.676944
807.924286,1924.535449,-10362.883188,-2451.505594
807.924610,2516.700203,-9992.780217,-2834.553343
807.924934,2368.659014,-9992.780217,-2451.505594
807.925259,814.226536,-9844.739029,-2221.676944
807.925583,-962.267725,-9474.636058,-2757.943793
807.925907,-1480.411884,-9770.718434,-1838.629195
807.926231,-296.082377,-10362.883188,-459.657299
807.926556,1702.473667,-10807.006753,612.876398
807.926880,3256.906145,-9918.759623,1149.143247
807.927204,2812.782580,-9178.553681,2145.067394
807.927529,1184.329507,-8660.409521,2374.896044
807.927853,-1258.350101,-9030.512492,1838.629195
807.928177,-3034.844362,-9030.512492,1378.971896
807.928502,-3552.988522,-8882.471304,612.876398
807.928826,-2220.617826,-8586.388927,-153.219100
807.929150,-592.164754,-8586.388927,-1149.143247
807.929474,740.205942,-8068.244768,-1532.190996
807.929799,296.082377,-8216.285956,-1685.410096
807.930123,-222.061783,-8438.347739,-1762.019645
807.930447,-1332.370696,-8438.347739,-1455.581446
807.930772,-1850.514855,-8808.450710,-766.095498
807.931096,-1480.411884,-9252.574275,0.000000
807.931420,0.000000,-9992.780217,536.266849
807.931745,1554.432478,-10881.027347,1378.971896
807.932069,2664.741391,-10658.965565,2757.943793
807.932393,1924.535449,-9548.656652,2681.334243
807.932717,-222.061783,-9696.697840,2604.724693
807.933042,-2368.659014,-10214.842000,2145.067394
807.933366,-3034.844362,-10584.944971,1838.629195
807.933690,-2368.659014,-10140.821405,919.314598
807.934015,-962.267725,-8734.430116,-766.095498
807.934339,148.041188,-8438.347739,-1685.410096
807.934663,888.247130,-9844.739029,-1685.410096
807.934988,1406.391290,-10140.821405,-2451.505594
807.935312,74.020594,-9992.780217,-1762.019645
807.935636,-1184.329507,-9844.739029,-1072.533697
807.935960,-888.247130,-10288.862594,-1072.533697
807.936285,-222.061783,-10658.965565,-383.047749
807.936609,1776.494261,-10881.027347,1532.190996
807.936933,3775.050304,-10658.965565,1915.238745
807.937258,4737.318029,-10807.006753,2528.115143
807.937582,2738.761985,-10510.924376,3370.820191
807.937906,444.123565,-9918.759623,3217.601092
807.938231,-1406.391290,-10066.800811,2374.896044
807.938555,-3256.906145,-9696.697840,612.876398
807.938879,-3034.844362,-9548.656652,0.000000
807.939203,-1332.370696,-9622.677246,-1072.533697
807.939528,962.267725,-9326.594869,-1762.019645
807.939852,1554.432478,-8956.491898,-1762.019645
807.940176,666.185348,-8586.388927,-1455.581446
807.940501,-592.164754,-8882.471304,-1838.629195
807.940825,-1702.473667,-9474.636058,-1302.362347
807.941149,-1554.432478,-9696.697840,0.000000
807.941474,148.041188,-9992.780217,1149.143247
807.941798,2516.700203,-10807.006753,2451.505594
807.942122,3108.864956,-10732.986159,2298.286494
807.942446,2442.679609,-9548.656652,3294.210641
807.942771,666.185348,-9474.636058,2834.553343
807.943095,-1628.453072,-9548.656652,2145.067394
807.943419,-3478.967927,-9326.594869,1455.581446
807.943744,-3552.988522,-8216.285956,-229.828649
807.944068,-2146.597232,-7772.162391,-1532.190996
807.944392,-296.082377,-8068.244768,-1685.410096
807.944717,1258.350101,-8438.347739,-2757.943793
807.945041,1110.308913,-8586.388927,-2374.896044
807.945365,148.041188,-8364.327145,-2221.676944
807.945690,-814.226536,-8512.368333,-1225.752797
807.946014,-1110.308913,-9104.533087,-1149.143247
807.946338,0.000000,-9696.697840,-229.828649
807.946662,1850.514855,-10955.047942,1072.533697
807.946987,3552.988522,-10955.047942,1455.581446
807.947311,4367.215058,-10510.924376,2451.505594
807.947635,2664.741391,-9770.718434,2451.505594
807.947960,444.123565,-9622.677246,1915.238745
807.948284,-2220.617826,-9992.780217,689.485948
807.948608,-3552.988522,-10214.842000,-383.047749
807.948933,-2960.823768,-10140.821405,-1532.190996
807.949257,-1110.308913,-10066.800811,-2451.505594
807.949581,444.123565,-9474.636058,-2987.772442
807.949905,1258.350101,-9474.636058,-2987.772442
807.950230,370.102971,-9844.739029,-2757.943793
807.950554,-592.164754,-10066.800811,-2604.724693
807.950878,-1480.411884,-10214.842000,-2145.067394
807.951203,-1406.391290,-10288.862594,-1225.752797
807.951527,148.041188,-11029.068536,0.000000
807.951851,2590.720797,-11695.253884,1225.752797
807.952176,3627.009116,-11843.295072,1762.019645
807.952500,2664.741391,-10881.027347,2451.505594
807.952824,814.226536,-10510.924376,1991.848295
807.953148,-1332.370696,-10214.842000,1455.581446
807.953473,-2886.803174,-9696.697840,1532.190996
807.953797,-2590.720797,-8956.491898,-306.438199
807.954121,-1850.514855,-8808.450710,-1838.629195
807.954446,-592.164754,-8956.491898,-2374.896044
807.954770,518.144159,-9104.533087,-2911.162892
807.955094,962.267725,-9030.512492,-3217.601092
807.955419,0.000000,-8808.450710,-2451.505594
807.955743,-1036.288319,-8586.388927,-1762.019645
807.956067,-1406.391290,-9326.594869,-1378.971896
807.956391,-592.164754,-10510.924376,-306.438199
807.956716,592.164754,-10140.821405,1532.190996
807.957040,2812.782580,-10584.944971,1532.190996
807.957364,3552.988522,-10436.903782,2681.334243
807.957689,2738.761985,-9992.780217,3294.210641
807.958013,888.247130,-9844.739029,3064.381992
807.958337,-1036.288319,-10658.965565,2298.286494
807.958662,-3108.864956,-9622.677246,1455.581446
807.958986,-2738.761985,-9104.533087,-459.657299
807.959310,-1702.473667,-8660.409521,-1072.533697
807.959634,-222.061783,-9400.615463,-2221.676944
807.959959,592.164754,-9178.553681,-2604.724693
807.960283,296.082377,-9030.512492,-2451.505594
807.960607,-962.267725,-8586.388927,-2145.067394
807.960932,-2220.617826,-8216.285956,-1532.190996
807.961256,-1628.453072,-9030.512492,-536.266849
807.961580,-518.144159,-9030.512492,229.828649
807.961905,1776.494261,-10140.821405,2374.896044
807.962229,3330.926739,-10510.924376,2604.724693
807.962553,3182.885551,-10140.821405,3140.991542
807.962877,1850.514855,-10066.800811,3524.039291
807.963202,-370.102971,-10288.862594,3524.039291
807.963526,-2072.576638,-10584.944971,2681.334243
807.963850,-3034.844362,-9844.739029,1455.581446
807.964175,-1184.329507,-8586.388927,-306.438199
807.964499,0.000000,-7994.224174,-1838.629195
807.964823,0.000000,-9474.636058,-1838.629195
807.965148,1406.391290,-10732.986159,-2834.553343
807.965472,1036.288319,-10066.800811,-2604.724693
807.965796,-740.205942,-8956.491898,-1455.581446
807.966120,-2072.576638,-9770.718434,-995.924147
807.966445,-1998.556043,-10362.883188,-995.924147
807.966769,0.000000,-10658.965565,766.095498
807.967093,2442.679609,-10807.006753,1991.848295
807.967418,4663.297435,-10584.944971,2757.943793
807.967742,4071.132681,-10362.883188,3600.648841
807.968066,2220.617826,-9474.636058,4136.915689
807.968391,148.041188,-9326.594869,3370.820191
807.968715,-2294.638420,-9474.636058,1991.848295
807.969039,-3552.988522,-8364.327145,-536.266849
807.969363,-2738.761985,-7994.224174,-1991.848295
807.969688,-814.226536,-8512.368333,-2451.505594
807.970012,1184.329507,-9474.636058,-2987.772442
807.970336,1332.370696,-9400.615463,-2834.553343
807.970661,0.000000,-9030.512492,-2451.505594
807.970985,-1406.391290,-8068.244768,-2221.676944
807.971309,-2368.659014,-8808.450710,-1608.800546
807.971634,-1332.370696,-9918.759623,76.609550
807.971958,888.247130,-10955.047942,1455.581446
807.972282,3034.844362,-11103.089130,2068.457845
807.972607,2738.761985,-10436.903782,2145.067394
807.972931,1184.329507,-10140.821405,2834.553343
807.973255,-1258.350101,-10288.862594,2298.286494
807.973579,-2960.823768,-10732.986159,1302.362347
807.973904,-3256.906145,-10362.883188,1149.143247
807.974228,-2664.741391,-8734.430116,-1302.362347
807.974552,-740.205942,-7994.224174,-2681.334243
807.974877,444.123565,-9104.533087,-2681.334243
807.975201,1924.535449,-10288.862594,-2681.334243
807.975525,1702.473667,-9992.780217,-3447.429741
807.975850,0.000000,-9252.574275,-2911.162892
807.976174,-1554.432478,-8734.430116,-1532.190996
807.976498,-1184.329507,-9622.677246,-1685.410096
807.976822,222.061783,-10658.965565,-536.266849
807.977147,2368.659014,-11029.068536,995.924147
807.977471,4071.132681,-10732.986159,1378.971896
807.977795,3775.050304,-10066.800811,1991.848295
807.978120,1924.535449,-9474.636058,2681.334243
807.978444,-666.185348,-9474.636058,2298.286494
807.978768,-3034.844362,-10140.821405,919.314598
807.979093,-3923.091493,-9918.759623,-919.314598
807.979417,-2960.823768,-9326.594869,-1915.238745
807.979741,-518.144159,-9474.636058,-2451.505594
807.980065,1702.473667,-9918.759623,-2528.115143
807.980390,1702.473667,-9992.780217,-2451.505594
807.980714,518.144159,-9400.615463,-1838.629195
807.981038,-1184.329507,-9326.594869,-2451.505594
807.981363,-1554.432478,-9400.615463,-1762.019645
807.981687,-962.267725,-9844.739029,0.000000
807.982011,962.267725,-10732.986159,1608.800546
807.982336,2516.700203,-10881.027347,2451.505594
807.982660,2368.659014,-10066.800811,2528.115143
807.982984,1184.329507,-9252.574275,3447.429741
807.983308,-222.061783,-9474.636058,3140.991542
807.983632,-2738.761985,-9622.677246,2451.505594
807.983957,-3627.009116,-9474.636058,1608.800546
807.984281,-2812.782580,-8438.347739,0.000000
807.984605,-1258.350101,-8142.265362,-766.095498
807.984929,222.061783,-8586.388927,-1302.362347
807.985253,1480.411884,-9030.512492,-2068.457845
807.985577,1332.370696,-9326.594869,-2298.286494
807.985901,-444.123565,-8438.347739,-1072.533697
807.986225,-1184.329507,-8512.368333,-842.705048
807.986550,-1628.453072,-9548.656652,-612.876398
807.986874,-444.123565,-10732.986159,766.095498
807.987198,1480.411884,-11029.068536,2068.457845
807.987522,3034.844362,-10955.047942,1991.848295
807.987846,3034.844362,-10288.862594,2987.772442
807.988170,1406.391290,-10066.800811,3370.820191
807.988494,-814.226536,-10214.842000,2528.115143
807.988818,-3404.947333,-10214.842000,2068.457845
807.989143,-4219.173869,-9548.656652,229.828649
807.989467,-2812.782580,-8882.471304,-1149.143247
807.989791,-740.205942,-9326.594869,-1838.629195
807.990115,1480.411884,-9400.615463,-1915.238745
807.990439,2368.659014,-9326.594869,-1915.238745
807.990763,1702.473667,-9178.553681,-1915.238745
807.991087,-666.185348,-8808.450710,-1608.800546
807.991411,-1480.411884,-9400.615463,-1838.629195
807.991736,-962.267725,-9474.636058,-689.485948
807.992060,1184.329507,-10658.965565,842.705048
807.992384,3182.885551,-11103.089130,1838.629195
807.992708,3923.091493,-10288.862594,2145.067394
807.993032,2738.761985,-9844.739029,2757.943793
807.993356,1036.288319,-9622.677246,2068.457845
807.993680,-1850.514855,-10066.800811,1838.629195
807.994004,-3997.112087,-9326.594869,612.876398
807.994329,-3182.885551,-9400.615463,-536.266849
807.994653,-1924.535449,-9326.594869,-1685.410096
807.994977,148.041188,-9252.574275,-2221.676944
807.995301,1776.494261,-9400.615463,-2757.943793
807.995625,1258.350101,-9474.636058,-2451.505594
807.995949,222.061783,-9474.636058,-1991.848295
807.996273,-592.164754,-8882.471304,-1455.581446
807.996597,-1036.288319,-9474.636058,-1225.752797
807.996922,0.000000,-10214.842000,-76.609550
807.997246,2072.576638,-10881.027347,842.705048
807.997570,3404.947333,-10955.047942,1532.190996
807.997894,3108.864956,-10288.862594,1915.238745
807.998218,1332.370696,-8956.491898,2528.115143
807.998542,-1480.411884,-9326.594869,2374.896044
807.998866,-3256.906145,-9548.656652,1302.362347
807.999190,-3701.029710,-9474.636058,-383.047749
807.999515,-2886.803174,-9104.533087,-766.095498
807.999839,-666.185348,-9400.615463,-1685.410096
808.000163,1110.308913,-9400.615463,-1915.238745
808.000487,1480.411884,-9622.677246,-1915.238745
808.000811,740.205942,-8882.471304,-1685.410096
808.001135,-1258.350101,-8734.430116,-2298.286494
808.001459,-1480.411884,-9252.574275,-1302.362347
808.001783,-1554.432478,-9548.656652,-842.705048
808.002108,0.000000,-10362.883188,229.828649
808.002432,1776.494261,-10510.924376,1225.752797
808.002756,2738.761985,-10066.800811,1455.581446
808.003080,2146.597232,-9696.697840,1762.019645
808.003404,0.000000,-9770.718434,2374.896044
808.003728,-2146.597232,-9844.739029,1838.629195
808.004052,-3330.926739,-9696.697840,1149.143247
808.004376,-3404.947333,-9474.636058,229.828649
808.004701,-1628.453072,-9252.574275,-766.095498
808.005025,222.061783,-9400.615463,-1532.190996
808.005349,1332.370696,-9326.594869,-1915.238745
808.005673,2072.576638,-9252.574275,-1991.848295
808.005997,444.123565,-9178.553681,-2068.457845
808.006321,-518.144159,-9326.594869,-1302.362347
808.006645,-1110.308913,-9696.697840,-1072.533697
808.006969,-666.185348,-10288.862594,-459.657299
808.007294,666.185348,-10881.027347,306.438199
808.007618,2368.659014,-11029.068536,995.924147
808.007942,3182.885551,-10732.986159,1608.800546
808.008266,2368.659014,-9992.780217,2911.162892
808.008590,148.041188,-10362.883188,2374.896044
808.008914,-1554.432478,-10362.883188,1991.848295
808.009238,-3108.864956,-10066.800811,842.705048
808.009563,-2294.638420,-9696.697840,0.000000
808.009887,-592.164754,-9326.594869,-1225.752797
808.010211,888.247130,-9252.574275,-1532.190996
808.010535,1184.329507,-9178.553681,-1838.629195
808.010859,518.144159,-8956.491898,-1762.019645
808.011183,-666.185348,-8364.327145,-1532.190996
808.011507,-1776.494261,-8808.450710,-1378.971896
808.011831,-1628.453072,-9622.677246,-919.314598
808.012156,-666.185348,-9918.759623,306.438199
808.012480,1258.350101,-10362.883188,1225.752797
808.012804,2664.741391,-10140.821405,2374.896044
808.013128,2516.700203,-9770.718434,2757.943793
808.013452,740.205942,-9770.718434,3217.601092
808.013776,-1258.350101,-10288.862594,2834.553343
808.014100,-3256.906145,-10288.862594,2145.067394
808.014424,-3256.906145,-9770.718434,1149.143247
808.014749,-1702.473667,-8956.491898,-153.219100
808.015073,0.000000,-8142.265362,-1455.581446
808.015397,1628.453072,-8586.388927,-1532.190996
808.015721,1924.535449,-8808.450710,-2298.286494
808.016045,1110.308913,-9252.574275,-1915.238745
808.016369,-888.247130,-9178.553681,-1225.752797
808.016693,-1924.535449,-9030.512492,-1455.581446
808.017017,-1480.411884,-9696.697840,-842.705048
808.017342,0.000000,-10436.903782,76.609550
808.017666,2368.659014,-10288.862594,1455.581446
808.017990,4071.132681,-10066.800811,2068.457845
808.018314,3108.864956,-9548.656652,2604.724693
808.018638,962.267725,-9696.697840,2451.505594
808.018962,-1184.329507,-9770.718434,1915.238745
808.019286,-2738.761985,-9622.677246,766.095498
808.019610,-2738.761985,-9696.697840,-612.876398
808.019935,-1332.370696,-9770.718434,-1149.143247
808.020259,888.247130,-10066.800811,-2298.286494
808.020583,2072.576638,-10140.821405,-1991.848295
808.020907,1406.391290,-9696.697840,-2374.896044
808.021231,0.000000,-9474.636058,-2374.896044
808.021555,-1702.473667,-9474.636058,-2604.724693
808.021879,-2220.617826,-9770.718434,-1991.848295
808.022203,-1036.288319,-10510.924376,-995.924147
808.022528,814.226536,-10807.006753,0.000000
808.022852,2886.803174,-10584.944971,1302.362347
808.023176,3034.844362,-9622.677246,1915.238745
808.023500,1924.535449,-9918.759623,1915.238745
808.023824,-518.144159,-10066.800811,1915.238745
808.024148,-2294.638420,-10288.862594,1302.362347
808.024472,-2812.782580,-10214.842000,689.485948
808.024796,-1628.453072,-9548.656652,-459.657299
808.025121,74.020594,-9474.636058,-1685.410096
808.025445,1554.432478,-9400.615463,-1532.190996
808.025769,1702.473667,-9252.574275,-2145.067394
808.026093,1184.329507,-9696.697840,-2451.505594
808.026417,-148.041188,-9770.718434,-1991.848295
808.026741,-1184.329507,-9474.636058,-1685.410096
808.027065,-1332.370696,-9918.759623,-919.314598
808.027389,0.000000,-10436.903782,0.000000
808.027714,1776.494261,-10807.006753,766.095498
808.028038,2886.803174,-10362.883188,1608.800546
808.028362,2442.679609,-9622.677246,2145.067394
808.028686,518.144159,-9770.718434,2145.067394
808.029010,-1406.391290,-9696.697840,2451.505594
808.029334,-2812.782580,-9474.636058,1302.362347
808.029658,-3182.885551,-9252.574275,0.000000
808.029982,-2220.617826,-8586.388927,-1072.533697
808.030307,-370.102971,-8586.388927,-1762.019645
808.030631,1184.329507,-8660.409521,-2528.115143
808.030955,740.205942,-8586.388927,-2145.067394
808.031279,0.000000,-8660.409521,-2451.505594
808.031603,-1258.350101,-8882.471304,-2221.676944
808.031927,-1702.473667,-9030.512492,-1225.752797
808.032251,-814.226536,-9474.636058,-229.828649
808.032575,1184.329507,-10658.965565,766.095498
808.032900,3034.844362,-10881.027347,1302.362347
808.033224,3775.050304,-10214.842000,2604.724693
808.033548,2294.638420,-9844.739029,2681.334243
808.033872,0.000000,-10362.883188,2451.505594
808.034196,-2368.659014,-10658.965565,1455.581446
808.034520,-3849.070898,-9992.780217,536.266849
808.034844,-3404.947333,-9548.656652,-459.657299
808.035169,-1776.494261,-9548.656652,-1685.410096
808.035493,0.000000,-10140.821405,-1915.238745
808.035817,1258.350101,-9918.759623,-2757.943793
808.036141,370.102971,-9104.533087,-1378.971896
808.036465,-1110.308913,-8956.491898,-1915.238745
808.036789,-1924.535449,-9400.615463,-1532.190996
808.037113,-1776.494261,-9844.739029,-153.219100
808.037437,74.020594,-10658.965565,459.657299
808.037762,2368.659014,-11029.068536,1762.019645
808.038086,3923.091493,-11177.109724,2451.505594
808.038410,3701.029710,-10066.800811,2987.772442
808.038734,1924.535449,-10066.800811,3447.429741
808.039058,-518.144159,-10140.821405,2221.676944
808.039382,-2664.741391,-9992.780217,1455.581446
808.039706,-3256.906145,-9474.636058,383.047749
808.040030,-2368.659014,-9474.636058,-842.705048
808.040355,-296.082377,-9104.533087,-1302.362347
808.040679,1406.391290,-8660.409521,-2068.457845
808.041003,1406.391290,-8734.430116,-1455.581446
808.041327,592.164754,-8512.368333,-1455.581446
808.041651,-1110.308913,-8364.327145,-1532.190996
808.041975,-1702.473667,-8734.430116,-995.924147
808.042299,-1036.288319,-9326.594869,0.000000
808.042623,444.123565,-10140.821405,1072.533697
808.042948,2516.700203,-10066.800811,1838.629195
808.043272,3330.926739,-9992.780217,2374.896044
808.043596,2664.741391,-9918.759623,2681.334243
808.043920,148.041188,-10066.800811,2374.896044
808.044244,-1924.535449,-9844.739029,1608.800546
808.044568,-3330.926739,-9696.697840,612.876398
808.044892,-2960.823768,-9844.739029,-612.876398
808.045216,-1924.535449,-9696.697840,-1149.143247
808.045541,0.000000,-9252.574275,-2068.457845
808.045865,1554.432478,-9104.533087,-2757.943793
808.046189,1776.494261,-9400.615463,-2145.067394
808.046513,148.041188,-8660.409521,-2374.896044
808.046837,-814.226536,-8956.491898,-2068.457845
808.047161,-962.267725,-9548.656652,-1378.971896
808.047485,518.144159,-10510.924376,-689.485948
808.047809,2220.617826,-10510.924376,383.047749
808.048134,3404.947333,-10436.903782,1455.581446
808.048458,2738.761985,-10288.862594,1455.581446
808.048782,1480.411884,-10510.924376,1838.629195
808.049106,-740.205942,-10362.883188,1608.800546
808.049430,-2664.741391,-10288.862594,766.095498
808.049754,-2960.823768,-10140.821405,0.000000
808.050078,-1480.411884,-9696.697840,-1685.410096
808.050402,148.041188,-9474.636058,-2298.286494
808.050727,1554.432478,-9548.656652,-2298.286494
808.051051,1480.411884,-9696.697840,-3064.381992
808.051375,222.061783,-9326.594869,-2757.943793
808.051699,-1480.411884,-9104.533087,-2145.067394
808.052023,-1998.556043,-9178.553681,-1991.848295
808.052347,-1776.494261,-9844.739029,-919.314598
808.052671,222.061783,-10658.965565,-383.047749
808.052995,2590.720797,-10658.965565,766.095498
808.053320,3182.885551,-10510.924376,1762.019645
808.053644,2368.659014,-9548.656652,2528.115143
808.053968,74.020594,-9474.636058,2221.676944
808.054292,-1850.514855,-9622.677246,1915.238745
808.054616,-2960.823768,-9622.677246,842.705048
808.054940,-2368.659014,-9178.553681,-459.657299
808.055264,-1554.432478,-8882.471304,-1532.190996
808.055588,222.061783,-8734.430116,-2068.457845
808.055913,814.226536,-8290.306550,-2298.286494
808.056237,814.226536,-8956.491898,-2451.505594
808.056561,-296.082377,-9104.533087,-1991.848295
808.056885,-1554.432478,-8808.450710,-1762.019645
808.057209,-1702.473667,-9400.615463,-766.095498
808.057533,-666.185348,-9548.656652,76.609550
808.057857,1406.391290,-10362.883188,1302.362347
808.058181,2738.761985,-10436.903782,1915.238745
808.058506,2886.803174,-9918.759623,2451.505594
808.058830,1184.329507,-9844.739029,2834.553343
808.059154,-888.247130,-10140.821405,2374.896044
808.059478,-2960.823768,-10510.924376,1685.410096
808.059802,-3256.906145,-9548.656652,919.314598
808.060126,-2368.659014,-9326.594869,-689.485948
808.060450,-962.267725,-9474.636058,-1762.019645
808.060774,962.267725,-9474.636058,-2374.896044
808.061099,1554.432478,-9474.636058,-2068.457845
808.061423,592.164754,-9178.553681,-1838.629195
808.061747,-814.226536,-9178.553681,-1608.800546
808.062071,-1628.453072,-9178.553681,-995.924147
808.062395,-1036.288319,-9474.636058,-459.657299
808.062719,740.205942,-10510.924376,842.705048
808.063043,2664.741391,-10732.986159,1608.800546
808.063368,3923.091493,-10214.842000,2451.505594
808.063692,2886.803174,-9918.759623,2987.772442
808.064016,1110.308913,-10066.800811,2987.772442
808.064340,-1480.411884,-10214.842000,2374.896044
808.064664,-3256.906145,-9918.759623,1378.971896
808.064988,-3256.906145,-9178.553681,-153.219100
808.065312,-2146.597232,-9030.512492,-1455.581446
808.065636,296.082377,-9400.615463,-1532.190996
808.065961,1924.535449,-9548.656652,-1685.410096
808.066285,1924.535449,-9178.553681,-1762.019645
808.066609,518.144159,-8956.491898,-1608.800546
808.066933,-888.247130,-8956.491898,-1225.752797
808.067257,-1406.391290,-9474.636058,-919.314598
808.067581,-1554.432478,-9770.718434,306.438199
808.067905,814.226536,-10510.924376,1455.581446
808.068229,2812.782580,-10732.986159,1838.629195
808.068554,3330.926739,-9696.697840,2528.115143
808.068878,2146.597232,-9400.615463,2451.505594
808.069202,0.000000,-9474.636058,2374.896044
808.069526,-2590.720797,-9622.677246,1455.581446
808.069850,-3923.091493,-9474.636058,689.485948
808.070174,-2960.823768,-8660.409521,-1149.143247
808.070498,-1554.432478,-8364.327145,-1532.190996
808.070822,74.020594,-8956.491898,-2221.676944
808.071147,1332.370696,-9326.594869,-2528.115143
808.071471,740.205942,-9252.574275,-2681.334243
808.071795,-888.247130,-8660.409521,-1915.238745
808.072119,-1480.411884,-8734.430116,-2068.457845
808.072443,-1850.514855,-9252.574275,-1225.752797
808.072767,-296.082377,-10362.883188,0.000000
808.073091,1184.329507,-10881.027347,995.924147
808.073415,2886.803174,-10955.047942,1225.752797
808.073740,2442.679609,-10214.842000,2068.457845
808.074064,740.205942,-10214.842000,2145.067394
808.074388,-1036.288319,-9992.780217,1685.410096
808.074712,-2886.803174,-10140.821405,459.657299
808.075036,-3478.967927,-9918.759623,-766.095498
808.075360,-2220.617826,-9178.553681,-2298.286494
808.075684,-444.123565,-9252.574275,-3140.991542
808.076008,1406.391290,-9622.677246,-3140.991542
808.076333,1850.514855,-9696.697840,-3217.601092
808.076657,1554.432478,-9696.697840,-2987.772442
808.076981,222.061783,-9474.636058,-2528.115143
808.077305,-888.247130,-9474.636058,-2221.676944
808.077629,-888.247130,-9918.759623,-689.485948
808.077953,1258.350101,-10807.006753,766.095498
808.078277,2886.803174,-11325.150913,1225.752797
808.078601,3627.009116,-10584.944971,2068.457845
808.078926,2516.700203,-9844.739029,2451.505594
808.079250,592.164754,-9770.718434,2298.286494
808.079574,-1554.432478,-10288.862594,1838.629195
808.079898,-2812.782580,-10362.883188,1072.533697
808.080222,-3182.885551,-9104.533087,-459.657299
808.080546,-1184.329507,-9252.574275,-1378.971896
808.080870,666.185348,-8734.430116,-2145.067394
808.081194,1702.473667,-9178.553681,-2298.286494
808.081519,1110.308913,-9178.553681,-1991.848295
808.081843,-148.041188,-9104.533087,-1915.238745
808.082167,-1406.391290,-8882.471304,-1455.581446
808.082491,-1258.350101,-9178.553681,-306.438199
808.082815,-592.164754,-9400.615463,612.876398
808.083139,1332.370696,-10140.821405,1685.410096
808.083463,2368.659014,-10288.862594,1915.238745
808.083788,2368.659014,-9696.697840,3064.381992
808.084112,592.164754,-9474.636058,3294.210641
808.084436,-1480.411884,-9622.677246,2757.943793
808.084760,-3330.926739,-9474.636058,2145.067394
808.085084,-3627.009116,-9326.594869,1455.581446
808.085408,-2812.782580,-8068.244768,0.000000
808.085732,-1554.432478,-7772.162391,-1915.238745
808.086057,0.000000,-8882.471304,-1532.190996
808.086381,1406.391290,-9474.636058,-2298.286494
808.086705,814.226536,-9400.615463,-2221.676944
808.087029,-740.205942,-8956.491898,-1455.581446
808.087353,-1406.391290,-9770.718434,-1072.533697
808.087677,-1406.391290,-11177.109724,-153.219100
808.088002,222.061783,-11029.068536,919.314598
808.088326,1924.535449,-10732.986159,2068.457845
808.088650,3182.885551,-10807.006753,2528.115143
808.088974,2368.659014,-10807.006753,3064.381992
808.089298,666.185348,-10214.842000,3064.381992
808.089622,-1406.391290,-10288.862594,2451.505594
808.089946,-3108.864956,-10658.965565,1225.752797
808.090271,-3256.906145,-9474.636058,-153.219100
808.090595,-1702.473667,-8364.327145,-1378.971896
808.090919,0.000000,-9400.615463,-1838.629195
808.091243,1628.453072,-10436.903782,-2374.896044
808.091567,1776.494261,-10362.883188,-2757.943793
808.091891,370.102971,-9474.636058,-1915.238745
808.092216,-962.267725,-8882.471304,-1915.238745
808.092540,-1332.370696,-9770.718434,-2068.457845
808.092864,0.000000,-10955.047942,-383.047749
808.093188,2220.617826,-10732.986159,1532.190996
808.093512,4293.194464,-10955.047942,2451.505594
808.093836,3849.070898,-10510.924376,2604.724693
808.094161,2146.597232,-10288.862594,3524.039291
808.094485,-74.020594,-9400.615463,3140.991542
808.094809,-2220.617826,-9548.656652,1838.629195
808.095133,-4293.194464,-9104.533087,76.609550
808.095457,-3775.050304,-8586.388927,-1608.800546
808.095781,-1628.453072,-8364.327145,-2451.505594
808.096105,1110.308913,-8956.491898,-2834.553343
808.096430,2368.659014,-8956.491898,-2528.115143
808.096754,1924.535449,-8734.430116,-2374.896044
808.097078,962.267725,-8364.327145,-1991.848295
808.097402,-592.164754,-8882.471304,-1915.238745
808.097726,-444.123565,-9400.615463,0.000000
808.098050,666.185348,-10066.800811,306.438199
808.098375,2368.659014,-10881.027347,1302.362347
808.098699,3256.906145,-10807.006753,1838.629195
808.099023,2368.659014,-9770.718434,2451.505594
808.099347,592.164754,-9474.636058,2528.115143
808.099671,-1628.453072,-10066.800811,1838.629195
808.099995,-3775.050304,-9696.697840,766.095498
808.100320,-4071.132681,-8808.450710,-1072.533697
808.100644,-2738.761985,-9030.512492,-2068.457845
808.100968,-888.247130,-9326.594869,-2757.943793
808.101292,740.205942,-9622.677246,-3217.601092
808.101616,1036.288319,-9548.656652,-2757.943793
808.101940,222.061783,-9474.636058,-2757.943793
808.102264,-1184.329507,-9548.656652,-2681.334243
808.102589,-1480.411884,-9622.677246,-1302.362347
808.102913,0.000000,-10510.924376,-766.095498
808.103237,1554.432478,-11177.109724,536.266849
808.103561,3034.844362,-11103.089130,1302.362347
808.103885,3478.967927,-10214.842000,1915.238745
808.104209,2368.659014,-9992.780217,2451.505594
808.104534,148.041188,-10436.903782,2145.067394
808.104858,-1702.473667,-10510.924376,1685.410096
808.105182,-2960.823768,-9918.759623,229.828649
808.105506,-3108.864956,-9252.574275,-995.924147
808.105830,-1924.535449,-8956.491898,-2451.505594
808.106154,148.041188,-9474.636058,-2451.505594
808.106479,1480.411884,-9844.739029,-2374.896044
808.106803,1850.514855,-10214.842000,-2604.724693
808.107127,666.185348,-9770.718434,-1991.848295
808.107451,-740.205942,-9326.594869,-1455.581446
808.107775,-518.144159,-9622.677246,-1072.533697
808.108099,222.061783,-10436.903782,0.000000
808.108423,1850.514855,-10658.965565,1455.581446
808.108748,3182.885551,-10658.965565,2145.067394
808.109072,2886.803174,-10140.821405,2528.115143
808.109396,1184.329507,-9326.594869,3294.210641
808.109720,-1332.370696,-9178.553681,1915.238745
808.110044,-3182.885551,-9326.594869,1455.581446
808.110368,-4515.256246,-9178.553681,919.314598
808.110693,-3330.926739,-8290.306550,-689.485948
808.111017,-1702.473667,-8142.265362,-995.924147
808.111341,0.000000,-8586.388927,-1378.971896
808.111665,518.144159,-8956.491898,-1838.629195
808.111989,-222.061783,-8586.388927,-1685.410096
808.112313,-1184.329507,-8734.430116,-1225.752797
808.112637,-1332.370696,-8586.388927,-612.876398
808.112962,-592.164754,-9104.533087,459.657299
808.113286,1628.453072,-10214.842000,1225.752797
808.113610,3552.988522,-10732.986159,2451.505594
808.113934,3775.050304,-10362.883188,2528.115143
808.114258,2220.617826,-10140.821405,2911.162892
808.114582,-222.061783,-9992.780217,2528.115143
808.114907,-2516.700203,-9696.697840,1608.800546
808.115231,-3775.050304,-9918.759623,1302.362347
808.115555,-3404.947333,-9474.636058,0.000000
808.115879,-1850.514855,-8956.491898,-919.314598
808.116203,74.020594,-9252.574275,-2068.457845
808.116527,1184.329507,-9178.553681,-2374.896044
808.116852,1406.391290,-9178.553681,-2604.724693
808.117176,740.205942,-9474.636058,-1685.410096
808.117500,-592.164754,-9474.636058,-1378.971896
808.117824,-740.205942,-9622.677246,-612.876398
808.118148,370.102971,-10510.924376,-306.438199
808.118472,2220.617826,-11029.068536,459.657299
808.118796,3775.050304,-11103.089130,1455.581446
808.119121,3923.091493,-10881.027347,1915.238745
808.119445,2516.700203,-10066.800811,2528.115143
808.119769,444.123565,-10066.800811,2298.286494
808.120093,-1776.494261,-9844.739029,1378.971896
808.120417,-2886.803174,-9548.656652,0.000000
808.120741,-2516.700203,-9326.594869,-1072.533697
808.121066,-1110.308913,-9178.553681,-1991.848295
808.121390,518.144159,-9326.594869,-2451.505594
808.121714,814.226536,-9104.533087,-2451.505594
808.122038,-296.082377,-9030.512492,-2604.724693
808.122362,-1702.473667,-9474.636058,-2298.286494
808.122686,-1702.473667,-9400.615463,-1915.238745
808.123011,-888.247130,-9548.656652,-536.266849
808.123335,888.247130,-10584.944971,76.609550
808.123659,3034.844362,-10807.006753,1378.971896
808.123983,4145.153275,-10362.883188,2145.067394
808.124307,3330.926739,-9992.780217,2451.505594
808.124631,592.164754,-9474.636058,2451.505594
808.124955,-2072.576638,-9696.697840,689.485948
808.125280,-3775.050304,-9474.636058,919.314598
808.125604,-3923.091493,-8882.471304,0.000000
808.125928,-2072.576638,-8586.388927,-995.924147
808.126252,-222.061783,-8512.368333,-2298.286494
808.126576,740.205942,-8438.347739,-2528.115143
808.126900,592.164754,-8438.347739,-2374.896044
808.127225,-74.020594,-8142.265362,-2374.896044
808.127549,-444.123565,-8808.450710,-1685.410096
808.127873,-1554.432478,-8956.491898,-995.924147
808.128197,-518.144159,-10140.821405,-612.876398
808.128521,1406.391290,-10214.842000,76.609550
808.128845,3256.906145,-10955.047942,1455.581446
808.129170,4293.194464,-10807.006753,1915.238745
808.129494,3256.906145,-10214.842000,2451.505594
808.129818,666.185348,-10436.903782,2604.724693
808.130142,-2146.597232,-10732.986159,1685.410096
808.130466,-3256.906145,-10881.027347,536.266849
808.130790,-3478.967927,-9918.759623,-766.095498
808.131114,-2368.659014,-9474.636058,-1685.410096
808.131439,-740.205942,-9400.615463,-2145.067394
808.131763,592.164754,-9326.594869,-2451.505594
808.132087,1036.288319,-9770.718434,-2145.067394
808.132411,-740.205942,-9474.636058,-2221.676944
808.132735,-1554.432478,-9326.594869,-1378.971896
808.133059,-1480.411884,-9992.780217,-766.095498
808.133384,592.164754,-10881.027347,536.266849
808.133708,3034.844362,-11473.192101,1991.848295
808.134032,4367.215058,-10955.047942,2298.286494
808.134356,4071.132681,-9918.759623,2681.334243
808.134680,1554.432478,-9622.677246,2987.772442
808.135004,-740.205942,-9622.677246,2145.067394
808.135329,-3108.864956,-9252.574275,1072.533697
808.135653,-3849.070898,-9252.574275,0.000000
808.135977,-2590.720797,-9326.594869,-919.314598
808.136301,-740.205942,-9030.512492,-1378.971896
808.136625,666.185348,-8512.368333,-1302.362347
808.136949,888.247130,-8142.265362,-1225.752797
808.137273,0.000000,-7624.121203,-1838.629195
808.137598,-814.226536,-8290.306550,-995.924147
808.137922,-1628.453072,-9104.533087,-612.876398
808.138246,-740.205942,-9622.677246,229.828649
808.138570,1332.370696,-10732.986159,1302.362347
808.138894,2960.823768,-10658.965565,1991.848295
808.139218,3478.967927,-10140.821405,2451.505594
808.139543,2072.576638,-9992.780217,3064.381992
808.139867,-148.041188,-10436.903782,2298.286494
808.140191,-2368.659014,-9918.759623,1762.019645
808.140515,-4145.153275,-9622.677246,689.485948
808.140839,-3997.112087,-9474.636058,0.000000
808.141163,-2812.782580,-9326.594869,-995.924147
808.141487,-888.247130,-9030.512492,-1685.410096
808.141812,592.164754,-8438.347739,-1532.190996
808.142136,1036.288319,-8734.430116,-1225.752797
808.142460,0.000000,-9030.512492,-2221.676944
808.142784,-962.267725,-8882.471304,-1302.362347
808.143108,-814.226536,-9474.636058,-459.657299
808.143432,296.082377,-10214.842000,536.266849
808.143757,2442.679609,-11029.068536,1149.143247
808.144081,3775.050304,-10807.006753,1838.629195
808.144405,3404.947333,-9992.780217,2298.286494
808.144729,1850.514855,-10436.903782,2757.943793
808.145053,-148.041188,-10288.862594,1302.362347
808.145377,-2960.823768,-9844.739029,612.876398
808.145702,-4219.173869,-9548.656652,-459.657299
808.146026,-3256.906145,-9844.739029,-1302.362347
808.146350,-888.247130,-9844.739029,-2145.067394
808.146674,592.164754,-9474.636058,-2221.676944
808.146998,1480.411884,-8586.388927,-2451.505594
808.147322,1184.329507,-8734.430116,-2451.505594
808.147646,0.000000,-9104.533087,-2221.676944
808.147971,-888.247130,-9770.718434,-1685.410096
808.148295,-148.041188,-10214.842000,-766.095498
808.148619,1036.288319,-10807.006753,306.438199
808.148943,3034.844362,-10955.047942,1072.533697
808.149267,3849.070898,-10510.924376,1455.581446
808.149591,3034.844362,-9844.739029,2145.067394
808.149916,1110.308913,-9770.718434,1991.848295
808.150240,-1332.370696,-10140.821405,995.924147
808.150564,-3108.864956,-9770.718434,76.609550
808.150888,-3404.947333,-9030.512492,-919.314598
808.151212,-2072.576638,-8586.388927,-2298.286494
808.151536,-148.041188,-9104.533087,-2221.676944
808.151861,740.205942,-8808.450710,-3064.381992
808.152185,1184.329507,-9030.512492,-2987.772442
808.152509,74.020594,-8734.430116,-2604.724693
808.152833,-888.247130,-8956.491898,-2145.067394
808.153157,-1110.308913,-9400.615463,-1455.581446
808.153481,0.000000,-10214.842000,-383.047749
808.153805,2368.659014,-11547.212695,612.876398
808.154130,3552.988522,-11251.130318,1532.190996
808.154454,3552.988522,-11029.068536,1838.629195
808.154778,1554.432478,-10362.883188,2298.286494
808.155102,-444.123565,-10732.986159,1532.190996
808.155426,-2738.761985,-10214.842000,689.485948
808.155750,-4145.153275,-9770.718434,-153.219100
808.156075,-3330.926739,-9474.636058,-1149.143247
808.156399,-1406.391290,-9030.512492,-2221.676944
808.156723,370.102971,-8956.491898,-2221.676944
808.157047,1258.350101,-8660.409521,-2221.676944
808.157371,814.226536,-8808.450710,-2757.943793
808.157695,0.000000,-8808.450710,-2528.115143
808.158020,-1184.329507,-9178.553681,-1915.238745
808.158344,-962.267725,-9992.780217,-919.314598
808.158668,814.226536,-10732.986159,536.266849
808.158992,2590.720797,-10881.027347,1455.581446
808.159316,3627.009116,-10732.986159,1991.848295
808.159640,3627.009116,-10288.862594,2528.115143
808.159964,1554.432478,-10362.883188,2757.943793
808.160289,-1184.329507,-10288.862594,2451.505594
808.160613,-3478.967927,-9992.780217,1608.800546
808.160937,-4441.235652,-9474.636058,459.657299
808.161261,-3478.967927,-8586.388927,-995.924147
808.161585,-1480.411884,-8734.430116,-1532.190996
808.161909,-296.082377,-8586.388927,-1532.190996
808.162234,-148.041188,-8734.430116,-1762.019645
808.162558,-1480.411884,-8734.430116,-1685.410096
808.162882,-2368.659014,-8512.368333,-1225.752797
808.163206,-2146.597232,-9104.533087,-383.047749
808.163530,-296.082377,-9992.780217,229.828649
808.163854,1702.473667,-10584.944971,2221.676944
808.164178,3404.947333,-10584.944971,2681.334243
808.164503,3552.988522,-10066.800811,3524.039291
808.164827,2368.659014,-10214.842000,3753.867940
808.165151,0.000000,-9770.718434,2911.162892
808.165475,-2590.720797,-9474.636058,2221.676944
808.165799,-4293.194464,-9400.615463,1532.190996
808.166123,-3552.988522,-9252.574275,459.657299
808.166448,-1332.370696,-9030.512492,-612.876398
808.166772,888.247130,-8512.368333,-919.314598
808.167096,2368.659014,-8660.409521,-1685.410096
808.167420,1924.535449,-8734.430116,-1685.410096
808.167744,740.205942,-8660.409521,-1915.238745
808.168068,-592.164754,-8956.491898,-1608.800546
808.168393,-888.247130,-9844.739029,-612.876398
808.168717,222.061783,-10510.924376,153.219100
808.169041,2368.659014,-11251.130318,919.314598
808.169365,4589.276840,-11695.253884,2298.286494
808.169689,4737.318029,-10955.047942,2145.067394
808.170013,2960.823768,-10658.965565,2528.115143
808.170337,74.020594,-10584.944971,2298.286494
808.170662,-2072.576638,-10510.924376,1149.143247
808.170986,-3034.844362,-9770.718434,229.828649
808.171310,-2220.617826,-9992.780217,-383.047749
808.171634,-518.144159,-9844.739029,-1608.800546
808.171958,888.247130,-9844.739029,-2221.676944
808.172282,1332.370696,-9696.697840,-2528.115143
808.172607,74.020594,-9474.636058,-2681.334243
808.172931,-1406.391290,-9326.594869,-2681.334243
808.173255,-2220.617826,-9252.574275,-2068.457845
808.173579,-1628.453072,-9696.697840,-1149.143247
808.173903,444.123565,-10436.903782,-306.438199
808.174227,2516.700203,-10510.924376,1149.143247
808.174552,3701.029710,-10807.006753,1685.410096
808.174876,2738.761985,-10066.800811,2374.896044
808.175200,740.205942,-9918.759623,2374.896044
808.175524,-1998.556043,-9474.636058,2374.896044
808.175848,-4071.132681,-9474.636058,919.314598
808.176172,-4589.276840,-8734.430116,-153.219100
808.176496,-2886.803174,-8586.388927,-919.314598
808.176821,-888.247130,-8512.368333,-1762.019645
808.177145,740.205942,-8216.285956,-2451.505594
808.177469,296.082377,-7772.162391,-2604.724693
808.177793,-962.267725,-7476.080014,-2834.553343
808.178117,-1850.514855,-7994.224174,-2298.286494
808.178441,-2442.679609,-8660.409521,-1685.410096
808.178766,-1332.370696,-9252.574275,-612.876398
808.179090,1110.308913,-9696.697840,995.924147
808.179414,3775.050304,-10436.903782,1915.238745
808.179738,4737.318029,-10214.842000,2681.334243
808.180062,3775.050304,-9844.739029,3217.601092
808.180386,1258.350101,-9918.759623,3294.210641
808.180711,-1628.453072,-10066.800811,1915.238745
808.181035,-3256.906145,-9918.759623,842.705048
808.181359,-2590.720797,-9548.656652,-229.828649
808.181683,-1480.411884,-9474.636058,-1838.629195
808.182007,0.000000,-9252.574275,-2298.286494
808.182331,296.082377,-9178.553681,-2987.772442
808.182655,-148.041188,-8882.471304,-2911.162892
808.182980,-1036.288319,-8956.491898,-2451.505594
808.183304,-1924.535449,-9030.512492,-1608.800546
808.183628,-1554.432478,-10066.800811,-1225.752797
808.183952,74.020594,-11029.068536,0.000000
808.184276,2516.700203,-11843.295072,1378.971896
808.184600,4441.235652,-11843.295072,2221.676944
808.184925,3997.112087,-11325.150913,2834.553343
808.185249,1628.453072,-11399.171507,2987.772442
808.185573,-518.144159,-10881.027347,1838.629195
808.185897,-3330.926739,-10510.924376,766.095498
808.186222,-3849.070898,-10066.800811,-306.438199
808.186546,-3182.885551,-10140.821405,-1225.752797
808.186870,-1554.432478,-10066.800811,-2298.286494
808.187194,0.000000,-9474.636058,-2681.334243
808.187518,-148.041188,-9030.512492,-3217.601092
808.187843,-444.123565,-9400.615463,-2987.772442
808.188167,-1628.453072,-8882.471304,-2451.505594
808.188491,-2442.679609,-9104.533087,-1532.190996
808.188815,-888.247130,-9770.718434,0.000000
808.189139,1332.370696,-10732.986159,995.924147
808.189464,3849.070898,-10955.047942,2221.676944
808.189788,5107.421000,-10510.924376,2987.772442
808.190112,3552.988522,-9474.636058,3983.696590
808.190436,1406.391290,-9252.574275,3140.991542
808.190760,-1702.473667,-9030.512492,2451.505594
808.191085,-3478.967927,-8808.450710,1225.752797
808.191409,-3108.864956,-8586.388927,0.000000
808.191733,-1998.556043,-8512.368333,-1225.752797
808.192057,-518.144159,-8290.306550,-1685.410096
808.192381,666.185348,-8068.244768,-1608.800546
808.192706,666.185348,-7328.038826,-2221.676944
808.193030,-148.041188,-7846.182985,-1378.971896
808.193354,-1554.432478,-8290.306550,-995.924147
808.193678,-1036.288319,-8660.409521,459.657299
808.194002,518.144159,-9622.677246,995.924147
808.194327,2886.803174,-10436.903782,2298.286494
808.194651,4071.132681,-10140.821405,2987.772442
808.194975,3404.947333,-9918.759623,3677.258390
808.195299,1184.329507,-10288.862594,4060.306139
808.195623,-1036.288319,-10140.821405,3140.991542
808.195948,-2664.741391,-9992.780217,1378.971896
808.196272,-4071.132681,-9474.636058,459.657299
808.196596,-3256.906145,-9178.553681,-995.924147
808.196920,-1406.391290,-9474.636058,-2068.457845
808.197244,370.102971,-9178.553681,-2451.505594
808.197569,962.267725,-9178.553681,-3064.381992
808.197893,222.061783,-9030.512492,-2528.115143
808.198217,-814.226536,-9030.512492,-2374.896044
808.198541,-1332.370696,-9474.636058,-1302.362347
808.198865,-370.102971,-10658.965565,-612.876398
808.199190,1554.432478,-11695.253884,306.438199
808.199514,3330.926739,-11843.295072,1455.581446
808.199838,4441.235652,-11547.212695,2145.067394
808.200162,3775.050304,-11029.068536,2451.505594
808.200486,1554.432478,-10362.883188,3140.991542
808.200811,-1110.308913,-10584.944971,919.314598
808.201135,-4071.132681,-10510.924376,76.609550
808.201459,-4737.318029,-10066.800811,-1225.752797
808.201783,-3256.906145,-9992.780217,-2681.334243
808.202107,-1184.329507,-9770.718434,-2834.553343
808.202432,370.102971,-9474.636058,-3140.991542
808.202756,518.144159,-9178.553681,-3217.601092
808.203080,-296.082377,-9178.553681,-3064.381992
808.203404,-1332.370696,-9104.533087,-2374.896044
808.203728,-1332.370696,-9548.656652,-1378.971896
808.204053,74.020594,-10362.883188,0.000000
808.204377,2220.617826,-11325.150913,1072.533697
808.204701,3701.029710,-10584.944971,1915.238745
808.205025,4145.153275,-10436.903782,2681.334243
808.205349,2590.720797,-9918.759623,2911.162892
808.205674,222.061783,-9622.677246,2374.896044
808.205998,-2072.576638,-9104.533087,1455.581446
808.206322,-2886.803174,-9400.615463,0.000000
808.206646,-2516.700203,-9030.512492,-1225.752797
808.206970,-888.247130,-8660.409521,-1991.848295
808.207295,814.226536,-8290.306550,-2528.115143
808.207619,1332.370696,-7846.182985,-2757.943793
808.207943,962.267725,-8068.244768,-2987.772442
808.208267,-370.102971,-7698.141797,-2068.457845
808.208591,-666.185348,-8660.409521,-1762.019645
808.208916,-518.144159,-9548.656652,-689.485948
808.209240,814.226536,-10436.903782,612.876398
808.209564,2590.720797,-10732.986159,2298.286494
808.209888,4219.173869,-10807.006753,2374.896044
808.210213,3478.967927,-10214.842000,3294.210641
808.210537,1480.411884,-9918.759623,3294.210641
808.210861,-1332.370696,-10140.821405,2221.676944
808.211185,-3330.926739,-10066.800811,1455.581446
808.211509,-3330.926739,-9252.574275,-229.828649
808.211834,-2590.720797,-8512.368333,-1072.533697
808.212158,-1480.411884,-8882.471304,-1838.629195
808.212482,148.041188,-9474.636058,-2298.286494
808.212806,148.041188,-9104.533087,-2604.724693
808.213130,-740.205942,-8660.409521,-2068.457845
808.213455,-1850.514855,-8882.471304,-1685.410096
808.213779,-1628.453072,-9474.636058,-766.095498
808.214103,-296.082377,-10732.986159,689.485948
808.214427,1776.494261,-11473.192101,2604.724693
808.214751,3182.885551,-10955.047942,3064.381992
808.215076,3108.864956,-10584.944971,3217.601092
808.215400,1406.391290,-9992.780217,3370.820191
808.215724,-888.247130,-10732.986159,3140.991542
808.216048,-2960.823768,-11103.089130,2451.505594
808.216372,-4219.173869,-10436.903782,1762.019645
808.216697,-3552.988522,-8882.471304,76.609550
808.217021,-1480.411884,-7105.977043,-1608.800546
808.217345,-962.267725,-7994.224174,-1608.800546
808.217669,74.020594,-10066.800811,-2681.334243
808.217993,814.226536,-10214.842000,-3140.991542
808.218318,-740.205942,-8956.491898,-1532.190996
808.218642,-1480.411884,-8956.491898,-842.705048
808.218966,-962.267725,-10140.821405,-689.485948
808.219290,814.226536,-10658.965565,459.657299
808.219614,3404.947333,-10214.842000,2451.505594
808.219939,5329.482782,-10881.027347,3217.601092
808.220263,5847.626942,-10510.924376,3830.477490
808.220587,3775.050304,-9548.656652,4136.915689
808.220911,1184.329507,-8882.471304,3524.039291
808.221235,-1924.535449,-8882.471304,1532.190996
808.221560,-4145.153275,-9326.594869,-612.876398
808.221884,-4145.153275,-8364.327145,-2374.896044
808.222208,-1702.473667,-8364.327145,-2604.724693
808.222532,740.205942,-9030.512492,-2451.505594
808.222856,592.164754,-8808.450710,-2757.943793
808.223181,74.020594,-8216.285956,-2834.553343
808.223505,-962.267725,-8660.409521,-2757.943793
808.223829,-1184.329507,-9252.574275,-2221.676944
808.224153,-296.082377,-9992.780217,-306.438199
808.224477,1702.473667,-10658.965565,1455.581446
808.224802,4589.276840,-11177.109724,2451.505594
808.225126,4885.359217,-11103.089130,2528.115143
808.225450,2590.720797,-10510.924376,2528.115143
808.225774,-222.061783,-10436.903782,2068.457845
808.226098,-2960.823768,-10584.944971,1302.362347
808.226423,-4293.194464,-10510.924376,229.828649
808.226747,-3256.906145,-9030.512492,-1608.800546
808.227071,-1924.535449,-8364.327145,-2374.896044
808.227395,-296.082377,-9178.553681,-3140.991542
808.227719,962.267725,-10436.903782,-3370.820191
808.228044,444.123565,-9548.656652,-3753.867940
808.228368,-1184.329507,-8808.450710,-3370.820191
808.228692,-2220.617826,-8808.450710,-2451.505594
808.229016,-1554.432478,-9844.739029,-1915.238745
808.229340,0.000000,-10584.944971,-459.657299
808.229665,2960.823768,-11103.089130,1455.581446
808.229989,4737.318029,-11547.212695,1991.848295
808.230313,4811.338623,-10658.965565,2757.943793
808.230637,2516.700203,-9770.718434,3064.381992
808.230961,-222.061783,-9696.697840,2221.676944
808.231286,-2812.782580,-10140.821405,1455.581446
808.231610,-3701.029710,-9696.697840,0.000000
808.231934,-2960.823768,-8068.244768,-1608.800546
808.232258,-1406.391290,-8808.450710,-1915.238745
808.232583,-222.061783,-9474.636058,-2528.115143
808.232907,592.164754,-9622.677246,-2757.943793
808.233231,0.000000,-9178.553681,-2374.896044
808.233555,-1628.453072,-8660.409521,-1915.238745
808.233879,-2146.597232,-8882.471304,-842.705048
808.234204,-888.247130,-9178.553681,-306.438199
808.234528,1998.556043,-10584.944971,1532.190996
808.234852,3775.050304,-10288.862594,3140.991542
808.235176,4959.379811,-10732.986159,2911.162892
808.235500,2886.803174,-10288.862594,3447.429741
808.235825,222.061783,-10214.842000,2987.772442
808.236149,-2294.638420,-10510.924376,2451.505594
808.236473,-3701.029710,-10436.903782,1685.410096
808.236797,-4293.194464,-9474.636058,1302.362347
808.237121,-2590.720797,-7476.080014,-995.924147
808.237446,-1110.308913,-7254.018232,-1762.019645
808.237770,-222.061783,-9030.512492,-1838.629195
808.238094,0.000000,-9844.739029,-2681.334243
808.238418,-518.144159,-8808.450710,-2374.896044
808.238742,-1702.473667,-7994.224174,-1149.143247
808.239067,-1850.514855,-8734.430116,-689.485948
808.239391,0.000000,-10140.821405,0.000000
808.239715,2294.638420,-10288.862594,1532.190996
808.240039,4737.318029,-11103.089130,2987.772442
808.240363,5403.503377,-11177.109724,3217.601092
808.240688,3775.050304,-10362.883188,3294.210641
808.241012,814.226536,-9844.739029,3524.039291
808.241336,-1628.453072,-10140.821405,2298.286494
808.241660,-3404.947333,-10140.821405,229.828649
808.241984,-4589.276840,-9252.574275,-919.314598
808.242309,-3108.864956,-8734.430116,-1685.410096
808.242633,-1036.288319,-8956.491898,-2528.115143
808.242957,666.185348,-9252.574275,-2681.334243
808.243281,148.041188,-8956.491898,-2681.334243
808.243605,-962.267725,-9252.574275,-2451.505594
808.243930,-2294.638420,-9030.512492,-1685.410096
808.244254,-1184.329507,-9770.718434,-536.266849
808.244578,814.226536,-10584.944971,995.924147
808.244902,3034.844362,-11473.192101,2145.067394
808.245226,4885.359217,-11473.192101,2604.724693
808.245551,4737.318029,-10881.027347,2987.772442
808.245875,2442.679609,-10214.842000,3217.601092
808.246199,0.000000,-10288.862594,2528.115143
808.246523,-2368.659014,-9770.718434,2221.676944
808.246847,-3701.029710,-9030.512492,153.219100
808.247172,-2886.803174,-7772.162391,-1455.581446
808.247496,-1332.370696,-7920.203579,-2604.724693
808.247820,0.000000,-8586.388927,-2451.505594
808.248144,740.205942,-8956.491898,-2757.943793
808.248468,0.000000,-8438.347739,-2451.505594
808.248793,-1406.391290,-8364.327145,-1685.410096
808.249117,-2294.638420,-8512.368333,-2068.457845
808.249441,-814.226536,-9400.615463,-383.047749
808.249765,1406.391290,-10584.944971,153.219100
808.250089,3923.091493,-11103.089130,2068.457845
808.250414,4737.318029,-10955.047942,2298.286494
808.250738,3775.050304,-10362.883188,2757.943793
808.251062,1480.411884,-9770.718434,2374.896044
808.251386,-1036.288319,-9918.759623,1378.971896
808.251710,-3849.070898,-9622.677246,-459.657299
808.252035,-4589.276840,-8956.491898,-1608.800546
808.252359,-3775.050304,-8734.430116,-3217.601092
808.252683,-1480.411884,-9474.636058,-3600.648841
808.253007,222.061783,-9400.615463,-3753.867940
808.253331,296.082377,-8956.491898,-3294.210641
808.253656,-370.102971,-8364.327145,-2681.334243
808.253980,-1406.391290,-8734.430116,-2298.286494
808.254304,-962.267725,-9400.615463,-1685.410096
808.254628,666.185348,-10140.821405,0.000000
808.254953,3552.988522,-11547.212695,1685.410096
808.255277,5625.565159,-11843.295072,2298.286494
808.255601,4959.379811,-11029.068536,2681.334243
808.255925,3330.926739,-10584.944971,2834.553343
808.256249,444.123565,-10436.903782,1838.629195
808.256574,-2442.679609,-10584.944971,612.876398
808.256898,-4293.194464,-9770.718434,-766.095498
808.257222,-4441.235652,-9770.718434,-2298.286494
808.257546,-2368.659014,-9844.739029,-2834.553343
808.257870,-444.123565,-9548.656652,-2987.772442
808.258195,370.102971,-9104.533087,-3064.381992
808.258519,0.000000,-8808.450710,-2834.553343
808.258843,-1036.288319,-8586.388927,-1838.629195
808.259167,-1258.350101,-9252.574275,-766.095498
808.259491,222.061783,-9992.780217,536.266849
808.259816,2072.576638,-11177.109724,1838.629195
808.260140,4293.194464,-11769.274478,2681.334243
808.260464,5403.503377,-10732.986159,3294.210641
808.260788,4293.194464,-10214.842000,3677.258390
808.261112,1998.556043,-10584.944971,2681.334243
808.261437,-1258.350101,-10140.821405,2068.457845
808.261761,-3330.926739,-9474.636058,1149.143247
808.262085,-4071.132681,-8734.430116,-766.095498
808.262409,-3108.864956,-9030.512492,-1762.019645
808.262733,-1554.432478,-8660.409521,-1608.800546
808.263058,-222.061783,-8290.306550,-1685.410096
808.263382,0.000000,-7772.162391,-1838.629195
808.263706,-444.123565,-7698.141797,-766.095498
808.264030,-1332.370696,-7179.997637,-229.828649
808.264354,-1036.288319,-8438.347739,612.876398
808.264679,296.082377,-9474.636058,1608.800546
808.265003,2220.617826,-10214.842000,2681.334243
808.265327,3775.050304,-10288.862594,3064.381992
808.265651,3701.029710,-9844.739029,3753.867940
808.265975,2146.597232,-10066.800811,3677.258390
808.266300,-1332.370696,-10436.903782,3370.820191
808.266624,-3701.029710,-9918.759623,2068.457845
808.266948,-4885.359217,-9622.677246,995.924147
808.267272,-4367.215058,-9252.574275,-459.657299
808.267596,-2442.679609,-8882.471304,-1149.143247
808.267921,0.000000,-8808.450710,-919.314598
808.268245,814.226536,-8438.347739,-919.314598
808.268569,666.185348,-7920.203579,-1072.533697
808.268893,-592.164754,-8068.244768,-1225.752797
808.269217,-1702.473667,-8364.327145,-612.876398
808.269542,-1036.288319,-9474.636058,0.000000
808.269866,592.164754,-10732.986159,919.314598
808.270190,2516.700203,-11103.089130,1378.971896
808.270514,3701.029710,-10584.944971,2221.676944
808.270838,3849.070898,-10658.965565,2834.553343
808.271163,2368.659014,-10807.006753,2604.724693
808.271487,0.000000,-10436.903782,1302.362347
808.271811,-2664.741391,-10066.800811,612.876398
808.272135,-3701.029710,-9918.759623,-612.876398
808.272459,-2146.597232,-9992.780217,-1532.190996
808.272784,-222.061783,-9622.677246,-1762.019645
808.273108,962.267725,-9400.615463,-2068.457845
808.273432,1554.432478,-9474.636058,-2681.334243
808.273756,962.267725,-9030.512492,-2451.505594
808.274080,-148.041188,-8808.450710,-2068.457845
808.274405,-1036.288319,-9474.636058,-2068.457845
808.274729,-222.061783,-10584.944971,-1072.533697
808.275053,1110.308913,-11251.130318,0.000000
808.275377,2368.659014,-11029.068536,383.047749
808.275701,2812.782580,-10436.903782,995.924147
808.276026,2072.576638,-10510.924376,1455.581446
808.276350,0.000000,-10436.903782,1378.971896
808.276674,-2146.597232,-10732.986159,306.438199
808.276998,-3256.906145,-9844.739029,0.000000
808.277323,-2664.741391,-9326.594869,-1225.752797
808.277647,-1184.329507,-9104.533087,-2374.896044
808.277971,814.226536,-8734.430116,-2451.505594
808.278295,1776.494261,-8956.491898,-2374.896044
808.278619,962.267725,-8364.327145,-2451.505594
808.278944,-592.164754,-8438.347739,-3064.381992
808.279268,-1850.514855,-8364.327145,-2911.162892
808.279592,-1776.494261,-9178.553681,-2451.505594
808.279916,-296.082377,-10066.800811,-842.705048
808.280240,1850.514855,-10584.944971,536.266849
808.280565,3627.009116,-10214.842000,1072.533697
808.280889,3478.967927,-9622.677246,1991.848295
808.281213,1776.494261,-9622.677246,1532.190996
808.281537,-370.102971,-9918.759623,1378.971896
808.281861,-2368.659014,-10140.821405,842.705048
808.282186,-3034.844362,-10066.800811,-306.438199
808.282510,-2220.617826,-9844.739029,-1378.971896
808.282834,-740.205942,-8956.491898,-1991.848295
808.283158,592.164754,-9030.512492,-1532.190996
808.283482,1110.308913,-9252.574275,-2298.286494
808.283807,-148.041188,-9326.594869,-2911.162892
808.284131,-1480.411884,-9178.553681,-2221.676944
808.284455,-2146.597232,-9252.574275,-1991.848295
808.284779,-1110.308913,-9696.697840,-536.266849
808.285103,814.226536,-10436.903782,842.705048
808.285427,2516.700203,-10510.924376,1608.800546
808.285751,3330.926739,-10436.903782,2298.286494
808.286076,2220.617826,-9622.677246,2911.162892
808.286400,222.061783,-9770.718434,2757.943793
808.286724,-1850.514855,-10436.903782,1991.848295
808.287048,-2960.823768,-10510.924376,1532.190996
808.287372,-2738.761985,-9844.739029,919.314598
808.287696,-1332.370696,-9178.553681,-153.219100
808.288020,296.082377,-9104.533087,-612.876398
808.288344,1184.329507,-9770.718434,-995.924147
808.288669,814.226536,-9474.636058,-995.924147
808.288993,-370.102971,-9474.636058,-1455.581446
808.289317,-1702.473667,-9178.553681,-306.438199
808.289641,-1702.473667,-9548.656652,0.000000
808.289965,-444.123565,-10288.862594,842.705048
808.290289,1480.411884,-10510.924376,1991.848295
808.290613,2886.803174,-10436.903782,2834.553343
808.290937,2960.823768,-9992.780217,2681.334243
808.291262,1184.329507,-9474.636058,4060.306139
808.291586,-1850.514855,-8882.471304,3447.429741
808.291910,-4145.153275,-9178.553681,1838.629195
808.292234,-4885.359217,-9030.512492,919.314598
808.292558,-3849.070898,-8956.491898,229.828649
808.292882,-1554.432478,-8882.471304,-306.438199
808.293206,518.144159,-8438.347739,-689.485948
808.293530,1924.535449,-7994.224174,-766.095498
808.293855,1480.411884,-8808.450710,-919.314598
808.294179,0.000000,-8438.347739,-1302.362347
808.294503,-888.247130,-8808.450710,-536.266849
808.294827,-1110.308913,-9104.533087,229.828649
808.295151,592.164754,-9992.780217,1072.533697
808.295475,2738.761985,-10362.883188,2068.457845
808.295799,4071.132681,-9992.780217,2987.772442
808.296123,3552.988522,-9918.759623,2911.162892
808.296448,1480.411884,-9918.759623,2528.115143
808.296772,-1184.329507,-9992.780217,1838.629195
808.297096,-2812.782580,-9844.739029,1302.362347
808.297420,-3108.864956,-9400.615463,-153.219100
808.297744,-1850.514855,-9252.574275,-1302.362347
808.298068,-222.061783,-9474.636058,-2068.457845
808.298392,1036.288319,-9400.615463,-2451.505594
808.298716,1110.308913,-9474.636058,-2528.115143
808.299041,0.000000,-9400.615463,-2911.162892
808.299365,-1036.288319,-9178.553681,-2987.772442
808.299689,-962.267725,-9918.759623,-2298.286494
808.300013,-148.041188,-10807.006753,-842.705048
808.300337,2368.659014,-11695.253884,-229.828649
808.300661,4145.153275,-11621.233289,612.876398
808.300985,4367.215058,-10955.047942,995.924147
808.301309,3256.906145,-10584.944971,1378.971896
808.301634,740.205942,-10436.903782,1149.143247
808.301958,-1258.350101,-10066.800811,536.266849
808.302282,-2886.803174,-10362.883188,-689.485948
808.302606,-2960.823768,-9918.759623,-2298.286494
808.302930,-1776.494261,-9770.718434,-3064.381992
808.303254,0.000000,-9548.656652,-3907.087040
808.303578,666.185348,-9622.677246,-3677.258390
808.303902,0.000000,-8734.430116,-3830.477490
808.304227,-1332.370696,-9030.512492,-3370.820191
808.304551,-1702.473667,-8956.491898,-2604.724693
808.304875,-1036.288319,-9696.697840,-1838.629195
808.305199,962.267725,-10584.944971,-536.266849
808.305523,3256.906145,-10955.047942,76.609550
808.305847,3627.009116,-10658.965565,1072.533697
808.306171,2960.823768,-10214.842000,1455.581446
808.306495,1036.288319,-9992.780217,1455.581446
808.306820,-1184.329507,-9622.677246,919.314598
808.307144,-2368.659014,-9474.636058,153.219100
808.307468,-2960.823768,-8808.450710,-612.876398
808.307792,-2220.617826,-8586.388927,-1838.629195
808.308116,-370.102971,-8808.450710,-2451.505594
808.308440,740.205942,-8734.430116,-2451.505594
808.308764,296.082377,-8438.347739,-2528.115143
808.309088,0.000000,-8068.244768,-2451.505594
808.309413,-740.205942,-8512.368333,-2068.457845
808.309737,-1480.411884,-8808.450710,-919.314598
808.310061,-370.102971,-9992.780217,459.657299
808.310385,1776.494261,-10584.944971,1455.581446
808.310709,3256.906145,-10732.986159,2298.286494
808.311033,3701.029710,-9844.739029,2604.724693
808.311357,2368.659014,-9770.718434,2987.772442
808.311681,148.041188,-10362.883188,3217.601092
808.312006,-1480.411884,-10807.006753,2145.067394
808.312330,-2960.823768,-10066.800811,1302.362347
808.312654,-3182.885551,-9178.553681,-229.828649
808.312978,-2146.597232,-9696.697840,-1378.971896
808.313302,-592.164754,-10066.800811,-1608.800546
808.313626,296.082377,-10140.821405,-1991.848295
808.313950,-296.082377,-9918.759623,-1838.629195
808.314274,-1776.494261,-9326.594869,-995.924147
808.314599,-1850.514855,-9252.574275,-612.876398
808.314923,-1480.411884,-10066.800811,306.438199
808.315247,296.082377,-10362.883188,1991.848295
808.315571,2368.659014,-11177.109724,2757.943793
808.315895,3404.947333,-10807.006753,3370.820191
808.316219,3182.885551,-10140.821405,3830.477490
808.316543,1702.473667,-9918.759623,3983.696590
808.316867,-1332.370696,-9770.718434,2911.162892
808.317192,-3849.070898,-10140.821405,2145.067394
808.317516,-4959.379811,-8808.450710,229.828649
808.317840,-3478.967927,-8734.430116,-766.095498
808.318164,-1184.329507,-8586.388927,-766.095498
808.318488,814.226536,-8586.388927,-995.924147
808.318812,1702.473667,-8216.285956,-612.876398
808.319136,1036.288319,-7920.203579,-766.095498
808.319460,-296.082377,-7846.182985,-459.657299
808.319785,-1554.432478,-8142.265362,0.000000
808.320109,-888.247130,-9104.533087,536.266849
808.320433,962.267725,-10584.944971,1838.629195
808.320757,2812.782580,-10807.006753,2681.334243
808.321081,4071.132681,-10510.924376,3983.696590
808.321405,3108.864956,-10214.842000,3677.258390
808.321729,740.205942,-9474.636058,3140.991542
808.322053,-1850.514855,-9844.739029,2374.896044
808.322378,-3034.844362,-10288.862594,1685.410096
808.322702,-2516.700203,-8734.430116,306.438199
808.323026,-1850.514855,-8290.306550,-1685.410096
808.323350,-666.185348,-8438.347739,-2145.067394
808.323674,592.164754,-9178.553681,-2604.724693
808.323998,740.205942,-9178.553681,-3140.991542
808.324322,0.000000,-8808.450710,-2451.505594
808.324646,-888.247130,-8956.491898,-2221.676944
808.324971,-1036.288319,-9178.553681,-1838.629195
808.325295,222.061783,-10214.842000,-766.095498
808.325619,2368.659014,-10807.006753,612.876398
808.325943,4145.153275,-11029.068536,1378.971896
808.326267,4145.153275,-10362.883188,1685.410096
808.326591,2368.659014,-9622.677246,2221.676944
808.326915,148.041188,-9696.697840,2068.457845
808.327239,-1998.556043,-9992.780217,612.876398
808.327564,-3108.864956,-10066.800811,-766.095498
808.327888,-2886.803174,-9474.636058,-2681.334243
808.328212,-1110.308913,-9474.636058,-3140.991542
808.328536,444.123565,-10140.821405,-3677.258390
808.328860,814.226536,-10140.821405,-3753.867940
808.329184,-296.082377,-9844.739029,-3983.696590
808.329508,-2220.617826,-8734.430116,-4826.401637
808.329832,-2590.720797,-9474.636058,-3830.477490
808.330157,-2368.659014,-10362.883188,-2604.724693
808.330481,222.061783,-11177.109724,-689.485948
808.330805,2886.803174,-11621.233289,459.657299
808.331129,4145.153275,-11251.130318,1302.362347
808.331453,3108.864956,-10140.821405,1608.800546
808.331777,1628.453072,-10584.944971,1532.190996
808.332101,-444.123565,-11251.130318,1455.581446
808.332425,-1480.411884,-11029.068536,919.314598
808.332750,-1628.453072,-9770.718434,-612.876398
808.333074,-666.185348,-7920.203579,-2451.505594
808.333398,0.000000,-8364.327145,-2987.772442
808.333722,592.164754,-9770.718434,-4290.134789
808.334046,888.247130,-9474.636058,-4213.525239
808.334370,-814.226536,-8216.285956,-3370.820191
808.334694,-2294.638420,-8216.285956,-2374.896044
808.335018,-1924.535449,-9252.574275,-2221.676944
808.335343,-814.226536,-10214.842000,-995.924147
808.335667,1110.308913,-10881.027347,919.314598
808.335991,3256.906145,-11251.130318,2068.457845
808.336315,4219.173869,-11029.068536,2911.162892
808.336639,2590.720797,-10584.944971,4060.306139
808.336963,222.061783,-10807.006753,4213.525239
808.337287,-1184.329507,-11473.192101,2834.553343
808.337611,-2516.700203,-10807.006753,1915.238745
808.337936,-2664.741391,-8586.388927,76.609550
808.338260,-1406.391290,-6661.853478,-2068.457845
808.338584,-962.267725,-7994.224174,-2145.067394
808.338908,0.000000,-9918.759623,-2451.505594
808.339232,-222.061783,-9622.677246,-2604.724693
808.339556,-2368.659014,-7920.203579,-1838.629195
808.339880,-3330.926739,-7846.182985,-995.924147
808.340204,-2368.659014,-8956.491898,76.609550
808.340529,-296.082377,-9918.759623,1225.752797
808.340853,2812.782580,-9548.656652,3140.991542
808.341177,4959.379811,-9474.636058,4519.963438
808.341501,5033.400406,-10510.924376,4749.792088
808.341825,2886.803174,-10214.842000,5209.449386
808.342149,296.082377,-9770.718434,5132.839837
808.342473,-2294.638420,-9992.780217,3753.867940
808.342797,-3552.988522,-10214.842000,2298.286494
808.343122,-2442.679609,-8068.244768,919.314598
808.343446,-148.041188,-4885.359217,-1302.362347
808.343770,-148.041188,-7179.997637,-1685.410096
808.344094,-1406.391290,-10658.965565,-1685.410096
808.344418,-962.267725,-10807.006753,-3140.991542
808.344742,-2960.823768,-9252.574275,-1532.190996
808.345066,-4293.194464,-8734.430116,0.000000
808.345390,-2812.782580,-9992.780217,76.609550
808.345715,296.082377,-11473.192101,1072.533697
808.346039,3775.050304,-11399.171507,2604.724693
808.346363,5847.626942,-10362.883188,3600.648841
808.346687,5921.647536,-10807.006753,4290.134789
808.347011,2738.761985,-11103.089130,4826.401637
808.347335,222.061783,-10732.986159,4519.963438
808.347659,-2294.638420,-10214.842000,2911.162892
808.347983,-3256.906145,-9844.739029,306.438199
808.348308,-2886.803174,-7402.059420,-2604.724693
808.348632,-1110.308913,-7254.018232,-3064.381992
808.348956,814.226536,-9400.615463,-2374.896044
808.349280,1776.494261,-9918.759623,-4213.525239
808.349604,-296.082377,-9030.512492,-2757.943793
808.349928,-2294.638420,-8586.388927,-1838.629195
808.350252,-2072.576638,-9252.574275,-2298.286494
808.350576,-1554.432478,-10881.027347,-1532.190996
808.350901,444.123565,-10436.903782,536.266849
808.351225,4293.194464,-10658.965565,2451.505594
808.351549,6291.750507,-11325.150913,1685.410096
808.351873,3849.070898,-10362.883188,2298.286494
808.352197,962.267725,-10066.800811,2911.162892
808.352521,-1332.370696,-10955.047942,1838.629195
808.352845,-2442.679609,-11325.150913,459.657299
