#time,accel_x,accel_y,accel_z
983.215806,-222.061783,-9474.636058,0.000000
983.216129,-444.123565,-9622.677246,0.000000
983.216453,0.000000,-9770.718434,153.219100
983.216777,-222.061783,-9622.677246,76.609550
983.217101,0.000000,-9770.718434,153.219100
983.217425,-148.041188,-9622.677246,153.219100
983.217749,-296.082377,-9474.636058,-229.828649
983.218072,-518.144159,-9696.697840,76.609550
983.218396,-148.041188,-9474.636058,153.219100
983.218720,-222.061783,-9844.739029,383.047749
983.219044,0.000000,-9770.718434,0.000000
983.219368,0.000000,-9770.718434,0.000000
983.219692,0.000000,-9474.636058,153.219100
983.220015,0.000000,-9548.656652,0.000000
983.220339,148.041188,-9474.636058,-229.828649
983.220663,0.000000,-9474.636058,0.000000
983.220987,0.000000,-9696.697840,0.000000
983.221311,-296.082377,-9770.718434,-153.219100
983.221635,-296.082377,-9770.718434,-383.047749
983.221959,0.000000,-9474.636058,-459.657299
983.222282,666.185348,-9622.677246,0.000000
983.222606,222.061783,-9696.697840,306.438199
983.222930,370.102971,-9770.718434,76.609550
983.223254,74.020594,-9622.677246,0.000000
983.223578,0.000000,-9770.718434,153.219100
983.223902,222.061783,-9770.718434,76.609550
983.224225,74.020594,-9770.718434,0.000000
983.224549,0.000000,-9252.574275,-153.219100
983.224873,0.000000,-9400.615463,0.000000
983.225197,296.082377,-9770.718434,0.000000
983.225521,222.061783,-9400.615463,0.000000
983.225845,0.000000,-9548.656652,76.609550
983.226168,0.000000,-9696.697840,76.609550
983.226492,-222.061783,-9770.718434,0.000000
983.226816,-740.205942,-9622.677246,842.705048
983.227140,-962.267725,-9992.780217,306.438199
983.227464,-222.061783,-9474.636058,0.000000
983.227788,962.267725,-9326.594869,383.047749
983.228111,1480.411884,-9696.697840,842.705048
983.228435,666.185348,-10066.800811,76.609550
983.228759,0.000000,-10066.800811,766.095498
983.229083,-666.185348,-9992.780217,612.876398
983.229407,-1184.329507,-10288.862594,153.219100
983.229731,-1258.350101,-9770.718434,-536.266849
983.230055,-1850.514855,-9252.574275,229.828649
983.230378,-1776.494261,-9696.697840,536.266849
983.230702,-1332.370696,-9474.636058,153.219100
983.231026,-370.102971,-8364.327145,689.485948
983.231350,-296.082377,-8364.327145,1072.533697
983.231674,0.000000,-9030.512492,459.657299
983.231998,0.000000,-9474.636058,995.924147
983.232321,-518.144159,-10066.800811,1149.143247
983.232645,-1480.411884,-10214.842000,0.000000
983.232969,-2368.659014,-10584.944971,0.000000
983.233293,-2294.638420,-10732.986159,459.657299
983.233617,-2146.597232,-10362.883188,842.705048
983.233941,-2368.659014,-10510.924376,919.314598
983.234264,-2516.700203,-10066.800811,919.314598
983.234588,-2072.576638,-9104.533087,842.705048
983.234912,-888.247130,-8882.471304,1455.581446
983.235236,74.020594,-8956.491898,1532.190996
983.235560,222.061783,-9326.594869,2221.676944
983.235884,-814.226536,-9548.656652,1838.629195
983.236208,-1924.535449,-9918.759623,1762.019645
983.236531,-2738.761985,-10362.883188,1225.752797
983.236855,-3256.906145,-10436.903782,1225.752797
983.237179,-3701.029710,-10584.944971,1685.410096
983.237503,-3256.906145,-11029.068536,1378.971896
983.237827,-1924.535449,-10807.006753,1915.238745
983.238151,-1480.411884,-9548.656652,2068.457845
983.238474,-888.247130,-8290.306550,2221.676944
983.238798,-148.041188,-8586.388927,2221.676944
983.239122,74.020594,-8882.471304,2451.505594
983.239446,-296.082377,-8808.450710,2451.505594
983.239770,-1628.453072,-9400.615463,2451.505594
983.240094,-2516.700203,-9622.677246,2528.115143
983.240417,-2590.720797,-10658.965565,2451.505594
983.240741,-3701.029710,-10510.924376,2528.115143
983.241065,-4737.318029,-10362.883188,2834.553343
983.241389,-4737.318029,-10436.903782,3140.991542
983.241713,-4589.276840,-9696.697840,2987.772442
983.242037,-4663.297435,-9326.594869,2987.772442
983.242360,-4367.215058,-9326.594869,3217.601092
983.242684,-3775.050304,-9992.780217,3370.820191
983.243008,-1702.473667,-10140.821405,4290.134789
983.243332,-296.082377,-9178.553681,4826.401637
983.243656,666.185348,-8512.368333,4903.011187
983.243980,962.267725,-8438.347739,4136.915689
983.244304,1036.288319,-8364.327145,3677.258390
983.244627,518.144159,-8660.409521,3677.258390
983.244951,-518.144159,-8734.430116,2834.553343
983.245275,-2664.741391,-8216.285956,1838.629195
983.245599,-5181.441594,-7994.224174,0.000000
983.245923,-7179.997637,-10288.862594,766.095498
983.246247,-6883.915261,-11991.336260,766.095498
983.246570,-5625.565159,-11103.089130,1072.533697
983.246894,-4811.338623,-9474.636058,3064.381992
983.247218,-2368.659014,-8068.244768,4213.525239
983.247542,740.205942,-8068.244768,3907.087040
983.247866,2442.679609,-9696.697840,4366.744339
983.248190,3849.070898,-10436.903782,4596.572988
983.248513,4145.153275,-10955.047942,5132.839837
983.248837,2812.782580,-10807.006753,4290.134789
983.249161,0.000000,-9252.574275,3524.039291
983.249485,-2368.659014,-8512.368333,2834.553343
983.249809,-4293.194464,-8586.388927,-459.657299
983.250133,-6513.812290,-8734.430116,-3370.820191
983.250456,-7476.080014,-9844.739029,-1455.581446
983.250780,-5255.462188,-11325.150913,-766.095498
983.251104,-2220.617826,-10881.027347,-919.314598
983.251428,-2812.782580,-9548.656652,995.924147
983.251752,-4145.153275,-8660.409521,2145.067394
983.252076,-3701.029710,-10140.821405,842.705048
983.252400,-3182.885551,-11325.150913,995.924147
983.252723,-1036.288319,-10658.965565,3830.477490
983.253047,3034.844362,-10807.006753,4826.401637
983.253371,6735.874072,-11843.295072,4366.744339
983.253695,5847.626942,-11251.130318,4136.915689
983.254019,2590.720797,-9474.636058,2834.553343
983.254343,-1406.391290,-8290.306550,1455.581446
983.254666,-5551.544565,-8142.265362,-2451.505594
983.254990,-7550.100608,-8956.491898,-2604.724693
983.255314,-5477.523971,-9252.574275,-1072.533697
983.255638,-2368.659014,-10584.944971,-1532.190996
983.255962,-2812.782580,-10214.842000,-689.485948
983.256286,-4885.359217,-9030.512492,0.000000
983.256609,-5107.421000,-8512.368333,0.000000
983.256933,-4737.318029,-9400.615463,536.266849
983.257257,-4441.235652,-8808.450710,842.705048
983.257581,-1258.350101,-9918.759623,3447.429741
983.257905,2738.761985,-12509.480420,4060.306139
983.258229,2960.823768,-13101.645173,3677.258390
983.258552,1036.288319,-11177.109724,3677.258390
983.258876,-666.185348,-9104.533087,2757.943793
983.259200,-2220.617826,-9474.636058,1378.971896
983.259524,-2368.659014,-9474.636058,919.314598
983.259848,-2072.576638,-8216.285956,1455.581446
983.260172,-2220.617826,-8586.388927,1225.752797
983.260496,-3775.050304,-9030.512492,306.438199
983.260819,-4737.318029,-8364.327145,459.657299
983.261143,-3701.029710,-7772.162391,1225.752797
983.261467,-2812.782580,-8068.244768,1072.533697
983.261791,-4145.153275,-8512.368333,995.924147
983.262115,-5921.647536,-9474.636058,459.657299
983.262439,-5551.544565,-10658.965565,1762.019645
983.262762,-3108.864956,-11325.150913,2145.067394
983.263086,-1776.494261,-10214.842000,2374.896044
983.263410,-1480.411884,-9400.615463,2681.334243
983.263734,-666.185348,-10584.944971,2911.162892
983.264058,-370.102971,-11769.274478,3677.258390
983.264382,74.020594,-11769.274478,4213.525239
983.264705,962.267725,-10436.903782,4060.306139
983.265029,-296.082377,-9696.697840,3447.429741
983.265353,-2442.679609,-9992.780217,2834.553343
983.265677,-4515.256246,-11103.089130,2911.162892
983.266001,-4441.235652,-11177.109724,2834.553343
983.266325,-3923.091493,-9696.697840,2068.457845
983.266649,-3849.070898,-7994.224174,1762.019645
983.266972,-4293.194464,-7402.059420,2834.553343
983.267296,-3256.906145,-9178.553681,3600.648841
983.267620,-2368.659014,-10288.862594,2987.772442
983.267944,-2960.823768,-8438.347739,2221.676944
983.268268,-2960.823768,-6513.812290,1991.848295
983.268592,-2368.659014,-8068.244768,2987.772442
983.268915,-814.226536,-10658.965565,3600.648841
983.269239,370.102971,-10362.883188,3983.696590
983.269563,518.144159,-10214.842000,4443.353888
983.269887,444.123565,-10658.965565,4136.915689
983.270211,1258.350101,-10732.986159,4366.744339
983.270535,1332.370696,-9622.677246,4366.744339
983.270858,-296.082377,-9252.574275,3830.477490
983.271182,-2516.700203,-10214.842000,3370.820191
983.271506,-2886.803174,-9252.574275,3294.210641
983.271830,-2146.597232,-7105.977043,3217.601092
983.272154,-2738.761985,-6069.688724,3370.820191
983.272478,-4145.153275,-7846.182985,2145.067394
983.272801,-5477.523971,-7698.141797,459.657299
983.273125,-5181.441594,-7179.997637,306.438199
983.273449,-3701.029710,-8438.347739,1532.190996
983.273773,-1924.535449,-10584.944971,1378.971896
983.274097,-814.226536,-9622.677246,1838.629195
983.274421,-592.164754,-8882.471304,3524.039291
983.274745,888.247130,-10584.944971,3294.210641
983.275068,1036.288319,-12361.439231,2298.286494
983.275392,148.041188,-10807.006753,2145.067394
983.275716,-1258.350101,-9474.636058,3370.820191
983.276040,-962.267725,-11769.274478,2987.772442
983.276364,-592.164754,-12509.480420,2298.286494
983.276688,-1850.514855,-9770.718434,2834.553343
983.277012,-3627.009116,-8512.368333,1915.238745
983.277336,-4737.318029,-9844.739029,-689.485948
983.277660,-4811.338623,-9548.656652,-1072.533697
983.277984,-4515.256246,-8512.368333,153.219100
983.278308,-3330.926739,-9474.636058,76.609550
983.278632,-3108.864956,-9474.636058,-383.047749
983.278957,-2812.782580,-8512.368333,919.314598
983.279281,-2294.638420,-9992.780217,1072.533697
983.279605,-1776.494261,-11399.171507,76.609550
983.279929,-2072.576638,-11325.150913,383.047749
983.280253,-2368.659014,-10881.027347,306.438199
983.280577,-1776.494261,-10955.047942,153.219100
983.280901,-666.185348,-11177.109724,1378.971896
983.281225,0.000000,-11621.233289,1378.971896
983.281549,-148.041188,-11695.253884,0.000000
983.281873,-1628.453072,-11029.068536,459.657299
983.282197,-2072.576638,-10807.006753,612.876398
983.282521,-1702.473667,-11399.171507,383.047749
983.282845,-1924.535449,-10214.842000,1072.533697
983.283169,-2886.803174,-9178.553681,612.876398
983.283493,-3701.029710,-9696.697840,-459.657299
983.283817,-4293.194464,-9178.553681,1072.533697
983.284141,-4071.132681,-9400.615463,1685.410096
983.284465,-3478.967927,-9326.594869,1225.752797
983.284789,-3034.844362,-8512.368333,2298.286494
983.285114,-1776.494261,-8660.409521,2681.334243
983.285438,444.123565,-9178.553681,1149.143247
983.285762,666.185348,-7476.080014,2451.505594
983.286086,-370.102971,-7624.121203,3064.381992
983.286410,-592.164754,-8882.471304,1838.629195
983.286734,-222.061783,-8438.347739,1225.752797
983.287058,-666.185348,-8068.244768,2298.286494
983.287382,-888.247130,-8512.368333,995.924147
983.287706,-1332.370696,-8734.430116,1225.752797
983.288030,-2368.659014,-8734.430116,1991.848295
983.288354,-2960.823768,-8512.368333,1762.019645
983.288678,-2072.576638,-8438.347739,1608.800546
983.289002,-1628.453072,-8956.491898,1685.410096
983.289326,-1850.514855,-9918.759623,2757.943793
983.289650,-2664.741391,-9992.780217,1991.848295
983.289974,-2886.803174,-9030.512492,1991.848295
983.290298,-2664.741391,-9178.553681,3447.429741
983.290622,-1184.329507,-9918.759623,2068.457845
983.290946,296.082377,-9178.553681,1915.238745
983.291270,74.020594,-9252.574275,2068.457845
983.291595,74.020594,-10066.800811,1149.143247
983.291919,444.123565,-10066.800811,76.609550
983.292243,518.144159,-10362.883188,76.609550
983.292567,222.061783,-10658.965565,0.000000
983.292891,-148.041188,-11621.233289,995.924147
983.293215,-592.164754,-12213.398043,689.485948
983.293539,-1110.308913,-11547.212695,536.266849
983.293863,-1258.350101,-11177.109724,1455.581446
983.294187,222.061783,-11325.150913,1072.533697
983.294511,1184.329507,-11621.233289,689.485948
983.294835,444.123565,-10436.903782,1072.533697
983.295159,740.205942,-9326.594869,1915.238745
983.295483,1036.288319,-8586.388927,1608.800546
983.295807,888.247130,-8956.491898,1072.533697
983.296131,0.000000,-8586.388927,459.657299
983.296455,-888.247130,-8068.244768,-229.828649
983.296779,-740.205942,-9104.533087,229.828649
983.297103,-74.020594,-10584.944971,612.876398
983.297427,148.041188,-9474.636058,229.828649
983.297752,-296.082377,-9400.615463,842.705048
983.298076,-1184.329507,-9918.759623,536.266849
983.298400,-370.102971,-10510.924376,153.219100
983.298724,444.123565,-9326.594869,153.219100
983.299048,518.144159,-8142.265362,153.219100
983.299372,1258.350101,-6957.935855,-689.485948
983.299696,1184.329507,-7031.956449,-383.047749
983.300020,888.247130,-7994.224174,0.000000
983.300344,148.041188,-8142.265362,-536.266849
983.300668,-740.205942,-8734.430116,-766.095498
983.300992,-814.226536,-8512.368333,-1455.581446
983.301316,-740.205942,-8882.471304,-612.876398
983.301640,-1480.411884,-10732.986159,153.219100
983.301964,-1184.329507,-12065.356855,536.266849
983.302288,-1258.350101,-10881.027347,459.657299
983.302612,-1110.308913,-9252.574275,0.000000
983.302936,-444.123565,-9474.636058,-306.438199
983.303260,592.164754,-10140.821405,-919.314598
983.303584,1554.432478,-9548.656652,-766.095498
983.303908,2664.741391,-8660.409521,-612.876398
983.304233,1998.556043,-9548.656652,-1455.581446
983.304557,444.123565,-10584.944971,-1302.362347
983.304881,-740.205942,-11177.109724,-1915.238745
983.305205,-1628.453072,-11621.233289,-2451.505594
983.305529,-2294.638420,-12139.377449,-2528.115143
983.305853,-2960.823768,-11991.336260,-2604.724693
983.306177,-2738.761985,-11621.233289,-1455.581446
983.306501,-1258.350101,-11547.212695,-153.219100
983.306825,74.020594,-11843.295072,306.438199
983.307149,370.102971,-9696.697840,306.438199
983.307473,814.226536,-8956.491898,76.609550
983.307797,2590.720797,-9030.512492,459.657299
983.308121,4219.173869,-9548.656652,919.314598
983.308445,4071.132681,-9918.759623,612.876398
983.308769,2368.659014,-9178.553681,0.000000
983.309093,-370.102971,-9400.615463,-1149.143247
983.309417,-1554.432478,-9696.697840,-2451.505594
983.309741,-1554.432478,-9844.739029,-2374.896044
983.310065,-1776.494261,-9918.759623,-995.924147
983.310390,-1332.370696,-9770.718434,-1072.533697
983.310714,-1036.288319,-9770.718434,-919.314598
983.311038,74.020594,-9844.739029,689.485948
983.311362,962.267725,-8956.491898,919.314598
983.311686,1998.556043,-9400.615463,1532.190996
983.312010,1776.494261,-8808.450710,1762.019645
983.312334,1036.288319,-7994.224174,1838.629195
983.312658,1258.350101,-8734.430116,2145.067394
983.312982,1554.432478,-9918.759623,2145.067394
983.313306,1480.411884,-9326.594869,1838.629195
983.313630,1184.329507,-8068.244768,383.047749
983.313954,-296.082377,-7698.141797,0.000000
983.314278,-518.144159,-8586.388927,0.000000
983.314602,148.041188,-9622.677246,459.657299
983.314926,-148.041188,-9326.594869,0.000000
983.315250,-888.247130,-8882.471304,0.000000
983.315574,-962.267725,-9178.553681,995.924147
983.315898,518.144159,-10288.862594,766.095498
983.316222,814.226536,-9104.533087,306.438199
983.316546,0.000000,-7550.100608,153.219100
983.316871,0.000000,-8216.285956,229.828649
983.317195,0.000000,-10140.821405,-229.828649
983.317519,148.041188,-9474.636058,1072.533697
983.317843,370.102971,-8956.491898,1838.629195
983.318167,518.144159,-9770.718434,229.828649
983.318491,-962.267725,-9622.677246,-1608.800546
983.318815,-2146.597232,-9474.636058,-919.314598
983.319139,-1332.370696,-9622.677246,0.000000
983.319463,148.041188,-11029.068536,-612.876398
983.319787,-296.082377,-10807.006753,-919.314598
983.320111,-1184.329507,-9696.697840,153.219100
983.320435,0.000000,-9992.780217,0.000000
983.320759,370.102971,-10881.027347,-306.438199
983.321083,-888.247130,-10732.986159,-459.657299
983.321407,-1850.514855,-10807.006753,0.000000
983.321731,-1184.329507,-11399.171507,-459.657299
983.322055,-962.267725,-11843.295072,-1149.143247
983.322379,-2146.597232,-10288.862594,-1225.752797
983.322703,-3256.906145,-9770.718434,-1302.362347
983.323028,-3256.906145,-11029.068536,-1455.581446
983.323352,-1850.514855,-11843.295072,153.219100
983.323676,0.000000,-10362.883188,1072.533697
983.324000,1036.288319,-8512.368333,383.047749
983.324324,962.267725,-8512.368333,-536.266849
983.324648,1998.556043,-10584.944971,0.000000
983.324972,2590.720797,-11177.109724,1072.533697
983.325296,2590.720797,-10214.842000,612.876398
983.325620,1258.350101,-9326.594869,995.924147
983.325944,0.000000,-8660.409521,-612.876398
983.326268,-1332.370696,-7994.224174,-995.924147
983.326592,-1406.391290,-9474.636058,76.609550
983.326916,296.082377,-9696.697840,0.000000
983.327240,666.185348,-8438.347739,383.047749
983.327564,518.144159,-7179.997637,766.095498
983.327888,444.123565,-8068.244768,1072.533697
983.328212,296.082377,-9474.636058,766.095498
983.328536,370.102971,-8956.491898,689.485948
983.328860,370.102971,-7994.224174,842.705048
983.329185,0.000000,-9104.533087,689.485948
983.329509,296.082377,-9548.656652,229.828649
983.329833,1332.370696,-9030.512492,306.438199
983.330157,1628.453072,-9030.512492,536.266849
983.330481,1110.308913,-9252.574275,0.000000
983.330805,518.144159,-9474.636058,-995.924147
983.331129,148.041188,-8586.388927,612.876398
983.331453,0.000000,-8882.471304,306.438199
983.331777,296.082377,-9992.780217,-536.266849
983.332101,222.061783,-9770.718434,-459.657299
983.332425,-814.226536,-9696.697840,-229.828649
983.332749,-666.185348,-9622.677246,-612.876398
983.333073,0.000000,-9696.697840,0.000000
983.333397,296.082377,-10732.986159,-383.047749
983.333721,-296.082377,-9918.759623,0.000000
983.334045,296.082377,-10510.924376,-383.047749
983.334369,666.185348,-10732.986159,76.609550
983.334693,1184.329507,-10288.862594,0.000000
983.335017,518.144159,-10362.883188,-459.657299
983.335341,0.000000,-10140.821405,-1608.800546
983.335666,-666.185348,-10288.862594,-1608.800546
983.335990,-1480.411884,-10140.821405,-1072.533697
983.336314,-1480.411884,-10436.903782,-612.876398
983.336638,-1036.288319,-11325.150913,-919.314598
983.336962,-1406.391290,-11029.068536,-536.266849
983.337286,-962.267725,-10510.924376,-995.924147
983.337610,-444.123565,-10807.006753,-919.314598
983.337934,-444.123565,-11251.130318,-306.438199
983.338258,-592.164754,-10881.027347,0.000000
983.338582,-370.102971,-9622.677246,-536.266849
983.338906,0.000000,-9622.677246,76.609550
983.339230,74.020594,-10066.800811,-153.219100
983.339554,-148.041188,-11029.068536,0.000000
983.339878,-296.082377,-10140.821405,0.000000
983.340202,-518.144159,-9104.533087,-306.438199
983.340526,-148.041188,-8290.306550,-689.485948
983.340850,0.000000,-8142.265362,-612.876398
983.341174,-444.123565,-8660.409521,76.609550
983.341498,-370.102971,-8882.471304,-612.876398
983.341823,-148.041188,-8364.327145,-306.438199
983.342147,-592.164754,-9104.533087,229.828649
983.342471,-666.185348,-8586.388927,-306.438199
983.342795,-444.123565,-8586.388927,229.828649
983.343119,-592.164754,-8290.306550,459.657299
983.343443,148.041188,-8216.285956,536.266849
983.343767,888.247130,-9030.512492,1532.190996
983.344091,1184.329507,-9474.636058,1455.581446
983.344415,1258.350101,-9104.533087,1378.971896
983.344739,1110.308913,-8586.388927,766.095498
983.345063,518.144159,-8660.409521,919.314598
983.345387,-148.041188,-9696.697840,612.876398
983.345711,370.102971,-10288.862594,229.828649
983.346035,0.000000,-9178.553681,842.705048
983.346359,-296.082377,-9252.574275,0.000000
983.346683,0.000000,-10436.903782,0.000000
983.347007,0.000000,-10140.821405,-383.047749
983.347331,74.020594,-9622.677246,536.266849
983.347655,518.144159,-10362.883188,1532.190996
983.347979,1036.288319,-10732.986159,1225.752797
983.348304,1036.288319,-9770.718434,1072.533697
983.348628,1258.350101,-8512.368333,229.828649
983.348952,814.226536,-8808.450710,76.609550
983.349276,222.061783,-10362.883188,459.657299
983.349600,148.041188,-11399.171507,1072.533697
983.349924,148.041188,-10732.986159,1762.019645
983.350248,-370.102971,-8882.471304,76.609550
983.350572,-740.205942,-8586.388927,-995.924147
983.350896,-666.185348,-9622.677246,-1302.362347
983.351220,-222.061783,-11325.150913,-1378.971896
983.351544,444.123565,-10807.006753,-1225.752797
983.351868,1184.329507,-9474.636058,-612.876398
983.352192,1332.370696,-8660.409521,-306.438199
983.352516,370.102971,-9770.718434,-766.095498
983.352840,-962.267725,-10881.027347,-995.924147
983.353164,-1332.370696,-10955.047942,0.000000
983.353488,-666.185348,-10807.006753,-1225.752797
983.353812,-740.205942,-10214.842000,-153.219100
983.354136,-666.185348,-10362.883188,0.000000
983.354461,-1406.391290,-10510.924376,-536.266849
983.354785,-2072.576638,-10362.883188,-766.095498
983.355109,-1776.494261,-10066.800811,-1302.362347
983.355433,-2368.659014,-9104.533087,-1838.629195
983.355757,-2516.700203,-9104.533087,-995.924147
983.356081,-2294.638420,-10214.842000,-1378.971896
983.356405,-1850.514855,-9992.780217,-1685.410096
983.356729,-1702.473667,-9696.697840,-1455.581446
983.357053,-1628.453072,-10066.800811,-1608.800546
983.357377,-1036.288319,-9474.636058,-1608.800546
983.357701,-444.123565,-9104.533087,-76.609550
983.358025,0.000000,-9400.615463,0.000000
983.358349,962.267725,-9696.697840,229.828649
983.358673,1554.432478,-9474.636058,-153.219100
983.358997,2146.597232,-9178.553681,383.047749
983.359321,2516.700203,-9474.636058,1302.362347
983.359645,3108.864956,-9474.636058,459.657299
983.359969,2590.720797,-8808.450710,1302.362347
983.360293,1998.556043,-9030.512492,536.266849
983.360617,1776.494261,-8882.471304,229.828649
983.360942,222.061783,-9104.533087,536.266849
983.361266,-1184.329507,-8512.368333,0.000000
983.361590,-1184.329507,-7846.182985,-536.266849
983.361914,-1258.350101,-8068.244768,-612.876398
983.362238,-1258.350101,-9104.533087,0.000000
983.362562,-814.226536,-9178.553681,459.657299
983.362886,222.061783,-9474.636058,612.876398
983.363210,296.082377,-9548.656652,766.095498
983.363534,444.123565,-9252.574275,-229.828649
983.363858,444.123565,-9326.594869,229.828649
983.364182,222.061783,-10658.965565,1072.533697
983.364506,888.247130,-11769.274478,612.876398
983.364830,888.247130,-11177.109724,842.705048
983.365154,1110.308913,-9844.739029,383.047749
983.365478,2072.576638,-10214.842000,766.095498
983.365802,1776.494261,-10881.027347,689.485948
983.366126,370.102971,-10584.944971,689.485948
983.366450,-444.123565,-10288.862594,76.609550
983.366774,-666.185348,-9918.759623,-766.095498
983.367099,-518.144159,-8660.409521,-1838.629195
983.367423,-1258.350101,-9104.533087,-842.705048
983.367747,-888.247130,-9696.697840,-459.657299
983.368071,74.020594,-9918.759623,-842.705048
983.368395,296.082377,-9474.636058,-766.095498
983.368719,0.000000,-8956.491898,-612.876398
983.369043,444.123565,-9696.697840,229.828649
983.369367,518.144159,-11251.130318,842.705048
983.369691,888.247130,-10807.006753,612.876398
983.370015,888.247130,-9770.718434,766.095498
983.370339,148.041188,-10140.821405,0.000000
983.370663,-1110.308913,-10362.883188,153.219100
983.370987,-1702.473667,-10288.862594,76.609550
983.371311,-1628.453072,-9992.780217,76.609550
983.371635,-1702.473667,-9400.615463,-842.705048
983.371959,-2368.659014,-9178.553681,-1072.533697
983.372283,-2442.679609,-9474.636058,-919.314598
983.372607,-1332.370696,-9918.759623,-1378.971896
983.372931,-1110.308913,-9548.656652,-1225.752797
983.373255,-740.205942,-9252.574275,-995.924147
983.373580,0.000000,-9178.553681,-383.047749
983.373904,-148.041188,-9104.533087,-1378.971896
983.374228,-740.205942,-9474.636058,-919.314598
983.374552,-592.164754,-9992.780217,-766.095498
983.374876,814.226536,-10807.006753,-919.314598
983.375200,1332.370696,-10362.883188,153.219100
983.375524,666.185348,-9548.656652,612.876398
983.375848,-148.041188,-8438.347739,919.314598
983.376172,-444.123565,-9030.512492,306.438199
983.376496,-888.247130,-9696.697840,-306.438199
983.376820,-592.164754,-9326.594869,153.219100
983.377144,0.000000,-8660.409521,0.000000
983.377468,370.102971,-8956.491898,689.485948
983.377792,888.247130,-9696.697840,1532.190996
983.378116,444.123565,-9474.636058,-306.438199
983.378439,-222.061783,-8956.491898,-536.266849
983.378763,-1184.329507,-9252.574275,229.828649
983.379087,-444.123565,-9400.615463,-306.438199
983.379411,296.082377,-9252.574275,76.609550
983.379735,444.123565,-8586.388927,612.876398
983.380059,962.267725,-9696.697840,1149.143247
983.380383,1184.329507,-10436.903782,1225.752797
983.380707,1110.308913,-9770.718434,1225.752797
983.381031,962.267725,-8956.491898,2145.067394
983.381355,666.185348,-9178.553681,766.095498
983.381679,592.164754,-9104.533087,229.828649
983.382003,222.061783,-9474.636058,459.657299
983.382327,666.185348,-10658.965565,842.705048
983.382651,1332.370696,-10881.027347,0.000000
983.382975,1924.535449,-9844.739029,76.609550
983.383299,2294.638420,-8660.409521,76.609550
983.383622,2442.679609,-10066.800811,383.047749
983.383946,1332.370696,-11547.212695,229.828649
983.384270,-592.164754,-10955.047942,0.000000
983.384594,-1702.473667,-9474.636058,-995.924147
983.384918,-888.247130,-9030.512492,-306.438199
983.385242,148.041188,-10288.862594,76.609550
983.385566,222.061783,-10362.883188,0.000000
983.385890,-222.061783,-9400.615463,0.000000
983.386214,0.000000,-9104.533087,-995.924147
983.386538,-222.061783,-9178.553681,-1378.971896
983.386862,-1110.308913,-9622.677246,-1302.362347
983.387186,-1406.391290,-9400.615463,-1225.752797
983.387510,-888.247130,-9770.718434,-1608.800546
983.387834,-1628.453072,-9844.739029,-1915.238745
983.388158,-1258.350101,-9474.636058,-1838.629195
983.388482,-1036.288319,-9770.718434,-1225.752797
983.388805,-592.164754,-10807.006753,-536.266849
983.389129,222.061783,-11103.089130,-919.314598
983.389453,370.102971,-10510.924376,-1225.752797
983.389777,-222.061783,-9696.697840,-766.095498
983.390101,0.000000,-10732.986159,-536.266849
983.390425,-222.061783,-11547.212695,-919.314598
983.390749,-888.247130,-11399.171507,-536.266849
983.391073,-1332.370696,-11103.089130,-1455.581446
983.391397,-1258.350101,-9696.697840,-1762.019645
983.391721,-1036.288319,-9474.636058,-1608.800546
983.392045,-1628.453072,-10214.842000,-1072.533697
983.392369,-1776.494261,-10436.903782,-1072.533697
983.392693,-1184.329507,-9030.512492,-612.876398
983.393017,518.144159,-8882.471304,-612.876398
983.393341,1702.473667,-8290.306550,-766.095498
983.393665,1776.494261,-7772.162391,0.000000
983.393988,1184.329507,-8660.409521,459.657299
983.394312,740.205942,-9104.533087,153.219100
983.394636,592.164754,-8364.327145,383.047749
983.394960,-222.061783,-8808.450710,459.657299
983.395284,-1184.329507,-8512.368333,306.438199
983.395608,-518.144159,-9252.574275,153.219100
983.395932,592.164754,-9474.636058,229.828649
983.396256,518.144159,-9030.512492,229.828649
983.396580,222.061783,-8216.285956,0.000000
983.396904,0.000000,-8586.388927,842.705048
983.397228,962.267725,-9770.718434,766.095498
983.397552,1406.391290,-10658.965565,153.219100
983.397876,740.205942,-10436.903782,306.438199
983.398200,592.164754,-10140.821405,229.828649
983.398524,1036.288319,-10362.883188,153.219100
983.398848,1258.350101,-11177.109724,919.314598
983.399171,888.247130,-10881.027347,842.705048
983.399495,740.205942,-9992.780217,153.219100
983.399819,0.000000,-9696.697840,153.219100
983.400143,-370.102971,-9474.636058,0.000000
983.400467,0.000000,-10362.883188,-229.828649
983.400791,-444.123565,-9252.574275,0.000000
983.401115,148.041188,-9326.594869,153.219100
983.401439,888.247130,-9400.615463,306.438199
983.401763,1258.350101,-9474.636058,842.705048
983.402087,888.247130,-9252.574275,1149.143247
983.402411,666.185348,-9326.594869,459.657299
983.402735,1110.308913,-9252.574275,459.657299
983.403059,518.144159,-9326.594869,536.266849
983.403383,-148.041188,-9548.656652,459.657299
983.403707,-370.102971,-9622.677246,612.876398
983.404030,-296.082377,-9622.677246,229.828649
983.404354,-740.205942,-9252.574275,383.047749
983.404678,-1924.535449,-9252.574275,-306.438199
983.405002,-2812.782580,-9622.677246,-995.924147
983.405326,-2516.700203,-9992.780217,-383.047749
983.405650,-1924.535449,-10436.903782,-612.876398
983.405974,-592.164754,-10732.986159,-153.219100
983.406298,370.102971,-9770.718434,-842.705048
983.406622,592.164754,-9622.677246,-383.047749
983.406946,444.123565,-10140.821405,-383.047749
983.407270,370.102971,-10362.883188,-306.438199
983.407594,888.247130,-10658.965565,-459.657299
983.407918,518.144159,-10066.800811,-1302.362347
983.408242,0.000000,-9770.718434,-1072.533697
983.408566,-962.267725,-10510.924376,-306.438199
983.408890,-592.164754,-10658.965565,-536.266849
983.409213,74.020594,-9770.718434,0.000000
983.409537,592.164754,-9326.594869,229.828649
983.409861,-148.041188,-9474.636058,0.000000
983.410185,-518.144159,-9770.718434,-383.047749
983.410509,-962.267725,-9030.512492,-383.047749
983.410833,-814.226536,-8956.491898,-766.095498
983.411157,-1184.329507,-9474.636058,-766.095498
983.411481,-888.247130,-9844.739029,-459.657299
983.411805,-592.164754,-9548.656652,459.657299
983.412129,296.082377,-9992.780217,689.485948
983.412453,1184.329507,-10140.821405,229.828649
983.412777,962.267725,-9770.718434,0.000000
983.413101,518.144159,-9104.533087,306.438199
983.413425,518.144159,-9696.697840,1072.533697
983.413749,1184.329507,-10881.027347,1455.581446
983.414073,740.205942,-9400.615463,1302.362347
983.414396,296.082377,-7920.203579,459.657299
983.414720,-296.082377,-7698.141797,689.485948
983.415044,-962.267725,-8808.450710,229.828649
983.415368,-740.205942,-9104.533087,229.828649
983.415692,-1332.370696,-8142.265362,459.657299
983.416016,-1036.288319,-7328.038826,-229.828649
983.416340,0.000000,-7846.182985,306.438199
983.416664,518.144159,-8290.306550,459.657299
983.416988,1554.432478,-8734.430116,536.266849
983.417312,2072.576638,-9104.533087,1072.533697
983.417636,1924.535449,-9030.512492,766.095498
983.417960,1850.514855,-8586.388927,229.828649
983.418284,1110.308913,-9400.615463,612.876398
983.418608,962.267725,-11029.068536,995.924147
983.418932,1036.288319,-11843.295072,766.095498
983.419256,518.144159,-10807.006753,-536.266849
983.419579,-444.123565,-9400.615463,-306.438199
983.419903,-740.205942,-9918.759623,-612.876398
983.420227,-1628.453072,-11177.109724,-1608.800546
983.420551,-2442.679609,-10955.047942,-2298.286494
983.420875,-3108.864956,-9918.759623,-2298.286494
983.421199,-1850.514855,-10140.821405,-2068.457845
983.421523,-1184.329507,-11621.233289,-1378.971896
983.421847,-222.061783,-11399.171507,-1225.752797
983.422171,370.102971,-11177.109724,-383.047749
983.422495,74.020594,-11695.253884,-919.314598
983.422819,592.164754,-11251.130318,-1378.971896
983.423143,814.226536,-10658.965565,-306.438199
983.423467,1628.453072,-11103.089130,-766.095498
983.423791,2072.576638,-10807.006753,-1072.533697
983.424115,1628.453072,-10807.006753,-153.219100
983.424439,888.247130,-10214.842000,-612.876398
983.424762,-74.020594,-9992.780217,-1302.362347
983.425086,-1332.370696,-9400.615463,-1991.848295
983.425410,-1184.329507,-8216.285956,-2221.676944
983.425734,0.000000,-9474.636058,-1608.800546
983.426058,888.247130,-10066.800811,-689.485948
983.426382,1406.391290,-9252.574275,0.000000
983.426706,592.164754,-8660.409521,306.438199
983.427030,74.020594,-8512.368333,459.657299
983.427354,74.020594,-8956.491898,842.705048
983.427678,148.041188,-9178.553681,536.266849
983.428002,-444.123565,-8734.430116,536.266849
983.428326,-962.267725,-8290.306550,842.705048
983.428650,-222.061783,-8438.347739,536.266849
983.428974,-222.061783,-8068.244768,76.609550
983.429298,-740.205942,-7402.059420,536.266849
983.429621,-962.267725,-7698.141797,229.828649
983.429945,-1184.329507,-8512.368333,-766.095498
983.430269,-1184.329507,-8660.409521,-459.657299
983.430593,-740.205942,-9030.512492,383.047749
983.430917,1406.391290,-9696.697840,919.314598
983.431241,1998.556043,-9548.656652,689.485948
983.431565,1480.411884,-9326.594869,995.924147
983.431889,666.185348,-9474.636058,1378.971896
983.432213,666.185348,-10658.965565,536.266849
983.432537,888.247130,-10584.944971,612.876398
983.432861,296.082377,-9548.656652,689.485948
983.433185,-592.164754,-9474.636058,153.219100
983.433509,-1480.411884,-9622.677246,-612.876398
983.433833,-1850.514855,-9992.780217,-459.657299
983.434157,-962.267725,-10436.903782,0.000000
983.434481,-1850.514855,-9918.759623,-612.876398
983.434804,-2812.782580,-9622.677246,-1072.533697
983.435128,-2368.659014,-9474.636058,-689.485948
983.435452,-1332.370696,-9918.759623,-766.095498
983.435776,-592.164754,-10584.944971,-766.095498
983.436100,-888.247130,-10732.986159,0.000000
983.436424,-740.205942,-10807.006753,842.705048
983.436748,296.082377,-10362.883188,306.438199
983.437072,1258.350101,-10807.006753,459.657299
983.437396,1850.514855,-10658.965565,536.266849
983.437720,2368.659014,-10881.027347,76.609550
983.438044,1702.473667,-11547.212695,153.219100
983.438368,814.226536,-10436.903782,76.609550
983.438692,814.226536,-9918.759623,-536.266849
983.439016,0.000000,-10362.883188,-536.266849
983.439340,74.020594,-10362.883188,-383.047749
983.439664,-222.061783,-10436.903782,153.219100
983.439987,-592.164754,-9992.780217,-459.657299
983.440311,-1332.370696,-9178.553681,-383.047749
983.440635,-1776.494261,-9474.636058,-153.219100
983.440959,-1406.391290,-9178.553681,-689.485948
983.441283,-592.164754,-9326.594869,-459.657299
983.441607,-296.082377,-9030.512492,612.876398
983.441931,814.226536,-8660.409521,766.095498
983.442255,1480.411884,-8882.471304,612.876398
983.442579,814.226536,-8882.471304,1072.533697
983.442903,1258.350101,-9178.553681,1455.581446
983.443227,1702.473667,-9474.636058,153.219100
983.443551,1332.370696,-8734.430116,-153.219100
983.443875,0.000000,-8068.244768,229.828649
983.444199,0.000000,-8586.388927,459.657299
983.444523,0.000000,-9326.594869,153.219100
983.444847,-666.185348,-8808.450710,76.609550
983.445170,-1110.308913,-7846.182985,0.000000
983.445494,-1628.453072,-8290.306550,-995.924147
983.445818,-1110.308913,-8586.388927,-689.485948
983.446142,-888.247130,-8660.409521,-306.438199
983.446466,-222.061783,-8660.409521,-536.266849
983.446790,-740.205942,-9918.759623,76.609550
983.447114,-148.041188,-9400.615463,0.000000
983.447438,518.144159,-9622.677246,-229.828649
983.447762,296.082377,-10732.986159,-229.828649
983.448086,148.041188,-11325.150913,-689.485948
983.448410,1110.308913,-11399.171507,-153.219100
983.448734,962.267725,-10955.047942,229.828649
983.449058,1332.370696,-10955.047942,229.828649
983.449382,0.000000,-11103.089130,229.828649
983.449706,-666.185348,-11917.315666,76.609550
983.450029,-740.205942,-11399.171507,-995.924147
983.450353,-1332.370696,-10140.821405,-919.314598
983.450677,-888.247130,-9770.718434,-766.095498
983.451001,-1110.308913,-10214.842000,-306.438199
983.451325,-592.164754,-10288.862594,-383.047749
983.451649,-1332.370696,-8956.491898,-1225.752797
983.451973,-814.226536,-8068.244768,-1608.800546
983.452297,-370.102971,-9178.553681,-919.314598
983.452621,74.020594,-10510.924376,76.609550
983.452945,-148.041188,-10140.821405,-459.657299
983.453269,0.000000,-9326.594869,-383.047749
983.453593,0.000000,-9474.636058,76.609550
983.453917,1702.473667,-11325.150913,306.438199
983.454241,2516.700203,-11473.192101,995.924147
983.454565,1924.535449,-10584.944971,1225.752797
983.454889,0.000000,-9918.759623,1225.752797
983.455212,0.000000,-10584.944971,0.000000
983.455536,148.041188,-10436.903782,-306.438199
983.455860,-222.061783,-9622.677246,-153.219100
983.456184,-1332.370696,-8660.409521,0.000000
983.456508,-2146.597232,-8808.450710,-1225.752797
983.456832,-2516.700203,-8660.409521,-1302.362347
983.457156,-1480.411884,-8808.450710,-995.924147
983.457480,-666.185348,-9030.512492,-842.705048
983.457804,-1036.288319,-9622.677246,0.000000
983.458128,-1036.288319,-8216.285956,-536.266849
983.458452,444.123565,-8290.306550,536.266849
983.458776,2664.741391,-8438.347739,1915.238745
983.459100,3627.009116,-8438.347739,1532.190996
983.459424,3182.885551,-8882.471304,1225.752797
983.459748,2294.638420,-9178.553681,919.314598
983.460072,1628.453072,-8512.368333,383.047749
983.460395,1332.370696,-7920.203579,0.000000
983.460719,370.102971,-7476.080014,0.000000
983.461043,-148.041188,-8290.306550,-842.705048
983.461367,-1332.370696,-9400.615463,-1378.971896
983.461691,-1480.411884,-9178.553681,-1302.362347
983.462015,-592.164754,-8808.450710,-1149.143247
983.462339,74.020594,-9474.636058,-383.047749
983.462663,0.000000,-10362.883188,0.000000
983.462987,-1036.288319,-10955.047942,-306.438199
983.463311,-962.267725,-10807.006753,0.000000
983.463635,-1110.308913,-11177.109724,0.000000
983.463959,-444.123565,-11251.130318,-306.438199
983.464283,74.020594,-11325.150913,0.000000
983.464607,518.144159,-12435.459826,612.876398
983.464931,1258.350101,-12065.356855,229.828649
983.465255,1998.556043,-11251.130318,766.095498
983.465578,888.247130,-10584.944971,76.609550
983.465902,296.082377,-10881.027347,0.000000
983.466226,-814.226536,-10436.903782,-1608.800546
983.466550,-1776.494261,-9548.656652,-1608.800546
983.466874,-1110.308913,-9696.697840,-1149.143247
983.467198,0.000000,-10214.842000,-766.095498
983.467522,74.020594,-9474.636058,-383.047749
983.467846,-592.164754,-8290.306550,-842.705048
983.468170,-962.267725,-8142.265362,-383.047749
983.468494,-296.082377,-8512.368333,-536.266849
983.468818,0.000000,-9252.574275,153.219100
983.469142,-148.041188,-9252.574275,689.485948
983.469466,-148.041188,-9178.553681,689.485948
983.469790,-592.164754,-8660.409521,0.000000
983.470114,-296.082377,-8660.409521,-383.047749
983.470438,-444.123565,-9474.636058,-383.047749
983.470761,-1184.329507,-9918.759623,0.000000
983.471085,-1702.473667,-10140.821405,306.438199
983.471409,-2072.576638,-9622.677246,0.000000
983.471733,-1628.453072,-9326.594869,-689.485948
983.472057,-814.226536,-9326.594869,-766.095498
983.472381,-222.061783,-9696.697840,-229.828649
983.472705,74.020594,-9992.780217,306.438199
983.473029,-592.164754,-9400.615463,-459.657299
983.473353,-1036.288319,-8734.430116,-383.047749
983.473677,-1258.350101,-8734.430116,-536.266849
983.474001,-666.185348,-9770.718434,-383.047749
983.474325,-296.082377,-10140.821405,459.657299
983.474649,444.123565,-10066.800811,536.266849
983.474973,1702.473667,-9474.636058,536.266849
983.475297,3034.844362,-8660.409521,229.828649
983.475620,3404.947333,-9622.677246,1072.533697
983.475944,2812.782580,-10955.047942,1072.533697
983.476268,2294.638420,-10436.903782,459.657299
983.476592,888.247130,-9474.636058,0.000000
983.476916,-148.041188,-8956.491898,-536.266849
983.477240,-518.144159,-9918.759623,-766.095498
983.477564,-740.205942,-10140.821405,-229.828649
983.477888,-148.041188,-9474.636058,0.000000
983.478212,296.082377,-9548.656652,0.000000
983.478536,518.144159,-9474.636058,-459.657299
983.478860,148.041188,-9844.739029,459.657299
983.479184,296.082377,-10584.944971,459.657299
983.479508,-148.041188,-10066.800811,-153.219100
983.479832,-740.205942,-9844.739029,0.000000
983.480156,-370.102971,-10140.821405,689.485948
983.480480,1258.350101,-10436.903782,995.924147
983.480804,1924.535449,-10807.006753,536.266849
983.481128,1850.514855,-9992.780217,536.266849
983.481452,1406.391290,-9770.718434,-153.219100
983.481776,666.185348,-9696.697840,-459.657299
983.482100,444.123565,-8734.430116,-153.219100
983.482424,518.144159,-9178.553681,0.000000
983.482748,-370.102971,-9326.594869,76.609550
983.483072,-740.205942,-9326.594869,-229.828649
983.483396,-518.144159,-9326.594869,-153.219100
983.483720,0.000000,-8364.327145,76.609550
983.484044,-740.205942,-8660.409521,306.438199
983.484368,-1702.473667,-9178.553681,-153.219100
983.484692,-1850.514855,-8808.450710,-383.047749
983.485016,-1110.308913,-8882.471304,536.266849
983.485340,-740.205942,-9252.574275,995.924147
983.485664,-518.144159,-9474.636058,689.485948
983.485988,-370.102971,-9178.553681,229.828649
983.486312,-296.082377,-9178.553681,76.609550
983.486636,-296.082377,-9622.677246,-766.095498
983.486960,-740.205942,-9770.718434,-612.876398
983.487283,-1776.494261,-9696.697840,-229.828649
983.487607,-2442.679609,-9548.656652,-1149.143247
983.487931,-1998.556043,-9178.553681,-995.924147
983.488255,-1184.329507,-9622.677246,-1072.533697
983.488579,0.000000,-10807.006753,-383.047749
983.488903,1480.411884,-11695.253884,306.438199
983.489227,2368.659014,-11177.109724,612.876398
983.489551,1628.453072,-10362.883188,306.438199
983.489875,814.226536,-10214.842000,0.000000
983.490199,148.041188,-10807.006753,-919.314598
983.490523,-740.205942,-11177.109724,-229.828649
983.490847,-1036.288319,-10584.944971,-766.095498
983.491171,-444.123565,-10140.821405,-383.047749
983.491495,0.000000,-10362.883188,-459.657299
983.491819,592.164754,-10066.800811,-995.924147
983.492143,370.102971,-9770.718434,-919.314598
983.492467,74.020594,-9770.718434,-1149.143247
983.492791,370.102971,-9770.718434,-995.924147
983.493115,740.205942,-10288.862594,229.828649
983.493439,1332.370696,-10214.842000,459.657299
983.493763,1776.494261,-9030.512492,459.657299
983.494087,1332.370696,-9770.718434,383.047749
983.494411,962.267725,-9918.759623,-383.047749
983.494735,1036.288319,-8290.306550,-229.828649
983.495059,888.247130,-8364.327145,536.266849
983.495383,666.185348,-9178.553681,306.438199
983.495707,1628.453072,-9400.615463,0.000000
983.496031,444.123565,-8660.409521,-383.047749
983.496355,-222.061783,-8808.450710,0.000000
983.496679,296.082377,-9770.718434,-229.828649
983.497003,74.020594,-9548.656652,0.000000
983.497327,0.000000,-9104.533087,766.095498
983.497651,-518.144159,-9030.512492,842.705048
983.497975,296.082377,-9548.656652,-459.657299
983.498299,-814.226536,-8956.491898,536.266849
983.498623,-1258.350101,-9992.780217,536.266849
983.498947,-1184.329507,-10510.924376,306.438199
983.499271,-1036.288319,-9548.656652,459.657299
983.499595,-1036.288319,-8660.409521,0.000000
983.499919,-518.144159,-9030.512492,76.609550
983.500243,-370.102971,-9770.718434,306.438199
983.500566,-814.226536,-10955.047942,306.438199
983.500890,-518.144159,-10288.862594,766.095498
983.501214,444.123565,-9548.656652,229.828649
983.501538,1184.329507,-9030.512492,689.485948
983.501862,888.247130,-9770.718434,76.609550
983.502186,0.000000,-9918.759623,0.000000
983.502510,0.000000,-9548.656652,306.438199
983.502834,-222.061783,-9178.553681,153.219100
983.503158,-222.061783,-8586.388927,-842.705048
983.503482,-1110.308913,-8660.409521,-383.047749
983.503806,-1036.288319,-9770.718434,-229.828649
983.504130,-962.267725,-11029.068536,0.000000
983.504454,-962.267725,-10732.986159,-459.657299
983.504778,-962.267725,-9326.594869,0.000000
983.505102,-518.144159,-9696.697840,-306.438199
983.505426,0.000000,-10658.965565,-536.266849
983.505750,-888.247130,-11251.130318,-766.095498
983.506074,-666.185348,-11029.068536,0.000000
983.506398,-444.123565,-11177.109724,0.000000
983.506722,-444.123565,-11177.109724,0.000000
983.507046,-444.123565,-10214.842000,0.000000
983.507370,-148.041188,-9992.780217,-459.657299
983.507694,148.041188,-10658.965565,-612.876398
983.508018,444.123565,-9918.759623,-306.438199
983.508342,296.082377,-9548.656652,536.266849
983.508666,222.061783,-9326.594869,842.705048
983.508990,148.041188,-9178.553681,153.219100
983.509314,74.020594,-8734.430116,76.609550
983.509638,0.000000,-8290.306550,0.000000
983.509962,-518.144159,-9622.677246,0.000000
983.510286,0.000000,-9178.553681,0.000000
983.510610,370.102971,-7550.100608,306.438199
983.510934,0.000000,-8290.306550,459.657299
983.511258,370.102971,-8956.491898,0.000000
983.511582,1258.350101,-9178.553681,766.095498
983.511906,2072.576638,-9104.533087,1685.410096
983.512230,2590.720797,-8882.471304,536.266849
983.512554,1406.391290,-8364.327145,612.876398
983.512878,1036.288319,-8512.368333,689.485948
983.513202,1628.453072,-9696.697840,536.266849
983.513526,1110.308913,-10584.944971,306.438199
983.513849,-222.061783,-10288.862594,153.219100
983.514173,-592.164754,-9548.656652,-459.657299
983.514497,-592.164754,-9400.615463,-995.924147
983.514821,-222.061783,-9992.780217,-459.657299
983.515145,-444.123565,-10140.821405,-995.924147
983.515469,-1924.535449,-10066.800811,-766.095498
983.515793,-1628.453072,-10140.821405,-612.876398
983.516117,74.020594,-10658.965565,76.609550
983.516441,1776.494261,-10955.047942,612.876398
983.516765,1776.494261,-10288.862594,1072.533697
983.517089,148.041188,-9770.718434,612.876398
983.517413,-148.041188,-10658.965565,766.095498
983.517737,0.000000,-10066.800811,-153.219100
983.518061,148.041188,-9474.636058,229.828649
983.518385,-592.164754,-9696.697840,76.609550
983.518709,-1702.473667,-9548.656652,-995.924147
983.519033,-2368.659014,-9178.553681,-842.705048
983.519357,-2738.761985,-9252.574275,-1378.971896
983.519681,-1628.453072,-9326.594869,-995.924147
983.520005,-1554.432478,-9548.656652,-1532.190996
983.520329,-1480.411884,-9104.533087,-995.924147
983.520653,-1332.370696,-8586.388927,-766.095498
983.520977,-1258.350101,-9474.636058,-229.828649
983.521301,-518.144159,-10362.883188,153.219100
983.521625,814.226536,-10732.986159,76.609550
983.521949,666.185348,-10658.965565,1532.190996
983.522273,962.267725,-10362.883188,2145.067394
983.522597,1036.288319,-9770.718434,842.705048
983.522921,814.226536,-9696.697840,76.609550
983.523245,-592.164754,-10214.842000,-306.438199
983.523569,-1332.370696,-10214.842000,-1072.533697
983.523893,-962.267725,-9622.677246,-1378.971896
983.524217,74.020594,-9992.780217,-766.095498
983.524541,1258.350101,-10066.800811,153.219100
983.524865,1554.432478,-9622.677246,0.000000
983.525189,74.020594,-9252.574275,0.000000
983.525513,-592.164754,-9400.615463,0.000000
983.525837,74.020594,-9178.553681,612.876398
983.526161,444.123565,-8808.450710,153.219100
983.526485,-296.082377,-8512.368333,459.657299
983.526809,-740.205942,-8216.285956,1072.533697
983.527132,0.000000,-8438.347739,-153.219100
983.527456,0.000000,-8956.491898,0.000000
983.527780,222.061783,-9030.512492,0.000000
983.528104,666.185348,-8882.471304,229.828649
983.528428,962.267725,-9918.759623,689.485948
983.528752,1184.329507,-10658.965565,306.438199
983.529076,1850.514855,-10140.821405,229.828649
983.529400,1850.514855,-10362.883188,766.095498
983.529724,1924.535449,-11473.192101,459.657299
983.530048,1628.453072,-11103.089130,842.705048
983.530372,1184.329507,-9918.759623,1302.362347
983.530696,1480.411884,-10066.800811,536.266849
983.531020,814.226536,-11251.130318,306.438199
983.531344,0.000000,-10362.883188,-689.485948
983.531668,-962.267725,-8808.450710,-306.438199
983.531992,-2516.700203,-9030.512492,0.000000
983.532316,-2294.638420,-10362.883188,-689.485948
983.532640,-962.267725,-9252.574275,-612.876398
983.532964,-148.041188,-8438.347739,229.828649
983.533288,0.000000,-9030.512492,383.047749
983.533612,0.000000,-9918.759623,536.266849
983.533936,-296.082377,-8956.491898,919.314598
983.534260,0.000000,-7994.224174,995.924147
983.534584,-222.061783,-8956.491898,-153.219100
983.534908,-518.144159,-9400.615463,0.000000
983.535232,-222.061783,-9696.697840,383.047749
983.535556,0.000000,-9918.759623,459.657299
983.535880,0.000000,-9474.636058,229.828649
983.536204,-814.226536,-8808.450710,0.000000
983.536528,-2368.659014,-9178.553681,-1225.752797
983.536852,-2812.782580,-9844.739029,-689.485948
983.537176,-1924.535449,-10288.862594,-153.219100
983.537500,-740.205942,-9918.759623,0.000000
983.537824,0.000000,-9622.677246,229.828649
983.538148,74.020594,-9918.759623,0.000000
983.538472,-148.041188,-9918.759623,-536.266849
983.538796,0.000000,-10140.821405,-459.657299
983.539120,74.020594,-10140.821405,0.000000
983.539444,-222.061783,-10436.903782,-689.485948
983.539768,0.000000,-9696.697840,-919.314598
983.540092,74.020594,-9474.636058,-383.047749
983.540415,1480.411884,-10732.986159,229.828649
983.540739,2442.679609,-11325.150913,-459.657299
983.541063,1406.391290,-9992.780217,-536.266849
983.541387,592.164754,-8142.265362,0.000000
983.541711,592.164754,-8882.471304,-306.438199
983.542035,518.144159,-9770.718434,153.219100
983.542359,-74.020594,-9992.780217,0.000000
983.542683,0.000000,-9252.574275,76.609550
983.543007,222.061783,-8882.471304,-459.657299
983.543331,74.020594,-9104.533087,306.438199
983.543655,0.000000,-9326.594869,689.485948
983.543979,666.185348,-8512.368333,-459.657299
983.544303,888.247130,-8882.471304,-383.047749
983.544627,0.000000,-9992.780217,153.219100
983.544951,-296.082377,-10066.800811,0.000000
983.545275,-740.205942,-10066.800811,76.609550
983.545599,-370.102971,-10066.800811,76.609550
983.545923,592.164754,-9474.636058,-306.438199
983.546247,0.000000,-9696.697840,-612.876398
983.546571,-296.082377,-9622.677246,-612.876398
983.546895,296.082377,-9178.553681,76.609550
983.547219,1036.288319,-9770.718434,383.047749
983.547543,1036.288319,-9844.739029,536.266849
983.547867,0.000000,-10214.842000,306.438199
983.548191,-666.185348,-9844.739029,-153.219100
983.548515,-740.205942,-9548.656652,153.219100
983.548839,-888.247130,-9770.718434,76.609550
983.549163,-666.185348,-9992.780217,383.047749
983.549487,0.000000,-9474.636058,383.047749
983.549811,592.164754,-9548.656652,459.657299
983.550135,222.061783,-9844.739029,1149.143247
983.550459,-222.061783,-9178.553681,0.000000
983.550783,-370.102971,-8882.471304,76.609550
983.551107,-296.082377,-9326.594869,0.000000
983.551431,0.000000,-9326.594869,459.657299
983.551755,0.000000,-9474.636058,842.705048
983.552079,-222.061783,-9548.656652,612.876398
983.552403,-1332.370696,-9400.615463,0.000000
983.552727,-962.267725,-9326.594869,-383.047749
983.553051,0.000000,-10066.800811,229.828649
983.553375,444.123565,-10658.965565,536.266849
983.553698,888.247130,-9918.759623,766.095498
983.554022,1036.288319,-9252.574275,1302.362347
983.554346,1184.329507,-9918.759623,1149.143247
983.554670,666.185348,-10214.842000,383.047749
983.554994,222.061783,-10066.800811,612.876398
983.555318,-592.164754,-9918.759623,76.609550
983.555642,-1110.308913,-9474.636058,-536.266849
983.555966,-2072.576638,-9178.553681,-766.095498
983.556290,-2368.659014,-9696.697840,-689.485948
983.556614,-2516.700203,-9844.739029,-1072.533697
983.556938,-1628.453072,-9992.780217,-689.485948
983.557262,-814.226536,-9770.718434,306.438199
983.557586,296.082377,-9844.739029,612.876398
983.557910,518.144159,-10214.842000,842.705048
983.558234,0.000000,-10066.800811,689.485948
983.558558,0.000000,-9622.677246,306.438199
983.558882,444.123565,-9474.636058,-153.219100
983.559206,370.102971,-9474.636058,-383.047749
983.559530,-370.102971,-9918.759623,229.828649
983.559854,592.164754,-9918.759623,229.828649
983.560178,740.205942,-10214.842000,0.000000
983.560502,1110.308913,-9400.615463,-383.047749
983.560826,666.185348,-8882.471304,0.000000
983.561150,444.123565,-9400.615463,306.438199
983.561474,592.164754,-9030.512492,76.609550
983.561798,444.123565,-8512.368333,0.000000
983.562122,-296.082377,-8956.491898,-459.657299
983.562446,-444.123565,-9030.512492,-1302.362347
983.562770,-740.205942,-9400.615463,-306.438199
983.563094,-370.102971,-9474.636058,-306.438199
983.563418,740.205942,-9474.636058,-306.438199
983.563742,518.144159,-9844.739029,-229.828649
983.564066,518.144159,-9400.615463,-612.876398
983.564390,1110.308913,-9622.677246,-536.266849
983.564714,1110.308913,-10807.006753,-459.657299
983.565038,888.247130,-11547.212695,-76.609550
983.565362,518.144159,-10510.924376,-689.485948
983.565686,0.000000,-9622.677246,-612.876398
983.566010,-148.041188,-9548.656652,0.000000
983.566334,0.000000,-10362.883188,-153.219100
983.566658,370.102971,-10362.883188,229.828649
983.566981,-222.061783,-9252.574275,229.828649
983.567305,-148.041188,-9474.636058,-153.219100
983.567629,0.000000,-9400.615463,76.609550
983.567953,-370.102971,-9400.615463,383.047749
983.568277,-814.226536,-8882.471304,842.705048
983.568601,-592.164754,-9030.512492,-306.438199
983.568925,-962.267725,-9030.512492,-612.876398
983.569249,-1258.350101,-8808.450710,0.000000
983.569573,-1554.432478,-9178.553681,-536.266849
983.569897,-740.205942,-9326.594869,-612.876398
983.570221,-222.061783,-9474.636058,-306.438199
983.570545,296.082377,-9844.739029,153.219100
983.570869,370.102971,-9844.739029,229.828649
983.571193,0.000000,-10140.821405,-306.438199
983.571517,0.000000,-10362.883188,383.047749
983.571841,-296.082377,-10658.965565,-153.219100
983.572165,0.000000,-10807.006753,-153.219100
983.572489,-1184.329507,-10214.842000,76.609550
983.572813,-1406.391290,-10214.842000,153.219100
983.573137,-1036.288319,-10658.965565,459.657299
983.573461,74.020594,-10732.986159,459.657299
983.573785,962.267725,-10510.924376,1072.533697
983.574109,222.061783,-8956.491898,153.219100
983.574433,-370.102971,-9104.533087,-153.219100
983.574757,-666.185348,-9252.574275,0.000000
983.575081,0.000000,-9622.677246,0.000000
983.575405,-296.082377,-9326.594869,-153.219100
983.575729,-888.247130,-8364.327145,-229.828649
983.576053,-592.164754,-8364.327145,-153.219100
983.576377,-222.061783,-9326.594869,229.828649
983.576701,814.226536,-9474.636058,459.657299
983.577025,2072.576638,-9252.574275,229.828649
983.577349,1998.556043,-8586.388927,383.047749
983.577673,1480.411884,-9474.636058,1072.533697
983.577997,2220.617826,-10140.821405,1378.971896
983.578321,2072.576638,-10362.883188,1225.752797
983.578645,1480.411884,-9844.739029,306.438199
983.578969,888.247130,-9104.533087,76.609550
983.579293,592.164754,-9622.677246,-459.657299
983.579617,814.226536,-10732.986159,153.219100
983.579941,370.102971,-9770.718434,0.000000
983.580265,-666.185348,-9474.636058,-459.657299
983.580589,-1332.370696,-9622.677246,-459.657299
983.580913,-1110.308913,-9548.656652,-612.876398
983.581237,-666.185348,-9770.718434,229.828649
983.581561,-148.041188,-9252.574275,383.047749
983.581885,888.247130,-8882.471304,0.000000
983.582209,888.247130,-8734.430116,0.000000
983.582533,0.000000,-9104.533087,-229.828649
983.582857,-592.164754,-9696.697840,-153.219100
983.583181,-962.267725,-9770.718434,0.000000
983.583505,-444.123565,-9474.636058,-612.876398
983.583829,-296.082377,-9474.636058,0.000000
983.584153,-296.082377,-9400.615463,-229.828649
983.584477,-370.102971,-10584.944971,536.266849
983.584801,-370.102971,-10510.924376,-306.438199
983.585124,-222.061783,-9030.512492,-995.924147
983.585448,-1184.329507,-8734.430116,-306.438199
983.585772,-1332.370696,-10066.800811,-536.266849
983.586096,-1110.308913,-11399.171507,-459.657299
983.586420,-222.061783,-11177.109724,1149.143247
983.586744,-1184.329507,-9992.780217,842.705048
983.587068,-814.226536,-9326.594869,459.657299
983.587392,-1850.514855,-9400.615463,-612.876398
983.587716,-1776.494261,-9474.636058,-536.266849
983.588040,-1480.411884,-10140.821405,-459.657299
983.588364,-962.267725,-10436.903782,-995.924147
983.588688,-370.102971,-9400.615463,-536.266849
983.589012,148.041188,-9400.615463,383.047749
983.589336,222.061783,-9844.739029,-306.438199
983.589660,0.000000,-9622.677246,-153.219100
983.589984,0.000000,-8660.409521,-1072.533697
983.590308,814.226536,-8882.471304,-459.657299
983.590632,2072.576638,-9548.656652,76.609550
983.590956,2812.782580,-9548.656652,1838.629195
983.591280,2442.679609,-9844.739029,2068.457845
983.591604,1628.453072,-9474.636058,766.095498
983.591928,592.164754,-8512.368333,0.000000
983.592252,-1036.288319,-8290.306550,-536.266849
983.592576,-592.164754,-9548.656652,-306.438199
983.592900,-296.082377,-9696.697840,0.000000
983.593224,-296.082377,-9178.553681,0.000000
983.593548,74.020594,-8882.471304,383.047749
983.593872,592.164754,-9030.512492,0.000000
983.594196,740.205942,-9474.636058,0.000000
983.594520,592.164754,-9474.636058,-689.485948
983.594844,0.000000,-9992.780217,-689.485948
983.595168,0.000000,-10362.883188,-689.485948
983.595492,1184.329507,-11251.130318,-459.657299
983.595816,1036.288319,-11547.212695,383.047749
983.596140,888.247130,-10955.047942,76.609550
983.596464,296.082377,-10881.027347,-459.657299
983.596788,-444.123565,-10510.924376,0.000000
983.597112,-444.123565,-10066.800811,689.485948
983.597436,-370.102971,-10214.842000,229.828649
983.597760,-370.102971,-9548.656652,-689.485948
983.598084,-1184.329507,-9104.533087,-383.047749
983.598408,-1184.329507,-9252.574275,0.000000
983.598732,-222.061783,-10214.842000,0.000000
983.599056,-740.205942,-9622.677246,76.609550
983.599380,-1258.350101,-9178.553681,-229.828649
983.599704,-1110.308913,-9326.594869,-306.438199
983.600028,0.000000,-9844.739029,-383.047749
983.600352,222.061783,-10510.924376,1378.971896
983.600676,592.164754,-10288.862594,1838.629195
983.601000,592.164754,-9104.533087,1378.971896
983.601324,-740.205942,-8660.409521,1149.143247
983.601648,-1110.308913,-8660.409521,1072.533697
983.601972,-370.102971,-8956.491898,612.876398
983.602296,-444.123565,-9770.718434,995.924147
983.602620,-1036.288319,-9104.533087,1072.533697
983.602944,-1036.288319,-7846.182985,459.657299
983.603268,-1554.432478,-7624.121203,-383.047749
983.603592,-1702.473667,-8660.409521,-383.047749
983.603916,-1184.329507,-9252.574275,-306.438199
983.604240,-148.041188,-9548.656652,383.047749
983.604564,-962.267725,-9474.636058,229.828649
983.604888,-666.185348,-9400.615463,-153.219100
983.605212,222.061783,-8808.450710,-153.219100
983.605536,1110.308913,-9548.656652,229.828649
983.605860,962.267725,-10732.986159,459.657299
983.606184,592.164754,-10362.883188,306.438199
983.606508,518.144159,-8956.491898,0.000000
983.606832,1332.370696,-9178.553681,-306.438199
983.607156,1110.308913,-10362.883188,0.000000
983.607480,592.164754,-10881.027347,-842.705048
983.607804,-666.185348,-10584.944971,-1302.362347
983.608128,-1480.411884,-10140.821405,-1225.752797
983.608452,0.000000,-9548.656652,-1378.971896
983.608776,148.041188,-9918.759623,-995.924147
983.609100,0.000000,-10658.965565,-919.314598
983.609424,1036.288319,-10214.842000,-536.266849
983.609748,1702.473667,-9992.780217,-612.876398
983.610072,1332.370696,-10214.842000,-229.828649
983.610396,740.205942,-10362.883188,229.828649
983.610720,1406.391290,-10214.842000,-612.876398
983.611044,1258.350101,-9770.718434,-1225.752797
983.611368,148.041188,-9622.677246,-153.219100
983.611692,518.144159,-10288.862594,-153.219100
983.612016,1036.288319,-10288.862594,-306.438199
983.612340,518.144159,-9400.615463,-689.485948
983.612664,74.020594,-8956.491898,-536.266849
983.612988,148.041188,-9770.718434,-1302.362347
983.613312,518.144159,-10214.842000,-995.924147
983.613636,-296.082377,-9474.636058,-153.219100
983.613960,0.000000,-8660.409521,-153.219100
983.614284,-74.020594,-9474.636058,-383.047749
983.614608,0.000000,-9030.512492,-459.657299
983.614932,814.226536,-9178.553681,76.609550
983.615256,814.226536,-9474.636058,0.000000
983.615580,0.000000,-9992.780217,-536.266849
983.615904,-1036.288319,-9474.636058,-306.438199
983.616228,-740.205942,-9252.574275,306.438199
983.616552,-370.102971,-10140.821405,459.657299
983.616876,-1184.329507,-10362.883188,76.609550
983.617199,-2960.823768,-10362.883188,0.000000
983.617523,-2738.761985,-9918.759623,-153.219100
983.617847,-1776.494261,-9474.636058,-306.438199
983.618171,-1258.350101,-9178.553681,-153.219100
983.618495,-1406.391290,-9252.574275,612.876398
983.618819,-1258.350101,-9844.739029,766.095498
983.619143,-740.205942,-10214.842000,1225.752797
983.619467,-296.082377,-8734.430116,1762.019645
983.619791,74.020594,-8660.409521,995.924147
983.620115,0.000000,-8956.491898,1072.533697
983.620439,0.000000,-9178.553681,306.438199
983.620763,-518.144159,-8956.491898,842.705048
983.621087,-1480.411884,-8364.327145,306.438199
983.621411,-1776.494261,-7994.224174,-842.705048
983.621735,-1332.370696,-8882.471304,306.438199
983.622059,0.000000,-9622.677246,459.657299
983.622383,0.000000,-9474.636058,383.047749
983.622707,296.082377,-9030.512492,229.828649
983.623031,888.247130,-9252.574275,919.314598
983.623355,2294.638420,-10658.965565,919.314598
983.623679,1998.556043,-11325.150913,2145.067394
983.624003,1332.370696,-10658.965565,1685.410096
983.624327,1036.288319,-10066.800811,1302.362347
983.624651,444.123565,-9992.780217,689.485948
983.624975,296.082377,-10807.006753,995.924147
983.625299,-296.082377,-11399.171507,766.095498
983.625623,-740.205942,-10510.924376,153.219100
983.625947,-962.267725,-9252.574275,-229.828649
983.626271,-444.123565,-9178.553681,-842.705048
983.626595,296.082377,-9178.553681,0.000000
983.626919,74.020594,-9770.718434,229.828649
983.627243,592.164754,-9918.759623,-383.047749
983.627567,296.082377,-9474.636058,-306.438199
983.627891,740.205942,-9030.512492,-306.438199
983.628215,1924.535449,-9252.574275,306.438199
983.628539,2516.700203,-9770.718434,766.095498
983.628863,2442.679609,-9918.759623,1532.190996
983.629187,1850.514855,-9622.677246,612.876398
983.629511,1406.391290,-9622.677246,-153.219100
983.629835,1480.411884,-9474.636058,153.219100
983.630159,1628.453072,-9474.636058,-383.047749
983.630483,518.144159,-9400.615463,-919.314598
983.630807,-1258.350101,-8956.491898,-1378.971896
983.631131,-1998.556043,-9326.594869,-1991.848295
983.631455,-2516.700203,-9474.636058,-1838.629195
983.631779,-2294.638420,-9474.636058,-1915.238745
983.632103,-2664.741391,-10436.903782,-689.485948
983.632427,-2442.679609,-10584.944971,0.000000
983.632751,-1406.391290,-9548.656652,-459.657299
983.633075,-666.185348,-8734.430116,0.000000
983.633399,-148.041188,-9474.636058,306.438199
983.633723,74.020594,-10214.842000,0.000000
983.634047,740.205942,-9918.759623,919.314598
983.634371,592.164754,-9844.739029,536.266849
983.634695,0.000000,-8956.491898,-383.047749
983.635019,-1036.288319,-8068.244768,-1608.800546
983.635343,-1998.556043,-9104.533087,-1225.752797
983.635667,-1480.411884,-10140.821405,-689.485948
983.635991,444.123565,-10140.821405,-1378.971896
983.636315,1036.288319,-9548.656652,-306.438199
983.636639,666.185348,-8808.450710,-536.266849
983.636963,518.144159,-9178.553681,-1225.752797
983.637287,370.102971,-10140.821405,-842.705048
983.637611,74.020594,-10288.862594,-995.924147
983.637935,-296.082377,-9844.739029,-689.485948
983.638259,0.000000,-9696.697840,-459.657299
983.638583,0.000000,-10510.924376,0.000000
983.638907,0.000000,-10881.027347,383.047749
983.639231,-740.205942,-10140.821405,-459.657299
983.639555,-1480.411884,-10436.903782,-689.485948
983.639879,-592.164754,-11029.068536,-766.095498
983.640203,74.020594,-11325.150913,-842.705048
983.640527,296.082377,-10955.047942,0.000000
983.640851,0.000000,-9992.780217,-612.876398
983.641175,0.000000,-9104.533087,-1378.971896
983.641499,-296.082377,-9696.697840,-1378.971896
983.641823,-518.144159,-9844.739029,-1149.143247
983.642147,0.000000,-9770.718434,0.000000
983.642471,1628.453072,-9770.718434,0.000000
983.642795,2960.823768,-9622.677246,229.828649
983.643119,3182.885551,-9252.574275,1378.971896
983.643443,2368.659014,-9252.574275,383.047749
983.643767,1702.473667,-8956.491898,459.657299
983.644091,814.226536,-8808.450710,383.047749
983.644415,222.061783,-9104.533087,-306.438199
983.644739,0.000000,-9030.512492,-229.828649
983.645063,-666.185348,-8586.388927,-612.876398
983.645387,-592.164754,-8734.430116,0.000000
983.645711,-74.020594,-9030.512492,-842.705048
983.646035,444.123565,-9104.533087,-995.924147
983.646359,-148.041188,-8586.388927,0.000000
983.646683,-444.123565,-9178.553681,-306.438199
983.647007,0.000000,-9696.697840,0.000000
983.647331,-222.061783,-11029.068536,306.438199
983.647655,0.000000,-11251.130318,842.705048
983.647979,666.185348,-10066.800811,153.219100
983.648303,222.061783,-9770.718434,0.000000
983.648627,-814.226536,-9400.615463,229.828649
983.648951,-370.102971,-9918.759623,0.000000
983.649274,-222.061783,-10658.965565,459.657299
983.649598,0.000000,-10288.862594,766.095498
983.649922,0.000000,-9622.677246,459.657299
983.650246,0.000000,-9400.615463,-153.219100
983.650570,-666.185348,-9326.594869,153.219100
983.650894,0.000000,-9622.677246,229.828649
983.651218,0.000000,-9326.594869,-306.438199
983.651542,-222.061783,-9252.574275,153.219100
983.651866,-1258.350101,-9474.636058,-153.219100
983.652190,-1850.514855,-9178.553681,-383.047749
983.652514,-1036.288319,-9548.656652,-229.828649
983.652838,-222.061783,-9918.759623,383.047749
983.653162,-296.082377,-9770.718434,306.438199
983.653486,-148.041188,-9696.697840,459.657299
983.653810,444.123565,-10140.821405,766.095498
983.654134,814.226536,-10362.883188,229.828649
983.654458,0.000000,-10362.883188,0.000000
983.654782,-1110.308913,-10140.821405,0.000000
983.655106,-1554.432478,-9992.780217,0.000000
983.655430,-592.164754,-10510.924376,-229.828649
983.655754,-148.041188,-9918.759623,306.438199
983.656078,-148.041188,-9400.615463,306.438199
983.656402,-592.164754,-9548.656652,612.876398
983.656726,296.082377,-9696.697840,-229.828649
983.657050,518.144159,-8734.430116,-536.266849
983.657374,0.000000,-8290.306550,76.609550
983.657698,-222.061783,-9696.697840,383.047749
983.658022,-814.226536,-9474.636058,153.219100
983.658346,-1554.432478,-8660.409521,459.657299
983.658670,-1258.350101,-9104.533087,-306.438199
983.658994,296.082377,-9474.636058,-1072.533697
983.659318,1628.453072,-8956.491898,-1302.362347
983.659642,2368.659014,-9104.533087,306.438199
983.659966,2442.679609,-10732.986159,995.924147
983.660290,2368.659014,-10807.006753,919.314598
983.660614,1258.350101,-10288.862594,0.000000
983.660938,444.123565,-9622.677246,-536.266849
983.661262,1332.370696,-9474.636058,-1149.143247
983.661586,1332.370696,-10510.924376,-612.876398
983.661910,444.123565,-11103.089130,76.609550
983.662234,296.082377,-10362.883188,-383.047749
983.662558,0.000000,-9178.553681,-766.095498
983.662882,-518.144159,-9474.636058,-1532.190996
983.663206,-1036.288319,-9696.697840,-995.924147
983.663530,-1110.308913,-9918.759623,-459.657299
983.663854,-814.226536,-9696.697840,-153.219100
983.664178,-296.082377,-9696.697840,-1072.533697
983.664502,-222.061783,-8586.388927,-1455.581446
983.664826,-296.082377,-8956.491898,-995.924147
983.665150,0.000000,-10584.944971,-1455.581446
983.665474,666.185348,-10362.883188,-1302.362347
983.665798,296.082377,-9104.533087,0.000000
983.666122,0.000000,-9696.697840,229.828649
983.666446,222.061783,-10436.903782,-536.266849
983.666770,0.000000,-9844.739029,-766.095498
983.667094,148.041188,-9992.780217,-842.705048
983.667418,888.247130,-10584.944971,-919.314598
983.667742,518.144159,-10510.924376,-153.219100
983.668066,-148.041188,-10362.883188,229.828649
983.668390,-1628.453072,-10140.821405,153.219100
983.668714,-1554.432478,-9474.636058,-1149.143247
983.669038,-2072.576638,-9326.594869,-766.095498
983.669362,-1850.514855,-9770.718434,-383.047749
983.669686,-1776.494261,-9326.594869,306.438199
983.670010,-1702.473667,-9178.553681,689.485948
983.670334,-1406.391290,-8216.285956,229.828649
983.670658,-370.102971,-8216.285956,-536.266849
983.670982,-148.041188,-9400.615463,-383.047749
983.671306,518.144159,-9548.656652,-459.657299
983.671630,1258.350101,-9548.656652,995.924147
983.671954,1480.411884,-9918.759623,1915.238745
983.672278,2220.617826,-10214.842000,842.705048
983.672602,2368.659014,-9326.594869,842.705048
983.672926,1998.556043,-9400.615463,919.314598
983.673250,1480.411884,-10658.965565,919.314598
983.673574,592.164754,-10066.800811,919.314598
983.673898,-592.164754,-9030.512492,1149.143247
983.674222,-1554.432478,-9104.533087,76.609550
983.674546,-3256.906145,-8586.388927,-1532.190996
983.674870,-3997.112087,-8734.430116,-1072.533697
983.675194,-3034.844362,-9918.759623,-229.828649
983.675518,-1406.391290,-9992.780217,-689.485948
983.675842,0.000000,-7624.121203,229.828649
983.676166,0.000000,-7698.141797,229.828649
983.676490,518.144159,-10066.800811,689.485948
983.676814,1776.494261,-11695.253884,536.266849
983.677138,2590.720797,-10955.047942,1225.752797
983.677462,2442.679609,-9770.718434,1149.143247
983.677786,2146.597232,-9252.574275,153.219100
983.678110,1332.370696,-9622.677246,-153.219100
983.678434,370.102971,-10214.842000,229.828649
983.678758,-370.102971,-10436.903782,-1149.143247
983.679082,-888.247130,-9326.594869,-1838.629195
983.679406,-1776.494261,-8808.450710,-1072.533697
983.679730,-1332.370696,-9252.574275,-1072.533697
983.680054,-518.144159,-9696.697840,-1378.971896
983.680378,-370.102971,-9770.718434,-842.705048
983.680702,296.082377,-10436.903782,76.609550
983.681026,888.247130,-10658.965565,459.657299
983.681350,1998.556043,-11399.171507,919.314598
983.681673,1776.494261,-10732.986159,919.314598
983.681997,1036.288319,-10362.883188,153.219100
983.682321,370.102971,-11325.150913,-153.219100
983.682645,-222.061783,-11769.274478,0.000000
983.682969,-296.082377,-10658.965565,0.000000
983.683293,0.000000,-10066.800811,-76.609550
983.683617,-444.123565,-9474.636058,-536.266849
983.683941,-296.082377,-9252.574275,-995.924147
983.684265,-148.041188,-9474.636058,-536.266849
983.684589,-740.205942,-10066.800811,-153.219100
983.684913,-1184.329507,-9622.677246,0.000000
983.685237,-1332.370696,-9104.533087,306.438199
983.685561,0.000000,-8512.368333,-383.047749
983.685885,740.205942,-8734.430116,0.000000
983.686209,1184.329507,-8808.450710,459.657299
983.686533,888.247130,-8808.450710,536.266849
983.686857,148.041188,-8734.430116,-383.047749
983.687181,-74.020594,-8216.285956,-536.266849
983.687505,-296.082377,-8142.265362,-383.047749
983.687829,-370.102971,-9548.656652,-306.438199
983.688153,-222.061783,-9844.739029,-153.219100
983.688477,-222.061783,-9030.512492,0.000000
983.688801,0.000000,-9844.739029,0.000000
983.689125,0.000000,-9844.739029,0.000000
983.689449,0.000000,-9400.615463,536.266849
983.689773,-370.102971,-9326.594869,612.876398
983.690097,0.000000,-9622.677246,612.876398
983.690421,-296.082377,-9770.718434,459.657299
983.690745,0.000000,-9918.759623,306.438199
983.691069,-740.205942,-9178.553681,76.609550
983.691393,-1110.308913,-9030.512492,-383.047749
983.691717,-1332.370696,-9178.553681,-612.876398
983.692041,-1258.350101,-9178.553681,-1762.019645
983.692365,-518.144159,-9030.512492,-612.876398
983.692689,0.000000,-9548.656652,0.000000
983.693013,592.164754,-10881.027347,76.609550
983.693337,-444.123565,-10436.903782,0.000000
983.693661,222.061783,-9326.594869,-459.657299
983.693985,1924.535449,-9918.759623,0.000000
983.694309,2664.741391,-10807.006753,536.266849
983.694633,2960.823768,-11251.130318,689.485948
983.694957,2146.597232,-10288.862594,919.314598
983.695281,1184.329507,-9770.718434,-153.219100
983.695605,888.247130,-10066.800811,0.000000
983.695929,370.102971,-10436.903782,-229.828649
983.696253,-740.205942,-10658.965565,-612.876398
983.696577,-2146.597232,-9844.739029,-995.924147
983.696901,-2220.617826,-9474.636058,-1302.362347
983.697225,-1406.391290,-9622.677246,-919.314598
983.697549,-814.226536,-9770.718434,-842.705048
983.697873,-1036.288319,-10436.903782,-919.314598
983.698197,-592.164754,-10066.800811,-229.828649
983.698521,296.082377,-9400.615463,-459.657299
983.698845,518.144159,-9178.553681,229.828649
983.699169,666.185348,-9474.636058,459.657299
983.699493,592.164754,-9400.615463,-229.828649
983.699817,0.000000,-9992.780217,536.266849
983.700141,444.123565,-10066.800811,153.219100
983.700465,814.226536,-10214.842000,612.876398
983.700789,0.000000,-9030.512492,612.876398
983.701113,-592.164754,-8956.491898,0.000000
983.701437,-518.144159,-9474.636058,-766.095498
983.701761,-444.123565,-9104.533087,-1455.581446
983.702085,-444.123565,-9474.636058,-1532.190996
983.702409,-666.185348,-9696.697840,-1378.971896
983.702733,0.000000,-9474.636058,0.000000
983.703057,444.123565,-9622.677246,459.657299
983.703381,74.020594,-9844.739029,-306.438199
983.703705,-592.164754,-9252.574275,-229.828649
983.704029,-1332.370696,-10066.800811,0.000000
983.704353,-444.123565,-10807.006753,306.438199
983.704677,814.226536,-10066.800811,919.314598
983.705001,1110.308913,-9178.553681,459.657299
983.705325,0.000000,-8068.244768,306.438199
983.705649,-1184.329507,-9178.553681,-153.219100
983.705973,-1184.329507,-9770.718434,-766.095498
983.706297,-1184.329507,-9844.739029,-612.876398
983.706621,-518.144159,-9252.574275,-459.657299
983.706945,-148.041188,-8216.285956,-306.438199
983.707269,148.041188,-9252.574275,-153.219100
983.707593,592.164754,-9918.759623,-153.219100
983.707917,1184.329507,-10066.800811,76.609550
983.708241,1406.391290,-10140.821405,766.095498
983.708565,1924.535449,-9474.636058,536.266849
983.708889,2664.741391,-9326.594869,1455.581446
983.709213,2442.679609,-10140.821405,1378.971896
983.709537,1776.494261,-10288.862594,0.000000
983.709861,-296.082377,-9400.615463,-919.314598
983.710185,-1332.370696,-9696.697840,-306.438199
983.710509,-888.247130,-9918.759623,-1532.190996
983.710833,-592.164754,-9474.636058,-766.095498
983.711157,-962.267725,-8882.471304,-306.438199
983.711481,-1110.308913,-9918.759623,-459.657299
983.711805,-740.205942,-10658.965565,-995.924147
983.712129,-296.082377,-9474.636058,-229.828649
983.712453,74.020594,-9030.512492,995.924147
983.712777,1332.370696,-9770.718434,1072.533697
983.713101,814.226536,-10881.027347,1302.362347
983.713425,0.000000,-10658.965565,919.314598
983.713749,-296.082377,-9474.636058,229.828649
983.714073,-888.247130,-9844.739029,306.438199
983.714397,-962.267725,-11029.068536,0.000000
983.714721,-592.164754,-8882.471304,-229.828649
983.715045,0.000000,-8660.409521,153.219100
983.715369,0.000000,-9474.636058,459.657299
983.715693,-296.082377,-10066.800811,-689.485948
983.716017,-592.164754,-9474.636058,-689.485948
983.716341,-1554.432478,-9178.553681,-229.828649
983.716665,-1110.308913,-9548.656652,-766.095498
983.716989,-740.205942,-9474.636058,536.266849
983.717313,-370.102971,-9474.636058,76.609550
983.717637,-444.123565,-10362.883188,383.047749
983.717961,0.000000,-10955.047942,536.266849
983.718285,0.000000,-10214.842000,229.828649
983.718609,0.000000,-10214.842000,306.438199
983.718933,0.000000,-10066.800811,-459.657299
983.719257,-740.205942,-9918.759623,-306.438199
983.719581,-1110.308913,-9548.656652,-612.876398
983.719905,-962.267725,-9030.512492,-1838.629195
983.720229,-962.267725,-9474.636058,-1608.800546
983.720553,-1110.308913,-9400.615463,-766.095498
983.720877,0.000000,-9992.780217,-1225.752797
983.721201,74.020594,-9918.759623,-536.266849
983.721525,1480.411884,-8882.471304,-612.876398
983.721849,3034.844362,-8882.471304,0.000000
983.722173,3256.906145,-9992.780217,306.438199
983.722497,2516.700203,-10584.944971,459.657299
983.722821,1776.494261,-9918.759623,1072.533697
983.723145,1776.494261,-9622.677246,689.485948
983.723469,1110.308913,-8808.450710,-689.485948
983.723793,-814.226536,-8660.409521,-536.266849
983.724117,-1554.432478,-9178.553681,-919.314598
983.724441,-1036.288319,-9400.615463,0.000000
983.724765,-296.082377,-9770.718434,-842.705048
983.725089,148.041188,-8586.388927,-919.314598
983.725413,222.061783,-7624.121203,-995.924147
983.725737,0.000000,-9030.512492,0.000000
983.726061,0.000000,-9992.780217,306.438199
983.726385,-296.082377,-10140.821405,0.000000
983.726709,-592.164754,-9326.594869,306.438199
983.727033,-592.164754,-9548.656652,76.609550
983.727357,0.000000,-9696.697840,-153.219100
983.727681,1850.514855,-9474.636058,1149.143247
983.728005,1628.453072,-10584.944971,536.266849
983.728329,814.226536,-10584.944971,153.219100
983.728653,592.164754,-9770.718434,0.000000
983.728977,0.000000,-9992.780217,-612.876398
983.729301,-740.205942,-10510.924376,0.000000
983.729625,-814.226536,-10807.006753,-459.657299
983.729949,-666.185348,-9918.759623,-689.485948
983.730273,-1184.329507,-9252.574275,-153.219100
983.730597,-814.226536,-9622.677246,0.000000
983.730921,-370.102971,-10436.903782,383.047749
983.731245,0.000000,-10436.903782,919.314598
983.731569,296.082377,-9252.574275,995.924147
983.731893,370.102971,-9548.656652,1455.581446
983.732217,-740.205942,-9696.697840,919.314598
983.732541,-1110.308913,-9400.615463,306.438199
983.732865,-1184.329507,-9844.739029,153.219100
983.733189,-740.205942,-10288.862594,-383.047749
983.733513,-888.247130,-9474.636058,-459.657299
983.733837,-2220.617826,-9252.574275,-766.095498
983.734161,-1998.556043,-9622.677246,-919.314598
983.734485,-2294.638420,-9474.636058,-1149.143247
983.734809,-814.226536,-10362.883188,-306.438199
983.735133,222.061783,-9992.780217,0.000000
983.735457,1258.350101,-10214.842000,153.219100
983.735781,1480.411884,-10362.883188,1225.752797
983.736105,1332.370696,-10807.006753,842.705048
983.736429,740.205942,-10214.842000,-306.438199
983.736753,0.000000,-9030.512492,459.657299
983.737077,-962.267725,-9178.553681,-536.266849
983.737400,-666.185348,-10214.842000,-766.095498
983.737724,0.000000,-10214.842000,-229.828649
983.738048,74.020594,-10732.986159,229.828649
983.738372,814.226536,-10288.862594,-229.828649
983.738696,962.267725,-9252.574275,-306.438199
983.739020,444.123565,-8734.430116,153.219100
983.739344,1036.288319,-8882.471304,383.047749
983.739668,518.144159,-9696.697840,0.000000
983.739992,-962.267725,-9030.512492,0.000000
983.740316,-1850.514855,-7994.224174,0.000000
983.740640,-1480.411884,-8364.327145,76.609550
983.740964,-370.102971,-9326.594869,-383.047749
983.741288,148.041188,-9030.512492,0.000000
983.741612,592.164754,-8438.347739,536.266849
983.741936,518.144159,-8734.430116,383.047749
983.742260,-296.082377,-9474.636058,-153.219100
983.742584,-1110.308913,-8808.450710,-306.438199
983.742908,-740.205942,-9252.574275,-383.047749
983.743232,888.247130,-10362.883188,-229.828649
983.743556,2368.659014,-10362.883188,306.438199
983.743880,3404.947333,-9252.574275,689.485948
983.744204,2590.720797,-9474.636058,76.609550
983.744528,1110.308913,-9696.697840,-766.095498
983.744852,814.226536,-10214.842000,0.000000
983.745176,740.205942,-11399.171507,536.266849
983.745500,444.123565,-10584.944971,0.000000
983.745824,-222.061783,-8734.430116,-306.438199
983.746148,-888.247130,-8512.368333,76.609550
983.746472,-1258.350101,-9918.759623,-612.876398
983.746796,-1110.308913,-9400.615463,-536.266849
983.747120,-1480.411884,-9104.533087,76.609550
983.747444,-1776.494261,-9104.533087,0.000000
983.747768,-740.205942,-9030.512492,-536.266849
983.748092,-296.082377,-8142.265362,-153.219100
983.748416,-814.226536,-8956.491898,0.000000
983.748740,-666.185348,-10510.924376,-383.047749
983.749064,296.082377,-11473.192101,76.609550
983.749388,222.061783,-10066.800811,-383.047749
983.749712,1332.370696,-9178.553681,0.000000
983.750036,888.247130,-9992.780217,536.266849
983.750360,518.144159,-11843.295072,-153.219100
983.750684,-222.061783,-11917.315666,-459.657299
983.751008,-1406.391290,-10584.944971,0.000000
983.751332,-962.267725,-10288.862594,-459.657299
983.751656,444.123565,-10288.862594,0.000000
983.751980,1258.350101,-9326.594869,-383.047749
983.752304,444.123565,-9030.512492,-306.438199
983.752628,-1036.288319,-9992.780217,-1685.410096
983.752952,-1850.514855,-10140.821405,-1685.410096
983.753276,-1332.370696,-9474.636058,-383.047749
983.753600,-592.164754,-9844.739029,-612.876398
983.753924,-444.123565,-9770.718434,-612.876398
983.754248,-1110.308913,-9770.718434,-153.219100
983.754572,-148.041188,-10362.883188,-383.047749
983.754896,1184.329507,-10658.965565,229.828649
983.755220,1702.473667,-10436.903782,229.828649
983.755544,1110.308913,-9474.636058,919.314598
983.755868,888.247130,-9474.636058,766.095498
983.756192,370.102971,-10214.842000,0.000000
983.756516,0.000000,-9696.697840,842.705048
983.756840,-148.041188,-8512.368333,-766.095498
983.757164,-666.185348,-8512.368333,-919.314598
983.757488,-1258.350101,-8660.409521,-536.266849
983.757812,0.000000,-8586.388927,-153.219100
983.758136,518.144159,-8734.430116,0.000000
983.758460,-296.082377,-8808.450710,229.828649
983.758784,-370.102971,-8660.409521,0.000000
983.759108,740.205942,-8290.306550,-76.609550
983.759432,1110.308913,-7920.203579,459.657299
983.759756,1332.370696,-8956.491898,1072.533697
983.760080,888.247130,-9992.780217,1072.533697
983.760404,592.164754,-9770.718434,459.657299
983.760728,222.061783,-9252.574275,229.828649
983.761052,0.000000,-9252.574275,383.047749
983.761376,-296.082377,-9548.656652,689.485948
983.761700,-888.247130,-9992.780217,0.000000
983.762024,-1406.391290,-9918.759623,0.000000
983.762348,-1110.308913,-10140.821405,0.000000
983.762672,-444.123565,-9918.759623,-306.438199
983.762996,-444.123565,-9326.594869,0.000000
983.763320,-962.267725,-9696.697840,-153.219100
983.763644,-1480.411884,-9918.759623,229.828649
983.763968,-1628.453072,-9918.759623,306.438199
983.764292,222.061783,-10584.944971,536.266849
983.764616,740.205942,-10288.862594,842.705048
983.764940,74.020594,-9844.739029,0.000000
983.765264,0.000000,-8882.471304,-536.266849
983.765588,-444.123565,-9474.636058,76.609550
983.765912,0.000000,-10658.965565,153.219100
983.766236,-518.144159,-9400.615463,-229.828649
983.766560,-1332.370696,-9252.574275,459.657299
983.766884,-370.102971,-9696.697840,153.219100
983.767208,1258.350101,-9770.718434,0.000000
983.767532,1480.411884,-10214.842000,612.876398
983.767856,370.102971,-9844.739029,459.657299
983.768180,0.000000,-10066.800811,0.000000
983.768504,-222.061783,-9400.615463,-306.438199
983.768828,-814.226536,-9474.636058,-153.219100
983.769152,-962.267725,-10214.842000,-306.438199
983.769476,-1036.288319,-10214.842000,-612.876398
983.769800,-962.267725,-10214.842000,-689.485948
983.770124,-1184.329507,-9918.759623,-306.438199
983.770448,0.000000,-10066.800811,-76.609550
983.770772,888.247130,-10288.862594,306.438199
983.771096,1554.432478,-10732.986159,459.657299
983.771420,518.144159,-9696.697840,766.095498
983.771744,-370.102971,-9844.739029,536.266849
983.772068,0.000000,-10288.862594,459.657299
983.772392,740.205942,-9844.739029,0.000000
983.772716,1406.391290,-9030.512492,0.000000
983.773040,592.164754,-8438.347739,306.438199
983.773364,148.041188,-8290.306550,-612.876398
983.773688,-740.205942,-9696.697840,-766.095498
983.774012,-1332.370696,-9400.615463,-689.485948
983.774336,-148.041188,-8438.347739,-995.924147
983.774660,0.000000,-8882.471304,76.609550
983.774984,0.000000,-9474.636058,306.438199
983.775308,1258.350101,-8660.409521,-459.657299
983.775632,1406.391290,-8216.285956,536.266849
983.775956,888.247130,-8956.491898,-306.438199
983.776280,148.041188,-9474.636058,383.047749
983.776604,666.185348,-9992.780217,536.266849
983.776928,888.247130,-10288.862594,995.924147
983.777252,1406.391290,-10436.903782,536.266849
983.777576,518.144159,-9918.759623,-306.438199
983.777900,-518.144159,-9918.759623,-842.705048
983.778223,-518.144159,-9770.718434,-766.095498
983.778547,148.041188,-9548.656652,0.000000
983.778871,518.144159,-9696.697840,-153.219100
983.779195,0.000000,-9400.615463,-689.485948
983.779520,-592.164754,-9178.553681,-766.095498
983.779844,-370.102971,-9104.533087,-536.266849
983.780168,148.041188,-9474.636058,-459.657299
983.780492,296.082377,-9918.759623,459.657299
983.780816,-148.041188,-9400.615463,459.657299
983.781140,-814.226536,-8808.450710,383.047749
983.781464,-1036.288319,-9770.718434,612.876398
983.781788,-962.267725,-10658.965565,229.828649
983.782113,-592.164754,-10658.965565,-229.828649
983.782437,-592.164754,-9770.718434,229.828649
983.782761,-444.123565,-9696.697840,383.047749
983.783085,-518.144159,-10584.944971,383.047749
983.783409,-592.164754,-11473.192101,0.000000
983.783733,-592.164754,-10732.986159,76.609550
983.784057,-666.185348,-10140.821405,-689.485948
983.784381,-1036.288319,-10288.862594,-229.828649
983.784706,-740.205942,-10510.924376,-459.657299
983.785030,0.000000,-10807.006753,76.609550
983.785354,222.061783,-10881.027347,-153.219100
983.785678,0.000000,-9178.553681,0.000000
983.786002,-814.226536,-8882.471304,0.000000
983.786326,-1184.329507,-9400.615463,-306.438199
983.786650,-1554.432478,-9696.697840,0.000000
983.786974,-666.185348,-9400.615463,842.705048
983.787299,888.247130,-9474.636058,766.095498
983.787623,1554.432478,-9030.512492,919.314598
983.787947,1184.329507,-8660.409521,1072.533697
983.788271,0.000000,-8956.491898,842.705048
983.788595,-296.082377,-9696.697840,153.219100
983.788919,0.000000,-8956.491898,0.000000
983.789243,0.000000,-8068.244768,0.000000
983.789567,-814.226536,-8142.265362,0.000000
983.789892,-1258.350101,-8734.430116,-153.219100
983.790216,0.000000,-9474.636058,766.095498
983.790540,296.082377,-9178.553681,-766.095498
983.790864,1850.514855,-9030.512492,689.485948
983.791188,1258.350101,-8956.491898,306.438199
983.791512,444.123565,-10066.800811,919.314598
983.791836,74.020594,-10436.903782,306.438199
983.792160,-888.247130,-9992.780217,-229.828649
983.792485,-962.267725,-9844.739029,-229.828649
983.792809,-962.267725,-10066.800811,459.657299
983.793133,-444.123565,-9474.636058,-153.219100
983.793457,370.102971,-9474.636058,689.485948
983.793781,1702.473667,-9918.759623,459.657299
983.794105,2590.720797,-10584.944971,0.000000
983.794429,2442.679609,-9548.656652,-536.266849
983.794753,1702.473667,-9030.512492,-842.705048
983.795078,592.164754,-9696.697840,-459.657299
983.795402,296.082377,-10807.006753,-536.266849
983.795726,0.000000,-10214.842000,-1378.971896
983.796050,-370.102971,-9622.677246,-842.705048
983.796374,0.000000,-9696.697840,-612.876398
983.796698,1110.308913,-10881.027347,-229.828649
983.797022,814.226536,-10955.047942,-229.828649
983.797346,0.000000,-9696.697840,995.924147
983.797671,-370.102971,-9844.739029,76.609550
983.797995,-814.226536,-9696.697840,-536.266849
983.798319,-1406.391290,-9918.759623,-229.828649
983.798643,-1776.494261,-9918.759623,0.000000
983.798967,-1184.329507,-10066.800811,-766.095498
983.799291,-1036.288319,-9622.677246,0.000000
983.799615,-740.205942,-9770.718434,76.609550
983.799939,-1406.391290,-9844.739029,76.609550
983.800264,-1332.370696,-10214.842000,-995.924147
983.800588,-666.185348,-10288.862594,-536.266849
983.800912,370.102971,-9992.780217,459.657299
983.801236,962.267725,-9918.759623,76.609550
983.801560,148.041188,-9696.697840,76.609550
983.801884,-592.164754,-8956.491898,-306.438199
983.802208,-370.102971,-8734.430116,-689.485948
983.802532,296.082377,-9474.636058,0.000000
983.802857,148.041188,-10066.800811,306.438199
983.803181,-444.123565,-9474.636058,766.095498
983.803505,222.061783,-8512.368333,842.705048
983.803829,148.041188,-8882.471304,689.485948
983.804153,74.020594,-9770.718434,612.876398
983.804477,222.061783,-9474.636058,1302.362347
983.804801,0.000000,-9474.636058,1532.190996
983.805125,-370.102971,-9400.615463,229.828649
983.805450,-1184.329507,-8586.388927,-306.438199
983.805774,-1258.350101,-8290.306550,-689.485948
983.806098,-1406.391290,-8956.491898,-1072.533697
983.806422,-1480.411884,-9622.677246,-689.485948
983.806746,-888.247130,-9474.636058,-306.438199
983.807070,1110.308913,-9030.512492,459.657299
983.807394,1850.514855,-9474.636058,1149.143247
983.807718,3108.864956,-9252.574275,459.657299
983.808043,3034.844362,-9622.677246,459.657299
983.808367,2368.659014,-10510.924376,536.266849
983.808691,1850.514855,-10955.047942,76.609550
983.809015,1332.370696,-10658.965565,306.438199
983.809339,666.185348,-9400.615463,-459.657299
983.809663,0.000000,-8882.471304,-995.924147
983.809987,-814.226536,-9252.574275,-536.266849
983.810311,-888.247130,-10066.800811,-1072.533697
983.810636,148.041188,-9844.739029,-1455.581446
983.810960,962.267725,-8734.430116,-995.924147
983.811284,1480.411884,-8512.368333,-459.657299
983.811608,1924.535449,-9474.636058,-536.266849
983.811932,1628.453072,-9844.739029,-766.095498
983.812256,148.041188,-9400.615463,0.000000
983.812580,74.020594,-9622.677246,0.000000
983.812904,0.000000,-10140.821405,0.000000
983.813229,0.000000,-9844.739029,0.000000
983.813553,296.082377,-8882.471304,-383.047749
983.813877,740.205942,-8956.491898,-1149.143247
983.814201,962.267725,-8586.388927,-1991.848295
983.814525,1628.453072,-8290.306550,-2298.286494
983.814849,1406.391290,-7550.100608,-2451.505594
983.815173,1702.473667,-8512.368333,-2911.162892
983.815497,1924.535449,-9992.780217,-2145.067394
983.815822,1776.494261,-10140.821405,-1685.410096
983.816146,592.164754,-10362.883188,-1685.410096
983.816470,-518.144159,-11029.068536,-1532.190996
983.816794,148.041188,-10732.986159,-1225.752797
983.817118,2590.720797,-11103.089130,-306.438199
983.817442,3108.864956,-10955.047942,459.657299
983.817766,2664.741391,-11399.171507,76.609550
983.818090,2072.576638,-10881.027347,-919.314598
983.818415,1036.288319,-9548.656652,-1762.019645
983.818739,666.185348,-9400.615463,-2528.115143
983.819063,296.082377,-9474.636058,-3524.039291
983.819387,-592.164754,-8956.491898,-3753.867940
983.819711,-1110.308913,-9474.636058,-3753.867940
983.820035,-888.247130,-10288.862594,-4060.306139
983.820359,1036.288319,-10510.924376,-3370.820191
983.820683,2368.659014,-10658.965565,-2528.115143
983.821008,4367.215058,-10436.903782,-1915.238745
983.821332,6143.709319,-10066.800811,-919.314598
983.821656,6735.874072,-10288.862594,-383.047749
983.821980,6291.750507,-9770.718434,0.000000
983.822304,5847.626942,-9400.615463,-612.876398
983.822628,5181.441594,-9030.512492,-1302.362347
983.822952,4145.153275,-8882.471304,-1532.190996
983.823276,2368.659014,-9548.656652,-1608.800546
983.823601,444.123565,-10140.821405,-2298.286494
983.823925,-370.102971,-9474.636058,-2451.505594
983.824249,-888.247130,-8882.471304,-1302.362347
983.824573,-666.185348,-9622.677246,-2374.896044
983.824897,74.020594,-9252.574275,-2374.896044
983.825221,74.020594,-8438.347739,-1685.410096
983.825545,148.041188,-8734.430116,-2068.457845
983.825869,1554.432478,-8808.450710,-2911.162892
983.826194,2738.761985,-7698.141797,-1455.581446
983.826518,4145.153275,-8216.285956,-1762.019645
983.826842,4219.173869,-8808.450710,-2068.457845
983.827166,3701.029710,-8438.347739,-2068.457845
983.827490,3034.844362,-9770.718434,-1991.848295
983.827814,2590.720797,-10955.047942,-1991.848295
983.828138,3330.926739,-9770.718434,-1762.019645
983.828462,3552.988522,-9326.594869,-383.047749
983.828787,3182.885551,-10288.862594,-306.438199
983.829111,2812.782580,-9918.759623,-1225.752797
983.829435,2294.638420,-9178.553681,-1532.190996
983.829759,1480.411884,-10066.800811,-2145.067394
983.830083,888.247130,-8586.388927,-3370.820191
983.830407,74.020594,-7624.121203,-3753.867940
983.830731,-1184.329507,-8882.471304,-4519.963438
983.831055,-1332.370696,-9770.718434,-5209.449386
983.831380,-888.247130,-9696.697840,-5362.668486
983.831704,-1406.391290,-10214.842000,-4903.011187
983.832028,222.061783,-10658.965565,-5209.449386
983.832352,1998.556043,-10658.965565,-3753.867940
983.832676,2738.761985,-12139.377449,-2145.067394
983.833000,3849.070898,-13471.748144,-1378.971896
983.833324,5255.462188,-12509.480420,-383.047749
983.833648,5403.503377,-12213.398043,459.657299
983.833973,4885.359217,-12139.377449,0.000000
983.834297,3627.009116,-10584.944971,-306.438199
983.834621,2368.659014,-10584.944971,-153.219100
983.834945,1184.329507,-10362.883188,-2145.067394
983.835269,0.000000,-8216.285956,-3524.039291
983.835593,-1184.329507,-7624.121203,-3370.820191
983.835917,-1776.494261,-8808.450710,-4749.792088
983.836241,-1628.453072,-8290.306550,-4673.182538
983.836566,-2146.597232,-7031.956449,-4673.182538
983.836890,-1036.288319,-8142.265362,-3753.867940
983.837214,1184.329507,-9844.739029,-2757.943793
983.837538,3478.967927,-9030.512492,-1225.752797
983.837862,5033.400406,-8808.450710,459.657299
983.838186,6143.709319,-10807.006753,1608.800546
983.838510,7772.162391,-12065.356855,2068.457845
983.838834,8068.244768,-11473.192101,2374.896044
983.839158,5477.523971,-9326.594869,1838.629195
983.839483,2886.803174,-9844.739029,766.095498
983.839807,1110.308913,-10066.800811,0.000000
983.840131,-444.123565,-9252.574275,-1302.362347
983.840455,-2812.782580,-7920.203579,-3217.601092
983.840779,-4663.297435,-7254.018232,-3600.648841
983.841103,-3182.885551,-7254.018232,-3294.210641
983.841427,-962.267725,-7254.018232,-2834.553343
983.841751,888.247130,-7105.977043,-2681.334243
983.842076,1184.329507,-6883.915261,-1838.629195
983.842400,2442.679609,-7994.224174,-842.705048
983.842724,4589.276840,-9326.594869,229.828649
983.843048,7031.956449,-9400.615463,459.657299
983.843372,7846.182985,-9844.739029,842.705048
983.843696,6809.894666,-10955.047942,1072.533697
983.844020,6587.832884,-11399.171507,766.095498
983.844344,6217.729913,-10214.842000,0.000000
983.844669,4959.379811,-10288.862594,-995.924147
983.844993,2442.679609,-11177.109724,-2757.943793
983.845317,-296.082377,-10807.006753,-3753.867940
983.845641,-1924.535449,-9326.594869,-3753.867940
983.845965,-1776.494261,-9178.553681,-4443.353888
983.846289,-1628.453072,-9252.574275,-4749.792088
983.846613,-518.144159,-9474.636058,-4290.134789
983.846937,370.102971,-9474.636058,-3447.429741
983.847262,1850.514855,-10658.965565,-2987.772442
983.847586,2664.741391,-10807.006753,-1991.848295
983.847910,3552.988522,-11399.171507,-689.485948
983.848234,5033.400406,-11621.233289,-612.876398
983.848558,6291.750507,-11547.212695,-842.705048
983.848882,5329.482782,-10881.027347,-1149.143247
983.849206,3182.885551,-11547.212695,-1762.019645
983.849530,666.185348,-11621.233289,-2834.553343
983.849855,0.000000,-10658.965565,-2987.772442
983.850179,740.205942,-8734.430116,-3370.820191
983.850503,1110.308913,-8068.244768,-4213.525239
983.850827,-296.082377,-8882.471304,-4366.744339
983.851151,-1480.411884,-8512.368333,-5209.449386
983.851475,-2368.659014,-7920.203579,-4443.353888
983.851799,-740.205942,-7476.080014,-3064.381992
983.852123,1850.514855,-7994.224174,-1455.581446
983.852448,4293.194464,-8808.450710,-995.924147
983.852772,4737.318029,-9252.574275,-842.705048
983.853096,3923.091493,-9770.718434,-1991.848295
983.853420,2368.659014,-10510.924376,-1455.581446
983.853744,1332.370696,-11251.130318,-1149.143247
983.854068,518.144159,-11103.089130,-1302.362347
983.854392,-888.247130,-9622.677246,-1991.848295
983.854716,-814.226536,-9030.512492,-2604.724693
983.855041,148.041188,-9252.574275,-2987.772442
983.855365,1702.473667,-9400.615463,-2757.943793
983.855689,2812.782580,-9474.636058,-2681.334243
983.856013,2072.576638,-8512.368333,-2221.676944
983.856337,888.247130,-7624.121203,-2451.505594
983.856661,222.061783,-7920.203579,-2221.676944
983.856985,1036.288319,-9326.594869,-2221.676944
983.857309,2294.638420,-9770.718434,-2451.505594
983.857634,3923.091493,-9548.656652,-1225.752797
983.857958,6069.688724,-9918.759623,-1302.362347
983.858282,7105.977043,-10658.965565,-536.266849
983.858606,6143.709319,-10214.842000,-1762.019645
983.858930,3552.988522,-9844.739029,-1991.848295
983.859254,1110.308913,-10140.821405,-2987.772442
983.859578,-222.061783,-10214.842000,-3064.381992
983.859902,0.000000,-10140.821405,-3064.381992
983.860227,1554.432478,-9770.718434,-2451.505594
983.860551,2664.741391,-9474.636058,-1762.019645
983.860875,3108.864956,-9622.677246,-1455.581446
983.861199,3627.009116,-9104.533087,-1225.752797
983.861523,3404.947333,-9696.697840,-919.314598
983.861847,3182.885551,-9844.739029,-995.924147
983.862171,3108.864956,-10658.965565,-1302.362347
983.862495,2590.720797,-10658.965565,-1915.238745
983.862820,1924.535449,-10658.965565,-2987.772442
983.863144,1184.329507,-11029.068536,-4136.915689
983.863468,0.000000,-10436.903782,-4673.182538
983.863792,296.082377,-9548.656652,-3677.258390
983.864116,1036.288319,-9770.718434,-3294.210641
983.864440,1628.453072,-9474.636058,-2528.115143
983.864764,2294.638420,-9474.636058,-1608.800546
983.865088,2590.720797,-9474.636058,-1455.581446
983.865413,3034.844362,-9178.553681,-536.266849
983.865737,3552.988522,-8734.430116,842.705048
983.866061,3775.050304,-8882.471304,383.047749
983.866385,4145.153275,-9252.574275,536.266849
983.866709,3108.864956,-9474.636058,-229.828649
983.867033,1628.453072,-9252.574275,-1455.581446
983.867357,-148.041188,-9474.636058,-2757.943793
983.867681,-1776.494261,-9104.533087,-4060.306139
983.868006,-2590.720797,-9548.656652,-5056.230287
983.868330,-3034.844362,-9104.533087,-5286.058936
983.868654,-1332.370696,-9178.553681,-5056.230287
983.868978,518.144159,-8660.409521,-3217.601092
983.869302,2664.741391,-8882.471304,-1915.238745
983.869626,4441.235652,-9178.553681,-536.266849
983.869950,5107.421000,-9548.656652,612.876398
983.870274,5921.647536,-10140.821405,1378.971896
983.870599,6069.688724,-10658.965565,842.705048
983.870923,5181.441594,-10658.965565,995.924147
983.871247,4663.297435,-11177.109724,459.657299
983.871571,2368.659014,-11029.068536,-1378.971896
983.871895,-444.123565,-10584.944971,-3140.991542
983.872219,-3478.967927,-9622.677246,-4903.011187
983.872543,-5033.400406,-9104.533087,-5439.278036
983.872867,-4515.256246,-8882.471304,-5592.497135
983.873192,-3330.926739,-7920.203579,-4213.525239
983.873516,-1554.432478,-8068.244768,-3217.601092
983.873840,1258.350101,-8734.430116,-1225.752797
983.874164,3775.050304,-9696.697840,0.000000
983.874488,5551.544565,-10510.924376,1072.533697
983.874812,5773.606348,-11251.130318,1532.190996
983.875136,4737.318029,-11843.295072,995.924147
983.875460,3997.112087,-11843.295072,536.266849
983.875785,2072.576638,-11399.171507,-229.828649
983.876109,888.247130,-11769.274478,-2145.067394
983.876433,-296.082377,-11621.233289,-3294.210641
983.876757,-740.205942,-10362.883188,-4673.182538
983.877081,-1036.288319,-9104.533087,-4366.744339
983.877405,148.041188,-8142.265362,-3524.039291
983.877729,1702.473667,-7550.100608,-2604.724693
983.878053,2368.659014,-6809.894666,-2374.896044
983.878378,4071.132681,-6809.894666,-766.095498
983.878702,5995.668130,-7254.018232,0.000000
983.879026,7698.141797,-8364.327145,306.438199
983.879350,7846.182985,-9400.615463,766.095498
983.879674,6587.832884,-9770.718434,612.876398
983.879998,4885.359217,-10066.800811,-1302.362347
983.880322,3330.926739,-10288.862594,-1762.019645
983.880646,2294.638420,-10807.006753,-2987.772442
983.880971,1332.370696,-10288.862594,-4290.134789
983.881295,1406.391290,-9696.697840,-4519.963438
983.881619,1258.350101,-9030.512492,-4596.572988
983.881943,1480.411884,-8660.409521,-4213.525239
983.882267,1924.535449,-8438.347739,-3677.258390
983.882591,2664.741391,-8216.285956,-2298.286494
983.882915,2812.782580,-8512.368333,-1991.848295
983.883239,3552.988522,-9474.636058,-1608.800546
983.883563,3775.050304,-9474.636058,-1072.533697
983.883887,4441.235652,-10658.965565,-612.876398
983.884211,4367.215058,-11177.109724,-1225.752797
983.884535,3552.988522,-11103.089130,-2298.286494
983.884859,2294.638420,-10436.903782,-2987.772442
983.885183,1110.308913,-10584.944971,-4519.963438
983.885507,-814.226536,-9844.739029,-5822.325785
983.885831,-2294.638420,-9992.780217,-6358.592633
983.886155,-3330.926739,-9844.739029,-6818.249932
983.886479,-3478.967927,-9696.697840,-6358.592633
983.886803,-2294.638420,-9474.636058,-4979.620737
983.887127,0.000000,-9252.574275,-3600.648841
983.887451,3108.864956,-9696.697840,-1838.629195
983.887775,5403.503377,-9770.718434,-1225.752797
983.888099,6957.935855,-10807.006753,0.000000
983.888423,7105.977043,-11917.315666,76.609550
983.888747,5921.647536,-12065.356855,153.219100
983.889071,3552.988522,-11991.336260,-689.485948
983.889395,222.061783,-11325.150913,-2528.115143
983.889719,-3034.844362,-10288.862594,-4673.182538
983.890043,-4811.338623,-9400.615463,-5439.278036
983.890367,-5107.421000,-9030.512492,-6511.811733
983.890691,-3108.864956,-8586.388927,-5745.716235
983.891015,-666.185348,-8216.285956,-4443.353888
983.891339,1702.473667,-7846.182985,-3064.381992
983.891663,3108.864956,-8290.306550,-2068.457845
983.891987,3552.988522,-8956.491898,-919.314598
983.892311,3701.029710,-8142.265362,-306.438199
983.892636,5699.585753,-9696.697840,612.876398
983.892960,7179.997637,-10066.800811,1455.581446
983.893284,8364.327145,-10510.924376,1685.410096
983.893608,7994.224174,-10807.006753,1149.143247
983.893932,5181.441594,-10807.006753,0.000000
983.894256,1332.370696,-10140.821405,-1685.410096
983.894580,-2294.638420,-8216.285956,-2834.553343
983.894904,-3108.864956,-7179.997637,-3524.039291
983.895228,-2294.638420,-7179.997637,-3217.601092
983.895552,-1110.308913,-7994.224174,-3370.820191
983.895876,0.000000,-7772.162391,-2681.334243
983.896200,74.020594,-7698.141797,-1991.848295
983.896524,1258.350101,-7994.224174,-995.924147
983.896848,2738.761985,-8364.327145,1149.143247
983.897172,4737.318029,-8956.491898,1149.143247
983.897496,6439.791695,-9474.636058,1608.800546
983.897820,6883.915261,-10955.047942,1225.752797
983.898144,6217.729913,-12065.356855,766.095498
983.898468,4737.318029,-11547.212695,153.219100
983.898792,3256.906145,-10140.821405,-383.047749
983.899116,2146.597232,-8956.491898,-1838.629195
983.899440,1036.288319,-9326.594869,-3370.820191
983.899764,-962.267725,-9696.697840,-4519.963438
983.900088,-2516.700203,-9622.677246,-5132.839837
983.900412,-1776.494261,-9622.677246,-4136.915689
983.900736,444.123565,-9770.718434,-2757.943793
983.901060,3552.988522,-9474.636058,-1838.629195
983.901384,4663.297435,-9104.533087,-1225.752797
983.901708,4441.235652,-10214.842000,-1225.752797
983.902032,3849.070898,-11251.130318,-1149.143247
983.902356,4441.235652,-12139.377449,-229.828649
983.902680,5773.606348,-12583.501014,-766.095498
983.903004,4441.235652,-12139.377449,-842.705048
983.903328,1998.556043,-11547.212695,-1532.190996
983.903652,592.164754,-11399.171507,-2145.067394
983.903976,74.020594,-11251.130318,-3217.601092
983.904300,-222.061783,-10436.903782,-4136.915689
983.904624,-1184.329507,-9104.533087,-4136.915689
983.904948,-740.205942,-8364.327145,-3983.696590
983.905272,0.000000,-8216.285956,-3447.429741
983.905596,1258.350101,-8660.409521,-3217.601092
983.905920,2072.576638,-8586.388927,-3064.381992
983.906244,2146.597232,-8734.430116,-2604.724693
983.906568,2960.823768,-8808.450710,-1685.410096
983.906892,4145.153275,-9178.553681,-1685.410096
983.907216,4145.153275,-9696.697840,-1455.581446
983.907540,3997.112087,-10510.924376,-995.924147
983.907864,3701.029710,-11251.130318,-995.924147
983.908189,3330.926739,-10436.903782,-1149.143247
983.908513,1332.370696,-9030.512492,-2068.457845
983.908837,-1184.329507,-8734.430116,-2911.162892
983.909161,-2442.679609,-8882.471304,-3217.601092
983.909485,-740.205942,-8808.450710,-3294.210641
983.909809,814.226536,-7476.080014,-3064.381992
983.910133,592.164754,-7624.121203,-2757.943793
983.910457,0.000000,-8290.306550,-2757.943793
983.910781,888.247130,-8956.491898,-3447.429741
983.911105,2220.617826,-8438.347739,-3447.429741
983.911429,2886.803174,-8734.430116,-2987.772442
983.911753,2812.782580,-10955.047942,-2757.943793
983.912077,2442.679609,-11547.212695,-2145.067394
983.912401,4293.194464,-10362.883188,-1455.581446
983.912725,5255.462188,-9992.780217,-1072.533697
983.913049,4737.318029,-11399.171507,-2068.457845
983.913373,3182.885551,-11769.274478,-2604.724693
983.913697,1258.350101,-9696.697840,-2604.724693
983.914021,1258.350101,-8882.471304,-2374.896044
983.914345,2220.617826,-10510.924376,-2221.676944
983.914669,2294.638420,-10214.842000,-1455.581446
983.914993,2664.741391,-9474.636058,-2221.676944
983.915317,2664.741391,-9178.553681,-2834.553343
983.915641,2220.617826,-9770.718434,-3217.601092
983.915965,1924.535449,-10362.883188,-2681.334243
983.916289,1628.453072,-10214.842000,-2757.943793
983.916613,1332.370696,-9474.636058,-2604.724693
983.916937,1776.494261,-9252.574275,-3294.210641
983.917261,2812.782580,-10066.800811,-3983.696590
983.917585,2960.823768,-10510.924376,-4443.353888
983.917909,1776.494261,-10510.924376,-4443.353888
983.918233,1110.308913,-11251.130318,-3524.039291
983.918557,1184.329507,-10732.986159,-3064.381992
983.918881,1850.514855,-10140.821405,-1991.848295
983.919205,2516.700203,-10362.883188,-995.924147
983.919529,4071.132681,-11547.212695,-1225.752797
983.919853,4811.338623,-11621.233289,0.000000
983.920177,4441.235652,-10807.006753,919.314598
983.920501,3256.906145,-10362.883188,0.000000
983.920825,2664.741391,-8882.471304,-1838.629195
983.921149,1110.308913,-7402.059420,-2145.067394
983.921473,-444.123565,-8734.430116,-3447.429741
983.921797,-814.226536,-8364.327145,-4826.401637
983.922121,-1702.473667,-7698.141797,-4443.353888
983.922445,-3330.926739,-8290.306550,-4213.525239
983.922769,-2516.700203,-8512.368333,-4136.915689
983.923093,222.061783,-8068.244768,-3064.381992
983.923418,1850.514855,-8734.430116,-1838.629195
983.923742,3627.009116,-8586.388927,-1072.533697
983.924066,5477.523971,-9474.636058,536.266849
983.924390,5773.606348,-11769.274478,2604.724693
983.924714,7105.977043,-11621.233289,3217.601092
983.925038,6957.935855,-9992.780217,3217.601092
983.925362,4367.215058,-10214.842000,1455.581446
983.925686,1998.556043,-10807.006753,-383.047749
983.926010,-148.041188,-9770.718434,-1991.848295
983.926334,-2294.638420,-9104.533087,-2834.553343
983.926658,-4367.215058,-8882.471304,-3600.648841
983.926982,-4959.379811,-8882.471304,-4136.915689
983.927306,-5477.523971,-7698.141797,-5439.278036
983.927630,-4515.256246,-7328.038826,-5056.230287
983.927954,-2146.597232,-8290.306550,-3524.039291
983.928278,1480.411884,-8808.450710,-2298.286494
983.928602,4885.359217,-9474.636058,-383.047749
983.928926,6291.750507,-10214.842000,1532.190996
983.929250,5995.668130,-10955.047942,2528.115143
983.929574,3997.112087,-12509.480420,1991.848295
983.929898,2368.659014,-12509.480420,2145.067394
983.930222,1924.535449,-12805.562797,1991.848295
983.930546,2664.741391,-12583.501014,306.438199
983.930870,1924.535449,-10288.862594,-459.657299
983.931194,-592.164754,-9548.656652,-153.219100
983.931518,-1776.494261,-9622.677246,-2911.162892
983.931842,-2146.597232,-8364.327145,-4366.744339
983.932166,-2590.720797,-7031.956449,-3294.210641
983.932490,-2368.659014,-8216.285956,-3140.991542
983.932814,-1850.514855,-9622.677246,-2681.334243
983.933138,-2072.576638,-10288.862594,-1915.238745
983.933462,-814.226536,-9918.759623,0.000000
983.933786,1406.391290,-10066.800811,306.438199
983.934110,2590.720797,-10732.986159,1225.752797
983.934434,2368.659014,-10436.903782,2374.896044
983.934758,1776.494261,-10584.944971,2451.505594
983.935082,2516.700203,-10732.986159,2068.457845
983.935406,3182.885551,-9918.759623,1915.238745
983.935730,2886.803174,-8808.450710,1378.971896
983.936054,888.247130,-7846.182985,459.657299
983.936378,-666.185348,-7402.059420,-306.438199
983.936702,-1702.473667,-8142.265362,-766.095498
983.937026,-2590.720797,-7846.182985,-1378.971896
983.937350,-3627.009116,-7698.141797,-2145.067394
983.937674,-3552.988522,-8068.244768,-1302.362347
983.937998,-2072.576638,-8956.491898,-612.876398
983.938322,222.061783,-9548.656652,383.047749
983.938646,1036.288319,-9400.615463,842.705048
983.938971,1184.329507,-9622.677246,995.924147
983.939295,962.267725,-9696.697840,1149.143247
983.939619,370.102971,-9326.594869,536.266849
983.939943,-962.267725,-9178.553681,689.485948
983.940267,-740.205942,-9178.553681,-766.095498
983.940591,-518.144159,-8734.430116,-1302.362347
983.940915,0.000000,-8956.491898,-612.876398
983.941239,518.144159,-10288.862594,-766.095498
983.941563,1776.494261,-11991.336260,0.000000
983.941887,1702.473667,-10214.842000,-153.219100
983.942211,1480.411884,-10066.800811,-306.438199
983.942535,518.144159,-11103.089130,0.000000
983.942859,-296.082377,-11695.253884,-766.095498
983.943183,-1776.494261,-11325.150913,-306.438199
983.943507,-1924.535449,-10214.842000,-689.485948
983.943831,-962.267725,-9770.718434,-995.924147
983.944155,-370.102971,-9474.636058,-612.876398
983.944479,296.082377,-9252.574275,-153.219100
983.944803,592.164754,-9474.636058,-306.438199
983.945127,0.000000,-10510.924376,-689.485948
983.945451,-592.164754,-10214.842000,-1762.019645
983.945775,-592.164754,-9918.759623,-919.314598
983.946099,-666.185348,-11177.109724,306.438199
983.946423,370.102971,-11769.274478,-229.828649
983.946747,74.020594,-11029.068536,0.000000
983.947071,-1036.288319,-10288.862594,536.266849
983.947395,-740.205942,-10955.047942,-459.657299
983.947719,0.000000,-10584.944971,-383.047749
983.948043,0.000000,-10214.842000,0.000000
983.948367,0.000000,-9844.739029,383.047749
983.948691,296.082377,-9474.636058,-153.219100
983.949015,1036.288319,-8290.306550,383.047749
983.949339,1036.288319,-8068.244768,842.705048
983.949663,1258.350101,-9030.512492,306.438199
983.949987,148.041188,-8956.491898,-229.828649
983.950311,-962.267725,-8586.388927,-383.047749
983.950635,-814.226536,-8734.430116,0.000000
983.950959,222.061783,-9252.574275,153.219100
983.951283,1258.350101,-9548.656652,383.047749
983.951607,1480.411884,-8660.409521,459.657299
983.951931,1776.494261,-8290.306550,536.266849
983.952255,1110.308913,-8512.368333,612.876398
983.952579,888.247130,-8734.430116,-536.266849
983.952903,-518.144159,-8290.306550,-153.219100
983.953227,-1480.411884,-8512.368333,229.828649
983.953551,-1480.411884,-8956.491898,-612.876398
983.953875,-1406.391290,-9622.677246,0.000000
983.954199,-1184.329507,-9770.718434,229.828649
983.954524,0.000000,-9770.718434,153.219100
983.954848,518.144159,-10584.944971,689.485948
983.955172,814.226536,-10955.047942,306.438199
983.955496,-148.041188,-9992.780217,229.828649
983.955820,-1554.432478,-9474.636058,-689.485948
983.956144,-3034.844362,-10066.800811,-689.485948
983.956468,-2516.700203,-9770.718434,-1149.143247
983.956792,-740.205942,-9474.636058,-1915.238745
983.957116,222.061783,-9178.553681,-1378.971896
983.957440,1406.391290,-9918.759623,-612.876398
983.957764,2294.638420,-10214.842000,-383.047749
983.958088,2072.576638,-9992.780217,153.219100
983.958412,1554.432478,-9400.615463,-306.438199
983.958736,1480.411884,-9918.759623,-153.219100
983.959060,888.247130,-10140.821405,-229.828649
983.959384,1184.329507,-10584.944971,-153.219100
983.959708,444.123565,-11029.068536,0.000000
983.960032,-222.061783,-10584.944971,-766.095498
983.960356,-296.082377,-9474.636058,-1302.362347
983.960680,0.000000,-9696.697840,-995.924147
983.961004,-296.082377,-11621.233289,0.000000
983.961328,-740.205942,-11769.274478,0.000000
983.961652,-1258.350101,-10584.944971,-689.485948
983.961976,-2368.659014,-9622.677246,-536.266849
983.962300,-2516.700203,-10140.821405,-1455.581446
983.962624,-1850.514855,-10362.883188,-1378.971896
983.962948,-518.144159,-9474.636058,-536.266849
983.963272,1554.432478,-9474.636058,229.828649
983.963596,2442.679609,-9548.656652,459.657299
983.963920,2146.597232,-9178.553681,229.828649
983.964244,1332.370696,-9548.656652,0.000000
983.964568,518.144159,-9548.656652,-306.438199
983.964892,666.185348,-9622.677246,-306.438199
983.965216,666.185348,-9844.739029,536.266849
983.965540,1036.288319,-9474.636058,766.095498
983.965864,1036.288319,-9030.512492,919.314598
983.966188,1110.308913,-8956.491898,842.705048
983.966512,0.000000,-9030.512492,76.609550
983.966836,-1406.391290,-8882.471304,-536.266849
983.967160,-1628.453072,-8364.327145,-229.828649
983.967484,-1036.288319,-8586.388927,76.609550
983.967808,-666.185348,-8882.471304,-383.047749
983.968132,-888.247130,-9326.594869,-383.047749
983.968456,-1184.329507,-8882.471304,-76.609550
983.968780,-666.185348,-9326.594869,-459.657299
983.969104,-592.164754,-10066.800811,-612.876398
983.969428,-1628.453072,-10288.862594,383.047749
983.969753,-2516.700203,-10140.821405,0.000000
983.970077,-2072.576638,-8956.491898,-842.705048
983.970401,-888.247130,-8290.306550,-229.828649
983.970725,74.020594,-9918.759623,536.266849
983.971049,740.205942,-9918.759623,153.219100
983.971373,1110.308913,-9474.636058,1302.362347
983.971697,740.205942,-9548.656652,1838.629195
983.972021,1258.350101,-10362.883188,306.438199
983.972345,592.164754,-9992.780217,-306.438199
983.972669,-1332.370696,-9326.594869,-306.438199
983.972993,-1332.370696,-9252.574275,-1455.581446
983.973317,-518.144159,-9474.636058,-1915.238745
983.973641,370.102971,-9918.759623,-995.924147
983.973965,814.226536,-10066.800811,383.047749
983.974289,1850.514855,-10658.965565,-383.047749
983.974613,1924.535449,-10140.821405,-153.219100
983.974937,888.247130,-10288.862594,0.000000
983.975261,74.020594,-10881.027347,-459.657299
983.975585,74.020594,-10658.965565,153.219100
983.975909,444.123565,-11473.192101,689.485948
983.976233,666.185348,-11029.068536,383.047749
983.976557,518.144159,-10584.944971,459.657299
983.976881,0.000000,-10214.842000,229.828649
983.977205,-148.041188,-10288.862594,-306.438199
983.977529,-592.164754,-10066.800811,-153.219100
983.977853,-592.164754,-9992.780217,-306.438199
983.978177,-962.267725,-9992.780217,-919.314598
983.978501,-1332.370696,-9474.636058,-383.047749
983.978825,-1406.391290,-9030.512492,-842.705048
983.979149,-666.185348,-9622.677246,0.000000
983.979473,-370.102971,-9696.697840,-306.438199
983.979797,0.000000,-8216.285956,-459.657299
983.980121,666.185348,-7402.059420,153.219100
983.980445,1480.411884,-8956.491898,995.924147
983.980769,1258.350101,-10436.903782,1149.143247
983.981093,1628.453072,-9770.718434,1532.190996
983.981417,1184.329507,-8364.327145,1225.752797
983.981741,592.164754,-8586.388927,689.485948
983.982065,222.061783,-9178.553681,459.657299
983.982389,-296.082377,-9030.512492,383.047749
983.982713,-1554.432478,-9252.574275,0.000000
983.983038,-2072.576638,-8882.471304,-766.095498
983.983362,-1850.514855,-8660.409521,-1072.533697
983.983686,-1406.391290,-7920.203579,-842.705048
983.984010,-592.164754,-9400.615463,-229.828649
983.984334,370.102971,-9770.718434,153.219100
983.984658,1406.391290,-9474.636058,0.000000
983.984982,1258.350101,-9844.739029,306.438199
983.985306,666.185348,-9030.512492,-153.219100
983.985630,-518.144159,-9252.574275,612.876398
983.985954,-1184.329507,-10584.944971,-459.657299
983.986278,-1406.391290,-10732.986159,-919.314598
983.986602,-888.247130,-10584.944971,-383.047749
983.986927,74.020594,-10955.047942,-229.828649
983.987251,814.226536,-10807.006753,459.657299
983.987575,1258.350101,-10214.842000,0.000000
983.987899,444.123565,-10214.842000,-689.485948
983.988223,-518.144159,-9770.718434,-689.485948
983.988547,-1998.556043,-9844.739029,-1608.800546
983.988871,-2886.803174,-10362.883188,-1302.362347
983.989195,-3108.864956,-10881.027347,-2298.286494
983.989519,-2072.576638,-10066.800811,-2374.896044
983.989843,-1184.329507,-9844.739029,-1608.800546
983.990167,1110.308913,-9770.718434,-919.314598
983.990491,2738.761985,-11399.171507,-612.876398
983.990815,2812.782580,-11177.109724,153.219100
983.991140,2886.803174,-10732.986159,229.828649
983.991464,2146.597232,-10140.821405,306.438199
983.991788,1036.288319,-10658.965565,-229.828649
983.992112,74.020594,-10807.006753,306.438199
983.992436,0.000000,-10658.965565,919.314598
983.992760,222.061783,-10362.883188,306.438199
983.993084,888.247130,-9252.574275,153.219100
983.993408,888.247130,-8068.244768,76.609550
983.993732,0.000000,-7624.121203,229.828649
983.994056,-740.205942,-8734.430116,-153.219100
983.994380,-1554.432478,-9326.594869,-689.485948
983.994704,-1702.473667,-7698.141797,-766.095498
983.995029,-1332.370696,-8068.244768,-536.266849
983.995353,-888.247130,-9030.512492,459.657299
983.995677,370.102971,-9474.636058,612.876398
983.996001,74.020594,-9770.718434,612.876398
983.996325,-296.082377,-9326.594869,0.000000
983.996649,0.000000,-8290.306550,383.047749
983.996973,370.102971,-8734.430116,1072.533697
983.997297,1924.535449,-9918.759623,1838.629195
983.997621,2664.741391,-9474.636058,1838.629195
983.997945,2146.597232,-9030.512492,1455.581446
983.998269,592.164754,-8956.491898,383.047749
983.998593,-740.205942,-9548.656652,153.219100
983.998918,-2516.700203,-9696.697840,-459.657299
983.999242,-3256.906145,-9622.677246,-1149.143247
983.999566,-2738.761985,-9252.574275,-1685.410096
983.999890,-1554.432478,-9474.636058,-689.485948
984.000214,-370.102971,-11029.068536,612.876398
984.000538,962.267725,-11103.089130,689.485948
984.000862,962.267725,-9474.636058,0.000000
984.001186,666.185348,-8438.347739,-306.438199
984.001510,592.164754,-8956.491898,-1378.971896
984.001834,592.164754,-10140.821405,-229.828649
984.002158,0.000000,-10658.965565,612.876398
984.002482,-666.185348,-10658.965565,459.657299
984.002806,-666.185348,-9474.636058,459.657299
984.003131,740.205942,-9844.739029,459.657299
984.003455,1628.453072,-10214.842000,0.000000
984.003779,1332.370696,-9474.636058,229.828649
984.004103,888.247130,-10066.800811,612.876398
984.004427,666.185348,-10807.006753,0.000000
984.004751,148.041188,-9474.636058,-766.095498
984.005075,-1332.370696,-8438.347739,-1149.143247
984.005399,-2294.638420,-8734.430116,-1072.533697
984.005723,-1702.473667,-10214.842000,-2068.457845
984.006047,-222.061783,-10732.986159,-1225.752797
984.006371,444.123565,-10140.821405,-306.438199
984.006695,814.226536,-9474.636058,-995.924147
984.007020,814.226536,-9770.718434,0.000000
984.007344,1036.288319,-10807.006753,1532.190996
984.007668,2590.720797,-11769.274478,1455.581446
984.007992,2442.679609,-11251.130318,1149.143247
984.008316,592.164754,-9030.512492,689.485948
984.008640,-1258.350101,-8290.306550,-229.828649
984.008964,-1850.514855,-9548.656652,-1225.752797
984.009288,-1702.473667,-10066.800811,-689.485948
984.009612,-1036.288319,-8956.491898,0.000000
984.009936,-370.102971,-8660.409521,-153.219100
984.010260,222.061783,-8438.347739,-153.219100
984.010584,-222.061783,-8364.327145,-153.219100
984.010909,0.000000,-8438.347739,0.000000
984.011233,0.000000,-9104.533087,-459.657299
984.011557,-148.041188,-9400.615463,-229.828649
984.011881,-740.205942,-9178.553681,306.438199
984.012205,-444.123565,-9252.574275,995.924147
984.012529,-370.102971,-9770.718434,-229.828649
984.012853,-1110.308913,-9696.697840,-459.657299
984.013177,-1184.329507,-9992.780217,-153.219100
984.013501,-592.164754,-10584.944971,0.000000
984.013825,-296.082377,-10436.903782,-383.047749
984.014149,370.102971,-9548.656652,-306.438199
984.014473,962.267725,-9252.574275,-383.047749
984.014797,1480.411884,-11325.150913,229.828649
984.015122,592.164754,-12213.398043,153.219100
984.015446,-222.061783,-11621.233289,306.438199
984.015770,-518.144159,-10140.821405,0.000000
984.016094,-296.082377,-9622.677246,-612.876398
984.016418,666.185348,-10362.883188,0.000000
984.016742,1184.329507,-10436.903782,766.095498
984.017066,1036.288319,-9696.697840,229.828649
984.017390,740.205942,-9696.697840,306.438199
984.017714,-296.082377,-8882.471304,919.314598
984.018038,0.000000,-9252.574275,0.000000
984.018362,-1332.370696,-8586.388927,-536.266849
984.018686,-2886.803174,-7772.162391,-383.047749
984.019011,-2664.741391,-8512.368333,0.000000
984.019335,-1332.370696,-9474.636058,0.000000
984.019659,0.000000,-9326.594869,842.705048
984.019983,592.164754,-8290.306550,1072.533697
984.020307,1184.329507,-9178.553681,459.657299
984.020631,1036.288319,-9770.718434,0.000000
984.020955,962.267725,-9104.533087,229.828649
984.021279,222.061783,-9474.636058,0.000000
984.021603,-296.082377,-9474.636058,-229.828649
984.021927,-1184.329507,-9770.718434,0.000000
984.022251,-1406.391290,-10066.800811,-766.095498
984.022575,-592.164754,-9992.780217,76.609550
984.022900,370.102971,-11103.089130,153.219100
984.023224,1036.288319,-11029.068536,383.047749
984.023548,1258.350101,-10362.883188,459.657299
984.023872,1258.350101,-9178.553681,0.000000
984.024196,888.247130,-9178.553681,459.657299
984.024520,74.020594,-10214.842000,0.000000
984.024844,222.061783,-10288.862594,-536.266849
984.025168,-666.185348,-8660.409521,-459.657299
984.025492,-1036.288319,-8290.306550,-689.485948
984.025816,-592.164754,-8660.409521,-919.314598
984.026140,518.144159,-9326.594869,-842.705048
984.026464,1480.411884,-9770.718434,153.219100
984.026788,2072.576638,-9252.574275,612.876398
984.027113,1702.473667,-9770.718434,459.657299
984.027437,296.082377,-9844.739029,-306.438199
984.027761,222.061783,-10436.903782,0.000000
984.028085,518.144159,-11103.089130,0.000000
984.028409,444.123565,-10732.986159,0.000000
984.028733,-296.082377,-10066.800811,306.438199
984.029057,-518.144159,-9918.759623,-1225.752797
984.029381,-740.205942,-9622.677246,-1608.800546
984.029705,-518.144159,-10362.883188,-383.047749
984.030029,-370.102971,-10955.047942,-459.657299
984.030353,-740.205942,-11251.130318,-383.047749
984.030677,-518.144159,-9770.718434,76.609550
984.031002,518.144159,-9252.574275,306.438199
984.031326,518.144159,-9844.739029,0.000000
984.031650,-296.082377,-10140.821405,-153.219100
984.031974,-1332.370696,-9252.574275,306.438199
984.032298,-1036.288319,-9326.594869,153.219100
984.032622,-370.102971,-9178.553681,0.000000
984.032946,0.000000,-8586.388927,153.219100
984.033270,-222.061783,-8290.306550,306.438199
