#time,accel_x,accel_y,accel_z
1023.573676,74.020594,-9770.718434,0.000000
1023.574000,222.061783,-9474.636058,153.219100
1023.574324,148.041188,-9326.594869,306.438199
1023.574649,74.020594,-9252.574275,76.609550
1023.574973,296.082377,-9770.718434,76.609550
1023.575297,0.000000,-9474.636058,153.219100
1023.575621,0.000000,-9474.636058,-306.438199
1023.575945,74.020594,-9474.636058,0.000000
1023.576269,0.000000,-9548.656652,76.609550
1023.576593,74.020594,-9770.718434,0.000000
1023.576917,0.000000,-9474.636058,-383.047749
1023.577241,0.000000,-9548.656652,0.000000
1023.577565,74.020594,-9400.615463,153.219100
1023.577889,0.000000,-9474.636058,0.000000
1023.578214,0.000000,-9622.677246,0.000000
1023.578538,-222.061783,-9918.759623,-153.219100
1023.578862,-148.041188,-9918.759623,0.000000
1023.579186,-222.061783,-9622.677246,0.000000
1023.579510,0.000000,-9548.656652,0.000000
1023.579834,0.000000,-9770.718434,-995.924147
1023.580158,222.061783,-9474.636058,153.219100
1023.580482,0.000000,-9844.739029,153.219100
1023.580806,0.000000,-9992.780217,0.000000
1023.581130,-296.082377,-9548.656652,153.219100
1023.581454,0.000000,-9992.780217,153.219100
1023.581779,-148.041188,-9770.718434,-229.828649
1023.582103,-592.164754,-9252.574275,76.609550
1023.582427,-444.123565,-9548.656652,76.609550
1023.582751,-296.082377,-10140.821405,0.000000
1023.583075,-222.061783,-9992.780217,229.828649
1023.583399,74.020594,-10140.821405,536.266849
1023.583723,74.020594,-10066.800811,306.438199
1023.584047,0.000000,-10066.800811,0.000000
1023.584371,-592.164754,-9622.677246,689.485948
1023.584695,-1036.288319,-9474.636058,0.000000
1023.585019,-1110.308913,-9622.677246,0.000000
1023.585344,-1480.411884,-8586.388927,306.438199
1023.585668,-518.144159,-8808.450710,766.095498
1023.585992,444.123565,-9400.615463,459.657299
1023.586316,518.144159,-9770.718434,1302.362347
1023.586640,-518.144159,-9992.780217,612.876398
1023.586964,-1554.432478,-9918.759623,306.438199
1023.587288,-1702.473667,-9844.739029,153.219100
1023.587612,-2442.679609,-10288.862594,536.266849
1023.587936,-2516.700203,-10362.883188,766.095498
1023.588260,-2368.659014,-10436.903782,1225.752797
1023.588584,-2072.576638,-9474.636058,1072.533697
1023.588909,-1406.391290,-8586.388927,995.924147
1023.589233,0.000000,-8882.471304,1532.190996
1023.589557,148.041188,-8660.409521,1915.238745
1023.589881,0.000000,-9622.677246,1302.362347
1023.590205,-1332.370696,-9252.574275,1225.752797
1023.590529,-2664.741391,-9474.636058,1378.971896
1023.590853,-3256.906145,-10214.842000,995.924147
1023.591177,-3108.864956,-10510.924376,1072.533697
1023.591501,-2812.782580,-10584.944971,1302.362347
1023.591825,-3034.844362,-10807.006753,1302.362347
1023.592149,-2294.638420,-10658.965565,1225.752797
1023.592474,-1702.473667,-9474.636058,1915.238745
1023.592798,-1110.308913,-8734.430116,1991.848295
1023.593122,-444.123565,-8808.450710,2221.676944
1023.593446,-222.061783,-9252.574275,2298.286494
1023.593770,-370.102971,-9696.697840,2528.115143
1023.594094,-740.205942,-9474.636058,1915.238745
1023.594418,-1850.514855,-9474.636058,2298.286494
1023.594742,-3404.947333,-10140.821405,1991.848295
1023.595066,-4367.215058,-10955.047942,2145.067394
1023.595390,-5033.400406,-10807.006753,2681.334243
1023.595714,-5255.462188,-10807.006753,2604.724693
1023.596039,-4885.359217,-10066.800811,2528.115143
1023.596363,-5033.400406,-9178.553681,2681.334243
1023.596687,-4737.318029,-9178.553681,2911.162892
1023.597011,-3701.029710,-9622.677246,3217.601092
1023.597335,-2368.659014,-9992.780217,3600.648841
1023.597659,-814.226536,-9400.615463,4519.963438
1023.597983,666.185348,-8882.471304,4519.963438
1023.598307,1184.329507,-8216.285956,3524.039291
1023.598631,1184.329507,-8512.368333,3600.648841
1023.598955,370.102971,-9030.512492,3447.429741
1023.599279,-1110.308913,-8660.409521,2528.115143
1023.599603,-2738.761985,-8512.368333,2298.286494
1023.599928,-4959.379811,-7994.224174,1302.362347
1023.600252,-6291.750507,-8438.347739,306.438199
1023.600576,-7402.059420,-10584.944971,689.485948
1023.600900,-6735.874072,-11399.171507,1378.971896
1023.601224,-4219.173869,-10510.924376,2834.553343
1023.601548,-1850.514855,-8882.471304,4596.572988
1023.601872,888.247130,-7772.162391,4749.792088
1023.602196,3182.885551,-8586.388927,4443.353888
1023.602520,4367.215058,-10066.800811,4903.011187
1023.602844,4515.256246,-10140.821405,4979.620737
1023.603168,2960.823768,-9770.718434,4443.353888
1023.603493,888.247130,-8808.450710,2987.772442
1023.603817,-2368.659014,-7105.977043,76.609550
1023.604141,-5329.482782,-7254.018232,-1838.629195
1023.604465,-7550.100608,-10288.862594,-2145.067394
1023.604789,-6513.812290,-11843.295072,-2298.286494
1023.605113,-4219.173869,-10510.924376,-1225.752797
1023.605437,-2664.741391,-8660.409521,536.266849
1023.605761,-1258.350101,-7846.182985,1302.362347
1023.606085,-1776.494261,-9400.615463,1608.800546
1023.606409,-2886.803174,-10881.027347,1455.581446
1023.606733,-2590.720797,-11029.068536,2221.676944
1023.607058,-370.102971,-12435.459826,3600.648841
1023.607382,3108.864956,-12953.603985,4749.792088
1023.607706,5699.585753,-11917.315666,4826.401637
1023.608030,5033.400406,-10807.006753,3370.820191
1023.608354,1776.494261,-10362.883188,1838.629195
1023.608678,-2886.803174,-10362.883188,-536.266849
1023.609002,-5551.544565,-7476.080014,-3753.867940
1023.609326,-6661.853478,-7328.038826,-3370.820191
1023.609650,-6365.771101,-10732.986159,-1225.752797
1023.609974,-3552.988522,-12139.377449,-1685.410096
1023.610298,-3034.844362,-11325.150913,-842.705048
1023.610623,-5551.544565,-9326.594869,689.485948
1023.610947,-5847.626942,-8438.347739,76.609550
1023.611271,-5403.503377,-9252.574275,459.657299
1023.611595,-3775.050304,-8808.450710,919.314598
1023.611919,-444.123565,-9400.615463,3294.210641
1023.612243,2146.597232,-12435.459826,3830.477490
1023.612567,2294.638420,-13027.624579,3907.087040
1023.612891,740.205942,-10658.965565,4519.963438
1023.613215,0.000000,-8512.368333,2987.772442
1023.613539,-1332.370696,-8364.327145,612.876398
1023.613863,-1554.432478,-9178.553681,1149.143247
1023.614188,-1702.473667,-8734.430116,1149.143247
1023.614512,-2072.576638,-8216.285956,1302.362347
1023.614836,-4071.132681,-8660.409521,612.876398
1023.615160,-5699.585753,-8438.347739,1608.800546
1023.615484,-4737.318029,-8438.347739,1149.143247
1023.615808,-3923.091493,-7698.141797,1072.533697
1023.616132,-4589.276840,-8142.265362,1149.143247
1023.616456,-6069.688724,-9400.615463,1685.410096
1023.616780,-5699.585753,-10510.924376,1991.848295
1023.617104,-3849.070898,-10955.047942,2757.943793
1023.617428,-1406.391290,-9622.677246,3217.601092
1023.617753,-296.082377,-8364.327145,3447.429741
1023.618077,-518.144159,-9474.636058,3447.429741
1023.618401,-1406.391290,-11399.171507,3907.087040
1023.618725,-592.164754,-11251.130318,4290.134789
1023.619049,666.185348,-10584.944971,3907.087040
1023.619373,222.061783,-8956.491898,3370.820191
1023.619697,-2442.679609,-8808.450710,2911.162892
1023.620021,-4145.153275,-9992.780217,3447.429741
1023.620345,-3923.091493,-10584.944971,2145.067394
1023.620669,-3034.844362,-9696.697840,1915.238745
1023.620993,-3997.112087,-7402.059420,1455.581446
1023.621318,-4515.256246,-7105.977043,2145.067394
1023.621642,-3478.967927,-9178.553681,2451.505594
1023.621966,-2294.638420,-9918.759623,1762.019645
1023.622290,-2368.659014,-9474.636058,1149.143247
1023.622614,-3404.947333,-8734.430116,1455.581446
1023.622938,-1554.432478,-10436.903782,2528.115143
1023.623262,1480.411884,-11251.130318,3983.696590
1023.623586,2368.659014,-10732.986159,3983.696590
1023.623910,1184.329507,-11029.068536,4213.525239
1023.624234,-222.061783,-11991.336260,4136.915689
1023.624558,222.061783,-12213.398043,3447.429741
1023.624883,0.000000,-10658.965565,3524.039291
1023.625207,-1628.453072,-9770.718434,3830.477490
1023.625531,-3849.070898,-10436.903782,2681.334243
1023.625855,-3849.070898,-10214.842000,1302.362347
1023.626179,-3478.967927,-7846.182985,1455.581446
1023.626503,-3478.967927,-7105.977043,1838.629195
1023.626827,-4367.215058,-8660.409521,459.657299
1023.627151,-4885.359217,-8956.491898,0.000000
1023.627475,-3775.050304,-7624.121203,1532.190996
1023.627799,-1998.556043,-9104.533087,1455.581446
1023.628123,-518.144159,-10658.965565,1532.190996
1023.628448,-1628.453072,-8956.491898,1225.752797
1023.628772,-740.205942,-8216.285956,2911.162892
1023.629096,1036.288319,-10436.903782,3524.039291
1023.629420,1924.535449,-12065.356855,2911.162892
1023.629744,1036.288319,-10214.842000,3064.381992
1023.630068,-370.102971,-7994.224174,3217.601092
1023.630392,-1850.514855,-9474.636058,2451.505594
1023.630716,-2738.761985,-9696.697840,1838.629195
1023.631040,-3775.050304,-7994.224174,2451.505594
1023.631364,-4071.132681,-9104.533087,2451.505594
1023.631688,-4367.215058,-10288.862594,612.876398
1023.632013,-4589.276840,-8586.388927,306.438199
1023.632337,-4515.256246,-7328.038826,1378.971896
1023.632661,-4663.297435,-9030.512492,1072.533697
1023.632985,-3627.009116,-9992.780217,229.828649
1023.633309,-2738.761985,-8512.368333,766.095498
1023.633633,-1406.391290,-8808.450710,2221.676944
1023.633957,74.020594,-10881.027347,1915.238745
1023.634281,592.164754,-11251.130318,2298.286494
1023.634606,-370.102971,-10362.883188,2221.676944
1023.634930,-1702.473667,-10362.883188,1455.581446
1023.635254,-1850.514855,-10066.800811,1225.752797
1023.635578,-1406.391290,-10732.986159,689.485948
1023.635902,-1924.535449,-10807.006753,-229.828649
1023.636226,-2812.782580,-9844.739029,612.876398
1023.636551,-3256.906145,-10140.821405,306.438199
1023.636875,-3330.926739,-10658.965565,0.000000
1023.637199,-2664.741391,-10436.903782,1149.143247
1023.637523,-2442.679609,-9770.718434,995.924147
1023.637847,-2442.679609,-9918.759623,0.000000
1023.638171,-2664.741391,-9622.677246,919.314598
1023.638495,-3182.885551,-9844.739029,1685.410096
1023.638820,-2738.761985,-10510.924376,995.924147
1023.639144,-2442.679609,-9622.677246,1608.800546
1023.639468,-1184.329507,-10214.842000,2987.772442
1023.639792,-148.041188,-11029.068536,1608.800546
1023.640116,-296.082377,-9696.697840,1455.581446
1023.640440,-2812.782580,-9326.594869,1455.581446
1023.640765,-3701.029710,-10066.800811,536.266849
1023.641089,-2516.700203,-10362.883188,689.485948
1023.641413,-3034.844362,-10658.965565,1608.800546
1023.641737,-3404.947333,-10732.986159,995.924147
1023.642061,-3256.906145,-9770.718434,1378.971896
1023.642385,-2886.803174,-9622.677246,1149.143247
1023.642710,-2664.741391,-10436.903782,1685.410096
1023.643034,-1924.535449,-9548.656652,3064.381992
1023.643358,-962.267725,-8882.471304,2987.772442
1023.643682,-1554.432478,-9326.594869,3064.381992
1023.644006,-2516.700203,-9104.533087,2221.676944
1023.644330,-2368.659014,-7624.121203,3140.991542
1023.644655,-1332.370696,-9104.533087,4290.134789
1023.644979,0.000000,-9326.594869,3753.867940
1023.645303,-1258.350101,-7328.038826,2987.772442
1023.645627,-1850.514855,-6661.853478,3447.429741
1023.645951,-1702.473667,-8142.265362,1915.238745
1023.646275,-2072.576638,-9104.533087,1302.362347
1023.646600,-2516.700203,-9326.594869,1532.190996
1023.646924,-2590.720797,-9548.656652,2528.115143
1023.647248,-2886.803174,-10955.047942,2298.286494
1023.647572,-2368.659014,-11029.068536,2987.772442
1023.647896,-2368.659014,-9770.718434,2528.115143
1023.648220,-1776.494261,-9770.718434,2604.724693
1023.648545,-1776.494261,-10955.047942,2528.115143
1023.648869,-2220.617826,-10732.986159,2911.162892
1023.649193,-2146.597232,-10658.965565,4290.134789
1023.649517,-1554.432478,-8882.471304,3983.696590
1023.649841,148.041188,-9252.574275,3524.039291
1023.650165,-518.144159,-8438.347739,2987.772442
1023.650490,-296.082377,-7994.224174,2528.115143
1023.650814,370.102971,-7624.121203,1991.848295
1023.651138,740.205942,-7550.100608,459.657299
1023.651462,0.000000,-9030.512492,306.438199
1023.651786,-1110.308913,-9548.656652,536.266849
1023.652110,-1850.514855,-10214.842000,-612.876398
1023.652435,-2442.679609,-9918.759623,-153.219100
1023.652759,-2516.700203,-9474.636058,229.828649
1023.653083,-2960.823768,-10732.986159,-153.219100
1023.653407,-2442.679609,-11029.068536,-766.095498
1023.653731,-1332.370696,-9844.739029,689.485948
1023.654055,740.205942,-9918.759623,2068.457845
1023.654380,1406.391290,-11325.150913,1455.581446
1023.654704,296.082377,-10584.944971,1838.629195
1023.655028,0.000000,-9474.636058,2757.943793
1023.655352,518.144159,-9696.697840,1302.362347
1023.655676,1110.308913,-11473.192101,1149.143247
1023.656000,-592.164754,-11103.089130,306.438199
1023.656325,-1702.473667,-9400.615463,-1455.581446
1023.656649,-2812.782580,-8956.491898,-2145.067394
1023.656973,-2442.679609,-9178.553681,-2451.505594
1023.657297,-1924.535449,-9992.780217,-2604.724693
1023.657621,-1776.494261,-10362.883188,-2145.067394
1023.657945,-1628.453072,-8512.368333,-1762.019645
1023.658269,-1110.308913,-8216.285956,-1225.752797
1023.658594,0.000000,-8142.265362,-1302.362347
1023.658918,296.082377,-8438.347739,0.000000
1023.659242,-222.061783,-9474.636058,689.485948
1023.659566,-296.082377,-10362.883188,1072.533697
1023.659890,814.226536,-10584.944971,1762.019645
1023.660214,1998.556043,-11991.336260,2374.896044
1023.660539,2886.803174,-12879.583391,2221.676944
1023.660863,3034.844362,-11399.171507,76.609550
1023.661187,1776.494261,-8364.327145,-1915.238745
1023.661511,74.020594,-8364.327145,-2068.457845
1023.661835,0.000000,-10584.944971,-2451.505594
1023.662159,0.000000,-10362.883188,-3370.820191
1023.662484,-1036.288319,-8438.347739,-3447.429741
1023.662808,-1258.350101,-7402.059420,-2451.505594
1023.663132,0.000000,-9770.718434,-2911.162892
1023.663456,-444.123565,-10362.883188,-2145.067394
1023.663780,-148.041188,-10066.800811,153.219100
1023.664104,222.061783,-10066.800811,1149.143247
1023.664429,1258.350101,-9844.739029,1072.533697
1023.664753,-148.041188,-9622.677246,2298.286494
1023.665077,74.020594,-9104.533087,2221.676944
1023.665401,2368.659014,-9030.512492,1532.190996
1023.665725,2812.782580,-9400.615463,766.095498
1023.666049,2368.659014,-9030.512492,76.609550
1023.666374,2886.803174,-8512.368333,-383.047749
1023.666698,3182.885551,-9326.594869,-689.485948
1023.667022,2146.597232,-10362.883188,-2298.286494
1023.667346,-592.164754,-9992.780217,-2757.943793
1023.667670,-2146.597232,-9252.574275,-2451.505594
1023.667994,-1406.391290,-9400.615463,-3140.991542
1023.668319,-1406.391290,-10510.924376,-2528.115143
1023.668643,-1332.370696,-10584.944971,-1225.752797
1023.668967,-592.164754,-10066.800811,-306.438199
1023.669291,-740.205942,-10658.965565,1149.143247
1023.669615,-222.061783,-10436.903782,1608.800546
1023.669939,-444.123565,-8882.471304,459.657299
1023.670264,-1332.370696,-7920.203579,229.828649
1023.670588,-1184.329507,-9030.512492,1302.362347
1023.670912,0.000000,-10140.821405,842.705048
1023.671236,1332.370696,-9622.677246,1532.190996
1023.671560,1924.535449,-9178.553681,1762.019645
1023.671884,1480.411884,-9844.739029,-612.876398
1023.672209,370.102971,-9252.574275,-1762.019645
1023.672533,-1406.391290,-9696.697840,-689.485948
1023.672857,-2590.720797,-11473.192101,-1225.752797
1023.673181,-2664.741391,-10658.965565,-1608.800546
1023.673505,-3108.864956,-9252.574275,-842.705048
1023.673829,-2590.720797,-8364.327145,-306.438199
1023.674154,-1480.411884,-9326.594869,-229.828649
1023.674478,-296.082377,-9474.636058,306.438199
1023.674802,-296.082377,-8364.327145,919.314598
1023.675126,-666.185348,-8882.471304,1149.143247
1023.675450,-370.102971,-11177.109724,2298.286494
1023.675774,296.082377,-11843.295072,2451.505594
1023.676099,1110.308913,-10881.027347,2298.286494
1023.676423,148.041188,-9696.697840,919.314598
1023.676747,-1258.350101,-10362.883188,383.047749
1023.677071,-1480.411884,-11177.109724,919.314598
1023.677395,-740.205942,-10881.027347,1455.581446
1023.677719,1110.308913,-11029.068536,1149.143247
1023.678043,518.144159,-9252.574275,306.438199
1023.678368,-518.144159,-9252.574275,-612.876398
1023.678692,-1036.288319,-8882.471304,-536.266849
1023.679016,0.000000,-8808.450710,153.219100
1023.679340,0.000000,-9548.656652,689.485948
1023.679664,-296.082377,-9474.636058,919.314598
1023.679988,-888.247130,-7476.080014,0.000000
1023.680313,-1036.288319,-7476.080014,0.000000
1023.680637,0.000000,-9104.533087,229.828649
1023.680961,1480.411884,-9992.780217,995.924147
1023.681285,1776.494261,-10807.006753,1532.190996
1023.681609,2294.638420,-8734.430116,1225.752797
1023.681933,3108.864956,-8216.285956,1685.410096
1023.682258,2664.741391,-9252.574275,766.095498
1023.682582,1628.453072,-10807.006753,229.828649
1023.682906,-148.041188,-10510.924376,229.828649
1023.683230,148.041188,-9918.759623,536.266849
1023.683554,1110.308913,-9992.780217,0.000000
1023.683878,592.164754,-9326.594869,0.000000
1023.684203,-444.123565,-8660.409521,-995.924147
1023.684527,-1702.473667,-8438.347739,-2068.457845
1023.684851,-2220.617826,-9178.553681,-1685.410096
1023.685175,-3034.844362,-8808.450710,-1149.143247
1023.685499,-2590.720797,-8216.285956,-1149.143247
1023.685823,-1776.494261,-8586.388927,-536.266849
1023.686148,74.020594,-9770.718434,-383.047749
1023.686472,370.102971,-9844.739029,-459.657299
1023.686796,-296.082377,-9474.636058,383.047749
1023.687120,0.000000,-10140.821405,76.609550
1023.687444,1776.494261,-9844.739029,0.000000
1023.687768,2516.700203,-9770.718434,383.047749
1023.688093,1628.453072,-10214.842000,0.000000
1023.688417,1332.370696,-10732.986159,-1072.533697
1023.688741,1332.370696,-10732.986159,-1149.143247
1023.689065,1480.411884,-11695.253884,-612.876398
1023.689389,518.144159,-11251.130318,-1762.019645
1023.689713,-814.226536,-9918.759623,-1991.848295
1023.690038,-1850.514855,-10140.821405,-1915.238745
1023.690362,-1628.453072,-11177.109724,-2451.505594
1023.690686,-1702.473667,-11473.192101,-2451.505594
1023.691010,-3034.844362,-10658.965565,-1915.238745
1023.691334,-2516.700203,-11251.130318,-459.657299
1023.691658,148.041188,-11103.089130,306.438199
1023.691983,2664.741391,-10214.842000,-383.047749
1023.692307,2590.720797,-9474.636058,689.485948
1023.692631,2294.638420,-9622.677246,76.609550
1023.692955,1850.514855,-10214.842000,306.438199
1023.693279,1850.514855,-9178.553681,383.047749
1023.693603,1702.473667,-8660.409521,459.657299
1023.693928,814.226536,-8956.491898,229.828649
1023.694252,-222.061783,-9030.512492,-1072.533697
1023.694576,-962.267725,-8808.450710,-919.314598
1023.694900,-1628.453072,-8364.327145,-1225.752797
1023.695224,-1776.494261,-8068.244768,-1532.190996
1023.695548,-1628.453072,-8438.347739,-689.485948
1023.695873,-1184.329507,-8586.388927,-919.314598
1023.696197,-222.061783,-8586.388927,0.000000
1023.696521,-148.041188,-8882.471304,536.266849
1023.696845,962.267725,-9326.594869,383.047749
1023.697169,444.123565,-8660.409521,919.314598
1023.697493,740.205942,-9252.574275,383.047749
1023.697817,444.123565,-9844.739029,536.266849
1023.698142,74.020594,-10584.944971,-153.219100
1023.698466,-296.082377,-10807.006753,766.095498
1023.698790,-740.205942,-10732.986159,995.924147
1023.699114,0.000000,-10362.883188,766.095498
1023.699438,-296.082377,-9770.718434,-229.828649
1023.699762,-592.164754,-8808.450710,-229.828649
1023.700087,-518.144159,-9252.574275,-536.266849
1023.700411,-444.123565,-9252.574275,-306.438199
1023.700735,-1258.350101,-9400.615463,383.047749
1023.701059,-1554.432478,-8142.265362,153.219100
1023.701383,-1480.411884,-7920.203579,612.876398
1023.701707,-1702.473667,-9178.553681,459.657299
1023.702032,-370.102971,-9844.739029,766.095498
1023.702356,296.082377,-9770.718434,766.095498
1023.702680,1332.370696,-9326.594869,1762.019645
1023.703004,1480.411884,-9918.759623,2374.896044
1023.703328,1480.411884,-10436.903782,1455.581446
1023.703652,666.185348,-10436.903782,1608.800546
1023.703977,-740.205942,-10066.800811,459.657299
1023.704301,-518.144159,-10807.006753,306.438199
1023.704625,0.000000,-11103.089130,536.266849
1023.704949,444.123565,-11029.068536,612.876398
1023.705273,-592.164754,-10584.944971,76.609550
1023.705597,-1776.494261,-10288.862594,383.047749
1023.705922,-1554.432478,-11473.192101,306.438199
1023.706246,-740.205942,-11843.295072,0.000000
1023.706570,74.020594,-10510.924376,383.047749
1023.706894,0.000000,-9622.677246,1685.410096
1023.707218,-592.164754,-11029.068536,536.266849
1023.707542,-1110.308913,-10807.006753,-153.219100
1023.707867,-1184.329507,-9992.780217,612.876398
1023.708191,-1036.288319,-9548.656652,536.266849
1023.708515,222.061783,-9474.636058,995.924147
1023.708839,1184.329507,-8882.471304,1915.238745
1023.709163,1332.370696,-7772.162391,1762.019645
1023.709487,1110.308913,-7920.203579,76.609550
1023.709812,370.102971,-8142.265362,306.438199
1023.710136,1406.391290,-9104.533087,459.657299
1023.710460,2516.700203,-8512.368333,842.705048
1023.710784,2960.823768,-8068.244768,689.485948
1023.711108,1702.473667,-7254.018232,459.657299
1023.711432,222.061783,-8290.306550,-153.219100
1023.711757,-148.041188,-9844.739029,-306.438199
1023.712081,148.041188,-10066.800811,-229.828649
1023.712405,-222.061783,-9548.656652,-306.438199
1023.712729,-814.226536,-8734.430116,229.828649
1023.713053,-222.061783,-9178.553681,-229.828649
1023.713377,0.000000,-9622.677246,-1149.143247
1023.713702,-814.226536,-9770.718434,306.438199
1023.714026,-2368.659014,-9474.636058,-1455.581446
1023.714350,-2368.659014,-9696.697840,-842.705048
1023.714674,-1184.329507,-9844.739029,-536.266849
1023.714998,888.247130,-9548.656652,229.828649
1023.715322,1480.411884,-9548.656652,0.000000
1023.715646,0.000000,-9622.677246,0.000000
1023.715971,-1406.391290,-9622.677246,-1149.143247
1023.716295,-444.123565,-9326.594869,-1532.190996
1023.716619,-222.061783,-10362.883188,-995.924147
1023.716943,0.000000,-9770.718434,-1532.190996
1023.717267,296.082377,-9992.780217,-1608.800546
1023.717591,-370.102971,-10066.800811,-1685.410096
1023.717916,-222.061783,-10584.944971,-2221.676944
1023.718240,-296.082377,-10066.800811,-2987.772442
1023.718564,-518.144159,-10436.903782,-1378.971896
1023.718888,0.000000,-11473.192101,-1225.752797
1023.719212,-148.041188,-10807.006753,-766.095498
1023.719536,-222.061783,-11325.150913,-1149.143247
1023.719861,-740.205942,-11991.336260,-689.485948
1023.720185,-370.102971,-12583.501014,-995.924147
1023.720509,-518.144159,-11399.171507,-612.876398
1023.720833,-222.061783,-10881.027347,-383.047749
1023.721157,-222.061783,-11029.068536,229.828649
1023.721481,1036.288319,-11325.150913,229.828649
1023.721806,1406.391290,-10584.944971,-306.438199
1023.722130,1036.288319,-9178.553681,-229.828649
1023.722454,666.185348,-9030.512492,0.000000
1023.722778,666.185348,-10288.862594,919.314598
1023.723102,1628.453072,-10066.800811,1455.581446
1023.723426,2368.659014,-8364.327145,1915.238745
1023.723751,1776.494261,-7105.977043,1685.410096
1023.724075,740.205942,-7328.038826,1149.143247
1023.724399,74.020594,-7846.182985,1149.143247
1023.724723,148.041188,-7105.977043,1072.533697
1023.725047,74.020594,-6439.791695,459.657299
1023.725371,-1036.288319,-7254.018232,689.485948
1023.725696,-518.144159,-7994.224174,1302.362347
1023.726020,-370.102971,-8512.368333,1149.143247
1023.726344,1110.308913,-7920.203579,612.876398
1023.726668,888.247130,-8364.327145,1378.971896
1023.726992,0.000000,-9622.677246,766.095498
1023.727316,-296.082377,-10510.924376,76.609550
1023.727641,-518.144159,-9474.636058,536.266849
1023.727965,-518.144159,-9326.594869,1532.190996
1023.728289,-1480.411884,-11251.130318,1072.533697
1023.728613,-1702.473667,-11251.130318,689.485948
1023.728937,-1184.329507,-10214.842000,1072.533697
1023.729261,-148.041188,-9622.677246,1378.971896
1023.729586,370.102971,-9844.739029,153.219100
1023.729910,-370.102971,-9252.574275,-229.828649
1023.730234,-1480.411884,-9252.574275,-612.876398
1023.730558,-1110.308913,-8882.471304,-995.924147
1023.730882,0.000000,-9326.594869,-306.438199
1023.731206,0.000000,-10066.800811,-229.828649
1023.731531,74.020594,-9548.656652,-995.924147
1023.731855,74.020594,-9178.553681,-1378.971896
1023.732179,296.082377,-9474.636058,-689.485948
1023.732503,1258.350101,-11103.089130,153.219100
1023.732827,1258.350101,-11843.295072,153.219100
1023.733151,1184.329507,-11103.089130,459.657299
1023.733476,888.247130,-9992.780217,0.000000
1023.733800,518.144159,-10214.842000,-536.266849
1023.734127,-592.164754,-11103.089130,-1378.971896
1023.734451,-2072.576638,-12065.356855,-1225.752797
1023.734775,-2886.803174,-11843.295072,-1072.533697
1023.735099,-1184.329507,-10140.821405,-1225.752797
1023.735423,296.082377,-10732.986159,-1072.533697
1023.735747,296.082377,-10658.965565,-229.828649
1023.736072,296.082377,-10807.006753,-459.657299
1023.736396,-962.267725,-10955.047942,-919.314598
1023.736720,-1628.453072,-10140.821405,-1149.143247
1023.737044,-1776.494261,-9326.594869,-842.705048
1023.737368,-296.082377,-9474.636058,306.438199
1023.737692,1776.494261,-10362.883188,995.924147
1023.738016,2368.659014,-9770.718434,1072.533697
1023.738340,1702.473667,-8882.471304,1149.143247
1023.738664,888.247130,-7328.038826,689.485948
1023.738988,370.102971,-7920.203579,-229.828649
1023.739312,518.144159,-8068.244768,-153.219100
1023.739636,222.061783,-8364.327145,536.266849
1023.739960,0.000000,-8068.244768,0.000000
1023.740284,0.000000,-7772.162391,306.438199
1023.740608,74.020594,-7476.080014,-229.828649
1023.740932,888.247130,-8216.285956,0.000000
1023.741257,222.061783,-9770.718434,0.000000
1023.741581,-148.041188,-10140.821405,229.828649
1023.741905,-370.102971,-9548.656652,0.000000
1023.742229,-888.247130,-8734.430116,-306.438199
1023.742553,-740.205942,-8956.491898,612.876398
1023.742877,-222.061783,-10214.842000,919.314598
1023.743201,0.000000,-10807.006753,919.314598
1023.743525,296.082377,-9400.615463,842.705048
1023.743849,444.123565,-7920.203579,76.609550
1023.744173,0.000000,-7920.203579,-153.219100
1023.744497,-370.102971,-9252.574275,0.000000
1023.744821,-888.247130,-9548.656652,-536.266849
1023.745145,-740.205942,-8290.306550,-995.924147
1023.745469,-518.144159,-8808.450710,-1685.410096
1023.745793,-814.226536,-9030.512492,-1072.533697
1023.746118,222.061783,-10140.821405,-1149.143247
1023.746442,222.061783,-10510.924376,-536.266849
1023.746766,1406.391290,-10510.924376,-1455.581446
1023.747090,1184.329507,-10658.965565,-1608.800546
1023.747414,1110.308913,-10955.047942,-1608.800546
1023.747738,814.226536,-11769.274478,-306.438199
1023.748062,1554.432478,-12509.480420,-536.266849
1023.748386,1110.308913,-12509.480420,-689.485948
1023.748710,-296.082377,-11991.336260,-1608.800546
1023.749034,-1036.288319,-12435.459826,-766.095498
1023.749358,74.020594,-12435.459826,0.000000
1023.749682,1036.288319,-12435.459826,0.000000
1023.750006,74.020594,-11177.109724,-612.876398
1023.750330,-1036.288319,-10288.862594,-612.876398
1023.750654,-1702.473667,-11029.068536,-383.047749
1023.750978,-592.164754,-10214.842000,-995.924147
1023.751303,-370.102971,-8734.430116,76.609550
1023.751627,-888.247130,-8364.327145,612.876398
1023.751951,-1258.350101,-8586.388927,-536.266849
1023.752275,-888.247130,-7772.162391,-229.828649
1023.752599,148.041188,-7105.977043,919.314598
1023.752923,814.226536,-7920.203579,1378.971896
1023.753247,1036.288319,-8068.244768,842.705048
1023.753571,1110.308913,-6809.894666,1685.410096
1023.753895,1480.411884,-6365.771101,1838.629195
1023.754219,1332.370696,-7994.224174,1608.800546
1023.754543,962.267725,-8438.347739,919.314598
1023.754867,0.000000,-8512.368333,1302.362347
1023.755191,0.000000,-7550.100608,995.924147
1023.755515,666.185348,-7698.141797,306.438199
1023.755839,-518.144159,-8660.409521,1378.971896
1023.756164,-1184.329507,-9326.594869,1072.533697
1023.756488,-2294.638420,-9622.677246,919.314598
1023.756812,-2812.782580,-9844.739029,459.657299
1023.757136,-2294.638420,-9400.615463,229.828649
1023.757460,-2220.617826,-9696.697840,919.314598
1023.757784,-1554.432478,-10584.944971,842.705048
1023.758108,-1776.494261,-10362.883188,536.266849
1023.758432,-962.267725,-9918.759623,459.657299
1023.758756,0.000000,-8734.430116,459.657299
1023.759080,1332.370696,-10140.821405,995.924147
1023.759404,1480.411884,-11399.171507,383.047749
1023.759728,1036.288319,-9474.636058,0.000000
1023.760052,-444.123565,-8882.471304,-842.705048
1023.760376,-592.164754,-9400.615463,-536.266849
1023.760700,1110.308913,-10288.862594,-383.047749
1023.761024,1776.494261,-10955.047942,-459.657299
1023.761349,1924.535449,-10584.944971,-306.438199
1023.761673,370.102971,-9622.677246,-612.876398
1023.761997,1184.329507,-9400.615463,-1072.533697
1023.762321,666.185348,-10214.842000,-612.876398
1023.762645,518.144159,-10955.047942,-842.705048
1023.762969,0.000000,-10658.965565,-1149.143247
1023.763293,0.000000,-9770.718434,-1149.143247
1023.763617,-370.102971,-10288.862594,-2221.676944
1023.763941,222.061783,-10362.883188,-1608.800546
1023.764265,962.267725,-11621.233289,-1685.410096
1023.764589,1554.432478,-11991.336260,-306.438199
1023.764913,1702.473667,-12213.398043,0.000000
1023.765237,814.226536,-11843.295072,0.000000
1023.765561,296.082377,-10658.965565,-1608.800546
1023.765885,-888.247130,-9844.739029,-1072.533697
1023.766210,-1036.288319,-9918.759623,-842.705048
1023.766534,-1110.308913,-11029.068536,-612.876398
1023.766858,-962.267725,-10288.862594,-153.219100
1023.767182,-962.267725,-8364.327145,76.609550
1023.767506,222.061783,-7105.977043,383.047749
1023.767830,1036.288319,-7179.997637,-383.047749
1023.768154,740.205942,-8068.244768,-153.219100
1023.768478,592.164754,-7994.224174,153.219100
1023.768802,0.000000,-7846.182985,229.828649
1023.769126,518.144159,-7328.038826,459.657299
1023.769450,1110.308913,-7920.203579,612.876398
1023.769774,1036.288319,-8734.430116,0.000000
1023.770098,0.000000,-8956.491898,-536.266849
1023.770422,-296.082377,-8438.347739,-536.266849
1023.770746,370.102971,-9104.533087,842.705048
1023.771070,814.226536,-8956.491898,612.876398
1023.771395,592.164754,-8956.491898,995.924147
1023.771719,-518.144159,-8808.450710,919.314598
1023.772043,-1554.432478,-9992.780217,0.000000
1023.772367,-2368.659014,-9992.780217,-153.219100
1023.772691,-2146.597232,-10066.800811,76.609550
1023.773015,-1480.411884,-9326.594869,459.657299
1023.773339,-1924.535449,-8734.430116,-383.047749
1023.773663,-2220.617826,-9548.656652,-766.095498
1023.773987,-2368.659014,-9992.780217,-612.876398
1023.774311,-1406.391290,-10362.883188,-1608.800546
1023.774635,-1258.350101,-10584.944971,-995.924147
1023.774959,0.000000,-10436.903782,-153.219100
1023.775283,1184.329507,-10436.903782,-229.828649
1023.775607,1110.308913,-11029.068536,0.000000
1023.775931,1332.370696,-11695.253884,-306.438199
1023.776255,1850.514855,-11547.212695,-153.219100
1023.776580,1776.494261,-11695.253884,229.828649
1023.776904,1554.432478,-11251.130318,612.876398
1023.777228,1406.391290,-10288.862594,459.657299
1023.777552,-296.082377,-10066.800811,-919.314598
1023.777876,-888.247130,-11029.068536,-995.924147
1023.778200,-1110.308913,-10807.006753,-1225.752797
1023.778524,-444.123565,-10807.006753,-842.705048
1023.778848,-518.144159,-9622.677246,-919.314598
1023.779172,-592.164754,-8512.368333,-842.705048
1023.779496,-1332.370696,-9918.759623,-459.657299
1023.779820,-1184.329507,-10584.944971,-459.657299
1023.780144,-1110.308913,-10214.842000,-153.219100
1023.780468,-888.247130,-8734.430116,0.000000
1023.780792,370.102971,-8068.244768,1072.533697
1023.781116,1702.473667,-9400.615463,1149.143247
1023.781441,2294.638420,-9474.636058,1532.190996
1023.781765,1776.494261,-9400.615463,1685.410096
1023.782089,2368.659014,-8512.368333,1608.800546
1023.782413,2220.617826,-8364.327145,1532.190996
1023.782737,1554.432478,-8068.244768,1455.581446
1023.783061,222.061783,-7179.997637,-153.219100
1023.783385,-1998.556043,-7254.018232,536.266849
1023.783709,-1924.535449,-8956.491898,766.095498
1023.784033,-740.205942,-9474.636058,0.000000
1023.784357,-592.164754,-7920.203579,76.609550
1023.784681,-1184.329507,-6735.874072,459.657299
1023.785005,-740.205942,-8808.450710,1608.800546
1023.785329,-148.041188,-10732.986159,766.095498
1023.785653,-444.123565,-8438.347739,612.876398
1023.785977,-1258.350101,-7105.977043,612.876398
1023.786301,-888.247130,-9030.512492,612.876398
1023.786626,0.000000,-11399.171507,1072.533697
1023.786950,148.041188,-10732.986159,1149.143247
1023.787274,148.041188,-9548.656652,1302.362347
1023.787598,-370.102971,-9844.739029,0.000000
1023.787922,-592.164754,-10584.944971,-536.266849
1023.788246,-518.144159,-10362.883188,-689.485948
1023.788570,-296.082377,-10362.883188,-383.047749
1023.788894,-1110.308913,-10584.944971,-229.828649
1023.789218,-1332.370696,-10881.027347,-766.095498
1023.789542,-1110.308913,-10732.986159,-1608.800546
1023.789866,-592.164754,-9548.656652,-1991.848295
1023.790190,-888.247130,-10214.842000,-919.314598
1023.790514,-592.164754,-10732.986159,-1072.533697
1023.790838,-592.164754,-10436.903782,-1378.971896
1023.791162,-1036.288319,-9918.759623,-766.095498
1023.791487,-148.041188,-9474.636058,-1378.971896
1023.791811,444.123565,-10807.006753,-1532.190996
1023.792135,888.247130,-12139.377449,-1149.143247
1023.792459,1332.370696,-11917.315666,-306.438199
1023.792783,2516.700203,-10510.924376,0.000000
1023.793107,2368.659014,-10732.986159,1072.533697
1023.793431,1628.453072,-11251.130318,306.438199
1023.793755,1258.350101,-11103.089130,-689.485948
1023.794079,592.164754,-10510.924376,-612.876398
1023.794403,1258.350101,-10658.965565,0.000000
1023.794727,1332.370696,-10732.986159,229.828649
1023.795051,296.082377,-8364.327145,-383.047749
1023.795375,-222.061783,-7624.121203,-995.924147
1023.795699,-370.102971,-8364.327145,-536.266849
1023.796023,0.000000,-9474.636058,-842.705048
1023.796347,-1036.288319,-9030.512492,-306.438199
1023.796672,-1036.288319,-7698.141797,76.609550
1023.796996,0.000000,-6957.935855,-459.657299
1023.797320,666.185348,-7624.121203,229.828649
1023.797644,-444.123565,-9178.553681,306.438199
1023.797968,-740.205942,-8882.471304,-383.047749
1023.798292,592.164754,-8586.388927,-153.219100
1023.798616,1332.370696,-8216.285956,1149.143247
1023.798940,1924.535449,-9696.697840,1378.971896
1023.799264,962.267725,-9400.615463,383.047749
1023.799588,-888.247130,-8586.388927,383.047749
1023.799912,-1702.473667,-8660.409521,459.657299
1023.800236,-592.164754,-9474.636058,766.095498
1023.800560,-740.205942,-9548.656652,0.000000
1023.800884,-666.185348,-8438.347739,919.314598
1023.801208,-444.123565,-8290.306550,459.657299
1023.801533,-666.185348,-9770.718434,-306.438199
1023.801857,-1258.350101,-9696.697840,-766.095498
1023.802181,-1406.391290,-9104.533087,76.609550
1023.802505,-666.185348,-9548.656652,153.219100
1023.802829,-444.123565,-10140.821405,-1225.752797
1023.803153,-1036.288319,-8882.471304,-1532.190996
1023.803477,-1258.350101,-9548.656652,-1072.533697
1023.803801,-888.247130,-11251.130318,-1608.800546
1023.804125,296.082377,-11843.295072,-612.876398
1023.804449,1850.514855,-11325.150913,383.047749
1023.804773,2368.659014,-11695.253884,689.485948
1023.805097,2368.659014,-12139.377449,-229.828649
1023.805421,1850.514855,-12287.418637,0.000000
1023.805745,1110.308913,-12139.377449,-1072.533697
1023.806069,148.041188,-11991.336260,-689.485948
1023.806393,-1184.329507,-11325.150913,-612.876398
1023.806718,-1776.494261,-10658.965565,-612.876398
1023.807042,-1332.370696,-10288.862594,-995.924147
1023.807366,-222.061783,-9918.759623,-2604.724693
1023.807690,-962.267725,-10066.800811,-2221.676944
1023.808014,-1702.473667,-10214.842000,-1685.410096
1023.808338,-888.247130,-10214.842000,-1225.752797
1023.808662,-518.144159,-9548.656652,-1072.533697
1023.808986,-666.185348,-8734.430116,-842.705048
1023.809310,-1554.432478,-9326.594869,76.609550
1023.809634,-370.102971,-10436.903782,76.609550
1023.809958,1850.514855,-9844.739029,1378.971896
1023.810282,2664.741391,-8586.388927,1762.019645
1023.810606,2442.679609,-7772.162391,1991.848295
1023.810930,2072.576638,-8068.244768,1378.971896
1023.811254,1480.411884,-8882.471304,1455.581446
1023.811579,740.205942,-8290.306550,1378.971896
1023.811903,-814.226536,-7550.100608,306.438199
1023.812227,-2220.617826,-7105.977043,-536.266849
1023.812551,-2516.700203,-6809.894666,0.000000
1023.812875,-666.185348,-7328.038826,-383.047749
1023.813199,148.041188,-8364.327145,-153.219100
1023.813523,-518.144159,-8364.327145,0.000000
1023.813847,-592.164754,-8882.471304,766.095498
1023.814171,-370.102971,-9252.574275,383.047749
1023.814495,296.082377,-8364.327145,689.485948
1023.814819,222.061783,-9474.636058,1149.143247
1023.815143,222.061783,-10066.800811,995.924147
1023.815467,1258.350101,-11325.150913,1915.238745
1023.815791,2220.617826,-10732.986159,2145.067394
1023.816115,3108.864956,-9474.636058,1762.019645
1023.816439,2220.617826,-8734.430116,1302.362347
1023.816764,296.082377,-9326.594869,536.266849
1023.817088,-1406.391290,-9770.718434,-153.219100
1023.817412,-1480.411884,-9104.533087,-1072.533697
1023.817736,-1702.473667,-8734.430116,-1532.190996
1023.818060,-2368.659014,-8512.368333,-995.924147
1023.818384,-1850.514855,-9400.615463,-1991.848295
1023.818708,-1184.329507,-9844.739029,-1762.019645
1023.819032,-666.185348,-10658.965565,-995.924147
1023.819356,-222.061783,-11547.212695,-1532.190996
1023.819680,444.123565,-11843.295072,-612.876398
1023.820004,1110.308913,-11621.233289,-1149.143247
1023.820328,1998.556043,-11399.171507,306.438199
1023.820652,1776.494261,-11547.212695,-1608.800546
1023.820976,148.041188,-12731.542202,-536.266849
1023.821300,148.041188,-13101.645173,-995.924147
1023.821625,1036.288319,-11473.192101,-1072.533697
1023.821949,1480.411884,-11399.171507,-612.876398
1023.822273,1036.288319,-11103.089130,-1302.362347
1023.822597,888.247130,-11103.089130,-1072.533697
1023.822921,-296.082377,-11621.233289,-1762.019645
1023.823245,-814.226536,-10288.862594,-1838.629195
1023.823569,-962.267725,-9178.553681,-2298.286494
1023.823893,-1406.391290,-9178.553681,-1608.800546
1023.824217,-1184.329507,-8364.327145,-995.924147
1023.824541,-592.164754,-8586.388927,-1302.362347
1023.824865,-444.123565,-8290.306550,-1532.190996
1023.825189,-296.082377,-8068.244768,-995.924147
1023.825513,0.000000,-8734.430116,383.047749
1023.825837,888.247130,-8808.450710,1072.533697
1023.826161,1998.556043,-8216.285956,995.924147
1023.826485,1036.288319,-7994.224174,1225.752797
1023.826810,148.041188,-8290.306550,1608.800546
1023.827134,444.123565,-8808.450710,612.876398
1023.827458,592.164754,-8216.285956,229.828649
1023.827782,-592.164754,-7698.141797,0.000000
1023.828106,-1036.288319,-7920.203579,-383.047749
1023.828430,-888.247130,-9400.615463,-766.095498
1023.828754,-1184.329507,-9548.656652,-1072.533697
1023.829078,-666.185348,-8216.285956,-1149.143247
1023.829402,-814.226536,-7994.224174,-536.266849
1023.829726,-1480.411884,-9548.656652,-229.828649
1023.830050,-1406.391290,-10140.821405,0.000000
1023.830374,-222.061783,-9770.718434,0.000000
1023.830698,0.000000,-9474.636058,306.438199
1023.831022,148.041188,-10140.821405,1225.752797
1023.831346,444.123565,-11843.295072,1915.238745
1023.831671,1184.329507,-10881.027347,1455.581446
1023.831995,1924.535449,-10436.903782,2145.067394
1023.832319,592.164754,-11029.068536,1991.848295
1023.832643,962.267725,-11177.109724,919.314598
1023.832967,592.164754,-9326.594869,-306.438199
1023.833291,0.000000,-8142.265362,-995.924147
1023.833615,-1110.308913,-8660.409521,-2757.943793
1023.833939,-1850.514855,-10510.924376,-2604.724693
1023.834263,-444.123565,-11399.171507,-1149.143247
1023.834587,1406.391290,-10881.027347,-689.485948
1023.834911,1628.453072,-9474.636058,-995.924147
1023.835235,-296.082377,-9400.615463,-1532.190996
1023.835559,-1850.514855,-10732.986159,-995.924147
1023.835883,-740.205942,-12287.418637,-842.705048
1023.836207,962.267725,-12287.418637,536.266849
1023.836531,1998.556043,-11325.150913,1225.752797
1023.836855,1480.411884,-10140.821405,919.314598
1023.837179,592.164754,-10214.842000,536.266849
1023.837503,-370.102971,-9474.636058,-383.047749
1023.837827,-1036.288319,-9992.780217,-536.266849
1023.838151,-2220.617826,-9844.739029,-1072.533697
1023.838476,-1702.473667,-10214.842000,-306.438199
1023.838800,-518.144159,-9696.697840,0.000000
1023.839124,0.000000,-8586.388927,0.000000
1023.839448,0.000000,-8808.450710,-536.266849
1023.839772,-296.082377,-9474.636058,-612.876398
1023.840096,-518.144159,-9474.636058,0.000000
1023.840420,0.000000,-8216.285956,842.705048
1023.840744,518.144159,-7698.141797,1455.581446
1023.841068,888.247130,-7846.182985,842.705048
1023.841392,444.123565,-8290.306550,0.000000
1023.841716,-370.102971,-7772.162391,153.219100
1023.842040,592.164754,-7920.203579,766.095498
1023.842364,2220.617826,-8512.368333,1685.410096
1023.842688,1332.370696,-9918.759623,1608.800546
1023.843012,222.061783,-8734.430116,766.095498
1023.843336,-962.267725,-8142.265362,0.000000
1023.843660,-1628.453072,-9844.739029,0.000000
1023.843984,148.041188,-9696.697840,0.000000
1023.844308,518.144159,-9918.759623,0.000000
1023.844632,-1480.411884,-9400.615463,-766.095498
1023.844956,-1258.350101,-8586.388927,-229.828649
1023.845280,-962.267725,-9252.574275,-153.219100
1023.845604,-1184.329507,-11399.171507,229.828649
1023.845928,-2294.638420,-11177.109724,-383.047749
1023.846252,-1850.514855,-9622.677246,-842.705048
1023.846577,-814.226536,-9918.759623,-229.828649
1023.846901,148.041188,-11399.171507,0.000000
1023.847225,2072.576638,-11621.233289,842.705048
1023.847549,1628.453072,-10436.903782,383.047749
1023.847873,222.061783,-10066.800811,76.609550
1023.848197,0.000000,-9622.677246,-842.705048
1023.848521,0.000000,-10288.862594,76.609550
1023.848845,-74.020594,-10658.965565,-536.266849
1023.849169,592.164754,-9622.677246,-153.219100
1023.849493,-370.102971,-9696.697840,-689.485948
1023.849817,-1258.350101,-9918.759623,-1225.752797
1023.850141,-1184.329507,-9844.739029,0.000000
1023.850465,-222.061783,-10140.821405,383.047749
1023.850789,1036.288319,-10436.903782,-306.438199
1023.851113,0.000000,-10066.800811,-689.485948
1023.851437,-740.205942,-9696.697840,-383.047749
1023.851761,74.020594,-11029.068536,689.485948
1023.852085,1184.329507,-11251.130318,1225.752797
1023.852409,1258.350101,-9548.656652,919.314598
1023.852733,-444.123565,-8512.368333,612.876398
1023.853057,-962.267725,-9474.636058,153.219100
1023.853381,-518.144159,-9918.759623,153.219100
1023.853705,-148.041188,-10436.903782,306.438199
1023.854029,-740.205942,-9178.553681,-459.657299
1023.854353,-888.247130,-7994.224174,-919.314598
1023.854677,0.000000,-8290.306550,0.000000
1023.855002,1332.370696,-8660.409521,612.876398
1023.855326,888.247130,-8438.347739,76.609550
1023.855650,-592.164754,-7994.224174,-459.657299
1023.855974,-888.247130,-8290.306550,-919.314598
1023.856298,740.205942,-7624.121203,-1072.533697
1023.856622,1406.391290,-9030.512492,-229.828649
1023.856946,222.061783,-9918.759623,919.314598
1023.857270,148.041188,-10214.842000,842.705048
1023.857594,592.164754,-9844.739029,0.000000
1023.857918,592.164754,-8586.388927,-153.219100
1023.858242,370.102971,-8808.450710,306.438199
1023.858566,814.226536,-11103.089130,-153.219100
1023.858890,148.041188,-11621.233289,459.657299
1023.859214,222.061783,-10140.821405,995.924147
1023.859538,148.041188,-10288.862594,689.485948
1023.859862,-296.082377,-10214.842000,536.266849
1023.860186,-1332.370696,-10140.821405,-383.047749
1023.860510,-2220.617826,-10436.903782,-766.095498
1023.860834,-2146.597232,-10288.862594,-1378.971896
1023.861158,-1480.411884,-10807.006753,-1149.143247
1023.861482,-740.205942,-10881.027347,689.485948
1023.861806,740.205942,-10362.883188,229.828649
1023.862130,1554.432478,-9918.759623,306.438199
1023.862454,0.000000,-9992.780217,0.000000
1023.862778,0.000000,-10362.883188,-919.314598
1023.863103,0.000000,-9844.739029,-612.876398
1023.863427,0.000000,-9474.636058,-459.657299
1023.863751,370.102971,-9918.759623,0.000000
1023.864075,370.102971,-9474.636058,-383.047749
1023.864399,0.000000,-9696.697840,-383.047749
1023.864723,-814.226536,-9326.594869,-1378.971896
1023.865047,-222.061783,-8364.327145,-1608.800546
1023.865371,222.061783,-9178.553681,-459.657299
1023.865695,370.102971,-10510.924376,0.000000
1023.866019,444.123565,-9622.677246,229.828649
1023.866343,0.000000,-8512.368333,153.219100
1023.866667,-222.061783,-9104.533087,-919.314598
1023.866991,0.000000,-9400.615463,-842.705048
1023.867315,370.102971,-9844.739029,0.000000
1023.867639,888.247130,-9548.656652,306.438199
1023.867963,888.247130,-9474.636058,153.219100
1023.868287,74.020594,-9400.615463,-612.876398
1023.868611,-740.205942,-9178.553681,-612.876398
1023.868935,-222.061783,-9770.718434,-306.438199
1023.869259,666.185348,-9474.636058,-612.876398
1023.869583,592.164754,-9326.594869,0.000000
1023.869907,0.000000,-9030.512492,229.828649
1023.870231,592.164754,-9622.677246,383.047749
1023.870555,1406.391290,-10066.800811,919.314598
1023.870879,1924.535449,-9992.780217,536.266849
1023.871203,888.247130,-8364.327145,0.000000
1023.871528,-814.226536,-8142.265362,-383.047749
1023.871852,-962.267725,-8660.409521,-766.095498
1023.872176,-888.247130,-9474.636058,0.000000
1023.872500,-370.102971,-10658.965565,0.000000
1023.872824,0.000000,-9474.636058,-229.828649
1023.873148,370.102971,-9474.636058,689.485948
1023.873472,666.185348,-10214.842000,1149.143247
1023.873796,1480.411884,-10584.944971,1149.143247
1023.874120,148.041188,-10362.883188,612.876398
1023.874444,-1628.453072,-9104.533087,76.609550
1023.874768,-1850.514855,-9548.656652,0.000000
1023.875092,-1110.308913,-10436.903782,76.609550
1023.875416,-592.164754,-10436.903782,383.047749
1023.875740,-1480.411884,-9548.656652,-153.219100
1023.876064,-1924.535449,-9844.739029,0.000000
1023.876388,-1332.370696,-9992.780217,0.000000
1023.876712,666.185348,-10066.800811,0.000000
1023.877036,962.267725,-10066.800811,306.438199
1023.877360,1332.370696,-10955.047942,1072.533697
1023.877684,1924.535449,-11695.253884,1149.143247
1023.878008,2664.741391,-10807.006753,612.876398
1023.878332,1628.453072,-10436.903782,612.876398
1023.878656,74.020594,-10066.800811,689.485948
1023.878980,-370.102971,-10732.986159,153.219100
1023.879304,-1554.432478,-9548.656652,76.609550
1023.879629,-1554.432478,-8512.368333,-612.876398
1023.879953,-1332.370696,-8660.409521,-229.828649
1023.880277,-962.267725,-9474.636058,0.000000
1023.880601,-1258.350101,-9918.759623,-306.438199
1023.880925,-2220.617826,-9030.512492,306.438199
1023.881249,-2220.617826,-8438.347739,306.438199
1023.881573,-1628.453072,-8808.450710,0.000000
1023.881897,-814.226536,-9400.615463,76.609550
1023.882221,0.000000,-8512.368333,306.438199
1023.882545,1480.411884,-8660.409521,383.047749
1023.882869,1702.473667,-9178.553681,919.314598
1023.883193,1924.535449,-9252.574275,842.705048
1023.883517,1554.432478,-9030.512492,306.438199
1023.883841,666.185348,-8586.388927,-536.266849
1023.884165,0.000000,-8364.327145,-1608.800546
1023.884489,-592.164754,-9696.697840,-689.485948
1023.884813,-370.102971,-10807.006753,0.000000
1023.885137,666.185348,-9844.739029,-229.828649
1023.885461,888.247130,-9326.594869,229.828649
1023.885785,148.041188,-8586.388927,-536.266849
1023.886109,-666.185348,-8956.491898,-842.705048
1023.886433,-1554.432478,-9474.636058,-1685.410096
1023.886757,-1110.308913,-9622.677246,-459.657299
1023.887081,-1036.288319,-9844.739029,-383.047749
1023.887405,-1110.308913,-9844.739029,-612.876398
1023.887729,-814.226536,-10140.821405,-459.657299
1023.888054,518.144159,-9622.677246,-229.828649
1023.888378,1480.411884,-11177.109724,-383.047749
1023.888702,592.164754,-11473.192101,-229.828649
1023.889026,296.082377,-10732.986159,0.000000
1023.889350,1184.329507,-10881.027347,0.000000
1023.889674,1406.391290,-11399.171507,-612.876398
1023.889998,370.102971,-10955.047942,-612.876398
1023.890322,-444.123565,-11029.068536,-229.828649
1023.890646,-1184.329507,-11251.130318,-766.095498
1023.890970,-296.082377,-9770.718434,-995.924147
1023.891294,0.000000,-8956.491898,76.609550
1023.891618,148.041188,-9770.718434,459.657299
1023.891942,148.041188,-10214.842000,689.485948
1023.892266,-222.061783,-9326.594869,0.000000
1023.892590,-888.247130,-8438.347739,-995.924147
1023.892914,-1480.411884,-8142.265362,-1685.410096
1023.893238,-888.247130,-9104.533087,-383.047749
1023.893562,-74.020594,-9770.718434,536.266849
1023.893886,1036.288319,-8290.306550,-536.266849
1023.894210,666.185348,-7920.203579,-229.828649
1023.894534,0.000000,-8364.327145,-383.047749
1023.894858,888.247130,-9844.739029,-536.266849
1023.895182,1110.308913,-10140.821405,153.219100
1023.895506,0.000000,-9178.553681,842.705048
1023.895830,-518.144159,-9326.594869,459.657299
1023.896155,-1110.308913,-10066.800811,919.314598
1023.896479,-1036.288319,-10140.821405,995.924147
1023.896803,-74.020594,-9400.615463,919.314598
1023.897127,296.082377,-9770.718434,383.047749
1023.897451,296.082377,-10066.800811,459.657299
1023.897775,814.226536,-9474.636058,459.657299
1023.898099,1406.391290,-8586.388927,229.828649
1023.898423,148.041188,-9400.615463,-612.876398
1023.898747,-1258.350101,-9474.636058,-1378.971896
1023.899071,-2146.597232,-9400.615463,-1072.533697
1023.899395,-962.267725,-9474.636058,-536.266849
1023.899719,1406.391290,-9252.574275,-995.924147
1023.900043,1850.514855,-9474.636058,-842.705048
1023.900367,222.061783,-9474.636058,-459.657299
1023.900691,444.123565,-10658.965565,-153.219100
1023.901015,1036.288319,-10658.965565,229.828649
1023.901339,1480.411884,-9992.780217,995.924147
1023.901663,444.123565,-10066.800811,1302.362347
1023.901987,-148.041188,-10584.944971,1225.752797
1023.902311,-370.102971,-10732.986159,1225.752797
1023.902635,-296.082377,-10214.842000,919.314598
1023.902959,-740.205942,-9252.574275,689.485948
1023.903283,-1184.329507,-9474.636058,536.266849
1023.903607,-592.164754,-10140.821405,153.219100
1023.903931,-222.061783,-10140.821405,306.438199
1023.904255,-1258.350101,-9770.718434,-536.266849
1023.904580,-2812.782580,-9474.636058,-1225.752797
1023.904904,-3182.885551,-9992.780217,-766.095498
1023.905228,-1332.370696,-10140.821405,-536.266849
1023.905552,518.144159,-9548.656652,306.438199
1023.905876,814.226536,-9178.553681,1225.752797
1023.906200,666.185348,-9844.739029,766.095498
1023.906524,962.267725,-10214.842000,1225.752797
1023.906848,1184.329507,-9474.636058,842.705048
1023.907172,148.041188,-9030.512492,1149.143247
1023.907496,-370.102971,-9474.636058,1149.143247
1023.907820,-592.164754,-10066.800811,1072.533697
1023.908144,-1258.350101,-8142.265362,0.000000
1023.908468,-740.205942,-6661.853478,-766.095498
1023.908792,-1480.411884,-6957.935855,-1532.190996
1023.909116,-740.205942,-9622.677246,-1455.581446
1023.909440,592.164754,-11251.130318,-995.924147
1023.909764,1850.514855,-9992.780217,0.000000
1023.910088,1998.556043,-8734.430116,229.828649
1023.910412,1332.370696,-9400.615463,-383.047749
1023.910736,148.041188,-10955.047942,153.219100
1023.911060,666.185348,-11029.068536,306.438199
1023.911384,1850.514855,-11251.130318,153.219100
1023.911708,1628.453072,-10584.944971,229.828649
1023.912032,1332.370696,-9992.780217,1072.533697
1023.912356,888.247130,-10362.883188,536.266849
1023.912680,222.061783,-9770.718434,0.000000
1023.913005,-1110.308913,-9474.636058,-612.876398
1023.913329,-1924.535449,-9030.512492,-1149.143247
1023.913653,-1702.473667,-9326.594869,-1455.581446
1023.913977,-962.267725,-8956.491898,-1455.581446
1023.914301,-814.226536,-8882.471304,-1149.143247
1023.914625,-666.185348,-8956.491898,-153.219100
1023.914949,-148.041188,-9548.656652,-306.438199
1023.915273,222.061783,-9770.718434,0.000000
1023.915597,814.226536,-8068.244768,0.000000
1023.915921,1628.453072,-8512.368333,-383.047749
1023.916245,2072.576638,-9400.615463,0.000000
1023.916569,1628.453072,-10584.944971,1149.143247
1023.916893,1110.308913,-10584.944971,306.438199
1023.917217,-296.082377,-9770.718434,0.000000
1023.917541,-1776.494261,-9252.574275,0.000000
1023.917865,-1332.370696,-9696.697840,-459.657299
1023.918189,-1998.556043,-10807.006753,-995.924147
1023.918513,-2220.617826,-10214.842000,-766.095498
1023.918837,-1850.514855,-9770.718434,-383.047749
1023.919161,-1332.370696,-11177.109724,76.609550
1023.919485,-740.205942,-11399.171507,-459.657299
1023.919809,-962.267725,-9992.780217,306.438199
1023.920133,-962.267725,-10288.862594,0.000000
1023.920457,-592.164754,-10214.842000,0.000000
1023.920781,296.082377,-10140.821405,689.485948
1023.921106,518.144159,-9622.677246,0.000000
1023.921430,296.082377,-9474.636058,-536.266849
1023.921754,444.123565,-8882.471304,-383.047749
1023.922078,1184.329507,-8882.471304,306.438199
1023.922402,814.226536,-9770.718434,-76.609550
1023.922726,592.164754,-9474.636058,0.000000
1023.923050,148.041188,-9030.512492,1149.143247
1023.923374,1184.329507,-9992.780217,459.657299
1023.923698,1702.473667,-9770.718434,383.047749
1023.924022,1110.308913,-8142.265362,459.657299
1023.924346,444.123565,-8142.265362,536.266849
1023.924670,592.164754,-9400.615463,766.095498
1023.924994,666.185348,-9770.718434,1149.143247
1023.925318,74.020594,-9474.636058,1225.752797
1023.925642,-592.164754,-8808.450710,153.219100
1023.925966,-666.185348,-9474.636058,-383.047749
1023.926290,444.123565,-8734.430116,-536.266849
1023.926614,962.267725,-8956.491898,-459.657299
1023.926938,444.123565,-9770.718434,-306.438199
1023.927262,-592.164754,-9474.636058,-612.876398
1023.927586,-2220.617826,-9844.739029,-612.876398
1023.927910,-2294.638420,-10140.821405,-229.828649
1023.928234,-1406.391290,-9918.759623,-766.095498
1023.928558,-740.205942,-9770.718434,-689.485948
1023.928882,-888.247130,-9770.718434,-919.314598
1023.929206,-518.144159,-10140.821405,306.438199
1023.929531,296.082377,-10658.965565,383.047749
1023.929855,370.102971,-9548.656652,459.657299
1023.930179,0.000000,-8882.471304,536.266849
1023.930503,74.020594,-9178.553681,-536.266849
1023.930827,814.226536,-10807.006753,-919.314598
1023.931151,740.205942,-10140.821405,153.219100
1023.931475,1628.453072,-10066.800811,612.876398
1023.931799,296.082377,-10140.821405,-383.047749
1023.932123,-370.102971,-9252.574275,-1608.800546
1023.932447,-814.226536,-9696.697840,-536.266849
1023.932771,-148.041188,-11251.130318,-612.876398
1023.933095,296.082377,-11695.253884,-1302.362347
1023.933419,-592.164754,-10732.986159,689.485948
1023.933743,-740.205942,-11251.130318,766.095498
1023.934067,0.000000,-11621.233289,612.876398
1023.934391,1036.288319,-10881.027347,459.657299
1023.934715,592.164754,-9992.780217,689.485948
1023.935039,0.000000,-9844.739029,306.438199
1023.935363,-962.267725,-9474.636058,-306.438199
1023.935687,-1702.473667,-8956.491898,459.657299
1023.936011,-1554.432478,-9844.739029,0.000000
1023.936335,-2220.617826,-9696.697840,-919.314598
1023.936659,-2590.720797,-9474.636058,-383.047749
1023.936983,-1850.514855,-8956.491898,76.609550
1023.937307,74.020594,-9030.512492,612.876398
1023.937631,1184.329507,-9104.533087,1608.800546
1023.937955,1258.350101,-8808.450710,1915.238745
1023.938279,0.000000,-8734.430116,1225.752797
1023.938603,296.082377,-8068.244768,1532.190996
1023.938927,0.000000,-7994.224174,1378.971896
1023.939251,666.185348,-8290.306550,1149.143247
1023.939575,1480.411884,-7920.203579,1532.190996
1023.939899,1702.473667,-7402.059420,1378.971896
1023.940223,1258.350101,-7402.059420,1608.800546
1023.940547,962.267725,-7994.224174,229.828649
1023.940871,814.226536,-9030.512492,0.000000
1023.941195,222.061783,-10066.800811,-383.047749
1023.941519,-222.061783,-9992.780217,76.609550
1023.941843,-444.123565,-10288.862594,-612.876398
1023.942167,-1332.370696,-9178.553681,-612.876398
1023.942491,-1332.370696,-9400.615463,-995.924147
1023.942815,-666.185348,-9400.615463,-919.314598
1023.943139,74.020594,-10288.862594,-229.828649
1023.943463,666.185348,-11103.089130,766.095498
1023.943787,444.123565,-10584.944971,1072.533697
1023.944111,-592.164754,-10066.800811,0.000000
1023.944435,-592.164754,-9696.697840,0.000000
1023.944759,222.061783,-10584.944971,-229.828649
1023.945083,740.205942,-11251.130318,0.000000
1023.945407,1036.288319,-11103.089130,612.876398
1023.945731,666.185348,-9474.636058,536.266849
1023.946055,1554.432478,-9992.780217,0.000000
1023.946379,962.267725,-10658.965565,-1378.971896
1023.946703,148.041188,-9918.759623,-2068.457845
1023.947027,-222.061783,-9474.636058,-1608.800546
1023.947351,296.082377,-10510.924376,-383.047749
1023.947675,592.164754,-10955.047942,76.609550
1023.947999,-666.185348,-10362.883188,-306.438199
1023.948323,-814.226536,-9622.677246,-1149.143247
1023.948647,-1110.308913,-9474.636058,-1455.581446
1023.948971,-740.205942,-10214.842000,-1455.581446
1023.949295,-444.123565,-10732.986159,-459.657299
1023.949619,-296.082377,-11029.068536,1072.533697
1023.949943,-296.082377,-10658.965565,1608.800546
1023.950267,-1184.329507,-9696.697840,612.876398
1023.950591,-2294.638420,-9030.512492,-919.314598
1023.950915,-2368.659014,-8068.244768,-1302.362347
1023.951239,-1406.391290,-9326.594869,-2145.067394
1023.951563,-148.041188,-9178.553681,-1149.143247
1023.951887,444.123565,-8364.327145,-306.438199
1023.952211,814.226536,-7698.141797,-229.828649
1023.952535,1036.288319,-9252.574275,-995.924147
1023.952859,-296.082377,-8660.409521,-1532.190996
1023.953183,-814.226536,-7846.182985,-1225.752797
1023.953507,-222.061783,-8512.368333,-1072.533697
1023.953831,-296.082377,-8956.491898,0.000000
1023.954155,666.185348,-9326.594869,842.705048
1023.954479,1258.350101,-9474.636058,1685.410096
1023.954803,1554.432478,-9474.636058,1302.362347
1023.955127,1628.453072,-9178.553681,842.705048
1023.955451,1110.308913,-8364.327145,-229.828649
1023.955775,0.000000,-8364.327145,-612.876398
1023.956099,296.082377,-9252.574275,0.000000
1023.956423,592.164754,-10436.903782,0.000000
1023.956747,0.000000,-10881.027347,-153.219100
1023.957071,-740.205942,-9770.718434,-766.095498
1023.957395,-592.164754,-8956.491898,-612.876398
1023.957719,888.247130,-10362.883188,-1915.238745
1023.958043,1110.308913,-10807.006753,-1378.971896
1023.958367,0.000000,-10955.047942,0.000000
1023.958691,0.000000,-10807.006753,0.000000
1023.959015,-148.041188,-10510.924376,0.000000
1023.959339,-1110.308913,-10288.862594,-153.219100
1023.959663,-740.205942,-10732.986159,-229.828649
1023.959987,222.061783,-10955.047942,-306.438199
1023.960311,1258.350101,-10658.965565,0.000000
1023.960635,666.185348,-10658.965565,306.438199
1023.960959,148.041188,-10732.986159,842.705048
1023.961283,0.000000,-11399.171507,536.266849
1023.961607,148.041188,-11251.130318,459.657299
1023.961931,0.000000,-10732.986159,0.000000
1023.962255,-518.144159,-10066.800811,0.000000
1023.962579,-296.082377,-10288.862594,766.095498
1023.962903,-740.205942,-9918.759623,766.095498
1023.963227,-962.267725,-8586.388927,306.438199
1023.963551,-1702.473667,-8364.327145,76.609550
1023.963875,-1332.370696,-8512.368333,-383.047749
1023.964199,0.000000,-8660.409521,0.000000
1023.964523,1776.494261,-8660.409521,1608.800546
1023.964847,1924.535449,-9696.697840,2451.505594
1023.965170,0.000000,-9622.677246,1072.533697
1023.965494,-1480.411884,-8068.244768,-383.047749
1023.965818,-1702.473667,-7105.977043,459.657299
1023.966142,0.000000,-8882.471304,919.314598
1023.966466,1036.288319,-10214.842000,1455.581446
1023.966790,1406.391290,-9104.533087,2451.505594
1023.967114,888.247130,-8438.347739,2681.334243
1023.967438,962.267725,-9104.533087,2145.067394
1023.967762,666.185348,-8734.430116,1072.533697
1023.968086,-1406.391290,-7920.203579,995.924147
1023.968410,-1702.473667,-8216.285956,1149.143247
1023.968734,-962.267725,-8660.409521,153.219100
1023.969058,-1110.308913,-8956.491898,689.485948
1023.969382,-1184.329507,-8438.347739,153.219100
1023.969706,-888.247130,-8364.327145,-689.485948
1023.970030,-1406.391290,-8808.450710,-919.314598
1023.970354,-592.164754,-9400.615463,-1072.533697
1023.970678,-592.164754,-10288.862594,229.828649
1023.971002,-1110.308913,-9918.759623,0.000000
1023.971326,-1702.473667,-9400.615463,-229.828649
1023.971650,-1184.329507,-9992.780217,-229.828649
1023.971974,592.164754,-11399.171507,-459.657299
1023.972298,1776.494261,-10807.006753,-153.219100
1023.972622,2146.597232,-10584.944971,612.876398
1023.972946,1036.288319,-10436.903782,76.609550
1023.973270,814.226536,-10066.800811,-459.657299
1023.973594,1036.288319,-10214.842000,-1225.752797
1023.973918,666.185348,-10510.924376,-1225.752797
1023.974242,962.267725,-10955.047942,-1991.848295
1023.974566,888.247130,-10658.965565,-1608.800546
1023.974890,370.102971,-10881.027347,-153.219100
1023.975214,0.000000,-9844.739029,-1149.143247
1023.975538,74.020594,-9918.759623,-689.485948
1023.975862,-592.164754,-11621.233289,-536.266849
1023.976186,-666.185348,-11769.274478,-919.314598
1023.976510,-592.164754,-10658.965565,-995.924147
1023.976834,-666.185348,-9474.636058,0.000000
1023.977158,-888.247130,-9474.636058,0.000000
1023.977482,-740.205942,-10066.800811,-229.828649
1023.977806,0.000000,-9770.718434,-536.266849
1023.978130,0.000000,-8660.409521,-919.314598
1023.978454,148.041188,-9770.718434,-536.266849
1023.978778,222.061783,-10066.800811,-459.657299
1023.979102,518.144159,-9178.553681,-995.924147
1023.979426,-444.123565,-8586.388927,-1532.190996
1023.979750,-1554.432478,-9326.594869,-842.705048
1023.980074,-740.205942,-10510.924376,-1532.190996
1023.980398,296.082377,-9326.594869,-459.657299
1023.980722,814.226536,-8290.306550,306.438199
1023.981046,1258.350101,-8586.388927,459.657299
1023.981370,1110.308913,-9326.594869,229.828649
1023.981694,222.061783,-9696.697840,536.266849
1023.982018,-222.061783,-9252.574275,1225.752797
1023.982342,0.000000,-8734.430116,1225.752797
1023.982666,666.185348,-7698.141797,766.095498
1023.982990,592.164754,-8512.368333,536.266849
1023.983314,888.247130,-9252.574275,1225.752797
1023.983638,740.205942,-9474.636058,689.485948
1023.983962,0.000000,-8734.430116,-229.828649
1023.984286,-1554.432478,-7994.224174,-536.266849
1023.984610,-1406.391290,-7772.162391,-1072.533697
1023.984934,-1628.453072,-8586.388927,-1149.143247
1023.985258,-1850.514855,-9770.718434,-766.095498
1023.985582,-1554.432478,-9622.677246,-76.609550
1023.985906,-666.185348,-9400.615463,0.000000
1023.986230,-296.082377,-9696.697840,536.266849
1023.986554,-296.082377,-9622.677246,76.609550
1023.986878,-592.164754,-10214.842000,306.438199
1023.987202,-666.185348,-10955.047942,229.828649
1023.987526,-740.205942,-10584.944971,76.609550
1023.987850,444.123565,-10436.903782,229.828649
1023.988174,1406.391290,-10732.986159,0.000000
1023.988498,1184.329507,-10807.006753,306.438199
1023.988822,74.020594,-11103.089130,-459.657299
1023.989146,-296.082377,-11399.171507,-383.047749
1023.989470,0.000000,-11029.068536,-306.438199
1023.989794,0.000000,-10658.965565,0.000000
1023.990118,-148.041188,-10807.006753,919.314598
1023.990442,-222.061783,-10732.986159,612.876398
1023.990766,0.000000,-10214.842000,0.000000
1023.991090,-444.123565,-9844.739029,0.000000
1023.991414,-222.061783,-9844.739029,919.314598
1023.991738,740.205942,-10362.883188,1225.752797
1023.992062,740.205942,-9992.780217,1838.629195
1023.992386,444.123565,-8734.430116,1378.971896
1023.992710,0.000000,-8142.265362,0.000000
1023.993034,-740.205942,-8882.471304,-306.438199
1023.993358,-444.123565,-9548.656652,-306.438199
1023.993682,444.123565,-10510.924376,842.705048
1023.994006,888.247130,-9844.739029,1378.971896
1023.994330,444.123565,-8808.450710,536.266849
1023.994654,-740.205942,-8586.388927,0.000000
1023.994978,-222.061783,-9030.512492,536.266849
1023.995302,1258.350101,-9622.677246,-153.219100
1023.995626,0.000000,-9992.780217,1149.143247
1023.995950,-1554.432478,-9400.615463,1302.362347
1023.996274,-740.205942,-8438.347739,995.924147
1023.996598,296.082377,-8068.244768,-229.828649
1023.996922,0.000000,-8142.265362,0.000000
1023.997246,-148.041188,-9844.739029,536.266849
1023.997570,148.041188,-9474.636058,306.438199
1023.997894,1184.329507,-8216.285956,536.266849
1023.998218,814.226536,-7476.080014,766.095498
1023.998542,888.247130,-8068.244768,383.047749
1023.998866,592.164754,-8808.450710,-459.657299
1023.999190,296.082377,-8660.409521,-383.047749
1023.999514,-148.041188,-9400.615463,-459.657299
1023.999838,74.020594,-8290.306550,76.609550
1024.000162,74.020594,-8068.244768,-766.095498
1024.000486,-370.102971,-9178.553681,-306.438199
1024.000810,-740.205942,-9844.739029,-995.924147
1024.001134,-296.082377,-9918.759623,-1838.629195
1024.001458,-1332.370696,-10436.903782,-306.438199
1024.001782,-1332.370696,-11473.192101,459.657299
1024.002106,296.082377,-10362.883188,-383.047749
1024.002430,222.061783,-10140.821405,76.609550
1024.002754,-740.205942,-11325.150913,-383.047749
1024.003078,-518.144159,-11991.336260,-919.314598
1024.003402,-222.061783,-11621.233289,-536.266849
1024.003726,370.102971,-11251.130318,229.828649
1024.004050,962.267725,-10436.903782,-536.266849
1024.004374,1258.350101,-11177.109724,-459.657299
1024.004698,888.247130,-12065.356855,-1378.971896
1024.005022,962.267725,-12065.356855,-1762.019645
1024.005346,0.000000,-11325.150913,-1302.362347
1024.005670,-740.205942,-10214.842000,459.657299
1024.005994,814.226536,-9918.759623,-306.438199
1024.006318,1776.494261,-9474.636058,0.000000
1024.006642,1628.453072,-8512.368333,-842.705048
1024.006966,1036.288319,-8290.306550,-1149.143247
1024.007290,518.144159,-9548.656652,76.609550
1024.007614,-666.185348,-10214.842000,-536.266849
1024.007938,-1332.370696,-8512.368333,76.609550
1024.008262,-1850.514855,-8216.285956,-459.657299
1024.008586,-2220.617826,-9326.594869,-1072.533697
1024.008910,-1332.370696,-10288.862594,-919.314598
1024.009234,148.041188,-9178.553681,0.000000
1024.009558,888.247130,-8586.388927,536.266849
1024.009882,74.020594,-9474.636058,0.000000
1024.010206,-1480.411884,-9030.512492,306.438199
1024.010529,-2220.617826,-9474.636058,-229.828649
1024.010853,-2368.659014,-9474.636058,-1149.143247
1024.011177,-2368.659014,-9104.533087,-1532.190996
1024.011501,-1554.432478,-8438.347739,-919.314598
1024.011825,-296.082377,-8734.430116,76.609550
1024.012149,1036.288319,-8734.430116,842.705048
1024.012473,1406.391290,-9992.780217,306.438199
1024.012797,1406.391290,-9770.718434,1532.190996
1024.013121,1998.556043,-8882.471304,229.828649
1024.013445,1554.432478,-8142.265362,153.219100
1024.013769,962.267725,-8512.368333,383.047749
1024.014093,222.061783,-8734.430116,-306.438199
1024.014417,296.082377,-8956.491898,153.219100
1024.014741,666.185348,-9104.533087,-306.438199
1024.015065,1258.350101,-8438.347739,-229.828649
1024.015389,2072.576638,-7994.224174,-229.828649
1024.015713,592.164754,-9622.677246,-153.219100
1024.016037,-740.205942,-11621.233289,-306.438199
1024.016361,-962.267725,-10510.924376,-1378.971896
1024.016685,-1110.308913,-9696.697840,0.000000
1024.017009,-1332.370696,-10362.883188,76.609550
1024.017333,148.041188,-11843.295072,-76.609550
1024.017657,-444.123565,-11325.150913,842.705048
1024.017981,-222.061783,-10807.006753,1225.752797
1024.018305,592.164754,-11177.109724,689.485948
1024.018629,962.267725,-11695.253884,612.876398
1024.018953,666.185348,-11251.130318,919.314598
1024.019277,222.061783,-10807.006753,842.705048
1024.019601,-444.123565,-10436.903782,229.828649
1024.019925,-1036.288319,-10066.800811,-689.485948
1024.020249,-962.267725,-9918.759623,-383.047749
1024.020573,814.226536,-9770.718434,-536.266849
1024.020897,1702.473667,-9252.574275,536.266849
1024.021221,1258.350101,-10584.944971,306.438199
1024.021545,0.000000,-9770.718434,-383.047749
1024.021869,-592.164754,-9030.512492,0.000000
1024.022193,-666.185348,-9548.656652,306.438199
1024.022517,-370.102971,-9622.677246,-229.828649
1024.022841,-1702.473667,-9770.718434,383.047749
1024.023165,-2146.597232,-9992.780217,919.314598
1024.023489,-1850.514855,-9474.636058,612.876398
1024.023813,-1554.432478,-8956.491898,383.047749
1024.024137,-1036.288319,-8290.306550,-459.657299
1024.024461,-444.123565,-8216.285956,229.828649
1024.024785,666.185348,-10214.842000,0.000000
1024.025109,592.164754,-9474.636058,0.000000
1024.025433,0.000000,-8290.306550,306.438199
1024.025757,-1258.350101,-8068.244768,-612.876398
1024.026081,-2368.659014,-8438.347739,-1072.533697
1024.026405,-1850.514855,-8808.450710,-612.876398
1024.026729,0.000000,-8586.388927,76.609550
1024.027053,0.000000,-9178.553681,612.876398
1024.027377,-444.123565,-8512.368333,0.000000
1024.027701,-370.102971,-7624.121203,-306.438199
1024.028025,518.144159,-7624.121203,-153.219100
1024.028349,1998.556043,-9548.656652,0.000000
1024.028673,2812.782580,-10140.821405,153.219100
1024.028997,3478.967927,-9474.636058,1302.362347
1024.029321,3034.844362,-9030.512492,0.000000
1024.029645,1998.556043,-9178.553681,0.000000
1024.029969,962.267725,-10955.047942,-306.438199
1024.030293,888.247130,-11917.315666,-459.657299
1024.030617,0.000000,-11917.315666,-1608.800546
1024.030941,-1110.308913,-10436.903782,-919.314598
1024.031265,-1776.494261,-10288.862594,-306.438199
1024.031589,-1406.391290,-10510.924376,-1072.533697
1024.031913,-1332.370696,-11399.171507,-919.314598
1024.032237,-1184.329507,-9696.697840,-229.828649
1024.032561,-296.082377,-10362.883188,0.000000
1024.032885,-444.123565,-11251.130318,536.266849
1024.033209,0.000000,-10066.800811,306.438199
1024.033533,74.020594,-9178.553681,459.657299
1024.033857,0.000000,-10214.842000,383.047749
1024.034181,-296.082377,-11177.109724,-383.047749
1024.034505,-592.164754,-11251.130318,306.438199
1024.034829,-148.041188,-9548.656652,1149.143247
1024.035153,0.000000,-9178.553681,76.609550
1024.035477,814.226536,-9178.553681,-536.266849
1024.035801,814.226536,-9326.594869,-306.438199
1024.036125,1184.329507,-9770.718434,-153.219100
1024.036449,740.205942,-10288.862594,153.219100
1024.036773,962.267725,-9252.574275,842.705048
1024.037097,444.123565,-8660.409521,536.266849
1024.037421,0.000000,-8734.430116,0.000000
1024.037745,-1924.535449,-8660.409521,-1455.581446
1024.038069,-3182.885551,-7994.224174,-919.314598
1024.038393,-1998.556043,-9252.574275,-459.657299
1024.038717,-222.061783,-9770.718434,612.876398
1024.039042,962.267725,-9252.574275,1378.971896
1024.039366,148.041188,-8660.409521,1225.752797
1024.039690,-740.205942,-8438.347739,689.485948
1024.040014,-592.164754,-9400.615463,-153.219100
1024.040338,-592.164754,-9844.739029,-383.047749
1024.040662,-962.267725,-9474.636058,-229.828649
1024.040986,-666.185348,-8734.430116,-612.876398
1024.041310,0.000000,-9104.533087,0.000000
1024.041634,962.267725,-10807.006753,229.828649
1024.041958,1924.535449,-11251.130318,612.876398
1024.042282,2442.679609,-9474.636058,-153.219100
1024.042606,1332.370696,-8216.285956,-536.266849
1024.042930,592.164754,-8512.368333,-995.924147
1024.043254,0.000000,-10066.800811,-612.876398
1024.043578,-814.226536,-11399.171507,0.000000
1024.043902,-592.164754,-9844.739029,-306.438199
1024.044226,-444.123565,-8882.471304,-306.438199
1024.044550,-444.123565,-9104.533087,76.609550
1024.044874,296.082377,-9844.739029,-153.219100
1024.045198,814.226536,-9770.718434,229.828649
1024.045522,444.123565,-9400.615463,842.705048
1024.045846,0.000000,-9622.677246,-153.219100
1024.046171,-74.020594,-9992.780217,-536.266849
1024.046495,-444.123565,-10066.800811,-153.219100
1024.046819,74.020594,-9622.677246,-689.485948
1024.047143,-444.123565,-8956.491898,-1532.190996
1024.047467,-592.164754,-9104.533087,-1225.752797
1024.047791,-370.102971,-10658.965565,-383.047749
1024.048115,0.000000,-11621.233289,0.000000
1024.048439,1110.308913,-11103.089130,0.000000
1024.048763,-296.082377,-10584.944971,0.000000
1024.049087,-666.185348,-10881.027347,536.266849
1024.049411,-222.061783,-11103.089130,459.657299
1024.049735,222.061783,-10881.027347,306.438199
1024.050059,-370.102971,-9548.656652,459.657299
1024.050383,370.102971,-9474.636058,1762.019645
1024.050707,1036.288319,-10362.883188,612.876398
1024.051031,518.144159,-9548.656652,0.000000
1024.051355,0.000000,-7698.141797,0.000000
1024.051679,-1480.411884,-7624.121203,-1685.410096
1024.052003,-1998.556043,-9548.656652,-1838.629195
1024.052327,-1850.514855,-9400.615463,-2451.505594
1024.052651,0.000000,-7846.182985,0.000000
1024.052976,1406.391290,-7698.141797,-919.314598
1024.053300,1702.473667,-8364.327145,-153.219100
1024.053624,962.267725,-9548.656652,0.000000
1024.053948,666.185348,-9622.677246,0.000000
1024.054272,1110.308913,-8956.491898,76.609550
1024.054596,888.247130,-9770.718434,306.438199
1024.054920,1110.308913,-9844.739029,1149.143247
1024.055244,814.226536,-9696.697840,1302.362347
1024.055568,444.123565,-9474.636058,306.438199
1024.055892,-592.164754,-9992.780217,0.000000
1024.056216,-1036.288319,-10658.965565,0.000000
1024.056540,-814.226536,-10214.842000,153.219100
1024.056864,-888.247130,-8808.450710,-919.314598
1024.057188,-1850.514855,-8290.306550,-1685.410096
1024.057512,-1480.411884,-8512.368333,-2145.067394
1024.057836,-1110.308913,-10881.027347,-1532.190996
1024.058160,-444.123565,-10436.903782,-1149.143247
1024.058484,0.000000,-8882.471304,-689.485948
1024.058808,-518.144159,-8734.430116,-766.095498
1024.059132,-962.267725,-9622.677246,-536.266849
1024.059456,-444.123565,-10584.944971,-1685.410096
1024.059780,148.041188,-10066.800811,306.438199
1024.060105,1110.308913,-9918.759623,766.095498
1024.060429,1184.329507,-9992.780217,1072.533697
1024.060753,370.102971,-10881.027347,2221.676944
1024.061077,222.061783,-10584.944971,842.705048
1024.061401,0.000000,-10140.821405,-306.438199
1024.061725,-1184.329507,-9400.615463,-919.314598
1024.062049,-1184.329507,-9622.677246,0.000000
1024.062373,-370.102971,-10658.965565,459.657299
1024.062697,74.020594,-9696.697840,229.828649
1024.063021,-222.061783,-9844.739029,-306.438199
1024.063345,-1332.370696,-9770.718434,-919.314598
1024.063669,-1258.350101,-10955.047942,-919.314598
1024.063993,-592.164754,-11029.068536,76.609550
1024.064317,1258.350101,-10584.944971,1072.533697
1024.064641,1554.432478,-9918.759623,1762.019645
1024.064965,296.082377,-10732.986159,1455.581446
1024.065289,-296.082377,-10214.842000,229.828649
1024.065613,222.061783,-9474.636058,995.924147
1024.065937,74.020594,-9696.697840,459.657299
1024.066261,-1110.308913,-8438.347739,0.000000
1024.066585,-2442.679609,-7920.203579,919.314598
1024.066910,-1110.308913,-8956.491898,612.876398
1024.067234,666.185348,-9030.512492,-306.438199
1024.067558,0.000000,-7698.141797,-919.314598
1024.067882,-148.041188,-7698.141797,0.000000
1024.068206,370.102971,-9548.656652,-229.828649
1024.068530,1850.514855,-9844.739029,1378.971896
1024.068854,2072.576638,-8956.491898,2451.505594
1024.069178,1184.329507,-8216.285956,919.314598
1024.069502,518.144159,-8216.285956,0.000000
1024.069826,370.102971,-8512.368333,383.047749
1024.070150,1998.556043,-9400.615463,689.485948
1024.070474,1702.473667,-9844.739029,1455.581446
1024.070798,740.205942,-10066.800811,1149.143247
1024.071122,-296.082377,-9030.512492,0.000000
1024.071446,-962.267725,-7698.141797,-1378.971896
1024.071770,-1850.514855,-8290.306550,-1915.238745
1024.072094,-2368.659014,-9918.759623,-1608.800546
1024.072418,-1850.514855,-10288.862594,-1378.971896
1024.072742,-444.123565,-9474.636058,-1225.752797
1024.073066,0.000000,-9548.656652,76.609550
1024.073390,444.123565,-10881.027347,-306.438199
1024.073714,1258.350101,-10955.047942,-229.828649
1024.074039,1184.329507,-9770.718434,-612.876398
1024.074363,814.226536,-10140.821405,459.657299
1024.074687,444.123565,-11325.150913,0.000000
1024.075011,518.144159,-11621.233289,229.828649
1024.075335,518.144159,-10436.903782,0.000000
1024.075659,74.020594,-10214.842000,-919.314598
1024.075983,-518.144159,-10732.986159,-2374.896044
1024.076307,-370.102971,-9622.677246,-1302.362347
1024.076631,-370.102971,-9622.677246,-229.828649
1024.076955,-1110.308913,-10436.903782,-689.485948
1024.077279,-2146.597232,-10288.862594,-1532.190996
1024.077603,-2664.741391,-9548.656652,-1225.752797
1024.077927,-740.205942,-10214.842000,-995.924147
1024.078251,1554.432478,-11029.068536,-383.047749
1024.078575,2516.700203,-10066.800811,1149.143247
1024.078899,814.226536,-9992.780217,1532.190996
1024.079223,148.041188,-10214.842000,153.219100
1024.079547,148.041188,-10288.862594,-153.219100
1024.079871,0.000000,-9696.697840,-153.219100
1024.080195,0.000000,-10140.821405,-306.438199
1024.080519,-1036.288319,-10288.862594,-459.657299
1024.080844,-1332.370696,-10140.821405,229.828649
1024.081168,-666.185348,-9400.615463,76.609550
1024.081492,148.041188,-8734.430116,229.828649
1024.081816,-1110.308913,-9474.636058,306.438199
1024.082140,-1258.350101,-9178.553681,-229.828649
1024.082464,-518.144159,-8068.244768,-306.438199
1024.082788,0.000000,-8364.327145,1072.533697
1024.083112,222.061783,-9918.759623,1225.752797
1024.083436,370.102971,-8364.327145,-995.924147
1024.083760,0.000000,-6957.935855,689.485948
1024.084084,0.000000,-8216.285956,919.314598
1024.084408,1702.473667,-9992.780217,229.828649
1024.084732,962.267725,-8882.471304,229.828649
1024.085056,-370.102971,-7550.100608,766.095498
1024.085380,-518.144159,-9252.574275,-383.047749
1024.085704,-222.061783,-9918.759623,-1455.581446
1024.086028,-444.123565,-9400.615463,0.000000
1024.086352,-518.144159,-8882.471304,-536.266849
1024.086676,-148.041188,-9178.553681,-306.438199
1024.087000,888.247130,-9844.739029,0.000000
1024.087324,1258.350101,-10584.944971,153.219100
1024.087648,814.226536,-10881.027347,0.000000
1024.087973,296.082377,-10658.965565,-536.266849
1024.088297,-592.164754,-10140.821405,-842.705048
1024.088621,-444.123565,-9622.677246,-536.266849
1024.088945,74.020594,-9770.718434,-383.047749
1024.089269,148.041188,-9992.780217,-459.657299
1024.089593,0.000000,-10807.006753,-612.876398
1024.089917,-296.082377,-10658.965565,-459.657299
1024.090241,814.226536,-9770.718434,-766.095498
1024.090565,370.102971,-9474.636058,-689.485948
1024.090889,0.000000,-9030.512492,0.000000
1024.091213,-592.164754,-9918.759623,-383.047749
1024.091537,0.000000,-10807.006753,689.485948
1024.091861,888.247130,-8438.347739,-459.657299
1024.092185,1036.288319,-9252.574275,842.705048
1024.092509,666.185348,-11325.150913,0.000000
1024.092833,888.247130,-10584.944971,-1149.143247
1024.093157,-518.144159,-9992.780217,153.219100
1024.093481,-1110.308913,-9474.636058,-229.828649
1024.093805,0.000000,-8512.368333,-1455.581446
1024.094129,222.061783,-9178.553681,-1072.533697
1024.094453,1184.329507,-8660.409521,-1532.190996
1024.094778,3034.844362,-8956.491898,-919.314598
1024.095102,2738.761985,-9622.677246,-995.924147
1024.095426,444.123565,-10066.800811,-766.095498
1024.095750,-1258.350101,-9622.677246,-919.314598
1024.096074,-370.102971,-9992.780217,0.000000
1024.096398,1332.370696,-10436.903782,766.095498
1024.096722,1332.370696,-10807.006753,229.828649
1024.097046,1184.329507,-9918.759623,0.000000
1024.097370,1776.494261,-9252.574275,0.000000
1024.097694,2220.617826,-9178.553681,76.609550
1024.098018,1702.473667,-9252.574275,76.609550
1024.098342,0.000000,-8734.430116,-1455.581446
1024.098666,-962.267725,-7402.059420,-2451.505594
1024.098990,-888.247130,-8216.285956,-2757.943793
1024.099314,-592.164754,-9992.780217,-2757.943793
1024.099638,0.000000,-10436.903782,-2068.457845
1024.099962,296.082377,-10584.944971,-1225.752797
1024.100286,962.267725,-9252.574275,-2068.457845
1024.100610,2664.741391,-8142.265362,-1378.971896
1024.100934,3701.029710,-9178.553681,-229.828649
1024.101258,4367.215058,-9918.759623,-1532.190996
1024.101583,4367.215058,-8364.327145,-2068.457845
1024.101907,4663.297435,-7550.100608,-1685.410096
1024.102231,5181.441594,-7772.162391,-1838.629195
1024.102555,4959.379811,-9178.553681,-2298.286494
1024.102879,2442.679609,-8882.471304,-2987.772442
1024.103203,-592.164754,-9030.512492,-4443.353888
1024.103527,-1850.514855,-9474.636058,-4749.792088
1024.103851,-2368.659014,-10658.965565,-4673.182538
1024.104175,-2072.576638,-11473.192101,-4290.134789
1024.104499,-518.144159,-10510.924376,-3600.648841
1024.104823,1776.494261,-10288.862594,-2987.772442
1024.105147,2590.720797,-11547.212695,-1762.019645
1024.105471,4367.215058,-10732.986159,-2451.505594
1024.105795,5403.503377,-10288.862594,-1455.581446
1024.106119,5033.400406,-11843.295072,-919.314598
1024.106443,4959.379811,-11621.233289,-1991.848295
1024.106767,4441.235652,-10436.903782,-2987.772442
1024.107091,2590.720797,-10584.944971,-2221.676944
1024.107415,2146.597232,-11621.233289,-3217.601092
1024.107739,2146.597232,-11251.130318,-4060.306139
1024.108063,222.061783,-9844.739029,-3294.210641
1024.108387,1110.308913,-9474.636058,-3753.867940
1024.108712,1998.556043,-9104.533087,-4213.525239
1024.109036,2294.638420,-9030.512492,-3600.648841
1024.109360,2738.761985,-9178.553681,-2451.505594
1024.109684,3923.091493,-9104.533087,-1455.581446
1024.110008,5255.462188,-9548.656652,-766.095498
1024.110332,5403.503377,-9548.656652,-153.219100
1024.110656,4959.379811,-9178.553681,-306.438199
1024.110980,4145.153275,-10214.842000,-1072.533697
1024.111304,1924.535449,-10584.944971,-995.924147
1024.111628,962.267725,-10584.944971,-1378.971896
1024.111952,0.000000,-10436.903782,-1685.410096
1024.112276,-222.061783,-9918.759623,-1991.848295
1024.112600,-296.082377,-9474.636058,-2374.896044
1024.112924,-518.144159,-9178.553681,-2604.724693
1024.113248,-740.205942,-8586.388927,-3753.867940
1024.113572,-518.144159,-7402.059420,-3370.820191
1024.113896,222.061783,-7476.080014,-2757.943793
1024.114220,1110.308913,-7846.182985,-2451.505594
1024.114544,1628.453072,-8956.491898,-1532.190996
1024.114868,1628.453072,-9770.718434,-536.266849
1024.115192,2886.803174,-9696.697840,-842.705048
1024.115517,3701.029710,-8882.471304,-229.828649
1024.115841,4071.132681,-9030.512492,383.047749
1024.116165,3552.988522,-10140.821405,0.000000
1024.116489,3108.864956,-10436.903782,153.219100
1024.116813,1776.494261,-9992.780217,-842.705048
1024.117137,148.041188,-8956.491898,-2221.676944
1024.117461,-370.102971,-7624.121203,-2451.505594
1024.117785,-148.041188,-8438.347739,-3983.696590
1024.118109,0.000000,-9548.656652,-4903.011187
1024.118433,-888.247130,-8364.327145,-3983.696590
1024.118757,0.000000,-9400.615463,-3907.087040
1024.119081,814.226536,-10658.965565,-4136.915689
1024.119405,2072.576638,-9844.739029,-2911.162892
1024.119729,3034.844362,-10584.944971,-1762.019645
1024.120053,4071.132681,-12287.418637,-1838.629195
1024.120377,5699.585753,-13397.727550,-612.876398
1024.120701,6587.832884,-12583.501014,459.657299
1024.121025,6439.791695,-12731.542202,153.219100
1024.121349,6143.709319,-12361.439231,-536.266849
1024.121673,4663.297435,-11029.068536,-612.876398
1024.121997,2886.803174,-11251.130318,-1225.752797
1024.122321,1850.514855,-11251.130318,-3064.381992
1024.122646,740.205942,-9104.533087,-2987.772442
1024.122970,-444.123565,-8586.388927,-3983.696590
1024.123294,-740.205942,-8734.430116,-4519.963438
1024.123618,-888.247130,-8068.244768,-4596.572988
1024.123942,-1036.288319,-8068.244768,-3140.991542
1024.124266,148.041188,-8364.327145,-3140.991542
1024.124590,2220.617826,-8438.347739,-2987.772442
1024.124914,3404.947333,-9474.636058,-766.095498
1024.125238,4367.215058,-9622.677246,153.219100
1024.125562,5551.544565,-9326.594869,-153.219100
1024.125886,3849.070898,-9252.574275,-153.219100
1024.126210,2664.741391,-9992.780217,-612.876398
1024.126534,3182.885551,-9548.656652,-1608.800546
1024.126858,3034.844362,-10066.800811,-1302.362347
1024.127182,2072.576638,-10658.965565,-766.095498
1024.127506,1702.473667,-9030.512492,-1915.238745
1024.127830,-222.061783,-7402.059420,-2604.724693
1024.128154,-2220.617826,-8512.368333,-2451.505594
1024.128478,-1924.535449,-9252.574275,-2987.772442
1024.128802,-296.082377,-8438.347739,-3140.991542
1024.129126,-222.061783,-7328.038826,-2757.943793
1024.129451,296.082377,-8438.347739,-1838.629195
1024.129775,2368.659014,-9474.636058,-1378.971896
1024.130099,4071.132681,-9696.697840,-1072.533697
1024.130423,3627.009116,-8808.450710,-1378.971896
1024.130747,2590.720797,-8808.450710,-919.314598
1024.131071,3627.009116,-10807.006753,-1225.752797
1024.131395,4441.235652,-11547.212695,-1072.533697
1024.131719,4145.153275,-10881.027347,-1378.971896
1024.132043,2664.741391,-10807.006753,-1762.019645
1024.132367,2516.700203,-11177.109724,-2987.772442
1024.132691,2516.700203,-10436.903782,-3600.648841
1024.133015,2294.638420,-10066.800811,-3447.429741
1024.133339,1332.370696,-10140.821405,-3830.477490
1024.133663,222.061783,-10732.986159,-3447.429741
1024.133987,592.164754,-11325.150913,-2757.943793
1024.134311,1998.556043,-10584.944971,-2757.943793
1024.134635,2886.803174,-9474.636058,-2298.286494
1024.134959,3330.926739,-11103.089130,-1838.629195
1024.135283,2812.782580,-10807.006753,-1762.019645
1024.135607,3108.864956,-9622.677246,-919.314598
1024.135931,3997.112087,-9548.656652,-842.705048
1024.136255,2590.720797,-10510.924376,-1378.971896
1024.136579,1184.329507,-10436.903782,-1915.238745
1024.136903,296.082377,-9548.656652,-1915.238745
1024.137227,148.041188,-8956.491898,-2757.943793
1024.137551,740.205942,-9178.553681,-3447.429741
1024.137875,1110.308913,-8290.306550,-3140.991542
1024.138199,1480.411884,-8512.368333,-2451.505594
1024.138523,1776.494261,-9030.512492,-2221.676944
1024.138847,2294.638420,-8586.388927,-2221.676944
1024.139171,2664.741391,-8512.368333,-1762.019645
1024.139495,3849.070898,-8956.491898,-1455.581446
1024.139819,5181.441594,-9252.574275,-1225.752797
1024.140143,4885.359217,-9030.512492,-919.314598
1024.140467,2812.782580,-9104.533087,-995.924147
1024.140791,814.226536,-10066.800811,-2298.286494
1024.141115,296.082377,-9770.718434,-2298.286494
1024.141439,1406.391290,-8660.409521,-2145.067394
1024.141763,2368.659014,-8438.347739,-1225.752797
1024.142087,1776.494261,-9252.574275,-1915.238745
1024.142411,148.041188,-9992.780217,-2757.943793
1024.142735,-1406.391290,-9622.677246,-2757.943793
1024.143059,-1036.288319,-8882.471304,-2145.067394
1024.143383,1258.350101,-8586.388927,-1455.581446
1024.143707,3256.906145,-9178.553681,-1685.410096
1024.144031,3923.091493,-9918.759623,-2221.676944
1024.144355,2664.741391,-10436.903782,-3524.039291
1024.144679,1776.494261,-11029.068536,-3753.867940
1024.145003,1406.391290,-11473.192101,-2987.772442
1024.145327,666.185348,-10807.006753,-3140.991542
1024.145651,740.205942,-10436.903782,-2987.772442
1024.145975,1332.370696,-10140.821405,-3064.381992
1024.146299,3034.844362,-10732.986159,-2451.505594
1024.146623,4811.338623,-11547.212695,-1762.019645
1024.146947,5255.462188,-11547.212695,-1225.752797
1024.147271,4145.153275,-10288.862594,-842.705048
1024.147595,2664.741391,-9400.615463,-995.924147
1024.147919,814.226536,-9252.574275,-1762.019645
1024.148243,148.041188,-9844.739029,-2145.067394
1024.148567,296.082377,-10066.800811,-2911.162892
1024.148891,1554.432478,-9770.718434,-2757.943793
1024.149215,3256.906145,-9030.512492,-2374.896044
1024.149539,3849.070898,-8808.450710,-3140.991542
1024.149863,3256.906145,-9178.553681,-3217.601092
1024.150187,1406.391290,-9252.574275,-3600.648841
1024.150511,-148.041188,-8956.491898,-3983.696590
1024.150835,-518.144159,-9178.553681,-3294.210641
1024.151159,444.123565,-10066.800811,-2451.505594
1024.151483,1554.432478,-10066.800811,-1455.581446
1024.151807,2812.782580,-10362.883188,-842.705048
1024.152131,3775.050304,-9696.697840,-229.828649
1024.152455,4293.194464,-9474.636058,153.219100
1024.152779,4219.173869,-9474.636058,689.485948
1024.153103,3552.988522,-9474.636058,383.047749
1024.153427,3330.926739,-9104.533087,-229.828649
1024.153751,2368.659014,-9252.574275,-1762.019645
1024.154075,1332.370696,-8956.491898,-3447.429741
1024.154399,-518.144159,-8438.347739,-4136.915689
1024.154723,-1702.473667,-8438.347739,-4903.011187
1024.155047,-2072.576638,-7994.224174,-5132.839837
1024.155371,-1110.308913,-7772.162391,-4826.401637
1024.155695,592.164754,-8586.388927,-3524.039291
1024.156019,2368.659014,-9474.636058,-2374.896044
1024.156343,3775.050304,-10066.800811,-1225.752797
1024.156667,4885.359217,-9770.718434,153.219100
1024.156991,5625.565159,-9770.718434,306.438199
1024.157315,5921.647536,-10807.006753,1685.410096
1024.157639,5181.441594,-11621.233289,1455.581446
1024.157963,4441.235652,-11547.212695,1072.533697
1024.158287,2738.761985,-10955.047942,-689.485948
1024.158611,814.226536,-10658.965565,-2757.943793
1024.158935,-1628.453072,-9844.739029,-5439.278036
1024.159259,-2960.823768,-9992.780217,-7124.688131
1024.159583,-3997.112087,-9178.553681,-7048.078582
1024.159907,-2590.720797,-9252.574275,-6358.592633
1024.160231,-444.123565,-8586.388927,-5056.230287
1024.160555,2294.638420,-8290.306550,-2604.724693
1024.160879,4959.379811,-9030.512492,-1149.143247
1024.161203,6809.894666,-9844.739029,306.438199
1024.161527,7031.956449,-10510.924376,536.266849
1024.161851,6809.894666,-10584.944971,1225.752797
1024.162175,6143.709319,-10658.965565,1225.752797
1024.162499,5033.400406,-10584.944971,459.657299
1024.162823,3404.947333,-10362.883188,-766.095498
1024.163147,888.247130,-10584.944971,-2451.505594
1024.163471,-1998.556043,-10362.883188,-3677.258390
1024.163795,-3108.864956,-9400.615463,-4979.620737
1024.164119,-4219.173869,-7994.224174,-5439.278036
1024.164443,-4219.173869,-7105.977043,-4060.306139
1024.164767,-2516.700203,-7846.182985,-3294.210641
1024.165091,-888.247130,-8142.265362,-2145.067394
1024.165415,1702.473667,-9178.553681,-229.828649
1024.165739,3849.070898,-9992.780217,919.314598
1024.166063,5033.400406,-10658.965565,1225.752797
1024.166387,4811.338623,-11399.171507,2374.896044
1024.166711,4589.276840,-11399.171507,2145.067394
1024.167035,3256.906145,-11769.274478,842.705048
1024.167359,1480.411884,-11029.068536,-536.266849
1024.167683,-814.226536,-10807.006753,-2221.676944
1024.168007,-1850.514855,-10436.903782,-3907.087040
1024.168331,-1924.535449,-10140.821405,-5056.230287
1024.168655,-1628.453072,-8660.409521,-4519.963438
1024.168979,0.000000,-7698.141797,-3217.601092
1024.169303,1850.514855,-7105.977043,-2834.553343
1024.169627,3923.091493,-7031.956449,-1915.238745
1024.169951,5921.647536,-6439.791695,-766.095498
1024.170275,8068.244768,-7550.100608,306.438199
1024.170600,9400.615463,-9030.512492,1149.143247
1024.170924,8734.430116,-9622.677246,1072.533697
1024.171248,7105.977043,-9844.739029,536.266849
1024.171572,4811.338623,-9992.780217,-1149.143247
1024.171896,2368.659014,-10732.986159,-2834.553343
1024.172220,666.185348,-11399.171507,-4213.525239
1024.172544,-222.061783,-10881.027347,-5209.449386
1024.172868,-518.144159,-9918.759623,-5132.839837
1024.173192,-1036.288319,-9400.615463,-5056.230287
1024.173516,-740.205942,-8882.471304,-4136.915689
1024.173840,814.226536,-8808.450710,-3524.039291
1024.174164,2072.576638,-8512.368333,-2987.772442
1024.174488,3627.009116,-9400.615463,-1532.190996
1024.174812,4959.379811,-9474.636058,-842.705048
1024.175136,6217.729913,-10436.903782,-383.047749
1024.175460,6143.709319,-11177.109724,-459.657299
1024.175784,5551.544565,-11399.171507,-995.924147
1024.176108,4071.132681,-11399.171507,-2451.505594
1024.176432,2368.659014,-10732.986159,-3677.258390
1024.176756,1036.288319,-10362.883188,-4596.572988
1024.177080,0.000000,-10807.006753,-5975.544884
1024.177404,-1924.535449,-9918.759623,-6588.421283
1024.177728,-3701.029710,-9104.533087,-6665.030833
1024.178052,-3108.864956,-8734.430116,-5669.106685
1024.178376,-1480.411884,-8586.388927,-4519.963438
1024.178700,1110.308913,-8882.471304,-2911.162892
1024.179024,3997.112087,-9474.636058,-1225.752797
1024.179348,6291.750507,-10140.821405,-536.266849
1024.179672,7179.997637,-11103.089130,0.000000
1024.179996,6143.709319,-11769.274478,229.828649
1024.180320,4737.318029,-12731.542202,-306.438199
1024.180644,1628.453072,-12657.521608,-1762.019645
1024.180968,-1554.432478,-11769.274478,-3217.601092
1024.181292,-3627.009116,-11029.068536,-4903.011187
1024.181616,-4145.153275,-10140.821405,-5439.278036
1024.181940,-3182.885551,-10362.883188,-5362.668486
1024.182264,-740.205942,-9474.636058,-4826.401637
1024.182588,740.205942,-8512.368333,-3983.696590
1024.182912,1628.453072,-8290.306550,-2681.334243
1024.183236,1406.391290,-8808.450710,-2068.457845
1024.183560,1776.494261,-8216.285956,-1225.752797
1024.183884,3256.906145,-8586.388927,153.219100
1024.184208,5847.626942,-9104.533087,1378.971896
1024.184532,8290.306550,-9918.759623,1762.019645
1024.184856,8438.347739,-9992.780217,1072.533697
1024.185180,6513.812290,-9992.780217,0.000000
1024.185504,2664.741391,-9622.677246,-1302.362347
1024.185828,-370.102971,-9178.553681,-2528.115143
1024.186152,-1628.453072,-8586.388927,-3294.210641
1024.186476,-1036.288319,-7772.162391,-3830.477490
1024.186800,0.000000,-7698.141797,-3064.381992
1024.187124,222.061783,-7920.203579,-2681.334243
1024.187448,0.000000,-8364.327145,-2528.115143
1024.187772,-740.205942,-8364.327145,-1685.410096
1024.188096,148.041188,-8290.306550,-536.266849
1024.188420,2886.803174,-8734.430116,459.657299
1024.188744,5033.400406,-9696.697840,1149.143247
1024.189068,5847.626942,-10436.903782,1455.581446
1024.189392,5847.626942,-11621.233289,842.705048
1024.189716,4737.318029,-11325.150913,306.438199
1024.190040,3997.112087,-10807.006753,-306.438199
1024.190364,3404.947333,-9400.615463,-919.314598
1024.190688,2590.720797,-8882.471304,-2528.115143
1024.191012,148.041188,-9400.615463,-4060.306139
1024.191336,-2220.617826,-9770.718434,-5132.839837
1024.191660,-1850.514855,-9474.636058,-4903.011187
1024.191984,-370.102971,-8882.471304,-3370.820191
1024.192308,3108.864956,-8882.471304,-1762.019645
1024.192632,4959.379811,-8734.430116,-1378.971896
1024.192956,4885.359217,-9400.615463,-1072.533697
1024.193280,4589.276840,-10584.944971,-842.705048
1024.193604,4441.235652,-11399.171507,0.000000
1024.193928,5699.585753,-11991.336260,383.047749
1024.194252,4737.318029,-12065.356855,766.095498
1024.194576,2294.638420,-11325.150913,-383.047749
1024.194900,296.082377,-11399.171507,-1072.533697
1024.195224,-370.102971,-11251.130318,-2604.724693
1024.195548,-888.247130,-10288.862594,-3907.087040
1024.195872,-2146.597232,-8586.388927,-4443.353888
1024.196196,-2368.659014,-8068.244768,-4903.011187
1024.196520,-1554.432478,-8734.430116,-4290.134789
1024.196844,740.205942,-9474.636058,-3447.429741
1024.197168,1332.370696,-8512.368333,-3064.381992
1024.197492,1480.411884,-8290.306550,-2451.505594
1024.197816,2812.782580,-9104.533087,-2068.457845
1024.198140,4663.297435,-9770.718434,-995.924147
1024.198464,5107.421000,-9844.739029,-459.657299
1024.198788,5107.421000,-9622.677246,-153.219100
1024.199112,4071.132681,-10288.862594,-306.438199
1024.199436,4071.132681,-11103.089130,-459.657299
1024.199760,2590.720797,-9844.739029,-1455.581446
1024.200084,0.000000,-8808.450710,-2374.896044
1024.200408,-2220.617826,-8586.388927,-3140.991542
1024.200732,-1702.473667,-9030.512492,-3753.867940
1024.201056,74.020594,-8216.285956,-3294.210641
1024.201380,0.000000,-7254.018232,-2374.896044
1024.201704,-518.144159,-7846.182985,-2757.943793
1024.202028,222.061783,-9474.636058,-2911.162892
1024.202352,1924.535449,-9252.574275,-2911.162892
1024.202676,3182.885551,-8438.347739,-2451.505594
1024.203000,2738.761985,-9770.718434,-2374.896044
1024.203324,2664.741391,-11843.295072,-1991.848295
1024.203648,3701.029710,-10807.006753,-1455.581446
1024.203972,4959.379811,-9770.718434,-919.314598
1024.204296,4885.359217,-10807.006753,-1302.362347
1024.204620,3997.112087,-12139.377449,-2604.724693
1024.204944,3108.864956,-11029.068536,-2987.772442
1024.205268,2590.720797,-9474.636058,-2987.772442
1024.205592,2812.782580,-9400.615463,-2834.553343
1024.205916,3849.070898,-9622.677246,-1302.362347
1024.206240,4293.194464,-9252.574275,-842.705048
1024.206564,3701.029710,-9400.615463,-1608.800546
1024.206888,3108.864956,-9400.615463,-2834.553343
1024.207212,2220.617826,-9326.594869,-2451.505594
1024.207536,1776.494261,-9030.512492,-2604.724693
1024.207860,666.185348,-8808.450710,-3217.601092
1024.208184,296.082377,-8660.409521,-3830.477490
1024.208508,740.205942,-9030.512492,-3753.867940
1024.208832,1036.288319,-9992.780217,-4903.011187
1024.209156,740.205942,-10510.924376,-4213.525239
1024.209480,444.123565,-10510.924376,-3600.648841
1024.209804,1924.535449,-9992.780217,-3140.991542
1024.210128,2072.576638,-9844.739029,-1991.848295
1024.210452,2146.597232,-10955.047942,-1149.143247
1024.210776,3627.009116,-11695.253884,-766.095498
1024.211100,4663.297435,-11177.109724,536.266849
1024.211424,4737.318029,-11251.130318,1608.800546
1024.211748,4367.215058,-11473.192101,0.000000
1024.212072,4293.194464,-9918.759623,-612.876398
1024.212396,2738.761985,-8216.285956,-1072.533697
1024.212720,962.267725,-8660.409521,-2911.162892
1024.213044,-148.041188,-9178.553681,-4213.525239
1024.213368,-1258.350101,-8290.306550,-4519.963438
1024.213692,-3256.906145,-7772.162391,-5515.887586
1024.214016,-3627.009116,-7994.224174,-5592.497135
1024.214340,-2146.597232,-7772.162391,-5056.230287
1024.214664,444.123565,-9030.512492,-3064.381992
1024.214988,3330.926739,-10362.883188,-2221.676944
1024.215312,5329.482782,-10214.842000,229.828649
1024.215636,7105.977043,-11473.192101,1991.848295
1024.215960,7920.203579,-11917.315666,3370.820191
1024.216284,8586.388927,-11473.192101,2681.334243
1024.216608,6439.791695,-10807.006753,2145.067394
1024.216932,2664.741391,-11029.068536,0.000000
1024.217256,0.000000,-10288.862594,-1915.238745
1024.217580,-1628.453072,-8512.368333,-3064.381992
1024.217904,-2516.700203,-7920.203579,-3370.820191
1024.218228,-2812.782580,-8364.327145,-4519.963438
1024.218552,-3182.885551,-7550.100608,-5209.449386
1024.218876,-3775.050304,-6365.771101,-5822.325785
1024.219200,-2368.659014,-6809.894666,-5362.668486
1024.219524,-444.123565,-7402.059420,-4366.744339
1024.219848,2960.823768,-8364.327145,-2145.067394
1024.220172,6143.709319,-10066.800811,1149.143247
1024.220496,8512.368333,-11103.089130,2374.896044
1024.220820,8586.388927,-11621.233289,2298.286494
1024.221144,6883.915261,-11251.130318,1762.019645
1024.221468,5107.421000,-11843.295072,1149.143247
1024.221792,3478.967927,-11399.171507,-919.314598
1024.222116,740.205942,-9918.759623,-995.924147
1024.222440,-1628.453072,-9252.574275,-1762.019645
1024.222764,-1998.556043,-9474.636058,-2757.943793
1024.223088,-1258.350101,-9252.574275,-3677.258390
1024.223412,-1332.370696,-7550.100608,-4903.011187
1024.223736,-1406.391290,-7105.977043,-4826.401637
1024.224060,-1258.350101,-8290.306550,-4136.915689
1024.224384,296.082377,-8956.491898,-3600.648841
1024.224708,1110.308913,-8586.388927,-2834.553343
1024.225032,2368.659014,-9918.759623,-1072.533697
1024.225356,5255.462188,-12731.542202,-612.876398
1024.225680,7550.100608,-13841.851115,306.438199
1024.226004,7550.100608,-13027.624579,1685.410096
1024.226328,4885.359217,-12509.480420,1455.581446
1024.226652,2220.617826,-12657.521608,383.047749
1024.226976,518.144159,-11399.171507,-383.047749
1024.227300,-296.082377,-10140.821405,-153.219100
1024.227624,-740.205942,-9918.759623,-1685.410096
1024.227948,-1036.288319,-9474.636058,-2604.724693
1024.228272,-2368.659014,-7846.182985,-2451.505594
1024.228596,-1924.535449,-7550.100608,-1685.410096
1024.228920,-1036.288319,-9474.636058,-1915.238745
1024.229244,-1184.329507,-9696.697840,-2221.676944
1024.229568,-1554.432478,-8216.285956,-2681.334243
1024.229892,-2516.700203,-7698.141797,-3140.991542
1024.230216,-2368.659014,-9548.656652,-2451.505594
1024.230540,-592.164754,-11029.068536,-1685.410096
1024.230864,1628.453072,-10510.924376,0.000000
1024.231188,2960.823768,-9178.553681,842.705048
1024.231512,4737.318029,-8068.244768,612.876398
1024.231836,5773.606348,-9104.533087,1838.629195
1024.232160,6143.709319,-9622.677246,1455.581446
1024.232484,5329.482782,-10066.800811,1838.629195
1024.232808,2590.720797,-9622.677246,1532.190996
1024.233132,1110.308913,-9252.574275,995.924147
1024.233456,-740.205942,-8882.471304,689.485948
1024.233780,-1776.494261,-9326.594869,0.000000
1024.234104,-3034.844362,-9844.739029,-1762.019645
1024.234428,-4219.173869,-8660.409521,-3524.039291
1024.234752,-3627.009116,-7328.038826,-3447.429741
1024.235076,-2738.761985,-7254.018232,-3370.820191
1024.235400,-1924.535449,-8586.388927,-2451.505594
1024.235724,-2294.638420,-9548.656652,-2221.676944
1024.236048,-1924.535449,-10140.821405,-1532.190996
1024.236372,148.041188,-10955.047942,-842.705048
1024.236696,2294.638420,-11843.295072,1225.752797
1024.237020,3182.885551,-13027.624579,2374.896044
1024.237344,3182.885551,-13101.645173,3907.087040
1024.237668,2664.741391,-13249.686362,3370.820191
1024.237992,2072.576638,-13175.665768,3370.820191
1024.238316,740.205942,-11695.253884,2757.943793
1024.238640,-666.185348,-10140.821405,689.485948
1024.238964,-2368.659014,-7994.224174,-1072.533697
1024.239288,-3330.926739,-7624.121203,-1608.800546
1024.239612,-3552.988522,-8290.306550,-1838.629195
1024.239936,-2960.823768,-8142.265362,-2528.115143
1024.240260,-3627.009116,-6365.771101,-2451.505594
1024.240584,-3552.988522,-6291.750507,-1991.848295
1024.240908,-2368.659014,-7920.203579,-2145.067394
1024.241232,-296.082377,-9992.780217,-766.095498
1024.241556,740.205942,-11251.130318,1532.190996
1024.241880,2072.576638,-11621.233289,2681.334243
1024.242205,3034.844362,-11473.192101,2451.505594
1024.242529,3552.988522,-10510.924376,3907.087040
1024.242853,2886.803174,-10584.944971,4366.744339
1024.243177,3478.967927,-11621.233289,3524.039291
1024.243501,3775.050304,-11029.068536,3524.039291
1024.243825,2442.679609,-8734.430116,2451.505594
1024.244149,666.185348,-6883.915261,-459.657299
1024.244473,-3108.864956,-7402.059420,-2145.067394
1024.244797,-5551.544565,-8438.347739,-2374.896044
1024.245121,-5255.462188,-8660.409521,-3370.820191
1024.245445,-3923.091493,-8882.471304,-2681.334243
1024.245769,-3182.885551,-8142.265362,-2221.676944
1024.246093,-1332.370696,-8512.368333,-1455.581446
1024.246417,740.205942,-9770.718434,-1149.143247
1024.246741,3330.926739,-9770.718434,229.828649
1024.247065,4959.379811,-9918.759623,1225.752797
1024.247389,5551.544565,-10658.965565,2911.162892
1024.247713,6365.771101,-11399.171507,4060.306139
1024.248037,6957.935855,-11547.212695,4519.963438
1024.248361,4885.359217,-10436.903782,2528.115143
1024.248685,1036.288319,-10436.903782,612.876398
1024.249009,-1702.473667,-10510.924376,-689.485948
1024.249333,-2368.659014,-9548.656652,-2221.676944
1024.249657,-2590.720797,-8512.368333,-2068.457845
1024.249982,-4071.132681,-8216.285956,-2604.724693
1024.250306,-5921.647536,-8734.430116,-4366.744339
1024.250630,-4885.359217,-8364.327145,-4136.915689
1024.250954,-1924.535449,-8438.347739,-2681.334243
1024.251278,-518.144159,-9474.636058,-689.485948
1024.251602,-518.144159,-10807.006753,-383.047749
1024.251926,0.000000,-10362.883188,0.000000
1024.252250,888.247130,-10362.883188,229.828649
1024.252574,2294.638420,-11251.130318,459.657299
1024.252898,3404.947333,-11621.233289,1225.752797
1024.253222,3108.864956,-11991.336260,1915.238745
1024.253546,2664.741391,-11917.315666,1915.238745
1024.253870,2294.638420,-10288.862594,-229.828649
1024.254194,-296.082377,-9178.553681,-383.047749
1024.254518,-3108.864956,-9548.656652,-1225.752797
1024.254842,-3849.070898,-9770.718434,-3064.381992
1024.255166,-3330.926739,-8956.491898,-1685.410096
1024.255490,-1998.556043,-8438.347739,0.000000
1024.255814,-1110.308913,-7920.203579,-1149.143247
1024.256138,-2220.617826,-7105.977043,-1532.190996
1024.256462,-3330.926739,-7624.121203,-1532.190996
1024.256786,-1850.514855,-9326.594869,-919.314598
1024.257110,222.061783,-10288.862594,-612.876398
1024.257434,222.061783,-9992.780217,76.609550
1024.257759,-148.041188,-8882.471304,1915.238745
1024.258083,1110.308913,-10140.821405,1072.533697
1024.258407,2072.576638,-11325.150913,229.828649
1024.258731,1850.514855,-10955.047942,0.000000
1024.259055,962.267725,-10510.924376,459.657299
1024.259379,296.082377,-10658.965565,-153.219100
1024.259703,-222.061783,-9696.697840,-766.095498
1024.260027,-444.123565,-8882.471304,0.000000
1024.260351,-962.267725,-9030.512492,-612.876398
1024.260675,-1184.329507,-10214.842000,-1302.362347
1024.260999,-666.185348,-10362.883188,-1225.752797
1024.261323,518.144159,-8808.450710,-612.876398
1024.261647,1258.350101,-9178.553681,0.000000
1024.261971,592.164754,-10288.862594,536.266849
1024.262295,666.185348,-10732.986159,766.095498
1024.262619,1036.288319,-9474.636058,383.047749
1024.262943,814.226536,-9030.512492,612.876398
1024.263267,518.144159,-9918.759623,1149.143247
1024.263591,444.123565,-10066.800811,1072.533697
1024.263915,1036.288319,-9548.656652,306.438199
1024.264239,1110.308913,-8808.450710,842.705048
1024.264563,74.020594,-9400.615463,306.438199
1024.264887,-1110.308913,-9178.553681,536.266849
1024.265212,0.000000,-8882.471304,0.000000
1024.265536,296.082377,-8438.347739,689.485948
1024.265860,222.061783,-8512.368333,-459.657299
1024.266184,0.000000,-8586.388927,-919.314598
1024.266508,-1184.329507,-9696.697840,0.000000
1024.266832,-518.144159,-10066.800811,-612.876398
1024.267156,222.061783,-9770.718434,-153.219100
1024.267480,296.082377,-10510.924376,383.047749
1024.267804,222.061783,-12065.356855,919.314598
1024.268128,1480.411884,-11991.336260,306.438199
1024.268452,2960.823768,-11251.130318,1838.629195
1024.268776,3552.988522,-11177.109724,1991.848295
1024.269100,2738.761985,-10214.842000,1608.800546
1024.269424,518.144159,-9844.739029,1302.362347
1024.269748,-1110.308913,-9548.656652,766.095498
1024.270072,-2590.720797,-8808.450710,153.219100
1024.270396,-3701.029710,-9252.574275,-689.485948
1024.270720,-4737.318029,-8512.368333,-766.095498
1024.271044,-4219.173869,-7179.997637,-1762.019645
1024.271368,-2220.617826,-5995.668130,-1225.752797
1024.271692,-1628.453072,-7254.018232,-612.876398
1024.272016,-1036.288319,-8734.430116,-306.438199
1024.272340,592.164754,-9252.574275,76.609550
1024.272664,1702.473667,-9326.594869,766.095498
1024.272989,2294.638420,-9696.697840,1455.581446
1024.273313,1184.329507,-10288.862594,536.266849
1024.273637,-962.267725,-10955.047942,-383.047749
1024.273961,-1554.432478,-11029.068536,-229.828649
1024.274285,1332.370696,-11103.089130,0.000000
1024.274609,3330.926739,-11103.089130,153.219100
1024.274933,3182.885551,-11029.068536,995.924147
1024.275257,2368.659014,-11251.130318,229.828649
1024.275581,814.226536,-10732.986159,-536.266849
1024.275905,-962.267725,-11177.109724,-1378.971896
1024.276229,-3034.844362,-9992.780217,-1532.190996
1024.276553,-2960.823768,-8956.491898,-1685.410096
1024.276877,-1406.391290,-8586.388927,-1378.971896
1024.277201,0.000000,-8882.471304,-1149.143247
1024.277525,296.082377,-9918.759623,-1455.581446
1024.277849,0.000000,-10510.924376,-842.705048
1024.278173,-1110.308913,-9030.512492,-383.047749
1024.278497,-370.102971,-8438.347739,-612.876398
1024.278821,-370.102971,-8956.491898,-689.485948
1024.279145,-814.226536,-9326.594869,0.000000
1024.279469,-888.247130,-9474.636058,459.657299
1024.279793,518.144159,-10140.821405,153.219100
1024.280117,1776.494261,-9992.780217,536.266849
1024.280441,2516.700203,-9474.636058,0.000000
1024.280766,1628.453072,-8882.471304,-229.828649
1024.281090,592.164754,-9104.533087,-766.095498
1024.281414,592.164754,-9400.615463,-536.266849
1024.281738,296.082377,-10436.903782,-689.485948
1024.282062,-370.102971,-10510.924376,-842.705048
1024.282386,-1110.308913,-9400.615463,-995.924147
1024.282710,0.000000,-8660.409521,-1455.581446
1024.283034,370.102971,-9252.574275,-1378.971896
1024.283358,0.000000,-9622.677246,-612.876398
1024.283682,0.000000,-10066.800811,0.000000
1024.284006,-148.041188,-10436.903782,0.000000
1024.284330,296.082377,-10584.944971,766.095498
1024.284654,-962.267725,-10955.047942,1532.190996
1024.284978,-1554.432478,-11473.192101,306.438199
1024.285302,-1702.473667,-10436.903782,459.657299
1024.285626,-1036.288319,-9474.636058,-383.047749
1024.285950,74.020594,-8956.491898,-306.438199
1024.286274,814.226536,-9474.636058,0.000000
1024.286598,1258.350101,-9622.677246,536.266849
1024.286922,1998.556043,-9696.697840,-383.047749
1024.287246,888.247130,-8808.450710,-1072.533697
1024.287570,-74.020594,-8734.430116,-1149.143247
1024.287894,-592.164754,-9178.553681,-1149.143247
1024.288219,0.000000,-10140.821405,-689.485948
1024.288543,1332.370696,-9770.718434,229.828649
1024.288867,2220.617826,-9770.718434,1072.533697
1024.289191,1702.473667,-9918.759623,1532.190996
1024.289515,1628.453072,-9770.718434,1072.533697
1024.289839,1776.494261,-9252.574275,-229.828649
1024.290163,1924.535449,-8882.471304,1149.143247
1024.290487,666.185348,-9400.615463,306.438199
1024.290811,-1554.432478,-9474.636058,0.000000
1024.291135,-2294.638420,-9474.636058,0.000000
1024.291459,-1258.350101,-9326.594869,0.000000
1024.291783,-740.205942,-9770.718434,-612.876398
1024.292107,-1776.494261,-9400.615463,-766.095498
1024.292431,-1776.494261,-9252.574275,-536.266849
1024.292755,-1924.535449,-9770.718434,-995.924147
1024.293079,-1332.370696,-9918.759623,-842.705048
1024.293403,-1554.432478,-9918.759623,-459.657299
1024.293727,-1480.411884,-9992.780217,-306.438199
1024.294051,-888.247130,-9918.759623,0.000000
1024.294375,-444.123565,-9030.512492,766.095498
1024.294699,148.041188,-9622.677246,689.485948
1024.295023,0.000000,-9770.718434,536.266849
1024.295347,888.247130,-9770.718434,459.657299
1024.295671,2220.617826,-9326.594869,689.485948
1024.295996,2812.782580,-9326.594869,1302.362347
1024.296320,1776.494261,-10214.842000,459.657299
1024.296644,-148.041188,-9844.739029,536.266849
1024.296968,-222.061783,-11103.089130,-306.438199
1024.297292,-222.061783,-10362.883188,-689.485948
1024.297616,-370.102971,-9474.636058,-1378.971896
1024.297940,-1554.432478,-8660.409521,-306.438199
1024.298264,-1628.453072,-9548.656652,0.000000
1024.298588,-888.247130,-9696.697840,-1149.143247
1024.298912,-888.247130,-8512.368333,-229.828649
1024.299236,-1628.453072,-10066.800811,919.314598
1024.299560,-1776.494261,-10362.883188,536.266849
1024.299884,-1850.514855,-9770.718434,0.000000
1024.300208,-1480.411884,-8808.450710,1532.190996
1024.300532,-518.144159,-10140.821405,1378.971896
1024.300856,1628.453072,-10436.903782,842.705048
1024.301180,3034.844362,-9992.780217,1225.752797
1024.301504,3552.988522,-9696.697840,1455.581446
1024.301828,2960.823768,-10288.862594,306.438199
1024.302152,1702.473667,-9992.780217,-153.219100
1024.302476,-814.226536,-9696.697840,612.876398
1024.302800,-1332.370696,-9400.615463,-1532.190996
1024.303124,-444.123565,-8364.327145,-1915.238745
1024.303448,74.020594,-8956.491898,0.000000
1024.303773,1036.288319,-9770.718434,383.047749
1024.304097,2294.638420,-9326.594869,0.000000
1024.304421,1850.514855,-8364.327145,689.485948
1024.304745,148.041188,-8364.327145,383.047749
1024.305069,-1406.391290,-10362.883188,306.438199
1024.305393,-1924.535449,-10584.944971,0.000000
1024.305717,-1406.391290,-8882.471304,-229.828649
1024.306041,-1332.370696,-8364.327145,-536.266849
1024.306365,-740.205942,-10066.800811,-1225.752797
1024.306689,296.082377,-10362.883188,-766.095498
1024.307013,1406.391290,-9696.697840,-383.047749
1024.307337,1998.556043,-9844.739029,-229.828649
1024.307661,740.205942,-9770.718434,-689.485948
1024.307985,-370.102971,-10214.842000,-919.314598
1024.308309,444.123565,-10362.883188,-689.485948
1024.308633,2442.679609,-10510.924376,-689.485948
1024.308957,2812.782580,-11251.130318,766.095498
1024.309281,2146.597232,-11473.192101,-153.219100
1024.309605,1036.288319,-10214.842000,76.609550
1024.309929,814.226536,-9030.512492,306.438199
1024.310253,1406.391290,-9918.759623,-229.828649
1024.310577,222.061783,-10807.006753,-919.314598
1024.310901,-1480.411884,-10140.821405,-766.095498
1024.311226,-1628.453072,-9696.697840,-612.876398
1024.311550,-962.267725,-9844.739029,-919.314598
1024.311874,-962.267725,-9178.553681,-306.438199
1024.312198,-1332.370696,-8734.430116,-766.095498
1024.312522,-1406.391290,-8734.430116,-1378.971896
1024.312846,-1480.411884,-8734.430116,-1225.752797
1024.313170,-1406.391290,-9252.574275,-306.438199
1024.313494,-1776.494261,-9918.759623,306.438199
1024.313818,-1850.514855,-10140.821405,-766.095498
1024.314142,-1924.535449,-9178.553681,-536.266849
1024.314466,-1776.494261,-8512.368333,-306.438199
1024.314790,-1258.350101,-9770.718434,383.047749
1024.315114,-1776.494261,-11029.068536,306.438199
1024.315438,-1184.329507,-9992.780217,1072.533697
1024.315762,74.020594,-9178.553681,1378.971896
1024.316086,370.102971,-8882.471304,0.000000
1024.316410,-962.267725,-9696.697840,-383.047749
1024.316734,-1702.473667,-9474.636058,-306.438199
1024.317058,-592.164754,-9770.718434,-459.657299
1024.317382,518.144159,-9474.636058,-153.219100
1024.317706,1702.473667,-9474.636058,995.924147
1024.318030,1776.494261,-8660.409521,229.828649
1024.318354,1628.453072,-8216.285956,0.000000
1024.318678,666.185348,-9622.677246,76.609550
1024.319003,814.226536,-9622.677246,536.266849
1024.319327,1036.288319,-9770.718434,919.314598
1024.319651,1332.370696,-10214.842000,1302.362347
1024.319975,1332.370696,-9252.574275,766.095498
1024.320299,1554.432478,-8586.388927,689.485948
1024.320623,1036.288319,-9770.718434,0.000000
1024.320947,296.082377,-10066.800811,-842.705048
1024.321271,-1036.288319,-9178.553681,-766.095498
1024.321595,0.000000,-9474.636058,-383.047749
1024.321919,0.000000,-10066.800811,-153.219100
1024.322243,0.000000,-11029.068536,-153.219100
1024.322567,0.000000,-10288.862594,-689.485948
1024.322891,592.164754,-9844.739029,-1608.800546
1024.323215,1406.391290,-9474.636058,-1532.190996
1024.323539,1332.370696,-10140.821405,-306.438199
1024.323863,666.185348,-10510.924376,153.219100
1024.324187,962.267725,-10510.924376,842.705048
1024.324511,888.247130,-11547.212695,689.485948
1024.324835,888.247130,-10807.006753,536.266849
1024.325159,592.164754,-9252.574275,-766.095498
1024.325483,0.000000,-8956.491898,-459.657299
1024.325807,-222.061783,-9474.636058,0.000000
1024.326131,1702.473667,-9918.759623,536.266849
1024.326455,814.226536,-9548.656652,689.485948
1024.326780,-1258.350101,-8882.471304,1149.143247
1024.327104,-2442.679609,-8808.450710,-536.266849
1024.327428,-1850.514855,-7994.224174,-919.314598
1024.327752,-962.267725,-8216.285956,-383.047749
1024.328076,-740.205942,-9474.636058,0.000000
1024.328400,-666.185348,-9030.512492,459.657299
1024.328724,-1480.411884,-8586.388927,0.000000
1024.329048,-1776.494261,-8808.450710,689.485948
1024.329372,-2146.597232,-8734.430116,0.000000
1024.329696,-1406.391290,-9918.759623,459.657299
1024.330020,-518.144159,-9918.759623,1532.190996
1024.330344,444.123565,-9622.677246,1302.362347
1024.330668,444.123565,-9030.512492,1149.143247
1024.330992,-370.102971,-8512.368333,766.095498
1024.331316,-1776.494261,-9770.718434,0.000000
1024.331640,-962.267725,-9770.718434,-612.876398
1024.331964,-518.144159,-8438.347739,0.000000
1024.332288,-148.041188,-9252.574275,383.047749
1024.332612,0.000000,-10732.986159,306.438199
1024.332936,592.164754,-10584.944971,306.438199
1024.333260,1184.329507,-9622.677246,229.828649
1024.333584,592.164754,-9622.677246,-766.095498
1024.333908,518.144159,-9844.739029,-383.047749
1024.334233,1480.411884,-10140.821405,306.438199
1024.334557,1628.453072,-9770.718434,1072.533697
1024.334881,1406.391290,-9992.780217,229.828649
1024.335205,666.185348,-10214.842000,0.000000
1024.335529,0.000000,-10658.965565,-153.219100
1024.335853,148.041188,-10658.965565,536.266849
1024.336177,-592.164754,-10066.800811,-229.828649
1024.336501,-1702.473667,-9474.636058,153.219100
1024.336825,-2146.597232,-9844.739029,-153.219100
1024.337149,-1628.453072,-10955.047942,-306.438199
1024.337473,-1184.329507,-10658.965565,-766.095498
1024.337797,-592.164754,-9622.677246,-1302.362347
1024.338121,-296.082377,-10140.821405,-1532.190996
1024.338445,-148.041188,-10140.821405,76.609550
1024.338769,444.123565,-10140.821405,-306.438199
1024.339093,0.000000,-9104.533087,-1072.533697
1024.339417,-1480.411884,-9548.656652,-1455.581446
1024.339741,-888.247130,-10955.047942,-1302.362347
1024.340065,962.267725,-11769.274478,0.000000
1024.340389,2442.679609,-9992.780217,76.609550
1024.340713,2738.761985,-9030.512492,153.219100
1024.341037,1332.370696,-8512.368333,383.047749
1024.341361,1184.329507,-8734.430116,-459.657299
1024.341684,592.164754,-9178.553681,-689.485948
1024.342008,296.082377,-8438.347739,-459.657299
1024.342332,-518.144159,-7994.224174,-842.705048
1024.342656,-1110.308913,-8216.285956,-689.485948
1024.342980,-962.267725,-9770.718434,-153.219100
1024.343304,-296.082377,-9622.677246,-229.828649
1024.343628,-148.041188,-8216.285956,-459.657299
1024.343952,-592.164754,-8660.409521,-1072.533697
1024.344276,-592.164754,-8956.491898,-383.047749
1024.344600,592.164754,-9918.759623,76.609550
1024.344924,814.226536,-9918.759623,1072.533697
1024.345248,296.082377,-9918.759623,306.438199
1024.345572,-888.247130,-8882.471304,-766.095498
1024.345896,-2072.576638,-9030.512492,-536.266849
1024.346220,-1110.308913,-10066.800811,-459.657299
1024.346544,-370.102971,-9474.636058,153.219100
1024.346868,148.041188,-9178.553681,0.000000
1024.347192,0.000000,-9770.718434,153.219100
1024.347516,0.000000,-10658.965565,0.000000
1024.347840,-222.061783,-9844.739029,-536.266849
1024.348164,-740.205942,-9178.553681,-153.219100
1024.348488,-1258.350101,-9548.656652,0.000000
1024.348812,-518.144159,-10288.862594,-383.047749
1024.349136,2072.576638,-9770.718434,612.876398
1024.349460,2590.720797,-9326.594869,1149.143247
1024.349784,1554.432478,-10658.965565,459.657299
1024.350108,370.102971,-11251.130318,383.047749
1024.350432,-962.267725,-10732.986159,306.438199
1024.350756,-1184.329507,-10214.842000,229.828649
1024.351080,-1776.494261,-10214.842000,-229.828649
1024.351404,-2664.741391,-10807.006753,-229.828649
1024.351728,-2886.803174,-11325.150913,383.047749
1024.352052,-1110.308913,-11177.109724,459.657299
1024.352376,0.000000,-10140.821405,0.000000
1024.352700,-222.061783,-8586.388927,383.047749
1024.353024,-148.041188,-9622.677246,229.828649
1024.353348,-888.247130,-10214.842000,-612.876398
1024.353672,-1258.350101,-9030.512492,-612.876398
1024.353996,-1332.370696,-8734.430116,-306.438199
1024.354320,-592.164754,-9770.718434,612.876398
1024.354644,740.205942,-9844.739029,-229.828649
1024.354968,1628.453072,-7920.203579,383.047749
1024.355292,1554.432478,-7994.224174,306.438199
1024.355616,1554.432478,-8364.327145,-153.219100
1024.355940,1628.453072,-9104.533087,1149.143247
1024.356264,2368.659014,-9400.615463,1838.629195
1024.356588,2738.761985,-9844.739029,1685.410096
1024.356912,1702.473667,-9696.697840,919.314598
1024.357236,-370.102971,-8956.491898,306.438199
1024.357560,-222.061783,-9326.594869,0.000000
1024.357883,148.041188,-9474.636058,0.000000
1024.358207,0.000000,-9844.739029,76.609550
1024.358531,-518.144159,-9400.615463,689.485948
1024.358855,444.123565,-9400.615463,383.047749
1024.359179,814.226536,-9992.780217,612.876398
1024.359503,740.205942,-9326.594869,-766.095498
1024.359827,-518.144159,-8438.347739,-306.438199
1024.360151,-1998.556043,-10288.862594,-306.438199
1024.360475,-2368.659014,-10732.986159,-536.266849
1024.360799,-1258.350101,-9326.594869,0.000000
1024.361123,-592.164754,-9326.594869,153.219100
1024.361447,666.185348,-10584.944971,459.657299
1024.361771,1480.411884,-10658.965565,383.047749
1024.362095,1702.473667,-9844.739029,0.000000
1024.362419,1258.350101,-9104.533087,-306.438199
1024.362743,518.144159,-9918.759623,-766.095498
1024.363067,-370.102971,-9992.780217,-459.657299
1024.363391,-296.082377,-9622.677246,-689.485948
1024.363715,370.102971,-9326.594869,0.000000
1024.364039,1406.391290,-9696.697840,-306.438199
1024.364363,1406.391290,-9918.759623,0.000000
1024.364687,666.185348,-10066.800811,459.657299
1024.365011,592.164754,-9918.759623,766.095498
1024.365335,0.000000,-10214.842000,229.828649
1024.365659,-1554.432478,-9918.759623,459.657299
1024.365983,-1850.514855,-10362.883188,919.314598
1024.366307,-666.185348,-10955.047942,919.314598
1024.366631,-592.164754,-10066.800811,0.000000
1024.366955,-1850.514855,-9030.512492,-459.657299
1024.367279,-2220.617826,-9844.739029,76.609550
1024.367603,-1110.308913,-11177.109724,153.219100
1024.367927,0.000000,-10288.862594,0.000000
1024.368251,-148.041188,-8438.347739,-459.657299
1024.368575,-814.226536,-7920.203579,-1225.752797
1024.368899,-592.164754,-8808.450710,-1991.848295
1024.369223,-370.102971,-9400.615463,-1762.019645
