#time,accel_x,accel_y,accel_z
567.045772,0.000000,-9696.697840,0.000000
567.046096,0.000000,-9474.636058,0.000000
567.046420,74.020594,-9474.636058,0.000000
567.046744,0.000000,-9474.636058,76.609550
567.047068,74.020594,-9474.636058,-229.828649
567.047392,148.041188,-9548.656652,0.000000
567.047716,222.061783,-9474.636058,0.000000
567.048040,222.061783,-9622.677246,-153.219100
567.048364,0.000000,-9696.697840,0.000000
567.048688,-222.061783,-9622.677246,-153.219100
567.049013,-74.020594,-9696.697840,0.000000
567.049337,0.000000,-9548.656652,0.000000
567.049661,222.061783,-10140.821405,-76.609550
567.049985,0.000000,-9400.615463,0.000000
567.050309,0.000000,-9548.656652,229.828649
567.050633,0.000000,-9696.697840,0.000000
567.050957,74.020594,-9844.739029,76.609550
567.051281,-222.061783,-9992.780217,0.000000
567.051605,-222.061783,-9400.615463,-459.657299
567.051929,0.000000,-9696.697840,153.219100
567.052254,-592.164754,-9104.533087,0.000000
567.052578,0.000000,-9696.697840,0.000000
567.052902,0.000000,-9548.656652,0.000000
567.053226,666.185348,-9770.718434,76.609550
567.053550,740.205942,-10066.800811,0.000000
567.053874,0.000000,-10214.842000,0.000000
567.054198,-444.123565,-9918.759623,76.609550
567.054522,-1406.391290,-9844.739029,-306.438199
567.054846,-1184.329507,-9400.615463,0.000000
567.055171,-666.185348,-9400.615463,689.485948
567.055495,222.061783,-9770.718434,689.485948
567.055819,518.144159,-9400.615463,383.047749
567.056143,888.247130,-9326.594869,459.657299
567.056467,1036.288319,-9474.636058,919.314598
567.056791,814.226536,-9474.636058,306.438199
567.057115,962.267725,-9770.718434,229.828649
567.057439,0.000000,-9844.739029,-306.438199
567.057763,-740.205942,-10288.862594,-306.438199
567.058087,-888.247130,-10288.862594,0.000000
567.058412,-592.164754,-10140.821405,383.047749
567.058736,592.164754,-9844.739029,1302.362347
567.059060,1850.514855,-9326.594869,2068.457845
567.059384,2812.782580,-9548.656652,2451.505594
567.059708,3108.864956,-9696.697840,2298.286494
567.060032,2294.638420,-9400.615463,1455.581446
567.060356,2220.617826,-9474.636058,842.705048
567.060680,1480.411884,-9178.553681,229.828649
567.061004,666.185348,-9548.656652,0.000000
567.061328,0.000000,-9548.656652,229.828649
567.061653,0.000000,-9844.739029,-153.219100
567.061977,148.041188,-9548.656652,76.609550
567.062301,1110.308913,-9400.615463,995.924147
567.062625,2664.741391,-9474.636058,1608.800546
567.062949,4145.153275,-9326.594869,2374.896044
567.063273,4959.379811,-9622.677246,2757.943793
567.063597,5033.400406,-9992.780217,2911.162892
567.063921,5033.400406,-10214.842000,2451.505594
567.064245,3923.091493,-10140.821405,2068.457845
567.064570,3182.885551,-10436.903782,1302.362347
567.064894,2072.576638,-10362.883188,1302.362347
567.065218,962.267725,-10658.965565,459.657299
567.065542,592.164754,-10288.862594,536.266849
567.065866,1110.308913,-9622.677246,1608.800546
567.066190,2812.782580,-9474.636058,2604.724693
567.066514,4367.215058,-9104.533087,2911.162892
567.066838,4737.318029,-9252.574275,3753.867940
567.067162,4811.338623,-9770.718434,4519.963438
567.067486,4589.276840,-10584.944971,4443.353888
567.067811,3034.844362,-10214.842000,4519.963438
567.068135,1184.329507,-9622.677246,3983.696590
567.068459,-148.041188,-9400.615463,2604.724693
567.068783,-1480.411884,-8808.450710,2221.676944
567.069107,-1776.494261,-8438.347739,1915.238745
567.069431,-1480.411884,-7550.100608,1685.410096
567.069755,-592.164754,-6587.832884,2145.067394
567.070079,74.020594,-6439.791695,1915.238745
567.070403,1480.411884,-5773.606348,2145.067394
567.070727,2812.782580,-7105.977043,3217.601092
567.071052,3775.050304,-8142.265362,3677.258390
567.071376,4589.276840,-9548.656652,4443.353888
567.071700,4811.338623,-10214.842000,4749.792088
567.072024,4367.215058,-11621.233289,4596.572988
567.072348,2368.659014,-12509.480420,4519.963438
567.072672,0.000000,-12657.521608,3294.210641
567.072996,-2072.576638,-12139.377449,1762.019645
567.073320,-3034.844362,-11547.212695,1072.533697
567.073644,-2368.659014,-9992.780217,689.485948
567.073969,-518.144159,-8734.430116,612.876398
567.074293,1628.453072,-7402.059420,689.485948
567.074617,3182.885551,-6809.894666,919.314598
567.074941,4367.215058,-7328.038826,919.314598
567.075265,5255.462188,-8512.368333,1762.019645
567.075589,5255.462188,-10436.903782,2681.334243
567.075913,3627.009116,-11621.233289,2911.162892
567.076237,1554.432478,-12139.377449,2374.896044
567.076561,0.000000,-11991.336260,1915.238745
567.076885,0.000000,-12065.356855,1991.848295
567.077210,-148.041188,-11177.109724,995.924147
567.077534,1332.370696,-10584.944971,1455.581446
567.077858,2368.659014,-9548.656652,153.219100
567.078182,2960.823768,-8438.347739,153.219100
567.078506,2812.782580,-8142.265362,0.000000
567.078830,2368.659014,-8068.244768,-459.657299
567.079154,1776.494261,-8364.327145,-383.047749
567.079478,2220.617826,-8512.368333,0.000000
567.079802,3478.967927,-9104.533087,766.095498
567.080126,5403.503377,-10140.821405,1991.848295
567.080451,6661.853478,-12361.439231,2757.943793
567.080775,5551.544565,-13175.665768,2221.676944
567.081099,3404.947333,-12805.562797,1685.410096
567.081423,666.185348,-11769.274478,1378.971896
567.081747,-888.247130,-11177.109724,1072.533697
567.082071,-962.267725,-9844.739029,1302.362347
567.082395,592.164754,-8364.327145,1302.362347
567.082719,1480.411884,-7328.038826,995.924147
567.083043,2294.638420,-7105.977043,842.705048
567.083367,1850.514855,-6365.771101,229.828649
567.083692,1258.350101,-5403.503377,229.828649
567.084016,1776.494261,-5847.626942,459.657299
567.084340,2886.803174,-6809.894666,842.705048
567.084664,3404.947333,-8438.347739,2298.286494
567.084988,3552.988522,-10807.006753,2451.505594
567.085312,2220.617826,-10881.027347,2145.067394
567.085636,740.205942,-10362.883188,1762.019645
567.085960,222.061783,-10066.800811,1915.238745
567.086284,666.185348,-10807.006753,2068.457845
567.086609,1110.308913,-11547.212695,2681.334243
567.086933,592.164754,-10955.047942,2604.724693
567.087257,-296.082377,-9770.718434,1072.533697
567.087581,518.144159,-9178.553681,689.485948
567.087905,1924.535449,-8364.327145,1149.143247
567.088229,2960.823768,-8956.491898,1302.362347
567.088553,2664.741391,-10436.903782,1762.019645
567.088877,1184.329507,-11251.130318,1225.752797
567.089201,-666.185348,-10214.842000,919.314598
567.089525,-592.164754,-10066.800811,1225.752797
567.089850,1406.391290,-10584.944971,2298.286494
567.090174,3701.029710,-11991.336260,3140.991542
567.090498,4219.173869,-11843.295072,3217.601092
567.090822,3552.988522,-9918.759623,3447.429741
567.091146,3404.947333,-9696.697840,3677.258390
567.091470,3404.947333,-10436.903782,3907.087040
567.091794,3108.864956,-11177.109724,3677.258390
567.092118,1924.535449,-9252.574275,2757.943793
567.092442,962.267725,-7772.162391,1838.629195
567.092766,1924.535449,-8364.327145,1149.143247
567.093091,3330.926739,-9326.594869,1455.581446
567.093415,3775.050304,-9474.636058,1532.190996
567.093739,3330.926739,-8512.368333,2145.067394
567.094063,3552.988522,-7994.224174,2298.286494
567.094387,3256.906145,-9252.574275,3217.601092
567.094711,3182.885551,-10510.924376,2451.505594
567.095035,2516.700203,-10140.821405,2757.943793
567.095359,2146.597232,-9474.636058,3370.820191
567.095683,2442.679609,-10066.800811,3677.258390
567.096008,2812.782580,-10658.965565,3677.258390
567.096332,3330.926739,-9992.780217,4290.134789
567.096656,3330.926739,-9400.615463,3524.039291
567.096980,2664.741391,-9474.636058,2987.772442
567.097304,370.102971,-8808.450710,1685.410096
567.097628,-1184.329507,-8364.327145,689.485948
567.097952,-1110.308913,-7550.100608,612.876398
567.098276,1036.288319,-7624.121203,689.485948
567.098600,3330.926739,-8068.244768,1608.800546
567.098924,3849.070898,-8586.388927,1915.238745
567.099249,4071.132681,-8956.491898,2604.724693
567.099573,4589.276840,-8734.430116,2987.772442
567.099897,4367.215058,-9400.615463,2987.772442
567.100221,2590.720797,-10584.944971,3524.039291
567.100545,1776.494261,-11991.336260,4213.525239
567.100869,2368.659014,-11251.130318,4290.134789
567.101193,2516.700203,-10436.903782,4060.306139
567.101517,1258.350101,-10807.006753,3140.991542
567.101841,0.000000,-10881.027347,1762.019645
567.102165,-1184.329507,-9474.636058,153.219100
567.102490,-1776.494261,-8068.244768,-459.657299
567.102814,-1850.514855,-7772.162391,-842.705048
567.103138,-1036.288319,-8808.450710,-229.828649
567.103462,1628.453072,-8956.491898,76.609550
567.103786,3478.967927,-9548.656652,1762.019645
567.104110,4367.215058,-9622.677246,1838.629195
567.104434,4737.318029,-10362.883188,2451.505594
567.104758,3256.906145,-11103.089130,2451.505594
567.105082,2812.782580,-9992.780217,2911.162892
567.105407,2664.741391,-9104.533087,2528.115143
567.105731,1406.391290,-11621.233289,2145.067394
567.106055,-518.144159,-13027.624579,1455.581446
567.106379,-1332.370696,-10288.862594,153.219100
567.106703,-2072.576638,-7920.203579,-842.705048
567.107027,-2886.803174,-8734.430116,-1838.629195
567.107351,-3034.844362,-8512.368333,-2145.067394
567.107675,-370.102971,-7105.977043,-1532.190996
567.108000,2072.576638,-7846.182985,-153.219100
567.108324,3701.029710,-9548.656652,0.000000
567.108648,4441.235652,-9326.594869,0.000000
567.108972,4071.132681,-8882.471304,306.438199
567.109296,3627.009116,-10066.800811,1072.533697
567.109620,3627.009116,-10288.862594,459.657299
567.109944,2368.659014,-10584.944971,1149.143247
567.110269,-296.082377,-12287.418637,766.095498
567.110593,-1702.473667,-12879.583391,842.705048
567.110917,-1776.494261,-10955.047942,0.000000
567.111241,-2442.679609,-9992.780217,0.000000
567.111565,-3404.947333,-10140.821405,-1225.752797
567.111889,-2294.638420,-8734.430116,-2221.676944
567.112213,-296.082377,-7994.224174,-1762.019645
567.112538,888.247130,-8216.285956,-995.924147
567.112862,1554.432478,-9030.512492,-1149.143247
567.113186,1332.370696,-8586.388927,-1608.800546
567.113510,1554.432478,-7550.100608,-766.095498
567.113834,2590.720797,-8216.285956,-459.657299
567.114158,2960.823768,-9844.739029,-306.438199
567.114482,2738.761985,-10584.944971,459.657299
567.114807,1480.411884,-9696.697840,995.924147
567.115131,370.102971,-9992.780217,766.095498
567.115455,518.144159,-10140.821405,689.485948
567.115779,740.205942,-10881.027347,919.314598
567.116103,740.205942,-11695.253884,919.314598
567.116427,370.102971,-10658.965565,0.000000
567.116751,-814.226536,-8438.347739,-2451.505594
567.117076,-1332.370696,-7624.121203,-2987.772442
567.117400,-962.267725,-8290.306550,-2911.162892
567.117724,-962.267725,-9992.780217,-2834.553343
567.118048,-2220.617826,-10436.903782,-2528.115143
567.118372,-3330.926739,-10510.924376,-2374.896044
567.118696,-3404.947333,-11103.089130,-1149.143247
567.119020,-1480.411884,-10807.006753,0.000000
567.119345,444.123565,-10807.006753,229.828649
567.119669,1036.288319,-10732.986159,1455.581446
567.119993,740.205942,-10807.006753,2298.286494
567.120317,444.123565,-11843.295072,2681.334243
567.120641,74.020594,-11695.253884,2681.334243
567.120965,148.041188,-9474.636058,2374.896044
567.121289,592.164754,-6883.915261,0.000000
567.121614,592.164754,-6587.832884,-842.705048
567.121938,444.123565,-8216.285956,-766.095498
567.122262,-296.082377,-8586.388927,-1532.190996
567.122586,-2516.700203,-8586.388927,-1838.629195
567.122910,-3701.029710,-7920.203579,-1072.533697
567.123234,-2072.576638,-7476.080014,-229.828649
567.123558,222.061783,-9474.636058,1532.190996
567.123883,1702.473667,-10140.821405,995.924147
567.124207,1406.391290,-9548.656652,2451.505594
567.124531,666.185348,-8882.471304,3140.991542
567.124855,1184.329507,-9696.697840,2681.334243
567.125179,1924.535449,-9992.780217,3140.991542
567.125503,1776.494261,-9992.780217,2451.505594
567.125827,370.102971,-9918.759623,995.924147
567.126152,-1184.329507,-9918.759623,-842.705048
567.126476,-2146.597232,-10362.883188,-1532.190996
567.126800,-1776.494261,-10288.862594,-1685.410096
567.127124,-1110.308913,-9844.739029,-1302.362347
567.127448,-592.164754,-10732.986159,-766.095498
567.127772,0.000000,-11103.089130,-689.485948
567.128096,592.164754,-10807.006753,-1149.143247
567.128421,666.185348,-9770.718434,0.000000
567.128745,1258.350101,-8586.388927,0.000000
567.129069,2368.659014,-9918.759623,1149.143247
567.129393,2294.638420,-9844.739029,2451.505594
567.129717,1998.556043,-10140.821405,2145.067394
567.130041,296.082377,-9918.759623,1225.752797
567.130365,-962.267725,-8956.491898,76.609550
567.130689,-1628.453072,-7772.162391,-612.876398
567.131014,-1776.494261,-8290.306550,-919.314598
567.131338,-2220.617826,-8438.347739,-1225.752797
567.131662,-1480.411884,-8586.388927,-1608.800546
567.131986,-592.164754,-9326.594869,-1378.971896
567.132310,0.000000,-9104.533087,-1608.800546
567.132634,666.185348,-7994.224174,-2221.676944
567.132958,1554.432478,-7846.182985,-1149.143247
567.133283,2516.700203,-9770.718434,229.828649
567.133607,2812.782580,-11621.233289,0.000000
567.133931,1776.494261,-11399.171507,-766.095498
567.134255,592.164754,-10732.986159,1455.581446
567.134579,814.226536,-10732.986159,459.657299
567.134903,1702.473667,-10955.047942,306.438199
567.135227,962.267725,-10288.862594,766.095498
567.135552,-296.082377,-10362.883188,153.219100
567.135876,-444.123565,-11177.109724,-995.924147
567.136200,-518.144159,-9622.677246,-919.314598
567.136524,-370.102971,-8068.244768,-842.705048
567.136848,222.061783,-8512.368333,-1685.410096
567.137172,0.000000,-9030.512492,-2145.067394
567.137496,-740.205942,-10288.862594,-1302.362347
567.137821,-1406.391290,-11325.150913,-1762.019645
567.138145,-1998.556043,-11177.109724,-1378.971896
567.138469,-1554.432478,-10436.903782,-383.047749
567.138793,-370.102971,-10881.027347,536.266849
567.139117,0.000000,-11473.192101,842.705048
567.139441,0.000000,-11029.068536,383.047749
567.139765,-740.205942,-10214.842000,0.000000
567.140090,-814.226536,-9400.615463,229.828649
567.140414,-148.041188,-9030.512492,76.609550
567.140738,148.041188,-9252.574275,766.095498
567.141062,222.061783,-9178.553681,1072.533697
567.141386,-296.082377,-9030.512492,0.000000
567.141710,-1628.453072,-9104.533087,-689.485948
567.142034,-2220.617826,-9030.512492,-1225.752797
567.142359,-1702.473667,-9104.533087,-536.266849
567.142683,-1110.308913,-9844.739029,-229.828649
567.143007,-1480.411884,-9918.759623,-383.047749
567.143331,-2368.659014,-9104.533087,-536.266849
567.143655,-2294.638420,-8956.491898,-459.657299
567.143979,-1110.308913,-8142.265362,-459.657299
567.144303,518.144159,-8068.244768,76.609550
567.144628,1850.514855,-8660.409521,689.485948
567.144952,2590.720797,-9474.636058,1072.533697
567.145276,1924.535449,-9400.615463,383.047749
567.145600,666.185348,-9252.574275,153.219100
567.145924,666.185348,-9178.553681,0.000000
567.146248,666.185348,-9326.594869,76.609550
567.146572,518.144159,-10658.965565,306.438199
567.146897,740.205942,-11029.068536,76.609550
567.147221,148.041188,-11103.089130,0.000000
567.147545,-888.247130,-10510.924376,-536.266849
567.147869,-1110.308913,-9104.533087,-995.924147
567.148193,-370.102971,-9178.553681,-842.705048
567.148517,-296.082377,-9770.718434,76.609550
567.148841,962.267725,-10436.903782,0.000000
567.149166,370.102971,-9992.780217,0.000000
567.149490,0.000000,-9400.615463,536.266849
567.149814,444.123565,-9252.574275,-153.219100
567.150138,888.247130,-9030.512492,-536.266849
567.150462,1110.308913,-9992.780217,-306.438199
567.150786,1110.308913,-10066.800811,-919.314598
567.151110,740.205942,-10362.883188,-919.314598
567.151434,370.102971,-9770.718434,-536.266849
567.151759,1406.391290,-9030.512492,-766.095498
567.152083,1998.556043,-9400.615463,0.000000
567.152407,1776.494261,-10436.903782,0.000000
567.152731,1036.288319,-10140.821405,-153.219100
567.153055,592.164754,-10881.027347,459.657299
567.153379,518.144159,-11621.233289,689.485948
567.153703,370.102971,-9992.780217,1072.533697
567.154028,0.000000,-9400.615463,459.657299
567.154352,-296.082377,-10214.842000,1149.143247
567.154676,-296.082377,-11473.192101,0.000000
567.155000,-740.205942,-11029.068536,306.438199
567.155324,-740.205942,-9178.553681,229.828649
567.155648,-1332.370696,-7772.162391,-766.095498
567.155972,-1036.288319,-8512.368333,-229.828649
567.156297,-370.102971,-9770.718434,612.876398
567.156621,518.144159,-10066.800811,76.609550
567.156945,74.020594,-8956.491898,689.485948
567.157269,-444.123565,-8512.368333,842.705048
567.157593,-444.123565,-7920.203579,536.266849
567.157917,74.020594,-8660.409521,842.705048
567.158241,0.000000,-9622.677246,1302.362347
567.158566,-814.226536,-9770.718434,1149.143247
567.158890,-1998.556043,-8882.471304,766.095498
567.159214,-2220.617826,-8142.265362,842.705048
567.159538,-1628.453072,-7550.100608,153.219100
567.159862,-1332.370696,-8142.265362,0.000000
567.160186,-1332.370696,-9326.594869,-306.438199
567.160510,-1184.329507,-9474.636058,-1302.362347
567.160835,-962.267725,-8882.471304,-1072.533697
567.161159,-148.041188,-8364.327145,0.000000
567.161483,888.247130,-9622.677246,383.047749
567.161807,666.185348,-11325.150913,153.219100
567.162131,74.020594,-11473.192101,-383.047749
567.162455,-814.226536,-11621.233289,-689.485948
567.162779,-740.205942,-11843.295072,-842.705048
567.163104,222.061783,-11917.315666,-612.876398
567.163428,1184.329507,-11103.089130,-383.047749
567.163752,1850.514855,-10881.027347,229.828649
567.164076,1184.329507,-11251.130318,-306.438199
567.164400,0.000000,-10732.986159,-2068.457845
567.164724,-370.102971,-10288.862594,-1762.019645
567.165048,592.164754,-10066.800811,-1455.581446
567.165373,1776.494261,-10436.903782,-1532.190996
567.165697,1184.329507,-10140.821405,-995.924147
567.166021,1110.308913,-10066.800811,-842.705048
567.166345,148.041188,-10510.924376,-842.705048
567.166669,0.000000,-10881.027347,-1378.971896
567.166993,222.061783,-9548.656652,-383.047749
567.167317,0.000000,-8586.388927,-229.828649
567.167642,-222.061783,-9326.594869,306.438199
567.167966,-518.144159,-9696.697840,76.609550
567.168290,-1036.288319,-8808.450710,-536.266849
567.168614,-1776.494261,-8956.491898,-536.266849
567.168938,-1258.350101,-8216.285956,-383.047749
567.169262,-740.205942,-7772.162391,-153.219100
567.169586,74.020594,-8586.388927,306.438199
567.169911,666.185348,-9104.533087,0.000000
567.170235,518.144159,-9252.574275,0.000000
567.170559,518.144159,-9326.594869,153.219100
567.170883,1554.432478,-8808.450710,536.266849
567.171207,1628.453072,-9252.574275,1225.752797
567.171531,1924.535449,-9844.739029,1378.971896
567.171855,1628.453072,-9474.636058,919.314598
567.172180,740.205942,-9252.574275,153.219100
567.172504,666.185348,-9178.553681,689.485948
567.172828,962.267725,-8660.409521,689.485948
567.173152,1850.514855,-8734.430116,1532.190996
567.173476,444.123565,-7994.224174,383.047749
567.173800,-592.164754,-8364.327145,-459.657299
567.174124,-1406.391290,-8956.491898,-306.438199
567.174448,-1406.391290,-9178.553681,0.000000
567.174773,-888.247130,-9030.512492,306.438199
567.175097,-740.205942,-9400.615463,536.266849
567.175421,-592.164754,-9992.780217,229.828649
567.175745,-592.164754,-11103.089130,459.657299
567.176069,-962.267725,-11473.192101,0.000000
567.176393,-740.205942,-10510.924376,229.828649
567.176717,-370.102971,-9622.677246,536.266849
567.177042,518.144159,-10436.903782,766.095498
567.177366,1406.391290,-11473.192101,995.924147
567.177690,1924.535449,-11695.253884,612.876398
567.178014,1184.329507,-10807.006753,383.047749
567.178338,-296.082377,-10140.821405,-459.657299
567.178662,-2368.659014,-9474.636058,-612.876398
567.178986,-1702.473667,-10362.883188,229.828649
567.179311,-1036.288319,-10807.006753,-153.219100
567.179635,-1406.391290,-10510.924376,0.000000
567.179959,-2294.638420,-10140.821405,0.000000
567.180283,-1554.432478,-9696.697840,0.000000
567.180607,-518.144159,-8808.450710,-76.609550
567.180931,-370.102971,-8142.265362,229.828649
567.181255,-370.102971,-8512.368333,229.828649
567.181580,0.000000,-9992.780217,76.609550
567.181904,-740.205942,-9918.759623,689.485948
567.182228,0.000000,-8956.491898,766.095498
567.182552,1406.391290,-8882.471304,689.485948
567.182876,888.247130,-9326.594869,459.657299
567.183200,592.164754,-9696.697840,0.000000
567.183524,74.020594,-9696.697840,-383.047749
567.183849,-222.061783,-9844.739029,0.000000
567.184173,0.000000,-9104.533087,-153.219100
567.184497,666.185348,-7772.162391,-536.266849
567.184821,592.164754,-8216.285956,-536.266849
567.185145,740.205942,-8734.430116,-766.095498
567.185469,1036.288319,-9030.512492,-459.657299
567.185793,518.144159,-9474.636058,306.438199
567.186118,296.082377,-9030.512492,-383.047749
567.186442,-592.164754,-8808.450710,0.000000
567.186766,-814.226536,-9252.574275,-306.438199
567.187090,-592.164754,-10066.800811,-842.705048
567.187414,-1184.329507,-10807.006753,-766.095498
567.187738,-1184.329507,-10362.883188,-536.266849
567.188062,296.082377,-9326.594869,-842.705048
567.188387,1332.370696,-8586.388927,-842.705048
567.188711,1332.370696,-9400.615463,-766.095498
567.189035,1036.288319,-10066.800811,-1302.362347
567.189359,0.000000,-10362.883188,-1608.800546
567.189683,0.000000,-9844.739029,-995.924147
567.190007,1184.329507,-9992.780217,-612.876398
567.190331,2146.597232,-11029.068536,-153.219100
567.190656,1628.453072,-11325.150913,-766.095498
567.190980,148.041188,-11029.068536,-689.485948
567.191304,-1258.350101,-10732.986159,-919.314598
567.191628,-1110.308913,-10658.965565,-995.924147
567.191952,0.000000,-9696.697840,-919.314598
567.192276,592.164754,-9400.615463,0.000000
567.192600,1332.370696,-9770.718434,229.828649
567.192925,2146.597232,-10140.821405,-536.266849
567.193249,1110.308913,-9474.636058,0.000000
567.193573,-222.061783,-9474.636058,-536.266849
567.193897,222.061783,-9622.677246,-229.828649
567.194221,74.020594,-10436.903782,536.266849
567.194545,-518.144159,-11103.089130,306.438199
567.194869,-1406.391290,-10955.047942,76.609550
567.195194,-1924.535449,-10510.924376,0.000000
567.195518,-1184.329507,-9400.615463,306.438199
567.195842,-518.144159,-8882.471304,766.095498
567.196166,-444.123565,-9178.553681,919.314598
567.196490,-888.247130,-8660.409521,306.438199
567.196814,-2220.617826,-8438.347739,0.000000
567.197138,-2368.659014,-8882.471304,0.000000
567.197462,-1702.473667,-8808.450710,306.438199
567.197787,-666.185348,-9030.512492,1149.143247
567.198111,-222.061783,-9474.636058,842.705048
567.198435,0.000000,-8734.430116,459.657299
567.198759,-1110.308913,-8956.491898,1532.190996
567.199083,-2368.659014,-9696.697840,1149.143247
567.199407,-2072.576638,-9326.594869,0.000000
567.199731,-1036.288319,-8290.306550,229.828649
567.200056,0.000000,-8734.430116,1149.143247
567.200380,1184.329507,-9474.636058,842.705048
567.200704,1332.370696,-9252.574275,153.219100
567.201028,296.082377,-8364.327145,153.219100
567.201352,148.041188,-8438.347739,-383.047749
567.201676,1480.411884,-10288.862594,919.314598
567.202000,1702.473667,-11621.233289,612.876398
567.202325,1184.329507,-11029.068536,612.876398
567.202649,-370.102971,-10510.924376,0.000000
567.202973,-1258.350101,-11177.109724,-536.266849
567.203297,-888.247130,-10881.027347,-919.314598
567.203621,296.082377,-10510.924376,-1225.752797
567.203945,666.185348,-9918.759623,306.438199
567.204269,1184.329507,-10436.903782,-306.438199
567.204594,592.164754,-10584.944971,-612.876398
567.204918,148.041188,-9918.759623,-153.219100
567.205242,592.164754,-9696.697840,-612.876398
567.205566,1110.308913,-9696.697840,-459.657299
567.205890,1406.391290,-10362.883188,153.219100
567.206214,1776.494261,-10955.047942,306.438199
567.206539,1184.329507,-11399.171507,0.000000
567.206863,148.041188,-10362.883188,-306.438199
567.207187,-592.164754,-9104.533087,-536.266849
567.207512,-814.226536,-8882.471304,-306.438199
567.207836,-370.102971,-9770.718434,-383.047749
567.208160,740.205942,-8956.491898,-383.047749
567.208485,0.000000,-7920.203579,383.047749
567.208809,0.000000,-7105.977043,76.609550
567.209133,962.267725,-7031.956449,0.000000
567.209457,1628.453072,-7550.100608,153.219100
567.209782,962.267725,-8660.409521,536.266849
567.210106,740.205942,-9104.533087,536.266849
567.210430,148.041188,-9474.636058,383.047749
567.210755,-148.041188,-9770.718434,612.876398
567.211079,518.144159,-8512.368333,459.657299
567.211403,1258.350101,-9992.780217,1072.533697
567.211727,1332.370696,-11103.089130,766.095498
567.212052,1258.350101,-10584.944971,612.876398
567.212376,888.247130,-9992.780217,1302.362347
567.212700,148.041188,-9548.656652,459.657299
567.213025,-444.123565,-7994.224174,-1302.362347
567.213349,-1332.370696,-8290.306550,-1455.581446
567.213673,-1184.329507,-9474.636058,-995.924147
567.213998,-740.205942,-10658.965565,-842.705048
567.214322,-1850.514855,-11103.089130,0.000000
567.214646,-2368.659014,-9622.677246,459.657299
567.214970,-2146.597232,-9030.512492,0.000000
567.215295,-2590.720797,-10362.883188,-459.657299
567.215619,-2072.576638,-10584.944971,-229.828649
567.215943,-1554.432478,-9474.636058,-689.485948
567.216268,-592.164754,-10140.821405,0.000000
567.216592,370.102971,-10362.883188,919.314598
567.216916,1628.453072,-9252.574275,1225.752797
567.217240,814.226536,-9400.615463,842.705048
567.217565,-740.205942,-10658.965565,-536.266849
567.217889,-1110.308913,-11325.150913,-536.266849
567.218213,-1480.411884,-10732.986159,-306.438199
567.218538,-1702.473667,-10584.944971,-689.485948
567.218862,-1184.329507,-10140.821405,-689.485948
567.219186,-1110.308913,-10214.842000,-229.828649
567.219511,-962.267725,-10658.965565,-689.485948
567.219835,-962.267725,-10807.006753,-1072.533697
567.220159,-740.205942,-9474.636058,-689.485948
567.220483,592.164754,-8142.265362,0.000000
567.220808,1998.556043,-7994.224174,0.000000
567.221132,2146.597232,-9474.636058,689.485948
567.221456,2294.638420,-10140.821405,536.266849
567.221781,1480.411884,-10214.842000,153.219100
567.222105,148.041188,-9770.718434,229.828649
567.222429,666.185348,-9326.594869,229.828649
567.222753,1554.432478,-10140.821405,383.047749
567.223078,962.267725,-9622.677246,536.266849
567.223402,0.000000,-9696.697840,-229.828649
567.223726,-666.185348,-9696.697840,-612.876398
567.224051,-1110.308913,-9178.553681,-612.876398
567.224375,0.000000,-8142.265362,-383.047749
567.224699,666.185348,-8216.285956,-383.047749
567.225024,1332.370696,-8734.430116,229.828649
567.225348,1258.350101,-8586.388927,0.000000
567.225672,666.185348,-9474.636058,-229.828649
567.225996,-962.267725,-9252.574275,0.000000
567.226321,-296.082377,-8882.471304,-306.438199
567.226645,0.000000,-9474.636058,153.219100
567.226969,0.000000,-10214.842000,459.657299
567.227294,296.082377,-10140.821405,-612.876398
567.227618,444.123565,-9696.697840,0.000000
567.227942,740.205942,-9178.553681,919.314598
567.228266,1998.556043,-8734.430116,-383.047749
567.228591,1258.350101,-8660.409521,0.000000
567.228915,1406.391290,-9844.739029,306.438199
567.229239,1258.350101,-10955.047942,153.219100
567.229564,962.267725,-11473.192101,383.047749
567.229888,888.247130,-11103.089130,1378.971896
567.230212,740.205942,-10584.944971,919.314598
567.230537,74.020594,-11177.109724,612.876398
567.230861,-740.205942,-11251.130318,0.000000
567.231185,-1406.391290,-10658.965565,-459.657299
567.231509,-2072.576638,-10881.027347,-689.485948
567.231834,-1332.370696,-10510.924376,-766.095498
567.232158,-296.082377,-9030.512492,-612.876398
567.232482,666.185348,-8586.388927,153.219100
567.232807,1036.288319,-9548.656652,76.609550
567.233131,666.185348,-10436.903782,-383.047749
567.233455,-518.144159,-9992.780217,766.095498
567.233779,-888.247130,-9400.615463,689.485948
567.234104,-814.226536,-9030.512492,0.000000
567.234428,-1184.329507,-9178.553681,459.657299
567.234752,-1110.308913,-10288.862594,1455.581446
567.235077,-740.205942,-10140.821405,536.266849
567.235401,-1184.329507,-9252.574275,383.047749
567.235725,-1480.411884,-7698.141797,766.095498
567.236050,-1998.556043,-7179.997637,-306.438199
567.236374,-2072.576638,-8734.430116,0.000000
567.236698,-1480.411884,-9104.533087,229.828649
567.237022,-1332.370696,-8956.491898,76.609550
567.237347,-2220.617826,-8660.409521,76.609550
567.237671,-2368.659014,-7624.121203,0.000000
567.237995,-888.247130,-8364.327145,76.609550
567.238320,0.000000,-10362.883188,1685.410096
567.238644,518.144159,-10584.944971,919.314598
567.238968,0.000000,-10436.903782,153.219100
567.239292,-962.267725,-9474.636058,306.438199
567.239617,222.061783,-7994.224174,0.000000
567.239941,1554.432478,-9030.512492,536.266849
567.240265,1998.556043,-9918.759623,459.657299
567.240590,2516.700203,-9474.636058,-995.924147
567.240914,1406.391290,-8956.491898,-689.485948
567.241238,666.185348,-9474.636058,-919.314598
567.241563,1184.329507,-9696.697840,-689.485948
567.241887,1110.308913,-11029.068536,0.000000
567.242211,0.000000,-12139.377449,0.000000
567.242535,-666.185348,-11917.315666,-1685.410096
567.242860,-518.144159,-11029.068536,-1225.752797
567.243184,-444.123565,-10807.006753,-842.705048
567.243508,1332.370696,-11029.068536,-1532.190996
567.243833,1850.514855,-10732.986159,-842.705048
567.244157,1924.535449,-11399.171507,229.828649
567.244481,2368.659014,-11621.233289,-306.438199
567.244805,1036.288319,-11177.109724,-459.657299
567.245130,296.082377,-9770.718434,-306.438199
567.245454,370.102971,-9548.656652,-919.314598
567.245778,74.020594,-10584.944971,0.000000
567.246103,-222.061783,-10955.047942,459.657299
567.246427,-222.061783,-9474.636058,-459.657299
567.246751,-444.123565,-8142.265362,-1225.752797
567.247076,-444.123565,-7179.997637,-1072.533697
567.247400,74.020594,-7105.977043,-229.828649
567.247724,0.000000,-7476.080014,76.609550
567.248048,-814.226536,-7550.100608,76.609550
567.248373,-592.164754,-7550.100608,-536.266849
567.248697,0.000000,-7846.182985,-306.438199
567.249021,518.144159,-8364.327145,459.657299
567.249346,1406.391290,-8586.388927,153.219100
567.249670,1406.391290,-9104.533087,842.705048
567.249994,666.185348,-9622.677246,383.047749
567.250318,0.000000,-11103.089130,995.924147
567.250643,-888.247130,-11325.150913,0.000000
567.250967,-740.205942,-10066.800811,-306.438199
567.251291,-518.144159,-9844.739029,229.828649
567.251616,-444.123565,-11177.109724,766.095498
567.251940,0.000000,-11325.150913,383.047749
567.252264,-1258.350101,-10066.800811,76.609550
567.252589,-1702.473667,-9770.718434,-306.438199
567.252913,-666.185348,-9622.677246,-383.047749
567.253237,296.082377,-9918.759623,229.828649
567.253561,0.000000,-9992.780217,995.924147
567.253886,0.000000,-9770.718434,995.924147
567.254210,-666.185348,-9474.636058,229.828649
567.254534,-1184.329507,-8956.491898,689.485948
567.254859,-1998.556043,-8438.347739,536.266849
567.255183,-2220.617826,-8882.471304,536.266849
567.255507,-1924.535449,-9474.636058,383.047749
567.255832,-962.267725,-9252.574275,76.609550
567.256156,-666.185348,-9400.615463,306.438199
567.256480,-592.164754,-9326.594869,229.828649
567.256804,148.041188,-8734.430116,-383.047749
567.257129,370.102971,-9252.574275,0.000000
567.257453,296.082377,-10436.903782,1225.752797
567.257777,592.164754,-11917.315666,1685.410096
567.258102,-222.061783,-12213.398043,1072.533697
567.258426,-518.144159,-10658.965565,612.876398
567.258750,74.020594,-9474.636058,0.000000
567.259074,1110.308913,-10510.924376,1072.533697
567.259399,1406.391290,-11843.295072,1991.848295
567.259723,1850.514855,-10955.047942,842.705048
567.260047,1036.288319,-9844.739029,766.095498
567.260372,74.020594,-9252.574275,612.876398
567.260696,222.061783,-9030.512492,-306.438199
567.261020,-148.041188,-8808.450710,0.000000
567.261345,0.000000,-9104.533087,459.657299
567.261669,592.164754,-9030.512492,0.000000
567.261993,814.226536,-9474.636058,612.876398
567.262317,740.205942,-8438.347739,383.047749
567.262642,1184.329507,-7846.182985,0.000000
567.262966,1184.329507,-7994.224174,-229.828649
567.263290,740.205942,-9178.553681,76.609550
567.263615,296.082377,-9326.594869,0.000000
567.263939,-222.061783,-8808.450710,229.828649
567.264263,0.000000,-8068.244768,0.000000
567.264587,444.123565,-7994.224174,153.219100
567.264912,1184.329507,-9474.636058,-229.828649
567.265236,1036.288319,-10214.842000,-536.266849
567.265560,592.164754,-9696.697840,-842.705048
567.265885,-518.144159,-9918.759623,-229.828649
567.266209,-888.247130,-10066.800811,0.000000
567.266533,-888.247130,-10066.800811,-536.266849
567.266858,-962.267725,-10955.047942,-766.095498
567.267182,-666.185348,-10510.924376,-1149.143247
567.267506,-370.102971,-9844.739029,-1455.581446
567.267830,-444.123565,-10066.800811,-1302.362347
567.268155,-148.041188,-9770.718434,-1072.533697
567.268479,888.247130,-9252.574275,-1225.752797
567.268803,1258.350101,-9770.718434,-229.828649
567.269128,1332.370696,-10362.883188,76.609550
567.269452,1184.329507,-11251.130318,-612.876398
567.269776,0.000000,-10436.903782,-536.266849
567.270100,-666.185348,-8882.471304,-229.828649
567.270425,-222.061783,-9400.615463,-229.828649
567.270749,74.020594,-10584.944971,-153.219100
567.271073,-148.041188,-11029.068536,-383.047749
567.271398,-1036.288319,-10140.821405,-459.657299
567.271722,-1998.556043,-9548.656652,-842.705048
567.272046,-1332.370696,-9326.594869,-689.485948
567.272371,-592.164754,-9030.512492,-689.485948
567.272695,-1036.288319,-8956.491898,-536.266849
567.273019,-1332.370696,-8882.471304,-1072.533697
567.273343,-1332.370696,-9104.533087,-995.924147
567.273668,-1776.494261,-9326.594869,-229.828649
567.273992,-1480.411884,-9178.553681,0.000000
567.274316,-1628.453072,-8882.471304,0.000000
567.274641,-1628.453072,-9178.553681,536.266849
567.274965,-1036.288319,-10214.842000,0.000000
567.275289,-888.247130,-10214.842000,229.828649
567.275613,-1258.350101,-9326.594869,842.705048
567.275938,-962.267725,-8808.450710,76.609550
567.276262,-222.061783,-7772.162391,-306.438199
567.276586,0.000000,-9326.594869,689.485948
567.276911,518.144159,-10214.842000,689.485948
567.277235,1258.350101,-11029.068536,766.095498
567.277559,740.205942,-9474.636058,689.485948
567.277884,1110.308913,-9178.553681,612.876398
567.278208,1850.514855,-9770.718434,0.000000
567.278532,2442.679609,-10807.006753,612.876398
567.278856,1628.453072,-10288.862594,229.828649
567.279181,0.000000,-10436.903782,-383.047749
567.279505,-666.185348,-10214.842000,0.000000
567.279829,740.205942,-9252.574275,-229.828649
567.280154,1998.556043,-9474.636058,0.000000
567.280478,2294.638420,-10140.821405,1762.019645
567.280802,2590.720797,-10362.883188,766.095498
567.281126,1628.453072,-10658.965565,612.876398
567.281451,296.082377,-10288.862594,383.047749
567.281775,0.000000,-10140.821405,766.095498
567.282099,74.020594,-10732.986159,459.657299
567.282424,-444.123565,-10881.027347,0.000000
567.282748,-1110.308913,-10362.883188,-383.047749
567.283072,-2220.617826,-10214.842000,-459.657299
567.283397,-1628.453072,-9622.677246,-689.485948
567.283721,-222.061783,-8956.491898,-536.266849
567.284045,518.144159,-9326.594869,612.876398
567.284369,1036.288319,-9252.574275,306.438199
567.284694,888.247130,-8660.409521,0.000000
567.285018,0.000000,-8290.306550,76.609550
567.285342,0.000000,-8438.347739,0.000000
567.285667,814.226536,-8364.327145,0.000000
567.285991,740.205942,-9770.718434,1302.362347
567.286315,592.164754,-9844.739029,1149.143247
567.286639,444.123565,-8586.388927,-536.266849
567.286964,-1258.350101,-9030.512492,0.000000
567.287288,-1480.411884,-8956.491898,0.000000
567.287612,370.102971,-8808.450710,-612.876398
567.287937,962.267725,-9252.574275,-306.438199
567.288261,1184.329507,-9474.636058,-229.828649
567.288585,1702.473667,-9400.615463,-612.876398
567.288910,1406.391290,-9474.636058,-612.876398
567.289234,1184.329507,-9178.553681,-76.609550
567.289558,518.144159,-9252.574275,-229.828649
567.289882,-888.247130,-9992.780217,0.000000
567.290207,-1480.411884,-10807.006753,0.000000
567.290531,-2294.638420,-10955.047942,0.000000
567.290855,-2960.823768,-10362.883188,76.609550
567.291180,-2960.823768,-9474.636058,-229.828649
567.291504,-2368.659014,-9104.533087,-689.485948
567.291828,-2072.576638,-8882.471304,-459.657299
567.292152,-1776.494261,-9474.636058,-536.266849
567.292477,-1924.535449,-9474.636058,-842.705048
567.292801,-1850.514855,-9252.574275,-689.485948
567.293125,-1036.288319,-8882.471304,-689.485948
567.293450,-370.102971,-9474.636058,-536.266849
567.293774,148.041188,-10584.944971,536.266849
567.294098,1110.308913,-11251.130318,0.000000
567.294423,1554.432478,-11843.295072,689.485948
567.294747,1110.308913,-11103.089130,383.047749
567.295071,1110.308913,-10066.800811,-383.047749
567.295395,888.247130,-9770.718434,0.000000
567.295720,740.205942,-10288.862594,229.828649
567.296044,1406.391290,-10584.944971,0.000000
567.296368,962.267725,-10807.006753,536.266849
567.296693,666.185348,-10066.800811,0.000000
567.297017,814.226536,-9030.512492,-306.438199
567.297341,1554.432478,-9844.739029,536.266849
567.297665,1110.308913,-11325.150913,1149.143247
567.297990,370.102971,-11399.171507,-153.219100
567.298314,-1554.432478,-10510.924376,-229.828649
567.298638,-2664.741391,-9844.739029,383.047749
567.298963,-1702.473667,-9548.656652,0.000000
567.299287,-1036.288319,-9992.780217,-76.609550
567.299611,-1036.288319,-8734.430116,766.095498
567.299936,74.020594,-8216.285956,-229.828649
567.300260,592.164754,-8808.450710,-612.876398
567.300584,148.041188,-8290.306550,459.657299
567.300908,962.267725,-7402.059420,153.219100
567.301233,1258.350101,-7846.182985,536.266849
567.301557,962.267725,-9030.512492,919.314598
567.301881,962.267725,-9252.574275,612.876398
567.302206,962.267725,-9326.594869,842.705048
567.302530,296.082377,-9252.574275,766.095498
567.302854,592.164754,-8882.471304,383.047749
567.303178,518.144159,-8808.450710,383.047749
567.303503,518.144159,-8956.491898,153.219100
567.303827,74.020594,-8660.409521,-536.266849
567.304151,-740.205942,-9030.512492,-306.438199
567.304476,-592.164754,-8068.244768,-919.314598
567.304800,666.185348,-8734.430116,-766.095498
567.305124,1332.370696,-10066.800811,306.438199
567.305449,1332.370696,-10436.903782,153.219100
567.305773,222.061783,-10658.965565,-536.266849
567.306097,-1924.535449,-10732.986159,-536.266849
567.306421,-2220.617826,-11325.150913,-689.485948
567.306746,-1480.411884,-10510.924376,-1378.971896
567.307070,-962.267725,-10807.006753,-536.266849
567.307394,-518.144159,-10881.027347,-919.314598
567.307719,444.123565,-10732.986159,-1072.533697
567.308043,518.144159,-10732.986159,0.000000
567.308367,814.226536,-10140.821405,-153.219100
567.308692,1480.411884,-10140.821405,-919.314598
567.309016,814.226536,-11103.089130,-229.828649
567.309340,1110.308913,-10732.986159,-229.828649
567.309664,740.205942,-11251.130318,-995.924147
567.309989,-148.041188,-11695.253884,0.000000
567.310313,0.000000,-10362.883188,229.828649
567.310637,0.000000,-9548.656652,229.828649
567.310961,-814.226536,-9770.718434,459.657299
567.311285,-666.185348,-10362.883188,-229.828649
567.311610,-1110.308913,-9474.636058,-1225.752797
567.311934,-1776.494261,-8808.450710,-612.876398
567.312258,-1850.514855,-8068.244768,-459.657299
567.312582,-1406.391290,-8364.327145,-229.828649
567.312907,-1776.494261,-8290.306550,0.000000
567.313231,-2220.617826,-9104.533087,0.000000
567.313555,-2442.679609,-9178.553681,-995.924147
567.313879,-2516.700203,-8808.450710,-842.705048
567.314203,-1628.453072,-8438.347739,-229.828649
567.314528,-296.082377,-8660.409521,536.266849
567.314852,222.061783,-9474.636058,1302.362347
567.315176,740.205942,-9474.636058,689.485948
567.315500,74.020594,-9252.574275,0.000000
567.315825,0.000000,-8364.327145,-536.266849
567.316149,1184.329507,-7402.059420,-995.924147
567.316473,1776.494261,-8586.388927,-383.047749
567.316797,1998.556043,-9918.759623,229.828649
567.317121,2220.617826,-10140.821405,306.438199
567.317446,962.267725,-10732.986159,536.266849
567.317770,-814.226536,-10066.800811,0.000000
567.318094,-666.185348,-8882.471304,-1149.143247
567.318418,222.061783,-9770.718434,-612.876398
567.318743,444.123565,-10881.027347,76.609550
567.319067,1258.350101,-11103.089130,-612.876398
567.319391,296.082377,-10436.903782,0.000000
567.319715,0.000000,-9326.594869,-842.705048
567.320039,1036.288319,-9178.553681,-536.266849
567.320364,1554.432478,-9770.718434,-612.876398
567.320688,1776.494261,-10658.965565,0.000000
567.321012,1406.391290,-10881.027347,-153.219100
567.321336,444.123565,-11547.212695,-536.266849
567.321661,74.020594,-11695.253884,306.438199
567.321985,-592.164754,-10362.883188,153.219100
567.322309,-444.123565,-10807.006753,153.219100
567.322633,-444.123565,-10510.924376,766.095498
567.322957,-148.041188,-10436.903782,-383.047749
567.323282,0.000000,-9918.759623,-229.828649
567.323606,74.020594,-8586.388927,-153.219100
567.323930,1036.288319,-7994.224174,-229.828649
567.324254,1480.411884,-9400.615463,-383.047749
567.324579,1702.473667,-9326.594869,-229.828649
567.324903,740.205942,-9178.553681,0.000000
567.325227,-518.144159,-9252.574275,0.000000
567.325551,-444.123565,-9474.636058,0.000000
567.325875,-370.102971,-9696.697840,0.000000
567.326200,-1110.308913,-10066.800811,612.876398
567.326524,-1554.432478,-9992.780217,306.438199
567.326848,-1850.514855,-9400.615463,-153.219100
567.327172,-1776.494261,-9474.636058,536.266849
567.327497,-1184.329507,-8882.471304,383.047749
567.327821,-740.205942,-8586.388927,766.095498
567.328145,-148.041188,-8808.450710,1225.752797
567.328469,666.185348,-9474.636058,766.095498
567.328793,592.164754,-10066.800811,383.047749
567.329118,-814.226536,-9844.739029,76.609550
567.329442,-1258.350101,-9326.594869,0.000000
567.329766,-1184.329507,-9622.677246,-306.438199
567.330090,-1110.308913,-9992.780217,306.438199
567.330415,-1258.350101,-9918.759623,153.219100
567.330739,-592.164754,-9992.780217,0.000000
567.331063,-148.041188,-9770.718434,383.047749
567.331387,1036.288319,-8660.409521,919.314598
567.331711,814.226536,-7402.059420,1072.533697
567.332036,222.061783,-7846.182985,306.438199
567.332360,-370.102971,-7994.224174,76.609550
567.332684,-518.144159,-8586.388927,383.047749
567.333008,-370.102971,-8734.430116,459.657299
567.333333,814.226536,-8438.347739,919.314598
567.333657,1258.350101,-8956.491898,919.314598
567.333981,962.267725,-9400.615463,1072.533697
567.334305,0.000000,-9104.533087,0.000000
567.334629,-740.205942,-10066.800811,0.000000
567.334954,-1184.329507,-10584.944971,-459.657299
567.335278,-444.123565,-9918.759623,-459.657299
567.335602,296.082377,-10214.842000,-536.266849
567.335926,296.082377,-10881.027347,306.438199
567.336251,666.185348,-11251.130318,-689.485948
567.336575,-148.041188,-11547.212695,-1532.190996
567.336899,-1332.370696,-11621.233289,-459.657299
567.337223,-592.164754,-11325.150913,0.000000
567.337547,592.164754,-11399.171507,0.000000
567.337872,666.185348,-11029.068536,383.047749
567.338196,444.123565,-11251.130318,-306.438199
567.338520,0.000000,-11621.233289,-229.828649
567.338844,222.061783,-10214.842000,-229.828649
567.339168,740.205942,-8808.450710,76.609550
567.339493,740.205942,-8142.265362,-459.657299
567.339817,1258.350101,-8290.306550,-689.485948
567.340141,1258.350101,-8882.471304,-919.314598
567.340465,444.123565,-9326.594869,-919.314598
567.340790,0.000000,-8734.430116,-842.705048
567.341114,0.000000,-8142.265362,-766.095498
567.341438,0.000000,-8734.430116,-306.438199
567.341762,296.082377,-9400.615463,-383.047749
567.342086,444.123565,-9178.553681,-1149.143247
567.342411,-666.185348,-9622.677246,-766.095498
567.342735,-1184.329507,-9622.677246,-536.266849
567.343059,-296.082377,-9178.553681,-612.876398
567.343383,444.123565,-8734.430116,76.609550
567.343708,740.205942,-9474.636058,-229.828649
567.344032,592.164754,-9918.759623,-766.095498
567.344356,-518.144159,-10140.821405,-1378.971896
567.344680,-814.226536,-10436.903782,-1149.143247
567.345004,-296.082377,-10214.842000,-1072.533697
567.345329,0.000000,-10658.965565,-229.828649
567.345653,148.041188,-10955.047942,-459.657299
567.345977,666.185348,-10510.924376,-1225.752797
567.346301,0.000000,-9992.780217,-1072.533697
567.346626,-518.144159,-8956.491898,-1302.362347
567.346950,-222.061783,-9696.697840,-1455.581446
567.347274,444.123565,-9844.739029,-689.485948
567.347598,1184.329507,-9548.656652,-383.047749
567.347922,1110.308913,-9474.636058,0.000000
567.348247,148.041188,-9622.677246,153.219100
567.348571,0.000000,-9104.533087,0.000000
567.348895,592.164754,-9030.512492,536.266849
567.349219,-444.123565,-9696.697840,842.705048
567.349544,-518.144159,-10140.821405,383.047749
567.349868,-740.205942,-10658.965565,153.219100
567.350192,-1332.370696,-9696.697840,-306.438199
567.350516,-1332.370696,-8512.368333,153.219100
567.350840,-1406.391290,-9622.677246,689.485948
567.351165,-1332.370696,-10362.883188,0.000000
567.351489,-1628.453072,-9252.574275,0.000000
567.351813,-2294.638420,-9770.718434,153.219100
567.352137,-2368.659014,-10140.821405,229.828649
567.352462,-814.226536,-9548.656652,-229.828649
567.352786,74.020594,-9326.594869,689.485948
567.353110,-444.123565,-9474.636058,612.876398
567.353434,74.020594,-10288.862594,459.657299
567.353758,0.000000,-11103.089130,766.095498
567.354083,-814.226536,-10288.862594,1608.800546
567.354407,0.000000,-9474.636058,1072.533697
567.354731,0.000000,-8956.491898,153.219100
567.355055,-444.123565,-9178.553681,536.266849
567.355380,0.000000,-9474.636058,0.000000
567.355704,518.144159,-10288.862594,76.609550
567.356028,148.041188,-9548.656652,766.095498
567.356352,1406.391290,-8438.347739,306.438199
567.356676,1036.288319,-8882.471304,766.095498
567.357001,666.185348,-9474.636058,-612.876398
567.357325,0.000000,-9992.780217,-689.485948
567.357649,-962.267725,-10732.986159,-383.047749
567.357973,-814.226536,-10658.965565,-153.219100
567.358298,-296.082377,-9622.677246,-383.047749
567.358622,1184.329507,-9474.636058,153.219100
567.358946,1628.453072,-9474.636058,536.266849
567.359270,1628.453072,-10288.862594,0.000000
567.359594,444.123565,-10140.821405,306.438199
567.359919,222.061783,-9548.656652,-229.828649
567.360243,888.247130,-9030.512492,-153.219100
567.360567,1406.391290,-9030.512492,536.266849
567.360891,1480.411884,-10066.800811,229.828649
567.361216,1036.288319,-9918.759623,-383.047749
567.361540,0.000000,-9400.615463,-766.095498
567.361864,0.000000,-8586.388927,-1455.581446
567.362188,1036.288319,-8808.450710,-1072.533697
567.362512,1332.370696,-10066.800811,-536.266849
567.362837,1036.288319,-9770.718434,0.000000
567.363161,592.164754,-9548.656652,76.609550
567.363485,0.000000,-9252.574275,-306.438199
567.363809,888.247130,-9474.636058,-383.047749
567.364134,1258.350101,-9400.615463,-689.485948
567.364458,962.267725,-10288.862594,229.828649
567.364782,1036.288319,-10436.903782,-229.828649
567.365106,74.020594,-10658.965565,-306.438199
567.365430,-1554.432478,-10214.842000,0.000000
567.365755,-1332.370696,-9252.574275,-1532.190996
567.366079,-814.226536,-9622.677246,-995.924147
567.366403,-1036.288319,-10658.965565,-766.095498
567.366727,-814.226536,-11029.068536,-76.609550
567.367052,-814.226536,-11103.089130,-689.485948
567.367376,-1554.432478,-10436.903782,-383.047749
567.367700,-962.267725,-8734.430116,-842.705048
567.368024,0.000000,-9030.512492,0.000000
567.368348,0.000000,-10066.800811,459.657299
567.368673,-148.041188,-9178.553681,0.000000
567.368997,-518.144159,-9474.636058,383.047749
567.369321,-1702.473667,-9178.553681,0.000000
567.369645,-2294.638420,-8512.368333,-766.095498
567.369969,-2146.597232,-9326.594869,-229.828649
567.370294,-1184.329507,-10362.883188,459.657299
567.370618,-1036.288319,-10214.842000,153.219100
567.370942,-1480.411884,-9844.739029,842.705048
567.371266,-2072.576638,-9400.615463,766.095498
567.371591,-518.144159,-8586.388927,-306.438199
567.371915,148.041188,-8956.491898,-306.438199
567.372239,-518.144159,-9326.594869,-153.219100
567.372563,-370.102971,-8808.450710,0.000000
567.372887,-666.185348,-9918.759623,306.438199
567.373212,-888.247130,-9770.718434,459.657299
567.373536,0.000000,-8364.327145,76.609550
567.373860,222.061783,-9030.512492,-306.438199
567.374184,148.041188,-10066.800811,-306.438199
567.374509,962.267725,-10066.800811,0.000000
567.374833,592.164754,-10436.903782,536.266849
567.375157,444.123565,-10214.842000,995.924147
567.375481,74.020594,-9030.512492,76.609550
567.375805,592.164754,-9104.533087,-76.609550
567.376130,518.144159,-9474.636058,-459.657299
567.376454,814.226536,-10362.883188,-306.438199
567.376778,888.247130,-11103.089130,76.609550
567.377102,814.226536,-10955.047942,536.266849
567.377427,1924.535449,-9770.718434,-383.047749
567.377751,1258.350101,-9474.636058,-459.657299
567.378075,-222.061783,-9992.780217,-766.095498
567.378399,74.020594,-10288.862594,-1149.143247
567.378723,0.000000,-10955.047942,-383.047749
567.379048,222.061783,-9474.636058,306.438199
567.379372,1258.350101,-8068.244768,383.047749
567.379696,1480.411884,-8734.430116,383.047749
567.380020,1480.411884,-9030.512492,0.000000
567.380345,888.247130,-9178.553681,-153.219100
567.380669,0.000000,-9252.574275,0.000000
567.380993,-222.061783,-8438.347739,-229.828649
567.381317,814.226536,-9030.512492,76.609550
567.381641,814.226536,-10288.862594,229.828649
567.381966,222.061783,-10214.842000,-229.828649
567.382290,-666.185348,-10066.800811,-1225.752797
567.382614,-962.267725,-10362.883188,-766.095498
567.382938,444.123565,-9326.594869,-1072.533697
567.383263,1998.556043,-9474.636058,-459.657299
567.383587,1258.350101,-10066.800811,229.828649
567.383911,1110.308913,-10362.883188,-459.657299
567.384235,1184.329507,-10288.862594,-1225.752797
567.384559,592.164754,-9770.718434,-612.876398
567.384884,-222.061783,-9400.615463,0.000000
567.385208,-296.082377,-9918.759623,-919.314598
567.385532,-1036.288319,-10955.047942,536.266849
567.385856,-1554.432478,-10807.006753,229.828649
567.386181,-1850.514855,-10732.986159,-459.657299
567.386505,-2886.803174,-10140.821405,-383.047749
567.386829,-2590.720797,-8660.409521,-459.657299
567.387153,-1184.329507,-8512.368333,0.000000
567.387477,-740.205942,-8364.327145,-536.266849
567.387802,-592.164754,-8660.409521,-612.876398
567.388126,-1184.329507,-8734.430116,-306.438199
567.388450,-592.164754,-9252.574275,459.657299
567.388774,1036.288319,-8660.409521,0.000000
567.389099,1184.329507,-9030.512492,536.266849
567.389423,296.082377,-9992.780217,842.705048
567.389747,148.041188,-10584.944971,153.219100
567.390071,-888.247130,-11325.150913,842.705048
567.390395,-2294.638420,-9548.656652,842.705048
567.390720,-2146.597232,-8734.430116,0.000000
567.391044,-1998.556043,-9252.574275,536.266849
567.391368,-1258.350101,-9474.636058,76.609550
567.391692,0.000000,-9030.512492,-536.266849
567.392017,-444.123565,-9326.594869,-306.438199
567.392341,-740.205942,-9844.739029,-229.828649
567.392665,-740.205942,-8956.491898,-306.438199
567.392989,-592.164754,-9178.553681,-612.876398
567.393313,-740.205942,-9918.759623,0.000000
567.393638,0.000000,-11177.109724,-306.438199
567.393962,-518.144159,-11843.295072,-383.047749
567.394286,-592.164754,-10955.047942,76.609550
567.394610,518.144159,-9326.594869,842.705048
567.394935,1036.288319,-9696.697840,383.047749
567.395259,1628.453072,-10214.842000,459.657299
567.395583,1702.473667,-9992.780217,-383.047749
567.395907,1258.350101,-9918.759623,0.000000
567.396231,1110.308913,-9252.574275,-306.438199
567.396556,1480.411884,-8290.306550,-612.876398
567.396880,1036.288319,-8290.306550,-612.876398
567.397204,370.102971,-9252.574275,-689.485948
567.397528,-222.061783,-10066.800811,-919.314598
567.397852,-370.102971,-10584.944971,-306.438199
567.398177,-518.144159,-9992.780217,-459.657299
567.398501,0.000000,-9474.636058,-919.314598
567.398825,0.000000,-9770.718434,-1225.752797
567.399149,148.041188,-9770.718434,-1072.533697
567.399474,740.205942,-9992.780217,-842.705048
567.399798,1110.308913,-10584.944971,0.000000
567.400122,1924.535449,-9104.533087,306.438199
567.400446,2368.659014,-7994.224174,229.828649
567.400770,2442.679609,-9474.636058,306.438199
567.401095,1924.535449,-11325.150913,-153.219100
567.401419,1258.350101,-11917.315666,-689.485948
567.401743,-222.061783,-10732.986159,-536.266849
567.402067,-1332.370696,-9844.739029,-153.219100
567.402392,-1110.308913,-9178.553681,-153.219100
567.402716,-1110.308913,-10066.800811,-306.438199
567.403040,-296.082377,-9918.759623,-383.047749
567.403364,222.061783,-9474.636058,-842.705048
567.403688,148.041188,-8734.430116,-459.657299
567.404013,1110.308913,-7476.080014,-153.219100
567.404337,2664.741391,-8068.244768,76.609550
567.404661,2368.659014,-8808.450710,1608.800546
567.404985,1628.453072,-10362.883188,766.095498
567.405310,148.041188,-10732.986159,689.485948
567.405634,-1480.411884,-10214.842000,0.000000
567.405958,-1184.329507,-8882.471304,0.000000
567.406282,-1110.308913,-9844.739029,689.485948
567.406606,-1036.288319,-11103.089130,1072.533697
567.406931,-1258.350101,-9992.780217,-459.657299
567.407253,-2220.617826,-9178.553681,459.657299
567.407577,-2960.823768,-8882.471304,-383.047749
567.407901,-1628.453072,-8808.450710,-536.266849
567.408225,-962.267725,-9030.512492,153.219100
567.408550,-1924.535449,-9400.615463,766.095498
567.408874,-2072.576638,-9474.636058,229.828649
567.409198,-2590.720797,-9770.718434,0.000000
567.409522,-2960.823768,-9474.636058,383.047749
567.409846,-1554.432478,-9104.533087,153.219100
567.410171,-370.102971,-10214.842000,1762.019645
567.410495,-296.082377,-11399.171507,1838.629195
567.410819,0.000000,-9918.759623,383.047749
567.411143,-296.082377,-8586.388927,153.219100
567.411467,-888.247130,-8438.347739,-766.095498
567.411792,0.000000,-8290.306550,-919.314598
567.412116,592.164754,-9030.512492,0.000000
567.412440,1776.494261,-10140.821405,1225.752797
567.412764,2072.576638,-10436.903782,1225.752797
567.413088,888.247130,-10732.986159,766.095498
567.413413,-222.061783,-10140.821405,0.000000
567.413737,-296.082377,-9696.697840,-459.657299
567.414061,-592.164754,-10584.944971,76.609550
567.414385,74.020594,-11103.089130,383.047749
567.414709,518.144159,-10066.800811,0.000000
567.415034,296.082377,-9622.677246,459.657299
567.415358,1110.308913,-9326.594869,0.000000
567.415682,1924.535449,-8586.388927,-1072.533697
567.416006,1480.411884,-9252.574275,0.000000
567.416330,1110.308913,-9844.739029,0.000000
567.416655,1702.473667,-9696.697840,-229.828649
567.416979,1036.288319,-9696.697840,229.828649
567.417303,814.226536,-9548.656652,76.609550
567.417627,888.247130,-9252.574275,-1149.143247
567.417951,-222.061783,-9918.759623,-459.657299
567.418276,-222.061783,-10362.883188,-459.657299
567.418600,814.226536,-10510.924376,-919.314598
567.418924,1036.288319,-9918.759623,-459.657299
567.419248,1628.453072,-7328.038826,-612.876398
567.419573,2664.741391,-7624.121203,-612.876398
567.419897,2294.638420,-9326.594869,-766.095498
567.420221,1776.494261,-9918.759623,-842.705048
567.420545,962.267725,-10214.842000,-459.657299
567.420869,-74.020594,-10288.862594,-995.924147
567.421194,0.000000,-9918.759623,-995.924147
567.421518,296.082377,-10288.862594,0.000000
567.421842,-148.041188,-11547.212695,689.485948
567.422166,-148.041188,-11621.233289,-229.828649
567.422490,-518.144159,-10955.047942,-383.047749
567.422815,-1628.453072,-9622.677246,0.000000
567.423139,-1110.308913,-8734.430116,-1378.971896
567.423463,-962.267725,-8438.347739,-1455.581446
567.423787,-814.226536,-8586.388927,-459.657299
567.424111,0.000000,-9474.636058,-459.657299
567.424436,-296.082377,-10288.862594,-306.438199
567.424760,-592.164754,-9696.697840,153.219100
567.425084,-518.144159,-8364.327145,-153.219100
567.425408,-222.061783,-8956.491898,229.828649
567.425732,-888.247130,-10066.800811,76.609550
567.426057,-1850.514855,-9918.759623,-383.047749
567.426381,-2368.659014,-9770.718434,459.657299
567.426705,-1924.535449,-8290.306550,459.657299
567.427029,-1110.308913,-7698.141797,-383.047749
567.427353,-1110.308913,-7994.224174,153.219100
567.427678,-1110.308913,-8734.430116,459.657299
567.428002,-666.185348,-9918.759623,-229.828649
567.428326,-1036.288319,-9992.780217,383.047749
567.428650,-1924.535449,-9104.533087,306.438199
567.428974,-1184.329507,-9252.574275,76.609550
567.429299,-1406.391290,-10436.903782,306.438199
567.429623,-2368.659014,-11325.150913,-229.828649
567.429947,-2146.597232,-10881.027347,-536.266849
567.430271,-1850.514855,-11399.171507,-229.828649
567.430595,-592.164754,-10658.965565,-383.047749
567.430920,1702.473667,-9474.636058,536.266849
567.431244,1924.535449,-9178.553681,1149.143247
567.431568,1850.514855,-10436.903782,995.924147
567.431892,1258.350101,-10214.842000,-153.219100
567.432217,518.144159,-10436.903782,153.219100
567.432541,296.082377,-9770.718434,0.000000
567.432865,962.267725,-9474.636058,-689.485948
567.433189,1036.288319,-9696.697840,612.876398
567.433513,1332.370696,-9992.780217,459.657299
567.433838,1554.432478,-10584.944971,-766.095498
567.434162,592.164754,-10510.924376,-229.828649
567.434486,-148.041188,-8216.285956,-995.924147
567.434810,814.226536,-7698.141797,-1149.143247
567.435134,1406.391290,-8808.450710,-383.047749
567.435459,2146.597232,-10066.800811,459.657299
567.435783,2368.659014,-10436.903782,1225.752797
567.436107,1184.329507,-9918.759623,76.609550
567.436431,-222.061783,-8808.450710,0.000000
567.436755,0.000000,-8882.471304,229.828649
567.437080,370.102971,-10436.903782,76.609550
567.437404,444.123565,-10732.986159,76.609550
567.437728,592.164754,-10362.883188,153.219100
567.438052,222.061783,-9696.697840,383.047749
567.438376,888.247130,-8438.347739,-612.876398
567.438701,740.205942,-7994.224174,-459.657299
567.439025,962.267725,-8882.471304,153.219100
567.439349,2146.597232,-10066.800811,-536.266849
567.439673,1924.535449,-10658.965565,153.219100
567.439997,666.185348,-9696.697840,153.219100
567.440322,0.000000,-8586.388927,-612.876398
567.440646,296.082377,-9178.553681,-229.828649
567.440970,-370.102971,-10140.821405,0.000000
567.441294,0.000000,-10658.965565,689.485948
567.441618,-518.144159,-9844.739029,766.095498
567.441943,-1110.308913,-9178.553681,459.657299
567.442267,-518.144159,-8734.430116,76.609550
567.442591,74.020594,-8808.450710,76.609550
567.442915,0.000000,-9622.677246,995.924147
567.443239,148.041188,-10066.800811,459.657299
567.443564,-518.144159,-10066.800811,306.438199
567.443888,-888.247130,-9622.677246,459.657299
567.444212,-518.144159,-8512.368333,0.000000
567.444536,-1258.350101,-10066.800811,76.609550
567.444860,-1776.494261,-10732.986159,-153.219100
567.445185,-1924.535449,-9918.759623,0.000000
567.445509,-2146.597232,-10214.842000,306.438199
567.445833,-1702.473667,-9770.718434,229.828649
567.446157,-1258.350101,-8438.347739,153.219100
567.446482,-1406.391290,-8808.450710,842.705048
567.446806,-1702.473667,-9252.574275,459.657299
567.447130,-1702.473667,-9030.512492,0.000000
567.447454,-2220.617826,-9326.594869,0.000000
567.447778,-1998.556043,-9104.533087,0.000000
567.448103,-370.102971,-9104.533087,-153.219100
567.448427,444.123565,-9918.759623,842.705048
567.448751,592.164754,-10807.006753,383.047749
567.449075,0.000000,-10732.986159,76.609550
567.449399,-888.247130,-11103.089130,-459.657299
567.449724,-962.267725,-10436.903782,-459.657299
567.450048,222.061783,-9474.636058,-995.924147
567.450372,666.185348,-10214.842000,-536.266849
567.450696,0.000000,-10658.965565,-459.657299
567.451020,222.061783,-9696.697840,-1225.752797
567.451345,0.000000,-9104.533087,-995.924147
567.451669,370.102971,-9918.759623,-1532.190996
567.451993,962.267725,-9030.512492,-689.485948
567.452317,962.267725,-9622.677246,-536.266849
567.452641,888.247130,-10584.944971,-229.828649
567.452966,1110.308913,-10658.965565,-612.876398
567.453290,444.123565,-10436.903782,-306.438199
567.453614,370.102971,-9474.636058,76.609550
567.453938,1406.391290,-9030.512492,-459.657299
567.454262,1258.350101,-9474.636058,0.000000
567.454587,1110.308913,-9548.656652,-153.219100
567.454911,148.041188,-9400.615463,-919.314598
567.455235,-222.061783,-9770.718434,-995.924147
567.455559,444.123565,-8660.409521,-995.924147
567.455883,1554.432478,-8142.265362,-536.266849
567.456208,1036.288319,-8660.409521,306.438199
567.456532,888.247130,-9252.574275,-383.047749
567.456856,-222.061783,-9474.636058,-536.266849
567.457180,-592.164754,-9770.718434,0.000000
567.457504,-1036.288319,-8808.450710,-383.047749
567.457829,-962.267725,-8512.368333,-459.657299
567.458153,-592.164754,-8734.430116,76.609550
567.458477,148.041188,-9104.533087,0.000000
567.458801,592.164754,-10140.821405,536.266849
567.459125,148.041188,-10658.965565,995.924147
567.459450,962.267725,-8956.491898,0.000000
567.459774,1998.556043,-8660.409521,-383.047749
567.460098,1480.411884,-9696.697840,76.609550
567.460422,1554.432478,-11029.068536,-229.828649
567.460747,1184.329507,-11843.295072,0.000000
567.461071,0.000000,-11547.212695,153.219100
567.461395,-518.144159,-9474.636058,-153.219100
567.461719,-222.061783,-9918.759623,-383.047749
567.462043,-814.226536,-11029.068536,-459.657299
567.462368,-962.267725,-10510.924376,-536.266849
567.462692,-1628.453072,-10658.965565,-459.657299
567.463016,-2886.803174,-10658.965565,0.000000
567.463340,-2368.659014,-9474.636058,0.000000
567.463664,-1332.370696,-8882.471304,536.266849
567.463989,-740.205942,-8956.491898,1302.362347
567.464313,0.000000,-9844.739029,459.657299
567.464637,-1110.308913,-10732.986159,459.657299
567.464961,-2220.617826,-9622.677246,0.000000
567.465285,-1776.494261,-7994.224174,76.609550
567.465610,-1332.370696,-9252.574275,536.266849
567.465934,-1258.350101,-10362.883188,766.095498
567.466258,-666.185348,-10214.842000,842.705048
567.466582,-444.123565,-9622.677246,459.657299
567.466906,0.000000,-8586.388927,919.314598
567.467231,0.000000,-8734.430116,612.876398
567.467555,-444.123565,-9400.615463,1149.143247
567.467879,-370.102971,-9622.677246,766.095498
567.468203,0.000000,-9104.533087,0.000000
567.468527,222.061783,-9178.553681,612.876398
567.468852,-370.102971,-8660.409521,689.485948
567.469176,148.041188,-8512.368333,153.219100
567.469500,296.082377,-8956.491898,612.876398
567.469824,296.082377,-9548.656652,459.657299
567.470148,74.020594,-9918.759623,-459.657299
567.470473,-888.247130,-10066.800811,-383.047749
567.470797,-296.082377,-9252.574275,0.000000
567.471121,814.226536,-7846.182985,0.000000
567.471445,1850.514855,-9474.636058,612.876398
567.471769,1924.535449,-9992.780217,1302.362347
567.472094,3108.864956,-9992.780217,383.047749
567.472418,2442.679609,-10140.821405,766.095498
567.472742,1332.370696,-9104.533087,306.438199
567.473066,1184.329507,-9104.533087,-383.047749
567.473391,814.226536,-9992.780217,383.047749
567.473715,296.082377,-9770.718434,76.609550
567.474039,370.102971,-9400.615463,-612.876398
567.474363,-888.247130,-9252.574275,-842.705048
567.474687,-296.082377,-8808.450710,-1149.143247
567.475012,666.185348,-9252.574275,-766.095498
567.475336,592.164754,-9400.615463,-459.657299
567.475660,888.247130,-9326.594869,-689.485948
567.475984,740.205942,-9770.718434,-306.438199
567.476308,222.061783,-9992.780217,-306.438199
567.476633,666.185348,-9770.718434,-153.219100
567.476957,1332.370696,-10436.903782,-459.657299
567.477281,888.247130,-11029.068536,0.000000
567.477605,0.000000,-10510.924376,-612.876398
567.477929,-518.144159,-11547.212695,-383.047749
567.478254,-888.247130,-10807.006753,0.000000
567.478578,370.102971,-10066.800811,-919.314598
567.478902,296.082377,-9770.718434,-306.438199
567.479226,-222.061783,-10362.883188,-229.828649
567.479550,740.205942,-10066.800811,-1072.533697
567.479875,0.000000,-10066.800811,-1378.971896
567.480199,-1258.350101,-9844.739029,-689.485948
567.480523,-1258.350101,-9696.697840,-1072.533697
567.480847,-1036.288319,-9696.697840,-153.219100
567.481171,-740.205942,-10732.986159,229.828649
567.481496,-1036.288319,-10436.903782,-306.438199
567.481820,-1628.453072,-10288.862594,-383.047749
567.482144,-2220.617826,-10066.800811,229.828649
567.482468,-888.247130,-9178.553681,383.047749
567.482792,-444.123565,-8956.491898,612.876398
567.483117,-962.267725,-8808.450710,689.485948
567.483441,-814.226536,-8956.491898,459.657299
567.483765,-888.247130,-9104.533087,383.047749
567.484089,-1184.329507,-8882.471304,-306.438199
567.484413,-1628.453072,-7846.182985,0.000000
567.484738,-2072.576638,-9030.512492,229.828649
567.485062,-2072.576638,-9992.780217,153.219100
567.485386,-2072.576638,-9696.697840,0.000000
567.485710,-2664.741391,-9252.574275,76.609550
567.486034,-2812.782580,-8882.471304,76.609550
567.486359,-1554.432478,-7994.224174,-306.438199
567.486683,-1036.288319,-8660.409521,229.828649
567.487007,0.000000,-8734.430116,612.876398
567.487331,1110.308913,-9178.553681,536.266849
567.487656,888.247130,-9770.718434,766.095498
567.487980,222.061783,-8364.327145,229.828649
567.488304,814.226536,-8068.244768,0.000000
567.488628,296.082377,-9992.780217,459.657299
567.488952,518.144159,-11473.192101,153.219100
567.489277,1110.308913,-11251.130318,153.219100
567.489601,1184.329507,-11769.274478,153.219100
567.489925,1332.370696,-11029.068536,153.219100
567.490249,1776.494261,-9474.636058,-306.438199
567.490573,1184.329507,-10288.862594,76.609550
567.490898,1258.350101,-10584.944971,76.609550
567.491222,1554.432478,-10732.986159,-1302.362347
567.491546,888.247130,-10214.842000,-229.828649
567.491870,1258.350101,-9252.574275,-459.657299
567.492194,2368.659014,-9104.533087,-536.266849
567.492519,1924.535449,-10140.821405,383.047749
567.492843,1554.432478,-10732.986159,229.828649
567.493167,444.123565,-11399.171507,-306.438199
567.493491,-296.082377,-11473.192101,153.219100
567.493815,0.000000,-10510.924376,459.657299
567.494140,1036.288319,-9474.636058,0.000000
567.494464,1036.288319,-9326.594869,612.876398
567.494788,888.247130,-8882.471304,153.219100
567.495112,814.226536,-8586.388927,-536.266849
567.495436,148.041188,-8956.491898,-306.438199
567.495761,888.247130,-7846.182985,229.828649
567.496085,1332.370696,-8512.368333,-76.609550
567.496409,814.226536,-8956.491898,459.657299
567.496733,518.144159,-8956.491898,995.924147
567.497057,0.000000,-10288.862594,995.924147
567.497382,-1110.308913,-10955.047942,612.876398
567.497706,-1258.350101,-8808.450710,153.219100
567.498030,-1776.494261,-8142.265362,612.876398
567.498354,-1258.350101,-8586.388927,383.047749
567.498678,-814.226536,-8586.388927,-536.266849
567.499003,-1702.473667,-8290.306550,-383.047749
567.499327,-2590.720797,-8068.244768,-459.657299
567.499651,-1110.308913,-8660.409521,0.000000
567.499975,1036.288319,-10066.800811,459.657299
567.500299,2072.576638,-9844.739029,842.705048
567.500624,1702.473667,-9474.636058,0.000000
567.500948,-148.041188,-10807.006753,0.000000
567.501272,-1184.329507,-11621.233289,-766.095498
567.501596,-1406.391290,-10584.944971,-1149.143247
567.501921,-1702.473667,-10584.944971,153.219100
567.502245,-1036.288319,-11029.068536,919.314598
567.502569,-740.205942,-10584.944971,-153.219100
567.502893,-1776.494261,-10214.842000,229.828649
567.503217,-3330.926739,-8956.491898,-383.047749
567.503542,-2812.782580,-9252.574275,-1302.362347
567.503866,-2664.741391,-9770.718434,-612.876398
567.504190,-2220.617826,-10362.883188,-153.219100
567.504514,-1554.432478,-10510.924376,-153.219100
567.504838,-1628.453072,-10732.986159,0.000000
567.505163,-1480.411884,-10066.800811,229.828649
567.505487,-296.082377,-10140.821405,0.000000
567.505811,0.000000,-10881.027347,0.000000
567.506135,148.041188,-10362.883188,229.828649
567.506459,666.185348,-10362.883188,689.485948
567.506784,1110.308913,-10584.944971,689.485948
567.507108,1480.411884,-9696.697840,689.485948
567.507432,1628.453072,-8290.306550,536.266849
567.507756,1924.535449,-9030.512492,689.485948
567.508080,2072.576638,-9770.718434,995.924147
567.508405,1480.411884,-10362.883188,689.485948
567.508729,0.000000,-10510.924376,842.705048
567.509053,-814.226536,-9030.512492,153.219100
567.509377,0.000000,-8290.306550,-153.219100
567.509701,222.061783,-9252.574275,229.828649
567.510025,666.185348,-9622.677246,229.828649
567.510350,444.123565,-8512.368333,-306.438199
567.510674,74.020594,-7920.203579,-1149.143247
567.510998,740.205942,-7846.182985,-689.485948
567.511322,2072.576638,-8068.244768,0.000000
567.511646,2368.659014,-8364.327145,383.047749
567.511971,2220.617826,-8956.491898,459.657299
567.512295,1258.350101,-9400.615463,229.828649
567.512619,1110.308913,-9992.780217,306.438199
567.512943,518.144159,-9548.656652,842.705048
567.513267,962.267725,-9696.697840,689.485948
567.513591,518.144159,-10066.800811,612.876398
567.513916,74.020594,-9326.594869,0.000000
567.514240,-518.144159,-8882.471304,-842.705048
567.514564,-888.247130,-8956.491898,-766.095498
567.514888,-148.041188,-7846.182985,-1685.410096
567.515212,666.185348,-7846.182985,-1608.800546
567.515537,1036.288319,-9474.636058,-842.705048
567.515861,1850.514855,-10362.883188,-1149.143247
567.516185,1702.473667,-10807.006753,-1149.143247
567.516509,296.082377,-11103.089130,-1149.143247
567.516833,0.000000,-11103.089130,-1149.143247
567.517157,0.000000,-11991.336260,-612.876398
567.517482,0.000000,-12583.501014,536.266849
567.517806,1036.288319,-12065.356855,306.438199
567.518130,296.082377,-11991.336260,-459.657299
567.518454,-962.267725,-10658.965565,-766.095498
567.518778,-1184.329507,-9770.718434,-995.924147
567.519103,-888.247130,-10436.903782,-1302.362347
567.519427,-444.123565,-10658.965565,-612.876398
567.519751,-370.102971,-9844.739029,-536.266849
567.520075,-740.205942,-11029.068536,76.609550
567.520399,-1628.453072,-10955.047942,-766.095498
567.520723,-1332.370696,-10658.965565,229.828649
567.521048,-1702.473667,-11251.130318,689.485948
567.521372,-1998.556043,-11251.130318,536.266849
567.521696,-2072.576638,-9770.718434,0.000000
567.522020,-2960.823768,-8660.409521,842.705048
567.522344,-2294.638420,-7920.203579,536.266849
567.522669,-1184.329507,-7328.038826,459.657299
567.522993,-888.247130,-7476.080014,1225.752797
567.523317,-740.205942,-6957.935855,1532.190996
567.523641,0.000000,-6957.935855,1302.362347
567.523965,-518.144159,-7328.038826,1225.752797
567.524289,-1258.350101,-7402.059420,1685.410096
567.524614,-2072.576638,-7846.182985,919.314598
567.524938,-2886.803174,-8586.388927,689.485948
567.525262,-2516.700203,-8660.409521,1302.362347
567.525586,-962.267725,-9400.615463,1378.971896
567.525910,-296.082377,-9474.636058,1072.533697
567.526235,0.000000,-8586.388927,306.438199
567.526559,814.226536,-7698.141797,76.609550
567.526883,1110.308913,-9030.512492,995.924147
567.527207,1554.432478,-10214.842000,229.828649
567.527531,2072.576638,-9696.697840,689.485948
567.527855,814.226536,-10658.965565,995.924147
567.528180,222.061783,-10807.006753,0.000000
567.528504,0.000000,-10807.006753,0.000000
567.528828,-296.082377,-10881.027347,76.609550
567.529152,222.061783,-10214.842000,-383.047749
567.529476,444.123565,-9696.697840,0.000000
567.529801,740.205942,-10584.944971,0.000000
567.530125,1924.535449,-9696.697840,-689.485948
567.530449,1924.535449,-8438.347739,-689.485948
567.530773,1406.391290,-9104.533087,-612.876398
567.531097,1480.411884,-9622.677246,-1225.752797
567.531421,1480.411884,-10066.800811,-1225.752797
567.531746,1702.473667,-10362.883188,-229.828649
567.532070,2516.700203,-9696.697840,-306.438199
567.532394,2812.782580,-10510.924376,-459.657299
567.532718,2368.659014,-11991.336260,0.000000
567.533042,2590.720797,-11621.233289,-306.438199
567.533367,2442.679609,-10140.821405,-1378.971896
567.533691,814.226536,-9770.718434,-919.314598
567.534015,74.020594,-9474.636058,-1378.971896
567.534339,0.000000,-9844.739029,-1149.143247
567.534663,-370.102971,-9992.780217,-995.924147
567.534987,-814.226536,-8808.450710,-1072.533697
567.535312,-962.267725,-8586.388927,-1302.362347
567.535636,-2146.597232,-9326.594869,-995.924147
567.535960,-1406.391290,-9548.656652,-842.705048
567.536284,-1036.288319,-9696.697840,-306.438199
567.536608,-888.247130,-9622.677246,76.609550
567.536933,-296.082377,-9474.636058,0.000000
567.537257,-296.082377,-10288.862594,76.609550
567.537581,-148.041188,-9770.718434,-229.828649
567.537905,222.061783,-8882.471304,-383.047749
567.538229,0.000000,-9548.656652,306.438199
567.538553,0.000000,-10436.903782,536.266849
567.538878,296.082377,-10288.862594,459.657299
567.539202,-444.123565,-10140.821405,1455.581446
567.539526,-1258.350101,-10214.842000,1225.752797
567.539850,-1702.473667,-9252.574275,0.000000
567.540174,-2294.638420,-9326.594869,76.609550
567.540499,-2886.803174,-9326.594869,-306.438199
567.540823,-2516.700203,-8734.430116,-995.924147
567.541147,-2886.803174,-9104.533087,76.609550
567.541471,-2590.720797,-9252.574275,689.485948
567.541795,-1850.514855,-8808.450710,689.485948
567.542119,-1702.473667,-8734.430116,919.314598
567.542444,-1258.350101,-8364.327145,76.609550
567.542768,-962.267725,-9030.512492,306.438199
567.543092,-1406.391290,-10436.903782,536.266849
567.543416,-962.267725,-9992.780217,612.876398
567.543740,148.041188,-9474.636058,1378.971896
567.544065,592.164754,-10881.027347,2757.943793
567.544389,222.061783,-11917.315666,1762.019645
567.544713,74.020594,-11473.192101,306.438199
567.545037,-1702.473667,-9992.780217,76.609550
567.545361,-1406.391290,-9326.594869,-536.266849
567.545685,222.061783,-9474.636058,-689.485948
567.546010,740.205942,-10140.821405,766.095498
567.546334,1258.350101,-9474.636058,459.657299
567.546658,1776.494261,-8586.388927,153.219100
567.546982,592.164754,-8956.491898,-536.266849
567.547306,148.041188,-9474.636058,0.000000
567.547631,666.185348,-9400.615463,0.000000
567.547955,1036.288319,-10214.842000,1072.533697
567.548279,1628.453072,-10658.965565,1455.581446
567.548603,2738.761985,-9992.780217,1225.752797
567.548927,2146.597232,-9030.512492,1378.971896
567.549251,1480.411884,-7698.141797,842.705048
567.549576,1184.329507,-7994.224174,-459.657299
567.549900,740.205942,-8882.471304,-229.828649
567.550224,888.247130,-8956.491898,-153.219100
567.550548,1036.288319,-9178.553681,0.000000
567.550872,444.123565,-8734.430116,-689.485948
567.551197,296.082377,-7698.141797,-842.705048
567.551521,222.061783,-8438.347739,-995.924147
567.551845,0.000000,-9696.697840,-306.438199
567.552169,592.164754,-10288.862594,-459.657299
567.552493,814.226536,-9918.759623,153.219100
567.552818,0.000000,-9548.656652,306.438199
567.553142,222.061783,-9178.553681,-153.219100
567.553466,962.267725,-9696.697840,153.219100
567.553790,962.267725,-10955.047942,1302.362347
567.554114,1258.350101,-10807.006753,76.609550
567.554438,1332.370696,-10140.821405,76.609550
567.554763,148.041188,-9992.780217,-229.828649
567.555087,148.041188,-9326.594869,-842.705048
567.555411,296.082377,-9770.718434,-689.485948
567.555735,-444.123565,-10955.047942,-995.924147
567.556059,0.000000,-10362.883188,-1762.019645
567.556384,-296.082377,-9992.780217,-1455.581446
567.556708,-962.267725,-9992.780217,-536.266849
567.557032,-962.267725,-9696.697840,-1149.143247
567.557356,-1258.350101,-10066.800811,-919.314598
567.557680,-1924.535449,-10510.924376,-766.095498
567.558004,-2220.617826,-10288.862594,-1225.752797
567.558329,-2220.617826,-10214.842000,-995.924147
567.558653,-2146.597232,-9992.780217,-536.266849
567.558977,-888.247130,-8364.327145,-766.095498
567.559301,-592.164754,-9400.615463,689.485948
567.559625,-592.164754,-10732.986159,536.266849
567.559950,-222.061783,-10732.986159,306.438199
567.560274,-296.082377,-10362.883188,306.438199
567.560598,-1332.370696,-9178.553681,536.266849
567.560922,-1924.535449,-8808.450710,-919.314598
567.561246,-2220.617826,-9696.697840,-536.266849
567.561570,-2368.659014,-10436.903782,-153.219100
567.561895,-2294.638420,-9400.615463,-766.095498
567.562219,-2220.617826,-9030.512492,-153.219100
567.562543,-1332.370696,-8216.285956,0.000000
567.562867,0.000000,-8216.285956,153.219100
567.563191,-222.061783,-8734.430116,459.657299
567.563516,-444.123565,-8882.471304,229.828649
567.563840,-666.185348,-8808.450710,0.000000
567.564164,-222.061783,-9326.594869,306.438199
567.564488,740.205942,-9030.512492,612.876398
567.564812,1702.473667,-9326.594869,536.266849
567.565136,1258.350101,-10066.800811,842.705048
567.565461,1554.432478,-11621.233289,612.876398
567.565785,1998.556043,-10732.986159,612.876398
567.566109,1184.329507,-11177.109724,612.876398
567.566433,888.247130,-9474.636058,995.924147
567.566757,1776.494261,-9178.553681,76.609550
567.567082,1776.494261,-10140.821405,383.047749
567.567406,1480.411884,-10436.903782,0.000000
567.567730,1036.288319,-9918.759623,-459.657299
567.568054,-222.061783,-9696.697840,153.219100
567.568378,74.020594,-9252.574275,153.219100
567.568702,148.041188,-9326.594869,-459.657299
567.569027,-518.144159,-10362.883188,153.219100
567.569351,-1332.370696,-9770.718434,306.438199
567.569675,-666.185348,-9992.780217,0.000000
567.569999,-444.123565,-9696.697840,0.000000
567.570323,148.041188,-7846.182985,-153.219100
567.570648,888.247130,-7698.141797,919.314598
567.570972,1702.473667,-9326.594869,1225.752797
567.571296,3330.926739,-9474.636058,842.705048
567.571620,2664.741391,-9474.636058,459.657299
567.571944,1184.329507,-8734.430116,-306.438199
567.572268,1036.288319,-7920.203579,-689.485948
567.572593,1628.453072,-9548.656652,306.438199
567.572917,1998.556043,-10881.027347,383.047749
567.573241,740.205942,-9770.718434,-995.924147
567.573565,-1554.432478,-10140.821405,0.000000
567.573889,-2368.659014,-9474.636058,-919.314598
567.574214,-666.185348,-8586.388927,-1378.971896
567.574538,-370.102971,-9104.533087,0.000000
567.574862,-518.144159,-10436.903782,383.047749
567.575186,592.164754,-10362.883188,-306.438199
567.575510,518.144159,-9770.718434,-229.828649
567.575834,444.123565,-9622.677246,0.000000
567.576159,962.267725,-10214.842000,-612.876398
567.576483,888.247130,-11621.233289,-153.219100
567.576807,296.082377,-12213.398043,306.438199
567.577131,0.000000,-12065.356855,-459.657299
567.577455,-666.185348,-11177.109724,-766.095498
567.577780,-1554.432478,-10732.986159,0.000000
567.578104,-1110.308913,-10584.944971,-306.438199
567.578428,-666.185348,-10436.903782,-153.219100
567.578752,-1480.411884,-9104.533087,153.219100
567.579076,-1998.556043,-8586.388927,-153.219100
567.579400,-2072.576638,-9030.512492,-383.047749
567.579725,-1998.556043,-8438.347739,-306.438199
567.580049,-2220.617826,-7920.203579,536.266849
567.580373,-2220.617826,-9178.553681,842.705048
567.580697,-2220.617826,-9622.677246,0.000000
567.581021,-2294.638420,-9474.636058,76.609550
567.581346,-3330.926739,-9326.594869,383.047749
567.581670,-3478.967927,-9104.533087,-306.438199
567.581994,-2072.576638,-8586.388927,-612.876398
567.582318,-814.226536,-8438.347739,76.609550
567.582642,740.205942,-8512.368333,919.314598
567.582966,2368.659014,-9252.574275,995.924147
567.583291,2220.617826,-9548.656652,229.828649
567.583615,1776.494261,-9030.512492,689.485948
567.583939,1924.535449,-9326.594869,383.047749
567.584263,1776.494261,-10436.903782,1302.362347
567.584587,1184.329507,-11029.068536,1225.752797
567.584912,592.164754,-10362.883188,306.438199
567.585236,-1036.288319,-9696.697840,-229.828649
567.585560,-1554.432478,-9178.553681,-842.705048
567.585884,-666.185348,-9326.594869,-919.314598
567.586208,-518.144159,-9696.697840,612.876398
567.586532,370.102971,-9252.574275,383.047749
567.586857,296.082377,-8734.430116,0.000000
567.587181,-296.082377,-8512.368333,-1225.752797
567.587505,666.185348,-7476.080014,-995.924147
567.587829,1998.556043,-8808.450710,-1225.752797
567.588153,2368.659014,-10214.842000,229.828649
567.588478,2590.720797,-10955.047942,76.609550
567.588802,1628.453072,-10732.986159,306.438199
567.589126,888.247130,-11177.109724,-306.438199
567.589450,1184.329507,-10881.027347,-842.705048
567.589774,1554.432478,-11177.109724,-459.657299
567.590098,1184.329507,-10955.047942,-459.657299
567.590423,814.226536,-10362.883188,-459.657299
567.590747,1036.288319,-10881.027347,229.828649
567.591071,1036.288319,-10140.821405,-153.219100
567.591395,1628.453072,-9400.615463,-766.095498
567.591719,814.226536,-9104.533087,-1072.533697
567.592044,-296.082377,-9992.780217,-1149.143247
567.592368,-592.164754,-10288.862594,-995.924147
567.592692,-444.123565,-11177.109724,-766.095498
567.593016,-962.267725,-11177.109724,0.000000
567.593340,-1110.308913,-9770.718434,-459.657299
567.593664,-444.123565,-10140.821405,-306.438199
567.593989,-296.082377,-9992.780217,153.219100
567.594313,888.247130,-9696.697840,0.000000
567.594637,666.185348,-9548.656652,766.095498
567.594961,222.061783,-8956.491898,306.438199
567.595285,444.123565,-7624.121203,383.047749
567.595610,888.247130,-8290.306550,842.705048
567.595934,1036.288319,-9474.636058,842.705048
567.596258,444.123565,-9252.574275,306.438199
567.596582,-1184.329507,-9178.553681,689.485948
567.596906,-1924.535449,-9326.594869,536.266849
567.597230,-1184.329507,-8586.388927,0.000000
567.597555,-1036.288319,-8808.450710,1149.143247
567.597879,-1702.473667,-8882.471304,612.876398
567.598203,-2368.659014,-8438.347739,-919.314598
567.598527,-2886.803174,-8364.327145,-153.219100
567.598851,-2664.741391,-8438.347739,153.219100
567.599176,-1776.494261,-8660.409521,229.828649
567.599500,-1702.473667,-9474.636058,1608.800546
567.599824,-1776.494261,-9548.656652,612.876398
567.600148,-2442.679609,-9400.615463,306.438199
567.600472,-2368.659014,-9992.780217,459.657299
567.600796,-1258.350101,-10584.944971,689.485948
567.601121,-148.041188,-10214.842000,306.438199
567.601445,-444.123565,-9992.780217,536.266849
567.601769,0.000000,-10214.842000,0.000000
567.602093,74.020594,-9992.780217,-229.828649
567.602417,74.020594,-9992.780217,-995.924147
567.602742,-148.041188,-9104.533087,-1302.362347
567.603066,666.185348,-9548.656652,-842.705048
567.603390,1702.473667,-11177.109724,-459.657299
567.603714,1924.535449,-11251.130318,-766.095498
567.604038,1036.288319,-10658.965565,-536.266849
567.604362,-296.082377,-11103.089130,-689.485948
567.604687,-222.061783,-11473.192101,-612.876398
567.605011,592.164754,-11103.089130,0.000000
567.605335,1628.453072,-11029.068536,459.657299
567.605659,2220.617826,-10436.903782,-153.219100
567.605983,2368.659014,-9770.718434,-995.924147
567.606308,1406.391290,-10066.800811,-536.266849
567.606632,2220.617826,-9474.636058,-153.219100
567.606956,2960.823768,-9178.553681,-612.876398
567.607280,2664.741391,-9474.636058,153.219100
567.607604,1998.556043,-9178.553681,-919.314598
567.607928,592.164754,-9770.718434,-1225.752797
567.608253,-1258.350101,-9918.759623,-536.266849
567.608577,-1480.411884,-9474.636058,0.000000
567.608901,-1036.288319,-9178.553681,-229.828649
567.609225,-888.247130,-9030.512492,0.000000
567.609549,-296.082377,-8364.327145,0.000000
567.609873,444.123565,-8142.265362,0.000000
567.610197,962.267725,-7772.162391,-306.438199
567.610521,1628.453072,-7698.141797,306.438199
567.610845,1998.556043,-7920.203579,0.000000
567.611170,1776.494261,-7920.203579,306.438199
567.611494,1628.453072,-8068.244768,536.266849
567.611818,1110.308913,-9622.677246,383.047749
567.612142,370.102971,-10658.965565,-536.266849
567.612466,-296.082377,-9992.780217,-229.828649
567.612790,-740.205942,-9622.677246,0.000000
567.613114,-1332.370696,-9622.677246,-153.219100
567.613438,-888.247130,-10066.800811,-689.485948
567.613762,-1184.329507,-9918.759623,689.485948
567.614087,-1628.453072,-9474.636058,229.828649
567.614411,-1850.514855,-8438.347739,-1072.533697
567.614735,-2294.638420,-8216.285956,0.000000
567.615059,-1184.329507,-9622.677246,306.438199
567.615383,-148.041188,-10955.047942,-612.876398
567.615707,-148.041188,-11251.130318,536.266849
567.616031,-444.123565,-10140.821405,995.924147
567.616355,-222.061783,-10510.924376,0.000000
567.616679,-222.061783,-11029.068536,306.438199
567.617004,-888.247130,-11399.171507,689.485948
567.617328,-962.267725,-11251.130318,0.000000
567.617652,-814.226536,-10807.006753,-229.828649
567.617976,-2072.576638,-9474.636058,-383.047749
567.618300,-1554.432478,-8364.327145,-306.438199
567.618624,-666.185348,-9622.677246,0.000000
567.618948,-1110.308913,-10140.821405,229.828649
567.619272,-1924.535449,-9918.759623,612.876398
567.619596,-2664.741391,-9548.656652,153.219100
567.619921,-2146.597232,-8956.491898,-229.828649
567.620245,-962.267725,-9252.574275,229.828649
567.620569,-666.185348,-10288.862594,842.705048
567.620893,-296.082377,-10288.862594,536.266849
567.621217,0.000000,-10140.821405,76.609550
567.621541,296.082377,-10066.800811,612.876398
567.621865,1776.494261,-8882.471304,0.000000
567.622189,2590.720797,-8586.388927,153.219100
567.622513,1776.494261,-9400.615463,229.828649
567.622838,1702.473667,-9548.656652,153.219100
567.623162,1554.432478,-9918.759623,76.609550
567.623486,814.226536,-9918.759623,612.876398
567.623810,444.123565,-8882.471304,76.609550
567.624134,518.144159,-8882.471304,-153.219100
567.624458,-1184.329507,-8808.450710,-612.876398
567.624782,-1998.556043,-8734.430116,-1225.752797
567.625106,-1258.350101,-9252.574275,-842.705048
567.625430,-296.082377,-9696.697840,-459.657299
567.625755,888.247130,-8438.347739,229.828649
567.626079,1924.535449,-8364.327145,919.314598
567.626403,1998.556043,-9474.636058,383.047749
567.626727,1628.453072,-9474.636058,-1072.533697
567.627051,1036.288319,-9770.718434,-995.924147
567.627375,148.041188,-9696.697840,-1225.752797
567.627699,666.185348,-9770.718434,-995.924147
567.628023,2442.679609,-10362.883188,153.219100
567.628347,2220.617826,-10658.965565,0.000000
567.628672,1110.308913,-10658.965565,-383.047749
567.628996,-518.144159,-9622.677246,-919.314598
567.629320,-1332.370696,-9696.697840,-1302.362347
567.629644,-444.123565,-9104.533087,-1378.971896
567.629968,370.102971,-9918.759623,-306.438199
567.630292,666.185348,-10955.047942,995.924147
567.630616,1036.288319,-10362.883188,0.000000
567.630940,518.144159,-9918.759623,229.828649
567.631264,-296.082377,-10510.924376,-306.438199
567.631588,296.082377,-10288.862594,-842.705048
567.631913,666.185348,-10955.047942,-383.047749
567.632237,888.247130,-11103.089130,0.000000
567.632561,518.144159,-10510.924376,0.000000
567.632885,-296.082377,-11251.130318,0.000000
567.633209,-1036.288319,-10066.800811,-689.485948
567.633533,-222.061783,-9030.512492,-612.876398
567.633857,0.000000,-9696.697840,-76.609550
567.634181,0.000000,-9548.656652,0.000000
567.634505,0.000000,-9474.636058,0.000000
567.634830,-888.247130,-9400.615463,766.095498
567.635154,-666.185348,-9104.533087,1302.362347
567.635478,-518.144159,-9104.533087,1149.143247
567.635802,-1406.391290,-9178.553681,1685.410096
567.636126,-1702.473667,-9178.553681,1608.800546
567.636450,-1258.350101,-8660.409521,306.438199
567.636774,-1924.535449,-8438.347739,306.438199
567.637098,-2368.659014,-8216.285956,76.609550
567.637422,-1924.535449,-8660.409521,306.438199
567.637747,-1850.514855,-8438.347739,842.705048
567.638071,-1776.494261,-7772.162391,-153.219100
567.638395,-1554.432478,-8142.265362,229.828649
567.638719,-1628.453072,-9400.615463,459.657299
567.639043,-888.247130,-9548.656652,0.000000
567.639367,-814.226536,-9030.512492,306.438199
567.639691,-666.185348,-9252.574275,842.705048
567.640015,-592.164754,-10066.800811,459.657299
567.640339,-962.267725,-10807.006753,153.219100
567.640664,-1776.494261,-10288.862594,766.095498
567.640988,-1924.535449,-9400.615463,306.438199
567.641312,-666.185348,-9918.759623,0.000000
567.641636,148.041188,-10214.842000,383.047749
567.641960,1406.391290,-10140.821405,76.609550
567.642284,2146.597232,-9696.697840,-306.438199
567.642608,1702.473667,-10066.800811,-229.828649
567.642932,1702.473667,-9326.594869,-1302.362347
567.643256,1628.453072,-9252.574275,-1608.800546
567.643581,1036.288319,-10436.903782,-919.314598
567.643905,814.226536,-11325.150913,-1532.190996
567.644229,1110.308913,-11843.295072,-842.705048
567.644553,1332.370696,-11399.171507,-612.876398
567.644877,1036.288319,-9178.553681,-459.657299
567.645201,740.205942,-9326.594869,-383.047749
567.645525,1480.411884,-10214.842000,-612.876398
567.645849,962.267725,-10362.883188,-842.705048
567.646173,1036.288319,-10510.924376,-459.657299
567.646498,1036.288319,-9918.759623,-153.219100
567.646822,2072.576638,-8882.471304,-383.047749
567.647146,2812.782580,-9104.533087,0.000000
567.647470,2590.720797,-10066.800811,-153.219100
567.647794,1406.391290,-10066.800811,-1378.971896
567.648118,148.041188,-10066.800811,-919.314598
567.648442,-1332.370696,-9474.636058,-842.705048
567.648766,-814.226536,-8956.491898,-1302.362347
567.649090,222.061783,-8956.491898,-842.705048
567.649415,444.123565,-9178.553681,-306.438199
567.649739,592.164754,-8586.388927,-459.657299
567.650063,-444.123565,-8956.491898,-919.314598
567.650387,-1110.308913,-9548.656652,0.000000
567.650711,-444.123565,-8216.285956,-306.438199
567.651035,296.082377,-8216.285956,383.047749
567.651359,148.041188,-9622.677246,612.876398
567.651683,222.061783,-10140.821405,0.000000
567.652007,0.000000,-10658.965565,-383.047749
567.652332,-814.226536,-9918.759623,459.657299
567.652656,-370.102971,-9474.636058,-612.876398
567.652980,-370.102971,-10214.842000,0.000000
567.653304,-1110.308913,-10584.944971,153.219100
567.653628,-1258.350101,-10881.027347,-459.657299
567.653952,-2590.720797,-10362.883188,-306.438199
567.654276,-3108.864956,-9622.677246,-459.657299
567.654600,-1850.514855,-9548.656652,689.485948
567.654924,0.000000,-10214.842000,995.924147
567.655249,0.000000,-9474.636058,919.314598
567.655573,-370.102971,-9548.656652,1072.533697
567.655897,-1628.453072,-10288.862594,919.314598
567.656221,-3034.844362,-9400.615463,0.000000
567.656545,-2368.659014,-8512.368333,383.047749
567.656869,-1480.411884,-8734.430116,306.438199
567.657193,-592.164754,-9548.656652,153.219100
567.657517,-1110.308913,-9770.718434,-229.828649
567.657841,-1480.411884,-8808.450710,0.000000
567.658166,-296.082377,-8142.265362,0.000000
567.658490,296.082377,-8734.430116,0.000000
567.658814,1184.329507,-9844.739029,612.876398
567.659138,1184.329507,-10436.903782,1302.362347
567.659462,1184.329507,-10732.986159,459.657299
567.659786,-148.041188,-11103.089130,459.657299
567.660110,-666.185348,-10584.944971,842.705048
567.660434,0.000000,-10288.862594,229.828649
567.660758,74.020594,-10807.006753,842.705048
567.661082,0.000000,-9622.677246,383.047749
567.661407,74.020594,-9400.615463,0.000000
567.661731,-148.041188,-10288.862594,0.000000
567.662055,296.082377,-9548.656652,0.000000
567.662379,592.164754,-8808.450710,459.657299
567.662703,666.185348,-8512.368333,0.000000
567.663027,888.247130,-8586.388927,0.000000
567.663351,1184.329507,-8956.491898,-459.657299
567.663675,296.082377,-9326.594869,-766.095498
567.663999,518.144159,-9474.636058,-383.047749
567.664324,1406.391290,-9844.739029,0.000000
567.664648,1924.535449,-9622.677246,306.438199
567.664972,1924.535449,-9326.594869,0.000000
567.665296,1628.453072,-9104.533087,-612.876398
567.665620,740.205942,-9178.553681,-383.047749
567.665944,148.041188,-7846.182985,-536.266849
567.666268,1184.329507,-8142.265362,153.219100
567.666592,1406.391290,-9252.574275,536.266849
567.666916,1258.350101,-9844.739029,0.000000
567.667241,592.164754,-9770.718434,-229.828649
567.667565,-518.144159,-9030.512492,-842.705048
567.667889,-1628.453072,-9326.594869,-1532.190996
567.668213,-1258.350101,-10436.903782,-1302.362347
567.668537,-962.267725,-10584.944971,-1149.143247
567.668861,-592.164754,-10955.047942,-995.924147
567.669185,-1110.308913,-11473.192101,-1302.362347
567.669509,-1480.411884,-11029.068536,-1608.800546
567.669833,-814.226536,-9622.677246,-1915.238745
567.670158,-444.123565,-9622.677246,-1149.143247
567.670482,888.247130,-10510.924376,-536.266849
567.670806,1628.453072,-10955.047942,-689.485948
567.671130,1776.494261,-11177.109724,-383.047749
567.671454,1036.288319,-9844.739029,-689.485948
567.671778,1036.288319,-9696.697840,-766.095498
567.672102,222.061783,-10436.903782,-306.438199
567.672426,-222.061783,-10658.965565,-383.047749
567.672750,-814.226536,-10881.027347,-306.438199
567.673075,-1184.329507,-10214.842000,-459.657299
567.673399,-1036.288319,-9844.739029,-919.314598
567.673723,-1628.453072,-8808.450710,-1532.190996
567.674047,-2368.659014,-8290.306550,-1149.143247
567.674371,-2516.700203,-8438.347739,-995.924147
567.674695,-1332.370696,-9252.574275,-766.095498
567.675019,-1258.350101,-10140.821405,229.828649
567.675343,-1702.473667,-8660.409521,76.609550
567.675667,-1036.288319,-8290.306550,229.828649
567.675992,-1036.288319,-9622.677246,766.095498
567.676316,-1036.288319,-10807.006753,153.219100
567.676640,-1480.411884,-10807.006753,383.047749
567.676964,-2146.597232,-10140.821405,689.485948
567.677288,-1480.411884,-8734.430116,383.047749
567.677612,-296.082377,-8142.265362,0.000000
567.677936,222.061783,-9030.512492,1302.362347
567.678260,814.226536,-9326.594869,459.657299
567.678584,592.164754,-9548.656652,0.000000
567.678909,-148.041188,-8956.491898,459.657299
567.679233,370.102971,-8660.409521,689.485948
567.679557,1184.329507,-9178.553681,612.876398
567.679881,1036.288319,-9400.615463,689.485948
567.680205,148.041188,-9178.553681,612.876398
567.680529,-592.164754,-10066.800811,689.485948
567.680853,-888.247130,-10732.986159,153.219100
567.681177,-296.082377,-9918.759623,76.609550
567.681501,0.000000,-8956.491898,459.657299
567.681826,0.000000,-8956.491898,76.609550
567.682150,888.247130,-9696.697840,612.876398
567.682474,740.205942,-9474.636058,306.438199
567.682798,1184.329507,-9252.574275,153.219100
567.683122,2220.617826,-8734.430116,-306.438199
567.683446,2886.803174,-10214.842000,459.657299
567.683770,2442.679609,-11029.068536,919.314598
567.684094,1776.494261,-11103.089130,306.438199
567.684418,148.041188,-11251.130318,0.000000
567.684743,-370.102971,-11029.068536,0.000000
567.685067,74.020594,-9992.780217,-612.876398
567.685391,592.164754,-10066.800811,0.000000
567.685715,740.205942,-9992.780217,-153.219100
567.686039,1332.370696,-10362.883188,-612.876398
567.686363,370.102971,-9548.656652,-689.485948
567.686687,-518.144159,-8142.265362,-995.924147
567.687011,222.061783,-7624.121203,-383.047749
567.687335,1480.411884,-8808.450710,0.000000
567.687659,2294.638420,-9622.677246,76.609550
567.687984,1554.432478,-10362.883188,459.657299
567.688308,222.061783,-10732.986159,0.000000
567.688632,-592.164754,-9992.780217,-536.266849
567.688956,-518.144159,-8882.471304,-306.438199
567.689280,-370.102971,-9178.553681,-153.219100
567.689604,0.000000,-9992.780217,0.000000
567.689928,518.144159,-9696.697840,229.828649
567.690252,740.205942,-9696.697840,459.657299
567.690576,0.000000,-8808.450710,0.000000
567.690901,74.020594,-8216.285956,-1072.533697
567.691225,-518.144159,-8216.285956,-842.705048
567.691549,-1258.350101,-9622.677246,-383.047749
567.691873,-1184.329507,-11473.192101,0.000000
567.692197,-1998.556043,-11547.212695,0.000000
567.692521,-3404.947333,-9474.636058,-536.266849
567.692845,-3330.926739,-8142.265362,-689.485948
567.693169,-2960.823768,-9622.677246,-459.657299
567.693493,-1998.556043,-10362.883188,-383.047749
567.693818,-1332.370696,-9178.553681,76.609550
567.694142,-962.267725,-8512.368333,689.485948
567.694466,-962.267725,-8438.347739,153.219100
567.694790,-370.102971,-8808.450710,0.000000
567.695114,-444.123565,-8808.450710,536.266849
567.695438,-518.144159,-9622.677246,-536.266849
567.695762,-1036.288319,-11029.068536,-306.438199
567.696086,-1258.350101,-10807.006753,306.438199
567.696410,-444.123565,-9992.780217,76.609550
567.696735,-592.164754,-9548.656652,-306.438199
567.697059,-592.164754,-10362.883188,459.657299
567.697383,-370.102971,-10807.006753,153.219100
567.697707,518.144159,-10955.047942,153.219100
567.698031,888.247130,-9770.718434,766.095498
567.698355,1184.329507,-8734.430116,766.095498
567.698679,1554.432478,-8438.347739,536.266849
567.699003,1332.370696,-10066.800811,383.047749
567.699327,1036.288319,-10140.821405,-459.657299
567.699652,666.185348,-10140.821405,-306.438199
567.699976,-444.123565,-10066.800811,-689.485948
567.700300,-1036.288319,-9548.656652,-919.314598
567.700624,-1036.288319,-9844.739029,-612.876398
567.700948,-370.102971,-10214.842000,0.000000
567.701272,296.082377,-10140.821405,-153.219100
567.701596,1036.288319,-9622.677246,-153.219100
567.701920,2072.576638,-8586.388927,229.828649
567.702244,3034.844362,-7846.182985,459.657299
567.702569,3182.885551,-8512.368333,459.657299
567.702893,2812.782580,-10066.800811,995.924147
567.703217,1702.473667,-10658.965565,383.047749
567.703541,148.041188,-10436.903782,153.219100
567.703865,-740.205942,-10066.800811,0.000000
567.704189,-148.041188,-10140.821405,76.609550
567.704513,74.020594,-9992.780217,-229.828649
567.704837,-518.144159,-10140.821405,-766.095498
567.705161,-518.144159,-9844.739029,-919.314598
567.705486,-518.144159,-10214.842000,-612.876398
567.705810,296.082377,-9474.636058,-1302.362347
567.706134,814.226536,-8364.327145,-612.876398
567.706458,1036.288319,-8364.327145,76.609550
567.706782,1110.308913,-9252.574275,0.000000
567.707106,740.205942,-9622.677246,0.000000
567.707430,-296.082377,-9622.677246,536.266849
567.707754,518.144159,-9252.574275,459.657299
567.708078,518.144159,-8882.471304,-153.219100
567.708403,296.082377,-9400.615463,459.657299
567.708727,-666.185348,-9548.656652,459.657299
567.709051,0.000000,-10214.842000,-383.047749
567.709375,0.000000,-10436.903782,-689.485948
567.709699,-296.082377,-8068.244768,-536.266849
567.710023,222.061783,-7254.018232,0.000000
567.710347,740.205942,-8660.409521,383.047749
567.710672,814.226536,-10732.986159,612.876398
567.710996,518.144159,-11103.089130,536.266849
567.711320,-296.082377,-11029.068536,76.609550
567.711644,-1332.370696,-10807.006753,0.000000
567.711968,-1850.514855,-9844.739029,0.000000
567.712292,-1628.453072,-9252.574275,766.095498
567.712616,-2368.659014,-10288.862594,1072.533697
567.712941,-3034.844362,-10807.006753,536.266849
567.713265,-2812.782580,-10066.800811,612.876398
567.713589,-1924.535449,-8068.244768,229.828649
567.713913,-1184.329507,-7402.059420,229.828649
567.714237,-1850.514855,-8364.327145,536.266849
567.714561,-1776.494261,-8956.491898,0.000000
567.714885,-1628.453072,-8438.347739,0.000000
567.715209,-1628.453072,-8142.265362,-306.438199
567.715534,-888.247130,-8586.388927,0.000000
567.715858,0.000000,-10288.862594,0.000000
567.716182,-222.061783,-11547.212695,459.657299
567.716506,-740.205942,-10881.027347,306.438199
567.716830,-666.185348,-10288.862594,0.000000
567.717154,-518.144159,-10362.883188,-306.438199
567.717478,296.082377,-9622.677246,-842.705048
567.717803,1998.556043,-9770.718434,0.000000
567.718127,2590.720797,-9770.718434,0.000000
567.718451,2368.659014,-10288.862594,-306.438199
567.718775,1184.329507,-10955.047942,0.000000
567.719099,518.144159,-11251.130318,0.000000
567.719423,814.226536,-10584.944971,-306.438199
567.719747,740.205942,-10362.883188,-229.828649
567.720072,148.041188,-11029.068536,229.828649
567.720396,74.020594,-10807.006753,-995.924147
567.720720,148.041188,-10436.903782,-1149.143247
567.721044,-740.205942,-9104.533087,-995.924147
567.721368,-148.041188,-7994.224174,-1532.190996
567.721692,888.247130,-8216.285956,-612.876398
567.722016,1184.329507,-9104.533087,0.000000
567.722341,1406.391290,-9030.512492,229.828649
567.722665,518.144159,-8808.450710,-229.828649
567.722989,444.123565,-9252.574275,-459.657299
567.723313,666.185348,-8882.471304,-536.266849
567.723637,592.164754,-9104.533087,-229.828649
567.723961,1110.308913,-9474.636058,-306.438199
567.724285,1332.370696,-9474.636058,0.000000
567.724610,1480.411884,-9992.780217,0.000000
567.724934,592.164754,-8660.409521,-1072.533697
567.725258,592.164754,-7476.080014,-995.924147
567.725582,1332.370696,-8734.430116,-612.876398
567.725906,2072.576638,-9474.636058,-689.485948
567.726230,1776.494261,-9770.718434,-153.219100
567.726554,0.000000,-9844.739029,0.000000
567.726879,-1184.329507,-9548.656652,-612.876398
567.727203,-962.267725,-10066.800811,0.000000
567.727527,-1406.391290,-10214.842000,306.438199
567.727851,-888.247130,-10807.006753,153.219100
567.728175,-592.164754,-10881.027347,0.000000
567.728499,-444.123565,-10214.842000,153.219100
567.728823,-222.061783,-9326.594869,-153.219100
567.729148,-296.082377,-9030.512492,-306.438199
567.729472,-592.164754,-9622.677246,0.000000
567.729796,-222.061783,-9252.574275,-842.705048
567.730120,-592.164754,-9622.677246,153.219100
567.730444,-740.205942,-10288.862594,-153.219100
567.730768,-296.082377,-10214.842000,-383.047749
567.731092,0.000000,-9696.697840,76.609550
567.731417,-888.247130,-9918.759623,229.828649
567.731741,-2368.659014,-10214.842000,229.828649
567.732065,-3108.864956,-10436.903782,76.609550
567.732389,-4441.235652,-9770.718434,-383.047749
567.732713,-4367.215058,-9252.574275,-766.095498
567.733037,-3775.050304,-9104.533087,-766.095498
567.733361,-3108.864956,-8808.450710,0.000000
567.733686,-1702.473667,-9030.512492,383.047749
567.734010,-814.226536,-9622.677246,459.657299
567.734334,-962.267725,-9622.677246,229.828649
567.734658,-1332.370696,-8808.450710,689.485948
567.734982,-1406.391290,-8660.409521,0.000000
567.735306,-2368.659014,-9400.615463,-1225.752797
567.735630,-2886.803174,-10732.986159,-1378.971896
567.735955,-3034.844362,-11547.212695,-1455.581446
567.736279,-2664.741391,-11029.068536,-1378.971896
567.736603,-2886.803174,-9326.594869,-1455.581446
567.736927,-1702.473667,-8956.491898,-1225.752797
567.737251,592.164754,-8882.471304,-766.095498
567.737575,962.267725,-9178.553681,-229.828649
567.737899,1184.329507,-9474.636058,0.000000
567.738224,592.164754,-9622.677246,-766.095498
567.738548,0.000000,-9326.594869,-1149.143247
567.738872,0.000000,-8882.471304,-612.876398
567.739196,0.000000,-8586.388927,-1685.410096
567.739520,-370.102971,-9326.594869,-2298.286494
567.739844,-1332.370696,-10658.965565,-2451.505594
567.740168,-2516.700203,-10658.965565,-2604.724693
567.740493,-2886.803174,-8882.471304,-2987.772442
567.740817,-3256.906145,-8512.368333,-2451.505594
567.741141,-2368.659014,-8660.409521,-2757.943793
567.741465,-296.082377,-8882.471304,-2757.943793
567.741789,296.082377,-10140.821405,-2451.505594
567.742113,-814.226536,-11399.171507,-2221.676944
567.742437,-1110.308913,-11399.171507,-3064.381992
567.742762,-2368.659014,-10066.800811,-2604.724693
567.743086,-2442.679609,-9844.739029,-2221.676944
567.743410,-2294.638420,-10584.944971,-3677.258390
567.743734,-2220.617826,-11621.233289,-2834.553343
567.744058,-1332.370696,-12139.377449,-2068.457845
567.744382,-296.082377,-11177.109724,-2221.676944
567.744706,-148.041188,-8882.471304,-2221.676944
567.745031,-1332.370696,-8364.327145,-2834.553343
567.745355,-2146.597232,-8586.388927,-2987.772442
567.745679,-2072.576638,-8882.471304,-4136.915689
567.746003,-2368.659014,-9252.574275,-2757.943793
567.746327,-2294.638420,-10436.903782,-1838.629195
567.746651,-1850.514855,-10214.842000,-2528.115143
567.746975,-2442.679609,-8142.265362,-2757.943793
567.747300,-4515.256246,-7402.059420,-2604.724693
567.747624,-4885.359217,-8956.491898,-3447.429741
567.747948,-4959.379811,-10881.027347,-3983.696590
567.748272,-4811.338623,-10362.883188,-3677.258390
567.748596,-3108.864956,-9548.656652,-2451.505594
567.748920,-518.144159,-10955.047942,-1838.629195
567.749244,740.205942,-12361.439231,-1991.848295
567.749569,74.020594,-11769.274478,-1762.019645
567.749893,-814.226536,-10881.027347,-1302.362347
567.750217,-740.205942,-10732.986159,-1685.410096
567.750541,-740.205942,-10510.924376,-1915.238745
567.750865,-1184.329507,-9400.615463,-1532.190996
567.751189,-2368.659014,-8512.368333,-2068.457845
567.751513,-2738.761985,-9622.677246,-1915.238745
567.751838,-2368.659014,-10436.903782,-2451.505594
567.752162,-4441.235652,-8216.285956,-2987.772442
567.752486,-7179.997637,-7105.977043,-2145.067394
567.752810,-7624.121203,-8290.306550,-2987.772442
567.753134,-5921.647536,-9030.512492,-2987.772442
567.753458,-4071.132681,-8882.471304,-1838.629195
567.753782,-3330.926739,-9104.533087,-1072.533697
567.754106,-1924.535449,-10362.883188,-459.657299
567.754431,666.185348,-10362.883188,229.828649
567.754755,2516.700203,-9474.636058,766.095498
567.755079,592.164754,-9474.636058,383.047749
567.755403,-962.267725,-11103.089130,-306.438199
567.755727,-1332.370696,-11325.150913,-689.485948
567.756051,-518.144159,-9548.656652,-766.095498
567.756375,-1258.350101,-8956.491898,-1149.143247
567.756700,-3404.947333,-9918.759623,-1532.190996
567.757024,-4885.359217,-10214.842000,-1838.629195
567.757348,-3997.112087,-9030.512492,-1685.410096
567.757672,-4293.194464,-7105.977043,-2757.943793
567.757996,-5033.400406,-8438.347739,-2604.724693
567.758320,-5847.626942,-10214.842000,-1915.238745
567.758644,-5255.462188,-9474.636058,-2145.067394
567.758969,-4071.132681,-8216.285956,-2528.115143
567.759293,-3108.864956,-7920.203579,-1685.410096
567.759617,-1480.411884,-9252.574275,-842.705048
567.759941,740.205942,-9696.697840,-919.314598
567.760265,2442.679609,-9400.615463,-689.485948
567.760589,2294.638420,-9326.594869,-919.314598
567.760913,1036.288319,-10807.006753,-1378.971896
567.761238,0.000000,-11325.150913,-1762.019645
567.761562,444.123565,-10066.800811,-2068.457845
567.761886,740.205942,-10584.944971,-2451.505594
567.762210,-888.247130,-11917.315666,-2068.457845
567.762534,-2738.761985,-12657.521608,-2068.457845
567.762858,-3923.091493,-10881.027347,-2604.724693
567.763182,-3849.070898,-8734.430116,-3064.381992
567.763507,-3478.967927,-8660.409521,-3447.429741
567.763831,-3034.844362,-9918.759623,-2604.724693
567.764155,-1850.514855,-10362.883188,-1915.238745
567.764479,-1184.329507,-9030.512492,-1685.410096
567.764803,-1554.432478,-8216.285956,-2145.067394
567.765127,-1702.473667,-8956.491898,-1991.848295
567.765451,148.041188,-9030.512492,-1378.971896
567.765776,2072.576638,-9400.615463,-995.924147
567.766100,1480.411884,-9918.759623,-1762.019645
567.766424,-740.205942,-10955.047942,-1991.848295
567.766748,-2368.659014,-12657.521608,-2451.505594
567.767072,-3849.070898,-11695.253884,-2834.553343
567.767396,-4589.276840,-10214.842000,-3064.381992
567.767720,-5477.523971,-9104.533087,-2911.162892
567.768045,-4219.173869,-9104.533087,-2528.115143
567.768369,-2368.659014,-8660.409521,-2221.676944
567.768693,-962.267725,-7179.997637,-2298.286494
567.769017,-148.041188,-7105.977043,-1915.238745
567.769341,-888.247130,-8364.327145,-2757.943793
567.769665,-2294.638420,-9030.512492,-1532.190996
567.769989,-3108.864956,-9770.718434,-1455.581446
567.770314,-4219.173869,-9770.718434,-1915.238745
567.770638,-4663.297435,-10214.842000,-2451.505594
567.770962,-4071.132681,-10214.842000,-2298.286494
567.771286,-2368.659014,-9400.615463,-2374.896044
567.771610,-444.123565,-9548.656652,-1915.238745
567.771934,-222.061783,-9252.574275,-2145.067394
567.772258,-1406.391290,-9622.677246,-1608.800546
567.772583,-2886.803174,-10140.821405,-2374.896044
567.772907,-4737.318029,-10510.924376,-2604.724693
567.773231,-5921.647536,-10881.027347,-2834.553343
567.773555,-5477.523971,-11103.089130,-2528.115143
567.773879,-3701.029710,-10288.862594,-1915.238745
567.774203,-1628.453072,-9400.615463,-2451.505594
567.774527,-518.144159,-8660.409521,-1991.848295
567.774852,0.000000,-7698.141797,-2528.115143
567.775176,-222.061783,-7846.182985,-2451.505594
567.775500,-740.205942,-9030.512492,-2374.896044
567.775824,-1258.350101,-9770.718434,-2145.067394
567.776148,-1776.494261,-9252.574275,-1991.848295
567.776472,-2072.576638,-8734.430116,-2068.457845
567.776796,-3182.885551,-9252.574275,-2681.334243
567.777121,-4589.276840,-11029.068536,-3753.867940
567.777445,-5551.544565,-12805.562797,-2681.334243
567.777769,-4737.318029,-13471.748144,-2604.724693
567.778093,-3478.967927,-12583.501014,-1915.238745
567.778417,-2220.617826,-10658.965565,-766.095498
567.778741,-888.247130,-8512.368333,-1532.190996
567.779065,222.061783,-7476.080014,-2298.286494
567.779390,740.205942,-7846.182985,-2145.067394
567.779714,1480.411884,-8142.265362,-1762.019645
567.780038,2294.638420,-8586.388927,-1455.581446
567.780362,1332.370696,-8956.491898,-1225.752797
567.780686,-1258.350101,-8734.430116,-1608.800546
567.781010,-4071.132681,-8956.491898,-2451.505594
567.781334,-7105.977043,-9770.718434,-4366.744339
567.781659,-8586.388927,-10732.986159,-4903.011187
567.781983,-7105.977043,-12509.480420,-3370.820191
567.782307,-4219.173869,-12213.398043,-2681.334243
567.782631,-1628.453072,-11547.212695,-1225.752797
567.782955,-962.267725,-9992.780217,306.438199
567.783279,666.185348,-8586.388927,-612.876398
567.783603,2072.576638,-7846.182985,-1072.533697
567.783928,3478.967927,-8364.327145,-2068.457845
567.784252,5107.421000,-8364.327145,-536.266849
567.784576,6365.771101,-8586.388927,229.828649
567.784900,4737.318029,-9548.656652,0.000000
567.785224,1258.350101,-9696.697840,-536.266849
567.785548,-2738.761985,-10362.883188,-1838.629195
567.785872,-6513.812290,-11399.171507,-3140.991542
567.786197,-9104.533087,-12435.459826,-3907.087040
567.786521,-9178.553681,-10881.027347,-2757.943793
567.786845,-7402.059420,-9178.553681,-2374.896044
567.787169,-6069.688724,-9030.512492,-2068.457845
567.787493,-4663.297435,-7624.121203,-1302.362347
567.787817,-2664.741391,-6587.832884,-842.705048
567.788141,-370.102971,-7402.059420,-383.047749
567.788466,1628.453072,-8956.491898,995.924147
567.788790,3108.864956,-9622.677246,1532.190996
567.789114,3849.070898,-8808.450710,1762.019645
567.789438,2812.782580,-9178.553681,612.876398
567.789762,962.267725,-10362.883188,-689.485948
567.790086,-1184.329507,-10288.862594,-1225.752797
567.790410,-3108.864956,-10658.965565,-1915.238745
567.790735,-5551.544565,-10436.903782,-2528.115143
567.791059,-7105.977043,-9548.656652,-2757.943793
567.791383,-8660.409521,-8734.430116,-3600.648841
567.791707,-9030.512492,-8438.347739,-3447.429741
567.792031,-8216.285956,-7994.224174,-3753.867940
567.792355,-5921.647536,-8438.347739,-2834.553343
567.792679,-3256.906145,-8290.306550,-1762.019645
567.793003,-444.123565,-9104.533087,-459.657299
567.793328,1776.494261,-9770.718434,-536.266849
567.793652,2294.638420,-9770.718434,-229.828649
567.793976,2368.659014,-10584.944971,-766.095498
567.794300,1924.535449,-11473.192101,-689.485948
567.794624,962.267725,-12139.377449,-1378.971896
567.794948,-444.123565,-11843.295072,-2528.115143
567.795272,-2664.741391,-11251.130318,-3294.210641
567.795597,-4885.359217,-9918.759623,-4136.915689
567.795921,-6587.832884,-10140.821405,-5132.839837
567.796245,-7624.121203,-8882.471304,-6052.154434
567.796569,-7624.121203,-7105.977043,-5669.106685
567.796893,-5847.626942,-7179.997637,-4673.182538
567.797217,-3478.967927,-7476.080014,-3677.258390
567.797541,-1480.411884,-8734.430116,-3064.381992
567.797866,-518.144159,-9252.574275,-2528.115143
567.798190,-148.041188,-9918.759623,-2298.286494
567.798514,148.041188,-10881.027347,-2145.067394
567.798838,-148.041188,-12435.459826,-1915.238745
567.799162,-666.185348,-13027.624579,-2298.286494
567.799486,-1036.288319,-13471.748144,-3140.991542
567.799810,-1554.432478,-13323.706956,-3140.991542
567.800135,-1184.329507,-12805.562797,-3447.429741
567.800459,-444.123565,-10584.944971,-3753.867940
567.800783,0.000000,-8216.285956,-3830.477490
567.801107,-444.123565,-6957.935855,-3600.648841
567.801431,-1850.514855,-6587.832884,-4366.744339
567.801755,-3849.070898,-6957.935855,-4903.011187
567.802079,-5699.585753,-7476.080014,-4749.792088
567.802404,-6143.709319,-7846.182985,-4213.525239
567.802728,-5181.441594,-8438.347739,-3370.820191
567.803052,-3775.050304,-8882.471304,-2451.505594
567.803376,-2146.597232,-9770.718434,-1838.629195
567.803700,-888.247130,-10732.986159,-1225.752797
567.804024,222.061783,-11473.192101,-1608.800546
567.804348,0.000000,-12879.583391,-1149.143247
567.804673,148.041188,-13693.809927,-919.314598
567.804997,888.247130,-12731.542202,-1225.752797
567.805321,1258.350101,-10732.986159,-306.438199
567.805645,1406.391290,-8956.491898,-766.095498
567.805969,1628.453072,-8068.244768,-1302.362347
567.806293,740.205942,-7846.182985,-2757.943793
567.806617,-962.267725,-7994.224174,-2528.115143
567.806942,-3775.050304,-7920.203579,-2911.162892
567.807266,-6661.853478,-7772.162391,-3600.648841
567.807590,-8734.430116,-7179.997637,-3524.039291
567.807914,-8290.306550,-7031.956449,-2987.772442
567.808238,-6957.935855,-8068.244768,-2221.676944
567.808562,-5625.565159,-10066.800811,-1685.410096
567.808886,-4737.318029,-11251.130318,-383.047749
567.809211,-3404.947333,-11621.233289,76.609550
567.809535,-1554.432478,-11695.253884,766.095498
567.809859,0.000000,-11103.089130,995.924147
567.810183,1998.556043,-11029.068536,919.314598
567.810507,3997.112087,-10658.965565,689.485948
567.810831,4293.194464,-10881.027347,689.485948
567.811155,3182.885551,-9770.718434,-306.438199
567.811479,1406.391290,-8438.347739,-842.705048
567.811804,222.061783,-7920.203579,-1608.800546
567.812128,-2368.659014,-8068.244768,-1991.848295
567.812452,-6439.791695,-9104.533087,-2681.334243
567.812776,-9992.780217,-9844.739029,-3447.429741
567.813100,-11473.192101,-10140.821405,-3447.429741
567.813424,-9474.636058,-8586.388927,-3524.039291
567.813748,-6957.935855,-8142.265362,-2987.772442
567.814073,-5107.421000,-9030.512492,-1532.190996
567.814397,-3701.029710,-10140.821405,-842.705048
567.814721,-2516.700203,-10732.986159,-383.047749
567.815045,0.000000,-10436.903782,459.657299
567.815369,3775.050304,-11325.150913,1455.581446
567.815693,6883.915261,-10732.986159,1072.533697
567.816017,8512.368333,-9030.512492,459.657299
567.816341,7550.100608,-9104.533087,306.438199
567.816666,4959.379811,-10362.883188,-229.828649
567.816990,1776.494261,-11029.068536,-1532.190996
567.817314,-2664.741391,-10214.842000,-2374.896044
567.817638,-6439.791695,-8512.368333,-3370.820191
567.817962,-9400.615463,-7698.141797,-4596.572988
567.818286,-10955.047942,-8216.285956,-6281.983084
567.818610,-11843.295072,-8956.491898,-5669.106685
567.818935,-10955.047942,-7920.203579,-5056.230287
567.819259,-7994.224174,-6957.935855,-4290.134789
567.819583,-4589.276840,-7254.018232,-2451.505594
567.819907,-1332.370696,-7772.162391,-1455.581446
567.820231,814.226536,-9696.697840,-1302.362347
567.820555,2294.638420,-11029.068536,-536.266849
567.820879,4515.256246,-11991.336260,536.266849
567.821203,7328.038826,-12583.501014,1072.533697
567.821528,7994.224174,-12435.459826,995.924147
567.821852,5921.647536,-12139.377449,0.000000
567.822176,2738.761985,-12953.603985,-919.314598
567.822500,-1036.288319,-13175.665768,-3294.210641
567.822824,-6069.688724,-12065.356855,-5209.449386
567.823148,-10288.862594,-10881.027347,-4826.401637
567.823472,-10955.047942,-9474.636058,-5056.230287
567.823797,-10436.903782,-7402.059420,-5669.106685
567.824121,-9622.677246,-4737.318029,-6052.154434
567.824445,-9326.594869,-4959.379811,-5669.106685
567.824769,-7402.059420,-8290.306550,-4903.011187
567.825093,-2886.803174,-8734.430116,-3830.477490
567.825417,1184.329507,-7179.997637,-1762.019645
567.825741,2294.638420,-8068.244768,-306.438199
567.826065,3330.926739,-12361.439231,0.000000
567.826390,4145.153275,-13693.809927,0.000000
567.826714,3775.050304,-11547.212695,0.000000
567.827038,2738.761985,-11991.336260,0.000000
567.827362,1776.494261,-13989.892304,-1072.533697
567.827686,1036.288319,-12731.542202,-1532.190996
567.828010,74.020594,-10066.800811,-1149.143247
567.828334,-2220.617826,-9474.636058,-2221.676944
567.828659,-4071.132681,-9992.780217,-4213.525239
567.828983,-5107.421000,-8216.285956,-4443.353888
567.829307,-5551.544565,-6069.688724,-3677.258390
567.829631,-5107.421000,-5107.421000,-4290.134789
567.829955,-4885.359217,-6069.688724,-4673.182538
567.830279,-5551.544565,-6439.791695,-5056.230287
567.830603,-5477.523971,-9252.574275,-3524.039291
567.830927,-3404.947333,-11843.295072,-2834.553343
567.831252,-148.041188,-11843.295072,-2987.772442
567.831576,1110.308913,-11325.150913,-383.047749
567.831900,1850.514855,-11177.109724,459.657299
567.832224,3256.906145,-11399.171507,-306.438199
567.832548,3552.988522,-12361.439231,612.876398
567.832872,3997.112087,-11843.295072,1072.533697
567.833196,3997.112087,-10362.883188,306.438199
567.833521,1776.494261,-9252.574275,-459.657299
567.833845,370.102971,-6957.935855,-919.314598
567.834169,-666.185348,-7254.018232,-1225.752797
567.834493,-1110.308913,-7994.224174,-1915.238745
567.834817,-2442.679609,-9770.718434,-1838.629195
567.835141,-4663.297435,-9326.594869,-1915.238745
567.835465,-5255.462188,-7920.203579,-3140.991542
567.835789,-6365.771101,-8438.347739,-3370.820191
567.836114,-8142.265362,-10214.842000,-2298.286494
567.836438,-6809.894666,-11399.171507,-1302.362347
567.836762,-4737.318029,-11621.233289,-229.828649
567.837086,-2516.700203,-10584.944971,612.876398
567.837410,-962.267725,-9918.759623,842.705048
567.837734,518.144159,-10658.965565,2528.115143
567.838058,3108.864956,-10955.047942,2221.676944
567.838383,4737.318029,-10658.965565,1838.629195
567.838707,6069.688724,-9474.636058,2221.676944
567.839031,6217.729913,-10288.862594,2834.553343
567.839355,5181.441594,-12065.356855,1838.629195
567.839679,3256.906145,-11473.192101,536.266849
567.840003,370.102971,-9992.780217,-459.657299
567.840327,-2146.597232,-10140.821405,-2145.067394
567.840651,-4145.153275,-10584.944971,-1685.410096
567.840976,-5921.647536,-9548.656652,-1532.190996
567.841300,-6069.688724,-7698.141797,-995.924147
567.841624,-5625.565159,-6439.791695,-1225.752797
567.841948,-3552.988522,-7105.977043,-306.438199
567.842272,-814.226536,-7846.182985,1149.143247
567.842596,2738.761985,-7105.977043,2068.457845
567.842920,4145.153275,-7624.121203,3677.258390
567.843245,4293.194464,-10140.821405,3753.867940
567.843569,4441.235652,-11399.171507,4060.306139
567.843893,4885.359217,-11029.068536,3370.820191
567.844217,4441.235652,-9548.656652,1608.800546
567.844541,2368.659014,-10658.965565,1532.190996
567.844865,1628.453072,-13545.768739,1378.971896
567.845189,666.185348,-14285.974681,-153.219100
567.845513,-2220.617826,-10214.842000,-383.047749
567.845838,-4737.318029,-6957.935855,-1225.752797
567.846162,-5329.482782,-7402.059420,-1608.800546
567.846486,-4589.276840,-8734.430116,-1685.410096
567.846810,-3034.844362,-7772.162391,-229.828649
567.847134,-1480.411884,-7105.977043,459.657299
567.847458,0.000000,-6883.915261,459.657299
567.847782,962.267725,-7254.018232,1838.629195
567.848107,1480.411884,-7476.080014,1608.800546
567.848431,1776.494261,-8142.265362,459.657299
567.848755,592.164754,-9474.636058,-383.047749
567.849079,0.000000,-10732.986159,-153.219100
567.849403,1258.350101,-10584.944971,-689.485948
567.849727,2960.823768,-9474.636058,-842.705048
567.850051,3108.864956,-8882.471304,-383.047749
567.850375,3923.091493,-10584.944971,-536.266849
567.850700,3775.050304,-11843.295072,-612.876398
567.851024,2294.638420,-10288.862594,-306.438199
567.851348,740.205942,-9104.533087,-459.657299
567.851672,518.144159,-9252.574275,-1608.800546
567.851996,222.061783,-10362.883188,-1608.800546
567.852320,-888.247130,-11325.150913,-1225.752797
567.852644,-1554.432478,-11325.150913,-1915.238745
567.852969,-3034.844362,-10807.006753,-1225.752797
567.853293,-3552.988522,-9622.677246,-2374.896044
567.853617,-3701.029710,-8956.491898,-2681.334243
567.853941,-2664.741391,-9844.739029,-2451.505594
567.854265,-518.144159,-10288.862594,-2528.115143
567.854589,1036.288319,-10214.842000,-2068.457845
567.854913,962.267725,-9474.636058,-1685.410096
567.855237,740.205942,-8660.409521,-1455.581446
567.855562,1998.556043,-9696.697840,-689.485948
567.855886,1480.411884,-11399.171507,-995.924147
567.856210,740.205942,-11991.336260,-383.047749
567.856534,-1036.288319,-12287.418637,-612.876398
567.856858,-2368.659014,-11917.315666,-689.485948
567.857182,-2146.597232,-11103.089130,-1378.971896
567.857506,-2442.679609,-9992.780217,-1685.410096
567.857830,-2368.659014,-9696.697840,-1762.019645
567.858155,-518.144159,-9918.759623,-1302.362347
567.858479,148.041188,-10436.903782,-919.314598
567.858803,222.061783,-9326.594869,-842.705048
567.859127,296.082377,-8216.285956,-1149.143247
567.859451,296.082377,-9030.512492,-536.266849
567.859775,0.000000,-10436.903782,-1302.362347
567.860099,-592.164754,-11029.068536,-383.047749
567.860424,-962.267725,-11843.295072,306.438199
567.860748,-1628.453072,-10658.965565,-306.438199
567.861072,-1480.411884,-8586.388927,-306.438199
567.861396,-1998.556043,-7994.224174,0.000000
567.861720,-1184.329507,-9104.533087,383.047749
