#time,accel_x,accel_y,accel_z
366.097824,1110.308913,-11843.295072,-383.047749
366.098149,-962.267725,-12509.480420,-383.047749
366.098473,-2294.638420,-12435.459826,1072.533697
366.098797,-2960.823768,-11991.336260,1532.190996
366.099121,-3849.070898,-10658.965565,766.095498
366.099446,-4737.318029,-7846.182985,0.000000
366.099770,-3923.091493,-5329.482782,-536.266849
366.100094,-1924.535449,-4811.338623,-842.705048
366.100418,-296.082377,-5255.462188,-229.828649
366.100743,1110.308913,-5699.585753,2374.896044
366.101067,4071.132681,-7698.141797,2987.772442
366.101391,7031.956449,-9474.636058,3907.087040
366.101716,7254.018232,-10436.903782,3140.991542
366.102040,5255.462188,-10436.903782,153.219100
366.102364,1776.494261,-12213.398043,-1915.238745
366.102688,0.000000,-13841.851115,-3370.820191
366.103013,-1480.411884,-14359.995275,-3753.867940
366.103337,-3182.885551,-13767.830521,-2757.943793
366.103661,-3478.967927,-12583.501014,-2298.286494
366.103985,-3256.906145,-11843.295072,-1608.800546
366.104310,-1480.411884,-10362.883188,-1302.362347
366.104634,592.164754,-9030.512492,0.000000
366.104958,2368.659014,-9030.512492,459.657299
366.105282,3552.988522,-8142.265362,76.609550
366.105607,3849.070898,-6883.915261,-536.266849
366.105931,2442.679609,-7624.121203,-612.876398
366.106255,2294.638420,-9992.780217,-995.924147
366.106579,814.226536,-11991.336260,-1225.752797
366.106904,1036.288319,-12657.521608,-1378.971896
366.107228,666.185348,-12879.583391,-1532.190996
366.107552,444.123565,-12509.480420,-1302.362347
366.107876,222.061783,-11547.212695,-1072.533697
366.108201,148.041188,-9770.718434,-1225.752797
366.108525,444.123565,-8882.471304,-919.314598
366.108849,1998.556043,-8364.327145,-153.219100
366.109173,3775.050304,-8512.368333,919.314598
366.109498,5033.400406,-8216.285956,1302.362347
366.109822,4737.318029,-8290.306550,1072.533697
366.110146,1850.514855,-8956.491898,229.828649
366.110470,-888.247130,-9252.574275,-689.485948
366.110795,-2368.659014,-8586.388927,-919.314598
366.111119,-2442.679609,-8956.491898,0.000000
366.111443,-2072.576638,-9770.718434,-612.876398
366.111767,-444.123565,-10140.821405,306.438199
366.112092,1258.350101,-10436.903782,1302.362347
366.112416,2886.803174,-9326.594869,1991.848295
366.112740,3552.988522,-8068.244768,2451.505594
366.113064,3478.967927,-7698.141797,3370.820191
366.113389,3330.926739,-8142.265362,2374.896044
366.113713,2442.679609,-8216.285956,2451.505594
366.114037,1332.370696,-8512.368333,1455.581446
366.114361,0.000000,-9400.615463,1302.362347
366.114686,-1110.308913,-9918.759623,689.485948
366.115010,-1998.556043,-9696.697840,842.705048
366.115334,-2220.617826,-9474.636058,995.924147
366.115658,-2442.679609,-8956.491898,1149.143247
366.115983,-2738.761985,-8586.388927,1072.533697
366.116307,-2516.700203,-8290.306550,1378.971896
366.116631,-2220.617826,-8438.347739,1532.190996
366.116955,-2220.617826,-8882.471304,2145.067394
366.117280,-1850.514855,-9622.677246,2451.505594
366.117604,-1702.473667,-9992.780217,2451.505594
366.117928,-2072.576638,-9622.677246,2757.943793
366.118252,-1702.473667,-10362.883188,1532.190996
366.118577,-2072.576638,-10732.986159,689.485948
366.118901,-1924.535449,-11103.089130,306.438199
366.119225,-962.267725,-11621.233289,842.705048
366.119549,-370.102971,-11473.192101,842.705048
366.119874,740.205942,-11251.130318,1532.190996
366.120198,2072.576638,-11103.089130,1991.848295
366.120522,3182.885551,-10881.027347,2145.067394
366.120847,3701.029710,-11843.295072,2451.505594
366.121171,3330.926739,-11547.212695,2528.115143
366.121495,2664.741391,-11251.130318,2451.505594
366.121819,1554.432478,-11103.089130,2604.724693
366.122144,-444.123565,-10510.924376,2145.067394
366.122468,-2368.659014,-9770.718434,1225.752797
366.122792,-3330.926739,-9178.553681,612.876398
366.123116,-3552.988522,-8290.306550,0.000000
366.123441,-2886.803174,-7624.121203,459.657299
366.123765,-1628.453072,-6809.894666,459.657299
366.124089,-740.205942,-6513.812290,689.485948
366.124413,0.000000,-6661.853478,306.438199
366.124738,0.000000,-6957.935855,995.924147
366.125062,814.226536,-7920.203579,1455.581446
366.125386,1702.473667,-8364.327145,1608.800546
366.125710,2368.659014,-9030.512492,1378.971896
366.126035,3256.906145,-9474.636058,1225.752797
366.126359,3182.885551,-10214.842000,766.095498
366.126683,2516.700203,-10362.883188,383.047749
366.127008,1628.453072,-10140.821405,-383.047749
366.127332,444.123565,-9474.636058,-766.095498
366.127656,0.000000,-9030.512492,-842.705048
366.127981,296.082377,-8512.368333,-1149.143247
366.128305,888.247130,-8438.347739,-995.924147
366.128629,666.185348,-8290.306550,-1302.362347
366.128954,888.247130,-8956.491898,-1225.752797
366.129278,148.041188,-9030.512492,-1455.581446
366.129602,296.082377,-9104.533087,-1838.629195
366.129927,74.020594,-9104.533087,-2221.676944
366.130251,222.061783,-10066.800811,-2528.115143
366.130575,-592.164754,-10214.842000,-2911.162892
366.130900,-888.247130,-10214.842000,-3370.820191
366.131224,-1480.411884,-9844.739029,-3677.258390
366.131548,-1406.391290,-9918.759623,-4136.915689
366.131873,-1258.350101,-10288.862594,-3830.477490
366.132197,-1184.329507,-10140.821405,-3524.039291
366.132521,-740.205942,-10362.883188,-3524.039291
366.132846,-518.144159,-10658.965565,-3677.258390
366.133170,-296.082377,-11621.233289,-3140.991542
366.133494,-222.061783,-12435.459826,-2911.162892
366.133819,74.020594,-12953.603985,-3140.991542
366.134143,0.000000,-13175.665768,-3294.210641
366.134467,222.061783,-13693.809927,-3140.991542
366.134792,0.000000,-13915.871710,-3064.381992
366.135116,0.000000,-13027.624579,-2911.162892
366.135440,222.061783,-12731.542202,-2987.772442
366.135765,148.041188,-12361.439231,-2451.505594
366.136089,-222.061783,-11621.233289,-2221.676944
366.136413,-444.123565,-10436.903782,-2068.457845
366.136738,0.000000,-9474.636058,-1532.190996
366.137062,-296.082377,-8660.409521,-1225.752797
366.137386,-888.247130,-8586.388927,-995.924147
366.137711,-1036.288319,-8068.244768,-306.438199
366.138035,-1702.473667,-8068.244768,-306.438199
366.138359,-2146.597232,-7994.224174,0.000000
366.138684,-2516.700203,-7698.141797,-153.219100
366.139008,-3182.885551,-7550.100608,-306.438199
366.139332,-3404.947333,-7402.059420,-229.828649
366.139657,-3404.947333,-7402.059420,0.000000
366.139981,-2516.700203,-7846.182985,0.000000
366.140305,-2220.617826,-8142.265362,689.485948
366.140630,-962.267725,-8512.368333,1149.143247
366.140954,0.000000,-8734.430116,1455.581446
366.141278,1036.288319,-9104.533087,1991.848295
366.141603,2072.576638,-9474.636058,3064.381992
366.141927,2886.803174,-9992.780217,3140.991542
366.142251,4145.153275,-10066.800811,3370.820191
366.142576,3701.029710,-10140.821405,3524.039291
366.142900,3034.844362,-9548.656652,3600.648841
366.143224,2072.576638,-9548.656652,3370.820191
366.143549,666.185348,-9400.615463,2911.162892
366.143873,-518.144159,-8734.430116,2757.943793
366.144197,-1554.432478,-7698.141797,2528.115143
366.144522,-1480.411884,-7476.080014,2298.286494
366.144846,-1406.391290,-6365.771101,2298.286494
366.145170,-1628.453072,-6883.915261,2221.676944
366.145495,-1554.432478,-6661.853478,2068.457845
366.145819,-888.247130,-7105.977043,1991.848295
366.146143,-666.185348,-7402.059420,1915.238745
366.146468,444.123565,-7994.224174,1991.848295
366.146792,1850.514855,-9992.780217,1991.848295
366.147116,2368.659014,-10436.903782,2451.505594
366.147441,3108.864956,-11621.233289,2298.286494
366.147765,3404.947333,-12139.377449,1991.848295
366.148089,3701.029710,-13027.624579,2145.067394
366.148414,3552.988522,-13397.727550,2145.067394
366.148738,3182.885551,-13323.706956,1838.629195
366.149062,2664.741391,-13101.645173,1762.019645
366.149387,2294.638420,-13249.686362,1762.019645
366.149711,888.247130,-11917.315666,1378.971896
366.150035,-296.082377,-11843.295072,689.485948
366.150360,-1332.370696,-10955.047942,76.609550
366.150684,-2220.617826,-10066.800811,0.000000
366.151008,-2442.679609,-9252.574275,-229.828649
366.151333,-2368.659014,-8882.471304,-153.219100
366.151657,-2368.659014,-8142.265362,-919.314598
366.151982,-1702.473667,-7624.121203,-766.095498
366.152306,-1332.370696,-7402.059420,-995.924147
366.152630,-592.164754,-7328.038826,-612.876398
366.152955,-888.247130,-7402.059420,-612.876398
366.153279,-740.205942,-7772.162391,-689.485948
366.153603,-814.226536,-7772.162391,-612.876398
366.153928,-370.102971,-8364.327145,-766.095498
366.154252,-592.164754,-8956.491898,-995.924147
366.154576,148.041188,-9474.636058,-842.705048
366.154901,0.000000,-9696.697840,-842.705048
366.155225,0.000000,-10288.862594,-1072.533697
366.155549,222.061783,-10584.944971,-1762.019645
366.155874,-148.041188,-10732.986159,-1608.800546
366.156198,-148.041188,-10658.965565,-1762.019645
366.156522,-148.041188,-10807.006753,-1838.629195
366.156847,0.000000,-10436.903782,-1608.800546
366.157171,-222.061783,-10214.842000,-2145.067394
366.157495,-740.205942,-9918.759623,-2451.505594
366.157820,-592.164754,-9252.574275,-2221.676944
366.158144,-444.123565,-9104.533087,-1915.238745
366.158468,-518.144159,-8734.430116,-1991.848295
366.158793,-592.164754,-8586.388927,-2298.286494
366.159117,-888.247130,-8586.388927,-2145.067394
366.159441,-1184.329507,-7846.182985,-2145.067394
366.159766,-1924.535449,-8290.306550,-2451.505594
366.160090,-1480.411884,-8882.471304,-2451.505594
366.160414,-1776.494261,-9326.594869,-2834.553343
366.160739,-1406.391290,-9548.656652,-2528.115143
366.161063,-814.226536,-10066.800811,-2374.896044
366.161387,-148.041188,-10881.027347,-2221.676944
366.161712,296.082377,-11843.295072,-1532.190996
366.162036,1110.308913,-12213.398043,-1378.971896
366.162360,1924.535449,-12361.439231,-1685.410096
366.162685,2886.803174,-12731.542202,-995.924147
366.163009,3330.926739,-13323.706956,-383.047749
366.163333,3552.988522,-13471.748144,153.219100
366.163658,3256.906145,-13027.624579,0.000000
366.163982,2960.823768,-12287.418637,229.828649
366.164306,1776.494261,-11547.212695,-153.219100
366.164631,296.082377,-11103.089130,-459.657299
366.164955,-592.164754,-10288.862594,-306.438199
366.165279,-1702.473667,-9030.512492,0.000000
366.165604,-2442.679609,-8364.327145,0.000000
366.165928,-2812.782580,-7698.141797,306.438199
366.166252,-2738.761985,-7179.997637,76.609550
366.166577,-2516.700203,-6809.894666,383.047749
366.166901,-2368.659014,-6735.874072,919.314598
366.167225,-2146.597232,-7105.977043,459.657299
366.167550,-1924.535449,-6957.935855,1225.752797
366.167874,-1406.391290,-7476.080014,1455.581446
366.168198,-148.041188,-8068.244768,1762.019645
366.168523,1110.308913,-8586.388927,1915.238745
366.168847,1998.556043,-9326.594869,2145.067394
366.169171,2960.823768,-9844.739029,2451.505594
366.169496,2886.803174,-9696.697840,2681.334243
366.169820,3034.844362,-10214.842000,2451.505594
366.170144,2442.679609,-10436.903782,2451.505594
366.170469,1332.370696,-10807.006753,2068.457845
366.170793,222.061783,-10510.924376,1915.238745
366.171117,-740.205942,-10066.800811,1608.800546
366.171442,-1776.494261,-9696.697840,1225.752797
366.171766,-2738.761985,-8956.491898,1532.190996
366.172090,-2960.823768,-7994.224174,1072.533697
366.172415,-3034.844362,-7846.182985,1149.143247
366.172739,-2664.741391,-7698.141797,766.095498
366.173063,-2072.576638,-7772.162391,689.485948
366.173388,-1554.432478,-7698.141797,919.314598
366.173712,-666.185348,-7772.162391,919.314598
366.174036,-444.123565,-7846.182985,919.314598
366.174361,74.020594,-8142.265362,919.314598
366.174685,814.226536,-9252.574275,689.485948
366.175009,1110.308913,-9474.636058,306.438199
366.175334,1628.453072,-10140.821405,459.657299
366.175658,1924.535449,-10881.027347,459.657299
366.175982,2072.576638,-11473.192101,459.657299
366.176307,2442.679609,-11991.336260,842.705048
366.176631,2442.679609,-11991.336260,536.266849
366.176956,2368.659014,-11843.295072,1149.143247
366.177280,2368.659014,-11547.212695,766.095498
366.177604,2072.576638,-11547.212695,383.047749
366.177929,1406.391290,-11473.192101,229.828649
366.178253,370.102971,-11103.089130,76.609550
366.178577,-296.082377,-10732.986159,-153.219100
366.178902,-1258.350101,-10436.903782,-306.438199
366.179226,-1702.473667,-9474.636058,-459.657299
366.179550,-1998.556043,-8808.450710,-306.438199
366.179875,-1184.329507,-8734.430116,-612.876398
366.180199,-1332.370696,-8216.285956,-919.314598
366.180523,-1036.288319,-7920.203579,-1072.533697
366.180848,-814.226536,-7772.162391,-1072.533697
366.181172,-888.247130,-7846.182985,-612.876398
366.181496,-740.205942,-7846.182985,-229.828649
366.181821,-370.102971,-8142.265362,-306.438199
366.182145,-148.041188,-8882.471304,-1685.410096
366.182469,74.020594,-9104.533087,-995.924147
366.182794,222.061783,-9622.677246,-1149.143247
366.183118,518.144159,-9992.780217,-1072.533697
366.183442,1184.329507,-10881.027347,-842.705048
366.183767,1110.308913,-10732.986159,-995.924147
366.184091,1184.329507,-11251.130318,-995.924147
366.184415,1628.453072,-12213.398043,-842.705048
366.184740,1406.391290,-11547.212695,-995.924147
366.185064,814.226536,-11029.068536,-1302.362347
366.185388,222.061783,-10955.047942,-1455.581446
366.185713,-370.102971,-10436.903782,-1608.800546
366.186037,-592.164754,-10436.903782,-1302.362347
366.186361,-814.226536,-9844.739029,-1608.800546
366.186686,-962.267725,-9622.677246,-1225.752797
366.187010,-1406.391290,-8734.430116,-1455.581446
366.187334,-1554.432478,-9104.533087,-1608.800546
366.187659,-1776.494261,-8734.430116,-1532.190996
366.187983,-1628.453072,-8956.491898,-1455.581446
366.188307,-1850.514855,-8956.491898,-1532.190996
366.188632,-1924.535449,-8882.471304,-1455.581446
366.188956,-1406.391290,-8882.471304,-1378.971896
366.189280,-962.267725,-9474.636058,-1302.362347
366.189605,0.000000,-9844.739029,-1225.752797
366.189929,74.020594,-10436.903782,-842.705048
366.190253,888.247130,-11399.171507,-383.047749
366.190578,1702.473667,-11547.212695,-153.219100
366.190902,2516.700203,-11695.253884,229.828649
366.191226,3330.926739,-11917.315666,842.705048
366.191551,2886.803174,-11251.130318,383.047749
366.191875,2368.659014,-11695.253884,612.876398
366.192199,1628.453072,-11399.171507,766.095498
366.192524,444.123565,-10807.006753,919.314598
366.192848,-814.226536,-9918.759623,1072.533697
366.193172,-1702.473667,-9474.636058,842.705048
366.193497,-2516.700203,-8734.430116,842.705048
366.193821,-2516.700203,-7698.141797,1072.533697
366.194145,-2590.720797,-7698.141797,1302.362347
366.194470,-3034.844362,-6883.915261,919.314598
366.194794,-2738.761985,-6587.832884,766.095498
366.195118,-2442.679609,-6587.832884,689.485948
366.195443,-1998.556043,-7031.956449,766.095498
366.195767,-1258.350101,-7920.203579,1302.362347
366.196091,-740.205942,-7846.182985,1302.362347
366.196416,296.082377,-8438.347739,1225.752797
366.196740,1332.370696,-9030.512492,995.924147
366.197064,1702.473667,-9844.739029,1378.971896
366.197389,2516.700203,-10288.862594,1838.629195
366.197713,3034.844362,-10362.883188,1685.410096
366.198037,3330.926739,-10881.027347,1608.800546
366.198362,3108.864956,-10807.006753,1532.190996
366.198686,2368.659014,-11103.089130,1685.410096
366.199010,1258.350101,-10807.006753,1532.190996
366.199335,888.247130,-10732.986159,1225.752797
366.199659,-148.041188,-10510.924376,459.657299
366.199983,-1184.329507,-10140.821405,306.438199
366.200308,-1406.391290,-9548.656652,76.609550
366.200632,-1258.350101,-9326.594869,0.000000
366.200956,-1480.411884,-8808.450710,0.000000
366.201281,-1184.329507,-8290.306550,0.000000
366.201605,-1036.288319,-8734.430116,-306.438199
366.201930,-666.185348,-8364.327145,-229.828649
366.202254,-444.123565,-8808.450710,-306.438199
366.202578,0.000000,-8882.471304,-459.657299
366.202903,222.061783,-9474.636058,-459.657299
366.203227,740.205942,-9474.636058,-383.047749
366.203551,1184.329507,-9918.759623,-459.657299
366.203876,1184.329507,-10436.903782,0.000000
366.204200,1480.411884,-11029.068536,-153.219100
366.204524,1702.473667,-11621.233289,-459.657299
366.204849,1850.514855,-11547.212695,-229.828649
366.205173,2220.617826,-11621.233289,-306.438199
366.205497,2146.597232,-11695.253884,-229.828649
366.205822,1702.473667,-11695.253884,153.219100
366.206146,1036.288319,-11399.171507,-153.219100
366.206470,444.123565,-10955.047942,-383.047749
366.206795,-444.123565,-10362.883188,-536.266849
366.207119,-888.247130,-10066.800811,-612.876398
366.207443,-592.164754,-9474.636058,-229.828649
366.207768,-1110.308913,-8438.347739,-689.485948
366.208092,-1850.514855,-8216.285956,-536.266849
366.208416,-2146.597232,-7920.203579,-995.924147
366.208741,-1998.556043,-7402.059420,-766.095498
366.209065,-1998.556043,-7254.018232,-383.047749
366.209389,-2072.576638,-7179.997637,-1072.533697
366.209714,-1998.556043,-7698.141797,-766.095498
366.210038,-1850.514855,-7920.203579,-306.438199
366.210362,-1628.453072,-8660.409521,-612.876398
366.210687,-1332.370696,-8660.409521,-612.876398
366.211011,-814.226536,-9400.615463,-612.876398
366.211335,-444.123565,-10066.800811,-689.485948
366.211660,444.123565,-10362.883188,-842.705048
366.211984,1258.350101,-11029.068536,-229.828649
366.212308,1184.329507,-11473.192101,0.000000
366.212633,2072.576638,-11473.192101,229.828649
366.212957,1998.556043,-11621.233289,-153.219100
366.213281,2146.597232,-11547.212695,0.000000
366.213606,1628.453072,-11177.109724,76.609550
366.213930,1110.308913,-10881.027347,76.609550
366.214254,444.123565,-10140.821405,0.000000
366.214579,-444.123565,-9844.739029,-766.095498
366.214903,-962.267725,-9548.656652,-612.876398
366.215227,-1998.556043,-9030.512492,-919.314598
366.215552,-2146.597232,-8882.471304,-766.095498
366.215876,-2368.659014,-8586.388927,-766.095498
366.216200,-2220.617826,-8660.409521,-995.924147
366.216525,-2072.576638,-8290.306550,-383.047749
366.216849,-1406.391290,-8512.368333,-842.705048
366.217173,-888.247130,-8882.471304,-306.438199
366.217498,-148.041188,-9030.512492,-383.047749
366.217822,370.102971,-9918.759623,-153.219100
366.218146,814.226536,-10214.842000,-153.219100
366.218471,1554.432478,-10807.006753,0.000000
366.218795,1998.556043,-11473.192101,612.876398
366.219119,2738.761985,-11843.295072,536.266849
366.219444,3256.906145,-11991.336260,842.705048
366.219768,3108.864956,-11917.315666,689.485948
366.220092,2442.679609,-11991.336260,842.705048
366.220417,1850.514855,-11843.295072,766.095498
366.220741,740.205942,-11251.130318,842.705048
366.221065,148.041188,-10584.944971,766.095498
366.221390,0.000000,-9548.656652,995.924147
366.221714,-814.226536,-8512.368333,459.657299
366.222038,-1110.308913,-8068.244768,689.485948
366.222363,-1406.391290,-7179.997637,1072.533697
366.222687,-1850.514855,-7105.977043,383.047749
366.223011,-1998.556043,-6661.853478,153.219100
366.223336,-2368.659014,-6661.853478,153.219100
366.223660,-2368.659014,-7031.956449,-153.219100
366.223984,-2664.741391,-7179.997637,0.000000
366.224309,-2516.700203,-8216.285956,76.609550
366.224633,-2146.597232,-7920.203579,153.219100
366.224957,-1184.329507,-8956.491898,76.609550
366.225282,-148.041188,-9252.574275,536.266849
366.225606,370.102971,-9770.718434,536.266849
366.225931,1184.329507,-10658.965565,689.485948
366.226255,1554.432478,-11399.171507,1225.752797
366.226579,1924.535449,-11473.192101,1072.533697
366.226904,1924.535449,-11621.233289,536.266849
366.227228,2294.638420,-11547.212695,919.314598
366.227552,1998.556043,-11769.274478,229.828649
366.227877,1406.391290,-11621.233289,76.609550
366.228201,518.144159,-11103.089130,0.000000
366.228525,74.020594,-10436.903782,0.000000
366.228850,-740.205942,-9548.656652,0.000000
366.229174,-1258.350101,-8956.491898,-306.438199
366.229498,-1776.494261,-8956.491898,-536.266849
366.229823,-1480.411884,-8068.244768,-459.657299
366.230147,-1480.411884,-7994.224174,-842.705048
366.230471,-1406.391290,-7624.121203,-689.485948
366.230795,-1702.473667,-7920.203579,-689.485948
366.231120,-1702.473667,-7846.182985,-919.314598
366.231444,-1258.350101,-8438.347739,-842.705048
366.231768,-666.185348,-9178.553681,-995.924147
366.232093,0.000000,-9770.718434,-995.924147
366.232417,74.020594,-10214.842000,-842.705048
366.232741,592.164754,-11177.109724,0.000000
366.233066,1554.432478,-11843.295072,-306.438199
366.233390,1776.494261,-12139.377449,0.000000
366.233714,1850.514855,-12361.439231,0.000000
366.234039,2442.679609,-12287.418637,153.219100
366.234363,2590.720797,-12065.356855,0.000000
366.234687,3108.864956,-12139.377449,612.876398
366.235012,1998.556043,-11325.150913,612.876398
366.235336,1184.329507,-10881.027347,306.438199
366.235660,666.185348,-9918.759623,76.609550
366.235985,74.020594,-8882.471304,76.609550
366.236309,-666.185348,-7772.162391,-76.609550
366.236633,-888.247130,-7254.018232,-536.266849
366.236958,-1036.288319,-6957.935855,-689.485948
366.237282,-1332.370696,-7031.956449,-459.657299
366.237606,-2146.597232,-6883.915261,-995.924147
366.237931,-2368.659014,-6735.874072,-689.485948
366.238255,-2738.761985,-7550.100608,-842.705048
366.238579,-2368.659014,-8068.244768,-612.876398
366.238904,-2072.576638,-8438.347739,-459.657299
366.239228,-1776.494261,-8956.491898,0.000000
366.239552,-666.185348,-9548.656652,0.000000
366.239876,296.082377,-10807.006753,536.266849
366.240201,888.247130,-11251.130318,229.828649
366.240525,1184.329507,-11769.274478,0.000000
366.240849,1480.411884,-12287.418637,306.438199
366.241174,1850.514855,-12509.480420,229.828649
366.241498,2220.617826,-12213.398043,383.047749
366.241822,2072.576638,-11843.295072,306.438199
366.242147,1628.453072,-11325.150913,306.438199
366.242471,592.164754,-11029.068536,0.000000
366.242795,0.000000,-10362.883188,0.000000
366.243120,-370.102971,-9622.677246,0.000000
366.243444,-888.247130,-8882.471304,-153.219100
366.243768,-1184.329507,-8438.347739,-153.219100
366.244093,-1702.473667,-7624.121203,-306.438199
366.244417,-1776.494261,-7624.121203,-383.047749
366.244741,-2516.700203,-7550.100608,0.000000
366.245066,-2146.597232,-7105.977043,-383.047749
366.245390,-1628.453072,-7550.100608,-383.047749
366.245714,-1332.370696,-8142.265362,-383.047749
366.246039,-1036.288319,-8956.491898,-536.266849
366.246363,-444.123565,-9548.656652,-689.485948
366.246687,0.000000,-10362.883188,0.000000
366.247012,814.226536,-11473.192101,153.219100
366.247336,1480.411884,-11843.295072,536.266849
366.247660,2368.659014,-12657.521608,536.266849
366.247985,2368.659014,-12657.521608,612.876398
366.248309,2516.700203,-12583.501014,842.705048
366.248633,2220.617826,-12361.439231,689.485948
366.248957,1702.473667,-11843.295072,689.485948
366.249282,1702.473667,-11177.109724,1072.533697
366.249606,1036.288319,-9918.759623,842.705048
366.249930,370.102971,-8956.491898,612.876398
366.250255,-222.061783,-7994.224174,76.609550
366.250579,-518.144159,-7031.956449,0.000000
366.250903,-1184.329507,-6661.853478,-459.657299
366.251228,-1924.535449,-6513.812290,-459.657299
366.251552,-1998.556043,-6587.832884,-689.485948
366.251876,-2442.679609,-6143.709319,-612.876398
366.252201,-2516.700203,-6587.832884,-1149.143247
366.252525,-1924.535449,-7402.059420,-612.876398
366.252849,-1406.391290,-8068.244768,-383.047749
366.253174,-1110.308913,-8956.491898,-229.828649
366.253498,-518.144159,-9474.636058,76.609550
366.253822,74.020594,-10288.862594,306.438199
366.254147,666.185348,-11103.089130,229.828649
366.254471,1998.556043,-11991.336260,383.047749
366.254795,2294.638420,-11917.315666,229.828649
366.255120,2812.782580,-12509.480420,153.219100
366.255444,2812.782580,-12731.542202,306.438199
366.255768,2368.659014,-12435.459826,0.000000
366.256093,1628.453072,-12287.418637,0.000000
366.256417,740.205942,-11621.233289,0.000000
366.256741,0.000000,-10807.006753,-1225.752797
366.257066,-592.164754,-9918.759623,-919.314598
366.257390,-1258.350101,-9326.594869,-459.657299
366.257714,-2072.576638,-8290.306550,-689.485948
366.258038,-2146.597232,-7846.182985,-459.657299
366.258363,-2220.617826,-7476.080014,-612.876398
366.258687,-2368.659014,-7105.977043,-536.266849
366.259011,-2294.638420,-6809.894666,-612.876398
366.259336,-1850.514855,-7031.956449,-842.705048
366.259660,-1258.350101,-7105.977043,-689.485948
366.259984,-814.226536,-8216.285956,-766.095498
366.260309,-370.102971,-8956.491898,-689.485948
366.260633,74.020594,-10066.800811,-459.657299
366.260957,814.226536,-10658.965565,-459.657299
366.261282,1480.411884,-11917.315666,-229.828649
366.261606,2220.617826,-12361.439231,536.266849
366.261930,2664.741391,-12731.542202,229.828649
366.262255,3034.844362,-12805.562797,306.438199
366.262579,2590.720797,-12435.459826,919.314598
366.262903,2146.597232,-11991.336260,1455.581446
366.263228,1332.370696,-11399.171507,919.314598
366.263552,962.267725,-10288.862594,612.876398
366.263876,74.020594,-9326.594869,612.876398
366.264201,0.000000,-8142.265362,153.219100
366.264525,-444.123565,-7105.977043,153.219100
366.264849,-1110.308913,-7105.977043,0.000000
366.265174,-1480.411884,-6587.832884,-383.047749
366.265498,-1924.535449,-6365.771101,-766.095498
366.265822,-1998.556043,-6587.832884,-536.266849
366.266147,-2294.638420,-7031.956449,-919.314598
366.266471,-1850.514855,-7179.997637,-612.876398
366.266795,-1776.494261,-8068.244768,-766.095498
366.267120,-1332.370696,-8660.409521,0.000000
366.267444,-1036.288319,-9326.594869,306.438199
366.267768,-148.041188,-10436.903782,229.828649
366.268092,370.102971,-11177.109724,536.266849
366.268417,1258.350101,-11991.336260,919.314598
366.268741,2442.679609,-12361.439231,689.485948
366.269065,2738.761985,-12287.418637,689.485948
366.269390,3108.864956,-12509.480420,536.266849
366.269714,2442.679609,-12509.480420,383.047749
366.270038,2146.597232,-12213.398043,229.828649
366.270363,1406.391290,-11991.336260,0.000000
366.270687,592.164754,-11177.109724,0.000000
366.271011,-74.020594,-10510.924376,76.609550
366.271336,-222.061783,-9622.677246,0.000000
366.271660,-1332.370696,-8808.450710,-76.609550
366.271984,-1924.535449,-8364.327145,-229.828649
366.272309,-2516.700203,-7846.182985,-459.657299
366.272633,-2812.782580,-7550.100608,-536.266849
366.272957,-2516.700203,-7179.997637,-459.657299
366.273282,-1850.514855,-7179.997637,-536.266849
366.273606,-1184.329507,-7698.141797,0.000000
366.273930,-148.041188,-8142.265362,76.609550
366.274255,-148.041188,-8512.368333,-612.876398
366.274579,0.000000,-9474.636058,0.000000
366.274903,518.144159,-10732.986159,-383.047749
366.275228,962.267725,-11695.253884,-153.219100
366.275552,1998.556043,-12287.418637,0.000000
366.275876,2294.638420,-12583.501014,689.485948
366.276201,2368.659014,-12361.439231,383.047749
366.276525,2368.659014,-12065.356855,536.266849
366.276849,1776.494261,-11769.274478,612.876398
366.277173,1258.350101,-11251.130318,995.924147
366.277498,666.185348,-10436.903782,842.705048
366.277822,148.041188,-9548.656652,536.266849
366.278146,-518.144159,-8808.450710,229.828649
366.278471,-814.226536,-8142.265362,0.000000
366.278795,-592.164754,-7698.141797,0.000000
366.279119,-1332.370696,-7179.997637,-306.438199
366.279444,-1776.494261,-6883.915261,-459.657299
366.279768,-1924.535449,-6513.812290,-459.657299
366.280092,-2738.761985,-6883.915261,-306.438199
366.280417,-2664.741391,-7254.018232,-689.485948
366.280741,-1850.514855,-7550.100608,-459.657299
366.281065,-1406.391290,-8068.244768,-459.657299
366.281390,-740.205942,-8882.471304,0.000000
366.281714,-148.041188,-9326.594869,153.219100
366.282038,370.102971,-10066.800811,306.438199
366.282363,740.205942,-10955.047942,229.828649
366.282687,1628.453072,-11695.253884,306.438199
366.283011,1924.535449,-12435.459826,153.219100
366.283336,2146.597232,-12657.521608,306.438199
366.283660,2368.659014,-12657.521608,306.438199
366.283984,2294.638420,-12657.521608,459.657299
366.284309,1554.432478,-12213.398043,229.828649
366.284633,888.247130,-11547.212695,766.095498
366.284957,222.061783,-10881.027347,-306.438199
366.285282,-296.082377,-9918.759623,-612.876398
366.285606,-592.164754,-9474.636058,-536.266849
366.285930,-1184.329507,-8438.347739,-536.266849
366.286254,-1554.432478,-7994.224174,-612.876398
366.286579,-1924.535449,-7476.080014,-612.876398
366.286903,-1628.453072,-7105.977043,-766.095498
366.287227,-1332.370696,-7476.080014,-995.924147
366.287552,-1628.453072,-7402.059420,-689.485948
366.287876,-1258.350101,-7994.224174,-459.657299
366.288200,-740.205942,-8438.347739,-689.485948
366.288525,-370.102971,-9104.533087,-766.095498
366.288849,296.082377,-9992.780217,0.000000
366.289173,666.185348,-10732.986159,-153.219100
366.289498,1184.329507,-11695.253884,0.000000
366.289822,1850.514855,-11991.336260,153.219100
366.290146,2664.741391,-12139.377449,76.609550
366.290471,2590.720797,-12361.439231,612.876398
366.290795,2442.679609,-12139.377449,766.095498
366.291119,1702.473667,-11843.295072,919.314598
366.291444,1258.350101,-11177.109724,919.314598
366.291768,370.102971,-9992.780217,153.219100
366.292092,0.000000,-9252.574275,459.657299
366.292417,-518.144159,-8586.388927,0.000000
366.292741,-666.185348,-7846.182985,0.000000
366.293065,-1332.370696,-7105.977043,-306.438199
366.293390,-2072.576638,-6957.935855,-306.438199
366.293714,-2072.576638,-6513.812290,-383.047749
366.294038,-2590.720797,-6735.874072,-689.485948
366.294363,-2738.761985,-6735.874072,-612.876398
366.294687,-2368.659014,-7105.977043,-153.219100
366.295011,-1924.535449,-7846.182985,-383.047749
366.295335,-1184.329507,-8586.388927,-229.828649
366.295660,-666.185348,-9030.512492,0.000000
366.295984,148.041188,-9844.739029,0.000000
366.296308,740.205942,-10436.903782,459.657299
366.296633,1776.494261,-11399.171507,383.047749
366.296957,2146.597232,-11843.295072,0.000000
366.297281,2368.659014,-12435.459826,0.000000
366.297606,2442.679609,-12509.480420,229.828649
366.297930,2294.638420,-12805.562797,306.438199
366.298254,1776.494261,-12657.521608,306.438199
366.298579,962.267725,-11991.336260,612.876398
366.298903,444.123565,-11029.068536,0.000000
366.299227,-740.205942,-10362.883188,153.219100
366.299552,-962.267725,-9252.574275,0.000000
366.299876,-1332.370696,-9178.553681,-459.657299
366.300200,-1776.494261,-8364.327145,-229.828649
366.300525,-2072.576638,-7846.182985,-536.266849
366.300849,-2146.597232,-7550.100608,-919.314598
366.301173,-1924.535449,-7179.997637,0.000000
366.301498,-1998.556043,-7476.080014,-612.876398
366.301822,-740.205942,-7994.224174,-153.219100
366.302146,-444.123565,-8290.306550,0.000000
366.302471,0.000000,-9326.594869,-153.219100
366.302795,222.061783,-9992.780217,76.609550
366.303119,1036.288319,-10881.027347,0.000000
366.303444,1850.514855,-11103.089130,306.438199
366.303768,2220.617826,-11325.150913,383.047749
366.304092,2812.782580,-11843.295072,612.876398
366.304416,2812.782580,-11917.315666,1072.533697
366.304741,2516.700203,-12213.398043,1072.533697
366.305065,1998.556043,-11843.295072,1149.143247
366.305389,1406.391290,-11103.089130,919.314598
366.305714,518.144159,-10214.842000,536.266849
366.306038,-370.102971,-9326.594869,536.266849
366.306362,-888.247130,-9030.512492,229.828649
366.306687,-1702.473667,-7994.224174,0.000000
366.307011,-1776.494261,-7550.100608,0.000000
366.307335,-1998.556043,-7105.977043,-612.876398
366.307660,-2072.576638,-6883.915261,-536.266849
366.307984,-2146.597232,-6735.874072,-536.266849
366.308308,-1998.556043,-6883.915261,-153.219100
366.308633,-1998.556043,-7031.956449,0.000000
366.308957,-1480.411884,-7550.100608,-459.657299
366.309281,-1332.370696,-7772.162391,-153.219100
366.309606,-666.185348,-8734.430116,-229.828649
366.309930,-74.020594,-9696.697840,-229.828649
366.310254,148.041188,-10288.862594,0.000000
366.310579,740.205942,-11103.089130,0.000000
366.310903,1480.411884,-11547.212695,0.000000
366.311227,1998.556043,-11991.336260,0.000000
366.311552,2294.638420,-12139.377449,229.828649
366.311876,2442.679609,-12213.398043,-306.438199
366.312200,1924.535449,-12361.439231,-306.438199
366.312525,1184.329507,-12139.377449,-306.438199
366.312849,222.061783,-11325.150913,-689.485948
366.313173,-518.144159,-10658.965565,-842.705048
366.313497,-1036.288319,-10066.800811,-306.438199
366.313822,-1184.329507,-9252.574275,-459.657299
366.314146,-1850.514855,-8512.368333,-995.924147
366.314470,-1924.535449,-8660.409521,-1302.362347
366.314795,-2146.597232,-8438.347739,-1072.533697
366.315119,-2294.638420,-7994.224174,-919.314598
366.315443,-1850.514855,-7920.203579,-1225.752797
366.315768,-1628.453072,-8068.244768,-995.924147
366.316092,-1554.432478,-8216.285956,-1072.533697
366.316416,-444.123565,-8586.388927,-306.438199
366.316741,0.000000,-9474.636058,-842.705048
366.317065,1036.288319,-9844.739029,-229.828649
366.317389,1776.494261,-10658.965565,-306.438199
366.317714,2368.659014,-11251.130318,0.000000
366.318038,2738.761985,-11547.212695,153.219100
366.318362,2516.700203,-11843.295072,229.828649
366.318687,2368.659014,-11695.253884,689.485948
366.319011,2072.576638,-11473.192101,612.876398
366.319335,1332.370696,-10955.047942,612.876398
366.319660,814.226536,-10288.862594,1072.533697
366.319984,148.041188,-10066.800811,536.266849
366.320308,-222.061783,-9548.656652,536.266849
366.320633,-1110.308913,-8734.430116,306.438199
366.320957,-1850.514855,-7920.203579,76.609550
366.321281,-2146.597232,-7994.224174,76.609550
366.321606,-2220.617826,-7328.038826,76.609550
366.321930,-1850.514855,-7105.977043,0.000000
366.322254,-1776.494261,-6883.915261,0.000000
366.322578,-1776.494261,-7179.997637,-536.266849
366.322903,-2072.576638,-7254.018232,0.000000
366.323227,-1628.453072,-7994.224174,0.000000
366.323551,-1110.308913,-8438.347739,306.438199
366.323876,0.000000,-9104.533087,229.828649
366.324200,814.226536,-9770.718434,153.219100
366.324524,1258.350101,-10584.944971,689.485948
366.324849,1776.494261,-11251.130318,459.657299
366.325173,1998.556043,-11547.212695,689.485948
366.325497,2072.576638,-11843.295072,536.266849
366.325822,1776.494261,-11843.295072,766.095498
366.326146,1480.411884,-11843.295072,153.219100
366.326470,1036.288319,-11991.336260,0.000000
366.326795,592.164754,-11843.295072,383.047749
366.327119,296.082377,-11325.150913,0.000000
366.327443,-592.164754,-10658.965565,-306.438199
366.327767,-1110.308913,-9992.780217,-229.828649
366.328092,-1332.370696,-9474.636058,-459.657299
366.328416,-1184.329507,-9178.553681,-612.876398
366.328740,-1332.370696,-8734.430116,-383.047749
366.329064,-1998.556043,-8364.327145,-536.266849
366.329388,-1406.391290,-8216.285956,-306.438199
366.329712,-1258.350101,-7994.224174,-383.047749
366.330036,-962.267725,-8142.265362,0.000000
366.330360,-518.144159,-8586.388927,0.000000
366.330684,0.000000,-9030.512492,0.000000
366.331008,814.226536,-9326.594869,229.828649
366.331333,962.267725,-9918.759623,229.828649
366.331657,1406.391290,-10362.883188,306.438199
366.331981,1850.514855,-10881.027347,536.266849
366.332305,2220.617826,-11177.109724,153.219100
366.332629,2738.761985,-11695.253884,383.047749
366.332953,2442.679609,-11473.192101,459.657299
366.333277,2368.659014,-11621.233289,536.266849
366.333601,1628.453072,-10807.006753,536.266849
366.333925,814.226536,-10658.965565,1149.143247
366.334249,-148.041188,-9770.718434,689.485948
366.334574,-1110.308913,-9474.636058,0.000000
366.334898,-1702.473667,-8512.368333,76.609550
366.335222,-1850.514855,-7994.224174,0.000000
366.335546,-1850.514855,-7254.018232,153.219100
366.335870,-1850.514855,-7105.977043,-612.876398
366.336194,-1776.494261,-6883.915261,-383.047749
366.336518,-1480.411884,-6735.874072,-766.095498
366.336842,-1628.453072,-7254.018232,-689.485948
366.337166,-1924.535449,-7550.100608,-842.705048
366.337491,-1332.370696,-8290.306550,-689.485948
366.337815,-814.226536,-8956.491898,-536.266849
366.338139,-296.082377,-9474.636058,-689.485948
366.338463,370.102971,-10066.800811,-383.047749
366.338787,888.247130,-10955.047942,-153.219100
366.339111,1850.514855,-11547.212695,153.219100
366.339435,2072.576638,-11917.315666,76.609550
366.339759,1998.556043,-11991.336260,-76.609550
366.340083,2146.597232,-12361.439231,0.000000
366.340407,2072.576638,-12287.418637,0.000000
366.340732,1628.453072,-11843.295072,-306.438199
366.341056,1258.350101,-11547.212695,-766.095498
366.341380,148.041188,-11251.130318,-229.828649
366.341704,-592.164754,-10584.944971,-995.924147
366.342028,-1554.432478,-10288.862594,-766.095498
366.342352,-1776.494261,-9770.718434,-995.924147
366.342676,-2146.597232,-9252.574275,-1149.143247
366.343000,-2368.659014,-8364.327145,-536.266849
366.343324,-2146.597232,-8438.347739,-766.095498
366.343648,-1628.453072,-8142.265362,-919.314598
366.343973,-1850.514855,-7772.162391,-766.095498
366.344297,-1258.350101,-8216.285956,-612.876398
366.344621,-666.185348,-8512.368333,-383.047749
366.344945,222.061783,-9030.512492,-306.438199
366.345269,814.226536,-9104.533087,0.000000
366.345593,1702.473667,-10066.800811,229.828649
366.345917,1924.535449,-10807.006753,0.000000
366.346241,2368.659014,-10658.965565,0.000000
366.346565,2590.720797,-11547.212695,536.266849
366.346890,2294.638420,-11325.150913,612.876398
366.347214,2368.659014,-11843.295072,689.485948
366.347538,1702.473667,-11547.212695,536.266849
366.347862,962.267725,-10658.965565,612.876398
366.348186,518.144159,-10510.924376,459.657299
366.348510,-592.164754,-9400.615463,842.705048
366.348834,-888.247130,-9104.533087,229.828649
366.349158,-1702.473667,-8142.265362,459.657299
366.349482,-2072.576638,-7328.038826,76.609550
366.349806,-2220.617826,-7179.997637,0.000000
366.350131,-2072.576638,-7031.956449,0.000000
366.350455,-1406.391290,-6809.894666,0.000000
366.350779,-1406.391290,-7105.977043,-153.219100
366.351103,-1184.329507,-7550.100608,153.219100
366.351427,-1480.411884,-7846.182985,76.609550
366.351751,-666.185348,-8586.388927,0.000000
366.352075,-74.020594,-9400.615463,76.609550
366.352399,592.164754,-9992.780217,536.266849
366.352723,1332.370696,-10214.842000,919.314598
366.353047,1850.514855,-10658.965565,689.485948
366.353372,2590.720797,-11177.109724,919.314598
366.353696,2516.700203,-11399.171507,612.876398
366.354020,2368.659014,-11843.295072,689.485948
366.354344,1924.535449,-11843.295072,536.266849
366.354668,1628.453072,-11769.274478,459.657299
366.354992,814.226536,-11325.150913,-306.438199
366.355316,0.000000,-11251.130318,0.000000
366.355640,-1036.288319,-10436.903782,-306.438199
366.355964,-1406.391290,-10140.821405,-153.219100
366.356289,-1924.535449,-9622.677246,-612.876398
366.356613,-2368.659014,-9400.615463,-689.485948
366.356937,-2368.659014,-9030.512492,-612.876398
366.357261,-2368.659014,-8586.388927,-766.095498
366.357585,-1998.556043,-7994.224174,-459.657299
366.357909,-1628.453072,-7920.203579,-153.219100
366.358233,-888.247130,-8068.244768,-153.219100
366.358557,-518.144159,-8438.347739,0.000000
366.358881,444.123565,-8808.450710,0.000000
366.359205,1258.350101,-9474.636058,0.000000
366.359530,1480.411884,-9918.759623,76.609550
366.359854,1998.556043,-10807.006753,0.000000
366.360178,2368.659014,-11325.150913,0.000000
366.360502,2368.659014,-11473.192101,76.609550
366.360826,2220.617826,-11843.295072,306.438199
366.361150,2146.597232,-11547.212695,383.047749
366.361474,1776.494261,-11547.212695,536.266849
366.361798,1258.350101,-10955.047942,229.828649
366.362122,0.000000,-10436.903782,229.828649
366.362446,-592.164754,-9770.718434,-153.219100
366.362771,-1184.329507,-9252.574275,0.000000
366.363095,-1628.453072,-8586.388927,0.000000
366.363419,-1924.535449,-7698.141797,0.000000
366.363743,-2146.597232,-7328.038826,0.000000
366.364067,-2146.597232,-7254.018232,-306.438199
366.364391,-2072.576638,-7105.977043,-459.657299
366.364715,-2146.597232,-7328.038826,-536.266849
366.365039,-1998.556043,-7624.121203,-842.705048
366.365363,-1554.432478,-7846.182985,-995.924147
366.365687,-1110.308913,-8660.409521,0.000000
366.366012,-370.102971,-8882.471304,-612.876398
366.366336,0.000000,-9252.574275,-383.047749
366.366660,962.267725,-9992.780217,-229.828649
366.366984,1258.350101,-10658.965565,0.000000
366.367308,1924.535449,-11399.171507,0.000000
366.367632,2220.617826,-11547.212695,229.828649
366.367956,2072.576638,-11473.192101,229.828649
366.368280,2072.576638,-11547.212695,-153.219100
366.368604,1998.556043,-11843.295072,0.000000
366.368929,1554.432478,-11547.212695,-153.219100
366.369253,518.144159,-11029.068536,-229.828649
366.369577,-296.082377,-10955.047942,-766.095498
366.369901,-1480.411884,-10510.924376,-689.485948
366.370225,-2146.597232,-10066.800811,-995.924147
366.370549,-2072.576638,-9770.718434,-383.047749
366.370873,-2812.782580,-8734.430116,-459.657299
366.371197,-2516.700203,-8882.471304,-536.266849
366.371521,-2146.597232,-8216.285956,-383.047749
366.371845,-1480.411884,-8364.327145,-383.047749
366.372170,-1332.370696,-8216.285956,-536.266849
366.372494,-888.247130,-8438.347739,0.000000
366.372818,-296.082377,-8956.491898,-153.219100
366.373142,518.144159,-9474.636058,-383.047749
366.373466,1702.473667,-9844.739029,995.924147
366.373790,2146.597232,-10288.862594,153.219100
366.374114,2368.659014,-10955.047942,153.219100
366.374438,2368.659014,-11177.109724,306.438199
366.374762,2368.659014,-11251.130318,306.438199
366.375086,1998.556043,-11473.192101,459.657299
366.375411,1628.453072,-11103.089130,766.095498
366.375735,1406.391290,-10881.027347,1149.143247
366.376059,592.164754,-9770.718434,842.705048
366.376383,-296.082377,-9474.636058,459.657299
366.376707,-814.226536,-9474.636058,383.047749
366.377031,-1406.391290,-8956.491898,383.047749
366.377355,-1628.453072,-8438.347739,76.609550
366.377679,-1554.432478,-7994.224174,306.438199
366.378003,-1628.453072,-7698.141797,153.219100
366.378328,-1554.432478,-7846.182985,-306.438199
366.378652,-1628.453072,-7772.162391,-229.828649
366.378976,-1480.411884,-7698.141797,229.828649
366.379300,-1258.350101,-8142.265362,0.000000
366.379624,-888.247130,-8290.306550,76.609550
366.379948,-444.123565,-8882.471304,153.219100
366.380272,-296.082377,-8956.491898,153.219100
366.380596,814.226536,-9696.697840,612.876398
366.380920,1258.350101,-10140.821405,919.314598
366.381244,1480.411884,-10066.800811,766.095498
366.381569,1850.514855,-10658.965565,612.876398
366.381893,1998.556043,-10881.027347,383.047749
366.382217,1702.473667,-11177.109724,306.438199
366.382541,1554.432478,-11621.233289,153.219100
366.382865,1110.308913,-11325.150913,229.828649
366.383189,592.164754,-11843.295072,0.000000
366.383513,0.000000,-10955.047942,-153.219100
366.383837,-814.226536,-10658.965565,-766.095498
366.384161,-1554.432478,-10362.883188,-459.657299
366.384485,-1776.494261,-9770.718434,-842.705048
366.384810,-1924.535449,-9474.636058,-689.485948
366.385134,-1628.453072,-9474.636058,-919.314598
366.385458,-1702.473667,-8956.491898,-306.438199
366.385782,-1702.473667,-8438.347739,-229.828649
366.386106,-1036.288319,-8660.409521,-153.219100
366.386430,-1036.288319,-8660.409521,-459.657299
366.386754,-370.102971,-8882.471304,-306.438199
366.387078,592.164754,-9252.574275,0.000000
366.387402,1184.329507,-9474.636058,-153.219100
366.387727,1628.453072,-9844.739029,0.000000
366.388051,1702.473667,-10214.842000,-153.219100
366.388375,2368.659014,-10881.027347,0.000000
366.388699,2294.638420,-11029.068536,0.000000
366.389023,2146.597232,-11399.171507,229.828649
366.389347,1850.514855,-11177.109724,76.609550
366.389671,1628.453072,-11029.068536,153.219100
366.389995,1110.308913,-10658.965565,0.000000
366.390319,592.164754,-10658.965565,153.219100
366.390643,-1184.329507,-9696.697840,0.000000
366.390968,-1332.370696,-9400.615463,0.000000
366.391292,-1702.473667,-8808.450710,-459.657299
366.391616,-1850.514855,-8364.327145,-536.266849
366.391940,-1924.535449,-8068.244768,-306.438199
366.392264,-1776.494261,-7920.203579,-459.657299
366.392588,-1332.370696,-7698.141797,0.000000
366.392912,-1628.453072,-7846.182985,-919.314598
366.393236,-1554.432478,-7772.162391,-306.438199
366.393560,-1776.494261,-7994.224174,-459.657299
366.393884,-1184.329507,-8734.430116,-536.266849
366.394209,-444.123565,-8660.409521,-153.219100
366.394533,74.020594,-9252.574275,0.000000
366.394857,740.205942,-9548.656652,306.438199
366.395181,962.267725,-10140.821405,229.828649
366.395505,2220.617826,-10732.986159,-153.219100
366.395829,1702.473667,-10584.944971,459.657299
366.396153,2072.576638,-11177.109724,-153.219100
366.396477,1998.556043,-11251.130318,-153.219100
366.396801,1628.453072,-11399.171507,-383.047749
366.397126,1258.350101,-11621.233289,0.000000
366.397450,296.082377,-11177.109724,-229.828649
366.397774,-518.144159,-10807.006753,-612.876398
366.398098,-1110.308913,-10658.965565,-842.705048
366.398422,-1998.556043,-10214.842000,-536.266849
366.398746,-2294.638420,-10140.821405,-842.705048
366.399070,-2294.638420,-9474.636058,-995.924147
366.399394,-2368.659014,-9104.533087,-766.095498
366.399718,-1924.535449,-8660.409521,-766.095498
366.400042,-1110.308913,-8586.388927,-229.828649
366.400367,-888.247130,-8142.265362,-383.047749
366.400691,-962.267725,-8142.265362,-536.266849
366.401015,-296.082377,-8808.450710,-306.438199
366.401339,296.082377,-9178.553681,-383.047749
366.401663,740.205942,-9474.636058,0.000000
366.401987,1332.370696,-9992.780217,-306.438199
366.402311,1702.473667,-10066.800811,-229.828649
366.402635,2220.617826,-10732.986159,383.047749
366.402959,2368.659014,-11325.150913,153.219100
366.403283,2072.576638,-11103.089130,459.657299
366.403608,2146.597232,-11103.089130,459.657299
366.403932,1554.432478,-10807.006753,766.095498
366.404256,962.267725,-10436.903782,612.876398
366.404580,518.144159,-10658.965565,459.657299
366.404904,0.000000,-9400.615463,459.657299
366.405228,-592.164754,-9326.594869,1072.533697
366.405552,-1480.411884,-8586.388927,306.438199
366.405876,-2220.617826,-8364.327145,-306.438199
366.406200,-2072.576638,-8068.244768,-153.219100
366.406524,-2294.638420,-7920.203579,-153.219100
366.406849,-1998.556043,-7624.121203,0.000000
366.407173,-2146.597232,-7624.121203,0.000000
366.407497,-1258.350101,-7476.080014,0.000000
366.407821,-1184.329507,-7772.162391,306.438199
366.408145,-296.082377,-8660.409521,459.657299
366.408469,444.123565,-9252.574275,383.047749
366.408793,888.247130,-9474.636058,306.438199
366.409117,1258.350101,-9770.718434,459.657299
366.409441,2072.576638,-10510.924376,1072.533697
366.409766,2442.679609,-10584.944971,919.314598
366.410090,2368.659014,-11473.192101,689.485948
366.410414,2738.761985,-11547.212695,842.705048
366.410738,2220.617826,-11399.171507,459.657299
366.411062,1628.453072,-11399.171507,229.828649
366.411386,666.185348,-11547.212695,153.219100
366.411710,0.000000,-11399.171507,229.828649
366.412034,-1036.288319,-10214.842000,0.000000
366.412358,-1850.514855,-10436.903782,0.000000
366.412682,-2220.617826,-9770.718434,-459.657299
366.413007,-2442.679609,-9622.677246,-306.438199
366.413331,-2368.659014,-9178.553681,-766.095498
366.413655,-2442.679609,-9030.512492,-459.657299
366.413979,-2220.617826,-8808.450710,-612.876398
366.414303,-1924.535449,-8512.368333,-842.705048
366.414627,-1258.350101,-8216.285956,383.047749
366.414951,-222.061783,-8882.471304,842.705048
366.415275,592.164754,-8660.409521,-229.828649
366.415599,1184.329507,-9400.615463,0.000000
366.415923,1850.514855,-9548.656652,76.609550
366.416248,1924.535449,-9770.718434,0.000000
366.416572,2220.617826,-10362.883188,0.000000
366.416896,2146.597232,-10288.862594,0.000000
366.417220,1924.535449,-10732.986159,153.219100
366.417544,1998.556043,-10732.986159,76.609550
366.417868,1480.411884,-10732.986159,459.657299
366.418192,740.205942,-10658.965565,229.828649
366.418516,222.061783,-10584.944971,229.828649
366.418840,-444.123565,-10214.842000,153.219100
366.419165,-1184.329507,-9252.574275,536.266849
366.419489,-1480.411884,-9030.512492,153.219100
366.419813,-1554.432478,-9178.553681,0.000000
366.420137,-1554.432478,-7994.224174,0.000000
366.420461,-1406.391290,-8364.327145,-536.266849
366.420785,-1480.411884,-8364.327145,-536.266849
366.421109,-1406.391290,-8216.285956,-689.485948
366.421433,-1332.370696,-8142.265362,-612.876398
366.421757,-1332.370696,-8068.244768,-306.438199
366.422081,-1036.288319,-8734.430116,-1072.533697
366.422406,-222.061783,-9400.615463,0.000000
366.422730,592.164754,-9474.636058,-383.047749
366.423054,814.226536,-9622.677246,-153.219100
366.423378,1628.453072,-10066.800811,0.000000
366.423702,1924.535449,-10658.965565,76.609550
366.424026,2220.617826,-10584.944971,0.000000
366.424350,2072.576638,-10881.027347,0.000000
366.424674,2294.638420,-11547.212695,76.609550
366.424998,1406.391290,-11029.068536,76.609550
366.425322,1110.308913,-11695.253884,-229.828649
366.425647,592.164754,-11399.171507,-306.438199
366.425971,-148.041188,-10955.047942,-612.876398
366.426295,-888.247130,-10955.047942,-536.266849
366.426619,-1702.473667,-10066.800811,-536.266849
366.426943,-2072.576638,-9548.656652,-229.828649
366.427267,-2368.659014,-9474.636058,-536.266849
366.427591,-2590.720797,-8956.491898,-612.876398
366.427915,-2368.659014,-8882.471304,-383.047749
366.428239,-2146.597232,-8512.368333,-383.047749
366.428564,-1480.411884,-8364.327145,0.000000
366.428888,-962.267725,-8216.285956,306.438199
366.429212,-518.144159,-8512.368333,76.609550
366.429536,296.082377,-8882.471304,0.000000
366.429860,888.247130,-9104.533087,229.828649
366.430184,1184.329507,-9474.636058,459.657299
366.430508,1702.473667,-9992.780217,229.828649
366.430832,2220.617826,-10066.800811,536.266849
366.431156,2590.720797,-10288.862594,459.657299
366.431480,2442.679609,-9992.780217,459.657299
366.431805,2368.659014,-10510.924376,612.876398
366.432129,1554.432478,-9992.780217,766.095498
366.432453,518.144159,-10066.800811,0.000000
366.432777,222.061783,-10362.883188,459.657299
366.433101,-592.164754,-9992.780217,689.485948
366.433425,-1110.308913,-9844.739029,459.657299
366.433749,-1554.432478,-9474.636058,306.438199
366.434073,-1628.453072,-8808.450710,689.485948
366.434397,-2146.597232,-8290.306550,536.266849
366.434722,-1924.535449,-8438.347739,0.000000
366.435046,-1850.514855,-8290.306550,-306.438199
366.435370,-1480.411884,-8364.327145,-153.219100
366.435694,-962.267725,-8068.244768,-153.219100
366.436018,-666.185348,-8438.347739,0.000000
366.436342,0.000000,-8290.306550,306.438199
366.436666,222.061783,-8734.430116,153.219100
366.436990,814.226536,-9178.553681,229.828649
366.437314,1332.370696,-9696.697840,229.828649
366.437639,1554.432478,-10214.842000,76.609550
366.437963,1850.514855,-10807.006753,153.219100
366.438287,1998.556043,-10658.965565,229.828649
366.438611,1776.494261,-11325.150913,306.438199
366.438935,1628.453072,-11177.109724,0.000000
366.439259,1184.329507,-11251.130318,76.609550
366.439583,666.185348,-10732.986159,0.000000
366.439907,74.020594,-10955.047942,-153.219100
366.440231,-666.185348,-10732.986159,-459.657299
366.440556,-1036.288319,-10732.986159,-459.657299
366.440880,-1332.370696,-10214.842000,-459.657299
366.441204,-1776.494261,-9622.677246,0.000000
366.441528,-1628.453072,-9252.574275,-383.047749
366.441852,-1628.453072,-9400.615463,-842.705048
366.442176,-2146.597232,-8956.491898,-383.047749
366.442500,-1702.473667,-8586.388927,-766.095498
366.442824,-1480.411884,-8512.368333,-459.657299
366.443148,-1184.329507,-8586.388927,-459.657299
366.443473,-148.041188,-8882.471304,0.000000
366.443797,592.164754,-9104.533087,153.219100
366.444121,1184.329507,-9326.594869,153.219100
366.444445,1628.453072,-9474.636058,306.438199
366.444769,1998.556043,-9918.759623,76.609550
366.445093,2368.659014,-10362.883188,0.000000
366.445417,2442.679609,-10510.924376,0.000000
366.445741,2368.659014,-10732.986159,459.657299
366.446065,1702.473667,-10584.944971,383.047749
366.446390,1702.473667,-10807.006753,229.828649
366.446714,1184.329507,-10881.027347,0.000000
366.447038,370.102971,-10436.903782,306.438199
366.447362,-740.205942,-10066.800811,76.609550
366.447686,-1258.350101,-9844.739029,0.000000
366.448010,-1702.473667,-9326.594869,0.000000
366.448334,-1924.535449,-8882.471304,-229.828649
366.448658,-2146.597232,-8216.285956,-306.438199
366.448982,-2146.597232,-7994.224174,-306.438199
366.449307,-2146.597232,-7698.141797,-229.828649
366.449631,-1406.391290,-7846.182985,-919.314598
366.449955,-1332.370696,-8142.265362,-536.266849
366.450279,-888.247130,-8364.327145,-536.266849
366.450603,-518.144159,-8734.430116,0.000000
366.450927,0.000000,-8956.491898,0.000000
366.451251,222.061783,-9252.574275,306.438199
366.451575,1036.288319,-9918.759623,306.438199
366.451899,1184.329507,-10436.903782,459.657299
366.452224,1998.556043,-11103.089130,76.609550
366.452548,1850.514855,-10732.986159,76.609550
366.452872,1628.453072,-11029.068536,153.219100
366.453196,1554.432478,-11251.130318,0.000000
366.453520,1258.350101,-11103.089130,0.000000
366.453844,962.267725,-11029.068536,229.828649
366.454168,0.000000,-10362.883188,-536.266849
366.454492,-888.247130,-10584.944971,-689.485948
366.454816,-1480.411884,-10658.965565,-766.095498
366.455141,-1776.494261,-10362.883188,-766.095498
366.455465,-2220.617826,-9992.780217,-919.314598
366.455789,-2442.679609,-9104.533087,-306.438199
366.456113,-2368.659014,-9474.636058,-842.705048
366.456437,-2146.597232,-9104.533087,-229.828649
366.456761,-1850.514855,-8660.409521,-766.095498
366.457085,-1554.432478,-8808.450710,-383.047749
366.457409,-814.226536,-8882.471304,-306.438199
366.457733,0.000000,-8882.471304,-306.438199
366.458058,592.164754,-8956.491898,76.609550
366.458382,1554.432478,-9400.615463,153.219100
366.458706,2072.576638,-9992.780217,229.828649
366.459030,2516.700203,-10140.821405,229.828649
366.459354,2664.741391,-10362.883188,76.609550
366.459678,2368.659014,-10807.006753,229.828649
366.460002,2220.617826,-10881.027347,229.828649
366.460326,1480.411884,-10881.027347,76.609550
366.460650,962.267725,-10510.924376,536.266849
366.460975,370.102971,-10214.842000,689.485948
366.461299,74.020594,-10140.821405,612.876398
366.461623,-740.205942,-9474.636058,536.266849
366.461947,-1332.370696,-9400.615463,459.657299
366.462271,-1406.391290,-8882.471304,229.828649
366.462595,-1776.494261,-8364.327145,0.000000
366.462919,-1998.556043,-7772.162391,153.219100
366.463243,-1628.453072,-7624.121203,0.000000
366.463567,-1554.432478,-7476.080014,229.828649
366.463892,-1258.350101,-7920.203579,0.000000
366.464216,-888.247130,-7846.182985,0.000000
366.464540,-740.205942,-8438.347739,0.000000
366.464864,-370.102971,-8660.409521,153.219100
366.465188,148.041188,-9252.574275,229.828649
366.465512,592.164754,-9622.677246,229.828649
366.465836,814.226536,-9770.718434,383.047749
366.466160,1554.432478,-10288.862594,1455.581446
366.466484,1702.473667,-10658.965565,689.485948
366.466809,1480.411884,-10955.047942,612.876398
366.467133,1628.453072,-10955.047942,536.266849
366.467457,1184.329507,-10881.027347,153.219100
366.467781,740.205942,-10732.986159,0.000000
366.468105,444.123565,-10658.965565,0.000000
366.468429,-296.082377,-10436.903782,0.000000
366.468753,-740.205942,-10140.821405,-842.705048
366.469077,-1184.329507,-9992.780217,-306.438199
366.469401,-1480.411884,-9770.718434,-459.657299
366.469726,-1850.514855,-9696.697840,-536.266849
366.470050,-2368.659014,-9474.636058,-459.657299
366.470374,-2220.617826,-9326.594869,-995.924147
366.470698,-1776.494261,-8882.471304,-153.219100
366.471022,-1850.514855,-8660.409521,-459.657299
366.471346,-1036.288319,-8808.450710,0.000000
366.471670,-370.102971,-9326.594869,-383.047749
366.471994,370.102971,-9326.594869,-229.828649
366.472318,888.247130,-9548.656652,-229.828649
366.472643,1702.473667,-9844.739029,0.000000
366.472967,2220.617826,-9992.780217,0.000000
366.473291,2368.659014,-10510.924376,76.609550
366.473615,2886.803174,-10732.986159,536.266849
366.473939,2516.700203,-11103.089130,76.609550
366.474263,2294.638420,-11177.109724,229.828649
366.474587,1850.514855,-11177.109724,306.438199
366.474911,1036.288319,-10732.986159,306.438199
366.475235,296.082377,-10288.862594,153.219100
366.475560,-592.164754,-9918.759623,689.485948
366.475884,-1332.370696,-9474.636058,76.609550
366.476208,-1554.432478,-8660.409521,0.000000
366.476532,-2072.576638,-8660.409521,-306.438199
366.476856,-2146.597232,-7772.162391,-306.438199
366.477180,-1998.556043,-7550.100608,-229.828649
366.477504,-1702.473667,-7698.141797,-229.828649
366.477828,-1628.453072,-7476.080014,-383.047749
366.478152,-1480.411884,-7772.162391,-689.485948
366.478476,-740.205942,-8216.285956,-612.876398
366.478801,-814.226536,-8734.430116,-536.266849
366.479125,-592.164754,-9474.636058,-306.438199
366.479449,-222.061783,-9844.739029,0.000000
366.479773,370.102971,-9844.739029,0.000000
366.480097,962.267725,-10362.883188,76.609550
366.480421,1702.473667,-10214.842000,76.609550
366.480745,1924.535449,-10584.944971,229.828649
366.481069,2220.617826,-10881.027347,-383.047749
366.481393,2072.576638,-10881.027347,153.219100
366.481718,1702.473667,-11251.130318,0.000000
366.482042,1258.350101,-11325.150913,0.000000
366.482366,444.123565,-11103.089130,-306.438199
366.482690,-370.102971,-10510.924376,-536.266849
366.483014,-962.267725,-10584.944971,-383.047749
366.483338,-1628.453072,-10140.821405,0.000000
366.483662,-1924.535449,-9770.718434,-842.705048
366.483986,-2072.576638,-9696.697840,-612.876398
366.484310,-1924.535449,-9030.512492,-689.485948
366.484635,-1776.494261,-8808.450710,-612.876398
366.484959,-1702.473667,-8364.327145,-536.266849
366.485283,-1480.411884,-8512.368333,-536.266849
366.485607,-1110.308913,-8438.347739,-229.828649
366.485931,-222.061783,-8734.430116,229.828649
366.486255,370.102971,-8956.491898,-229.828649
366.486579,814.226536,-9400.615463,-153.219100
366.486903,1628.453072,-9992.780217,76.609550
366.487227,1850.514855,-10732.986159,0.000000
366.487552,2072.576638,-10732.986159,76.609550
366.487876,1924.535449,-10362.883188,383.047749
366.488200,2516.700203,-11103.089130,536.266849
366.488524,1924.535449,-11473.192101,-229.828649
366.488848,1184.329507,-11029.068536,383.047749
366.489172,518.144159,-10881.027347,459.657299
366.489496,0.000000,-10362.883188,383.047749
366.489820,-888.247130,-9770.718434,306.438199
366.490144,-1628.453072,-8660.409521,0.000000
366.490469,-1480.411884,-8808.450710,0.000000
366.490793,-1258.350101,-8216.285956,0.000000
366.491117,-1258.350101,-8290.306550,0.000000
366.491441,-1480.411884,-7624.121203,0.000000
366.491765,-1258.350101,-7476.080014,0.000000
366.492089,-1184.329507,-7772.162391,-229.828649
366.492413,-814.226536,-8142.265362,-459.657299
366.492737,-1184.329507,-8586.388927,-229.828649
366.493061,-1184.329507,-8660.409521,0.000000
366.493386,-444.123565,-9474.636058,0.000000
366.493710,74.020594,-9696.697840,306.438199
366.494034,888.247130,-10140.821405,536.266849
366.494358,1332.370696,-10658.965565,612.876398
366.494682,2220.617826,-10807.006753,1149.143247
366.495006,1702.473667,-10436.903782,766.095498
366.495330,1776.494261,-10807.006753,612.876398
366.495654,1924.535449,-10881.027347,383.047749
366.495978,1406.391290,-11325.150913,153.219100
366.496303,814.226536,-10732.986159,0.000000
366.496627,0.000000,-10510.924376,-153.219100
366.496951,-666.185348,-10436.903782,-459.657299
366.497275,-1332.370696,-10140.821405,-612.876398
366.497599,-1628.453072,-10140.821405,-459.657299
366.497923,-1776.494261,-9548.656652,153.219100
366.498247,-2294.638420,-9030.512492,-459.657299
366.498571,-2368.659014,-9178.553681,-383.047749
366.498895,-2146.597232,-9030.512492,-306.438199
366.499220,-1554.432478,-8660.409521,0.000000
366.499544,-740.205942,-8586.388927,0.000000
366.499868,0.000000,-8586.388927,0.000000
366.500192,814.226536,-8660.409521,0.000000
366.500516,1702.473667,-9400.615463,0.000000
366.500840,1702.473667,-9992.780217,0.000000
366.501164,2146.597232,-10584.944971,229.828649
366.501488,2294.638420,-11029.068536,0.000000
366.501812,2294.638420,-11251.130318,76.609550
366.502137,2368.659014,-11177.109724,612.876398
366.502461,1850.514855,-11103.089130,536.266849
366.502785,1776.494261,-11325.150913,459.657299
366.503109,518.144159,-10732.986159,766.095498
366.503433,0.000000,-10362.883188,383.047749
366.503757,-814.226536,-10066.800811,153.219100
366.504081,-1480.411884,-9474.636058,153.219100
366.504405,-1702.473667,-9104.533087,383.047749
366.504729,-1998.556043,-8068.244768,0.000000
366.505054,-1702.473667,-7846.182985,536.266849
366.505378,-1184.329507,-7624.121203,-229.828649
366.505702,-1258.350101,-7698.141797,0.000000
366.506026,-1110.308913,-7846.182985,-306.438199
366.506350,-1110.308913,-7920.203579,-306.438199
366.506674,-1184.329507,-8438.347739,-229.828649
366.506998,-888.247130,-8512.368333,-153.219100
366.507322,-666.185348,-8882.471304,-153.219100
366.507646,0.000000,-9400.615463,0.000000
366.507971,296.082377,-9622.677246,0.000000
366.508295,518.144159,-9770.718434,153.219100
366.508619,1036.288319,-10214.842000,0.000000
366.508943,1406.391290,-10584.944971,153.219100
366.509267,1628.453072,-10732.986159,153.219100
366.509591,1776.494261,-11029.068536,919.314598
366.509915,1924.535449,-10955.047942,383.047749
366.510239,1628.453072,-11103.089130,-536.266849
366.510563,1406.391290,-11251.130318,-229.828649
366.510888,296.082377,-11103.089130,-383.047749
366.511212,-814.226536,-10881.027347,-459.657299
366.511536,-1332.370696,-10658.965565,-612.876398
366.511860,-1924.535449,-9770.718434,-766.095498
366.512184,-1628.453072,-9474.636058,-995.924147
366.512508,-1702.473667,-9400.615463,-766.095498
366.512832,-1332.370696,-8808.450710,-612.876398
366.513156,-1332.370696,-8882.471304,-459.657299
366.513480,-1184.329507,-8438.347739,-459.657299
366.513805,-1036.288319,-8364.327145,-459.657299
366.514129,-296.082377,-8512.368333,153.219100
366.514453,148.041188,-9104.533087,-612.876398
366.514777,888.247130,-9474.636058,-383.047749
366.515101,1184.329507,-9622.677246,0.000000
366.515425,888.247130,-10140.821405,-459.657299
366.515749,1480.411884,-10881.027347,-76.609550
366.516073,2072.576638,-11177.109724,-153.219100
366.516397,2072.576638,-11251.130318,0.000000
366.516722,1998.556043,-11177.109724,459.657299
366.517046,1406.391290,-10732.986159,306.438199
366.517370,962.267725,-10881.027347,153.219100
366.517694,148.041188,-10436.903782,306.438199
366.518018,-518.144159,-9992.780217,229.828649
366.518342,-1110.308913,-9474.636058,229.828649
366.518666,-1480.411884,-8956.491898,0.000000
366.518990,-1850.514855,-7994.224174,153.219100
366.519314,-1554.432478,-8142.265362,-306.438199
366.519639,-1628.453072,-7550.100608,0.000000
366.519963,-2146.597232,-7550.100608,-536.266849
366.520287,-1332.370696,-7772.162391,-536.266849
366.520611,-1184.329507,-7846.182985,-459.657299
366.520935,-1184.329507,-8216.285956,-306.438199
366.521259,-666.185348,-8512.368333,0.000000
366.521583,-592.164754,-8808.450710,0.000000
366.521907,0.000000,-9400.615463,229.828649
366.522231,592.164754,-9548.656652,0.000000
366.522556,962.267725,-10214.842000,459.657299
366.522880,2146.597232,-10436.903782,459.657299
366.523204,2294.638420,-10658.965565,306.438199
366.523528,2368.659014,-10658.965565,459.657299
366.523852,2220.617826,-10881.027347,306.438199
366.524176,1258.350101,-10658.965565,0.000000
366.524500,1332.370696,-10955.047942,383.047749
366.524824,74.020594,-10732.986159,0.000000
366.525148,-592.164754,-10732.986159,-153.219100
366.525473,-1480.411884,-10510.924376,-536.266849
366.525797,-1628.453072,-10140.821405,-383.047749
366.526121,-1924.535449,-9622.677246,-536.266849
366.526445,-2072.576638,-9400.615463,-383.047749
366.526769,-1924.535449,-9030.512492,-612.876398
366.527093,-1702.473667,-8956.491898,-229.828649
366.527417,-1258.350101,-8734.430116,-689.485948
366.527741,-1258.350101,-8586.388927,-383.047749
366.528065,-296.082377,-8808.450710,0.000000
366.528390,444.123565,-9252.574275,76.609550
366.528714,1184.329507,-9252.574275,459.657299
366.529038,1554.432478,-9622.677246,229.828649
366.529362,2072.576638,-10658.965565,76.609550
366.529686,1924.535449,-10584.944971,306.438199
366.530010,2368.659014,-10955.047942,76.609550
366.530334,2072.576638,-10955.047942,153.219100
366.530658,1924.535449,-11029.068536,536.266849
366.530982,1406.391290,-11029.068536,383.047749
366.531307,1110.308913,-10732.986159,459.657299
366.531631,444.123565,-10362.883188,306.438199
366.531955,-592.164754,-9844.739029,612.876398
366.532279,-962.267725,-9770.718434,383.047749
366.532603,-1554.432478,-9474.636058,153.219100
366.532927,-1850.514855,-8882.471304,153.219100
366.533251,-2146.597232,-8290.306550,0.000000
366.533576,-2072.576638,-8142.265362,-153.219100
366.533900,-1554.432478,-8068.244768,0.000000
366.534224,-1332.370696,-7772.162391,0.000000
366.534548,-666.185348,-7772.162391,76.609550
366.534872,-592.164754,-7846.182985,0.000000
366.535196,-666.185348,-8216.285956,0.000000
366.535520,-370.102971,-8808.450710,-153.219100
366.535845,0.000000,-9326.594869,-306.438199
366.536169,518.144159,-9992.780217,153.219100
366.536493,740.205942,-10362.883188,229.828649
366.536817,1110.308913,-10658.965565,766.095498
366.537141,1628.453072,-10881.027347,383.047749
366.537465,1702.473667,-10732.986159,229.828649
366.537789,1702.473667,-11251.130318,229.828649
366.538114,1850.514855,-11325.150913,229.828649
366.538438,1554.432478,-11399.171507,306.438199
366.538762,1184.329507,-11547.212695,0.000000
366.539086,370.102971,-10732.986159,0.000000
366.539410,-518.144159,-10732.986159,-383.047749
366.539734,-592.164754,-10362.883188,-536.266849
366.540058,-1332.370696,-10732.986159,-536.266849
366.540383,-1776.494261,-9622.677246,-229.828649
366.540707,-2294.638420,-9030.512492,-689.485948
366.541031,-2220.617826,-9104.533087,-766.095498
366.541355,-2294.638420,-8956.491898,-459.657299
366.541679,-1850.514855,-8734.430116,-306.438199
366.542003,-1702.473667,-8290.306550,-229.828649
366.542327,-888.247130,-8512.368333,0.000000
366.542652,0.000000,-8882.471304,-383.047749
366.542976,518.144159,-8882.471304,76.609550
366.543300,1036.288319,-9548.656652,229.828649
366.543624,1628.453072,-9918.759623,153.219100
366.543948,2220.617826,-10436.903782,76.609550
366.544272,2220.617826,-10436.903782,459.657299
366.544596,2516.700203,-11177.109724,306.438199
366.544921,2072.576638,-10881.027347,-306.438199
366.545245,1628.453072,-10214.842000,536.266849
366.545569,814.226536,-10510.924376,459.657299
366.545893,0.000000,-10436.903782,383.047749
366.546217,-666.185348,-10214.842000,229.828649
366.546541,-1184.329507,-9548.656652,306.438199
366.546866,-1406.391290,-8660.409521,-229.828649
366.547190,-1850.514855,-8216.285956,229.828649
366.547514,-2220.617826,-7994.224174,-459.657299
366.547838,-2368.659014,-7846.182985,-459.657299
366.548162,-1924.535449,-7698.141797,-383.047749
366.548486,-1406.391290,-7698.141797,-536.266849
366.548810,-1184.329507,-8142.265362,-536.266849
366.549135,-592.164754,-8068.244768,-306.438199
366.549459,74.020594,-8808.450710,0.000000
366.549783,444.123565,-8882.471304,-153.219100
366.550107,666.185348,-9548.656652,229.828649
366.550431,962.267725,-10436.903782,0.000000
366.550755,1332.370696,-10658.965565,0.000000
366.551079,1702.473667,-10955.047942,0.000000
366.551404,1776.494261,-11251.130318,229.828649
366.551728,1924.535449,-11325.150913,383.047749
366.552052,1480.411884,-10881.027347,0.000000
366.552376,1184.329507,-11399.171507,0.000000
366.552700,740.205942,-11251.130318,-766.095498
366.553024,74.020594,-10807.006753,-612.876398
366.553348,-148.041188,-10510.924376,-536.266849
366.553673,-740.205942,-10510.924376,-689.485948
366.553997,-1036.288319,-9918.759623,-459.657299
366.554321,-1406.391290,-9474.636058,-1225.752797
366.554645,-1850.514855,-9252.574275,0.000000
366.554969,-1850.514855,-9030.512492,-612.876398
366.555293,-2220.617826,-8956.491898,-842.705048
366.555617,-1924.535449,-8882.471304,-536.266849
366.555942,-1702.473667,-8586.388927,-229.828649
366.556266,-962.267725,-8808.450710,-229.828649
366.556590,0.000000,-9104.533087,76.609550
366.556914,592.164754,-8956.491898,-153.219100
366.557238,1258.350101,-9474.636058,229.828649
366.557562,1776.494261,-9844.739029,-229.828649
366.557886,1998.556043,-10436.903782,0.000000
366.558211,2146.597232,-10658.965565,306.438199
366.558535,2368.659014,-10807.006753,383.047749
366.558859,2294.638420,-10881.027347,612.876398
366.559183,1850.514855,-10955.047942,1072.533697
366.559507,1110.308913,-10510.924376,766.095498
366.559831,666.185348,-10732.986159,229.828649
366.560155,-592.164754,-10140.821405,842.705048
366.560480,-888.247130,-9770.718434,383.047749
366.560804,-1480.411884,-9178.553681,229.828649
366.561128,-1554.432478,-8808.450710,229.828649
366.561452,-1406.391290,-8290.306550,612.876398
366.561776,-1776.494261,-7846.182985,306.438199
366.562100,-1924.535449,-7624.121203,0.000000
366.562425,-1850.514855,-7179.997637,0.000000
366.562749,-1332.370696,-7772.162391,-76.609550
366.563073,-1406.391290,-7846.182985,-383.047749
366.563397,-1258.350101,-8364.327145,-153.219100
366.563721,-814.226536,-8586.388927,-459.657299
366.564045,-148.041188,-9178.553681,-153.219100
366.564369,296.082377,-9548.656652,229.828649
366.564694,962.267725,-9622.677246,0.000000
366.565018,1184.329507,-10436.903782,229.828649
366.565342,1850.514855,-10658.965565,383.047749
366.565666,2072.576638,-10881.027347,383.047749
366.565990,2072.576638,-11103.089130,306.438199
366.566314,1924.535449,-11029.068536,459.657299
366.566638,1332.370696,-11177.109724,153.219100
366.566963,1184.329507,-11103.089130,-229.828649
366.567287,296.082377,-11399.171507,-383.047749
366.567611,-592.164754,-11029.068536,-229.828649
366.567935,-1184.329507,-10658.965565,-612.876398
366.568259,-1406.391290,-10436.903782,-306.438199
366.568583,-1702.473667,-9770.718434,-766.095498
366.568907,-2220.617826,-9400.615463,-612.876398
366.569232,-2072.576638,-9104.533087,-612.876398
366.569556,-1702.473667,-8956.491898,-612.876398
366.569880,-1554.432478,-8586.388927,-459.657299
366.570204,-1184.329507,-8660.409521,-229.828649
366.570528,-740.205942,-8734.430116,-383.047749
366.570852,-148.041188,-8882.471304,-229.828649
366.571176,518.144159,-8956.491898,-612.876398
366.571501,1110.308913,-9548.656652,-153.219100
366.571825,1480.411884,-9992.780217,-306.438199
366.572149,2072.576638,-10881.027347,0.000000
366.572473,2072.576638,-10732.986159,0.000000
366.572797,1924.535449,-10881.027347,76.609550
366.573121,1776.494261,-11177.109724,76.609550
366.573445,1258.350101,-11029.068536,0.000000
366.573770,1036.288319,-11029.068536,766.095498
366.574094,666.185348,-10510.924376,689.485948
366.574418,-148.041188,-10066.800811,0.000000
366.574742,-962.267725,-9770.718434,229.828649
366.575066,-1332.370696,-9104.533087,0.000000
366.575390,-1332.370696,-8586.388927,0.000000
366.575715,-1998.556043,-8068.244768,-153.219100
366.576039,-1776.494261,-7920.203579,306.438199
366.576363,-1554.432478,-7550.100608,0.000000
366.576687,-1184.329507,-7254.018232,-383.047749
366.577011,-1110.308913,-7179.997637,-536.266849
366.577335,-1554.432478,-7846.182985,-536.266849
366.577659,-1258.350101,-8586.388927,-306.438199
366.577984,-666.185348,-9326.594869,-153.219100
366.578308,0.000000,-9548.656652,0.000000
366.578632,962.267725,-10066.800811,0.000000
366.578956,1332.370696,-10288.862594,919.314598
366.579280,1776.494261,-10658.965565,842.705048
366.579604,2146.597232,-10881.027347,842.705048
366.579928,2294.638420,-11029.068536,306.438199
366.580253,2146.597232,-11251.130318,76.609550
366.580577,1702.473667,-10881.027347,0.000000
366.580901,1332.370696,-10881.027347,153.219100
366.581225,666.185348,-10881.027347,-306.438199
366.581549,0.000000,-10510.924376,-612.876398
366.581873,-1036.288319,-10362.883188,-689.485948
366.582197,-1184.329507,-10140.821405,-383.047749
366.582522,-1924.535449,-9548.656652,-459.657299
366.582846,-2294.638420,-9400.615463,-383.047749
366.583170,-2516.700203,-9252.574275,-536.266849
366.583494,-2368.659014,-9252.574275,-536.266849
366.583818,-2368.659014,-8660.409521,-306.438199
366.584142,-1406.391290,-8808.450710,-229.828649
366.584466,-666.185348,-8364.327145,0.000000
366.584791,0.000000,-9030.512492,-153.219100
366.585115,962.267725,-9400.615463,0.000000
366.585439,1480.411884,-9548.656652,-153.219100
366.585763,2220.617826,-10066.800811,0.000000
366.586087,2294.638420,-10658.965565,153.219100
366.586411,2516.700203,-10807.006753,306.438199
366.586735,2664.741391,-11103.089130,689.485948
366.587060,1850.514855,-10732.986159,306.438199
366.587384,1850.514855,-11029.068536,306.438199
366.587708,1258.350101,-11251.130318,0.000000
366.588032,518.144159,-10807.006753,383.047749
366.588356,-518.144159,-10362.883188,229.828649
366.588680,-1332.370696,-9622.677246,153.219100
366.589004,-1628.453072,-9030.512492,536.266849
366.589329,-2072.576638,-8808.450710,76.609550
366.589653,-2294.638420,-8142.265362,-459.657299
366.589977,-1924.535449,-8068.244768,76.609550
366.590301,-1628.453072,-7772.162391,0.000000
366.590625,-1332.370696,-7772.162391,-459.657299
366.590949,-1258.350101,-7550.100608,-536.266849
366.591274,-1036.288319,-8068.244768,-153.219100
366.591598,-888.247130,-8512.368333,-536.266849
366.591922,-296.082377,-9030.512492,76.609550
366.592246,370.102971,-9252.574275,612.876398
366.592570,666.185348,-9622.677246,153.219100
366.592894,888.247130,-9770.718434,153.219100
366.593218,1406.391290,-10214.842000,229.828649
366.593543,1480.411884,-10362.883188,306.438199
366.593867,1554.432478,-10140.821405,153.219100
366.594191,1850.514855,-10584.944971,919.314598
366.594515,1850.514855,-10807.006753,306.438199
366.594839,1258.350101,-10955.047942,-383.047749
366.595163,1036.288319,-10881.027347,0.000000
366.595487,296.082377,-11029.068536,-612.876398
366.595812,-296.082377,-10881.027347,-536.266849
366.596136,-1110.308913,-10955.047942,-612.876398
366.596460,-1554.432478,-10436.903782,0.000000
366.596784,-1628.453072,-10214.842000,-459.657299
366.597108,-1776.494261,-9474.636058,-689.485948
366.597432,-1924.535449,-9400.615463,-459.657299
366.597756,-1850.514855,-9104.533087,-459.657299
366.598081,-1554.432478,-8882.471304,-383.047749
366.598405,-1258.350101,-8512.368333,-459.657299
366.598729,-592.164754,-8438.347739,-306.438199
366.599053,74.020594,-9400.615463,0.000000
366.599377,370.102971,-8882.471304,-306.438199
366.599701,888.247130,-9548.656652,-229.828649
366.600025,1110.308913,-10066.800811,-229.828649
366.600350,1406.391290,-10510.924376,-153.219100
366.600674,1480.411884,-10807.006753,-153.219100
366.600998,1776.494261,-10881.027347,-153.219100
366.601322,1628.453072,-11029.068536,0.000000
366.601646,1332.370696,-10807.006753,76.609550
366.601970,1332.370696,-10881.027347,536.266849
366.602294,666.185348,-10510.924376,536.266849
366.602619,148.041188,-10288.862594,612.876398
366.602943,-740.205942,-9770.718434,76.609550
366.603267,-1332.370696,-9178.553681,0.000000
366.603591,-1332.370696,-8438.347739,0.000000
366.603915,-1628.453072,-7994.224174,-459.657299
366.604239,-1850.514855,-7772.162391,0.000000
366.604564,-1850.514855,-7550.100608,-383.047749
366.604888,-1406.391290,-7920.203579,-306.438199
366.605212,-1480.411884,-7846.182985,-383.047749
366.605536,-1332.370696,-8216.285956,-153.219100
366.605860,-666.185348,-8290.306550,0.000000
366.606184,-370.102971,-8734.430116,0.000000
366.606508,148.041188,-9252.574275,0.000000
366.606833,518.144159,-9548.656652,153.219100
366.607157,1110.308913,-10066.800811,459.657299
366.607481,1850.514855,-10288.862594,459.657299
366.607805,2072.576638,-10436.903782,306.438199
366.608129,2294.638420,-10510.924376,536.266849
366.608453,2294.638420,-10881.027347,306.438199
366.608777,1924.535449,-10807.006753,76.609550
366.609102,1554.432478,-10881.027347,153.219100
366.609426,0.000000,-10584.944971,-766.095498
366.609750,-592.164754,-10658.965565,-612.876398
366.610074,-1184.329507,-10362.883188,-612.876398
366.610398,-1628.453072,-10436.903782,-689.485948
366.610722,-1924.535449,-10066.800811,-229.828649
366.611046,-2368.659014,-9400.615463,-995.924147
366.611371,-2516.700203,-9326.594869,-459.657299
366.611695,-2220.617826,-9178.553681,-306.438199
366.612019,-1480.411884,-9104.533087,-459.657299
366.612343,-1480.411884,-9030.512492,-306.438199
366.612667,-740.205942,-8882.471304,-229.828649
366.612991,0.000000,-8734.430116,-383.047749
366.613315,1036.288319,-9178.553681,-766.095498
366.613640,1332.370696,-9548.656652,-153.219100
366.613964,1554.432478,-10066.800811,-459.657299
366.614288,2072.576638,-10140.821405,0.000000
366.614612,1924.535449,-10881.027347,0.000000
366.614936,1924.535449,-11251.130318,0.000000
366.615260,1702.473667,-10881.027347,76.609550
366.615584,1406.391290,-11029.068536,0.000000
366.615909,962.267725,-10807.006753,459.657299
366.616233,444.123565,-10436.903782,306.438199
366.616557,-888.247130,-9918.759623,536.266849
366.616881,-962.267725,-9696.697840,153.219100
366.617205,-1628.453072,-9548.656652,76.609550
366.617529,-1924.535449,-8808.450710,0.000000
366.617853,-2294.638420,-8364.327145,0.000000
366.618178,-1924.535449,-8216.285956,-689.485948
366.618502,-1480.411884,-8142.265362,-919.314598
366.618826,-1850.514855,-7772.162391,-612.876398
366.619150,-1480.411884,-8216.285956,-612.876398
366.619474,-1184.329507,-8290.306550,-536.266849
366.619798,-666.185348,-8438.347739,0.000000
366.620123,-370.102971,-8734.430116,0.000000
366.620447,0.000000,-9030.512492,612.876398
366.620771,962.267725,-9030.512492,153.219100
366.621095,1184.329507,-9326.594869,0.000000
366.621419,1332.370696,-9548.656652,459.657299
366.621743,1998.556043,-10066.800811,229.828649
366.622067,1850.514855,-10362.883188,153.219100
366.622392,2072.576638,-10807.006753,0.000000
366.622716,1776.494261,-10955.047942,-153.219100
366.623040,1258.350101,-10955.047942,-153.219100
366.623364,1036.288319,-11029.068536,-306.438199
366.623688,148.041188,-10955.047942,-383.047749
366.624012,0.000000,-10807.006753,-306.438199
366.624336,-666.185348,-10881.027347,-229.828649
366.624661,-1184.329507,-10584.944971,-536.266849
366.624985,-1184.329507,-10288.862594,-459.657299
366.625309,-1776.494261,-9770.718434,0.000000
366.625633,-1850.514855,-9178.553681,153.219100
366.625957,-1332.370696,-9030.512492,0.000000
366.626281,-1036.288319,-8956.491898,0.000000
366.626605,-888.247130,-8586.388927,0.000000
366.626930,-444.123565,-8512.368333,76.609550
366.627254,0.000000,-8586.388927,0.000000
366.627578,444.123565,-8882.471304,153.219100
366.627902,1406.391290,-9474.636058,0.000000
366.628226,1776.494261,-9992.780217,229.828649
366.628550,2072.576638,-10140.821405,536.266849
366.628874,2146.597232,-10288.862594,-306.438199
366.629199,1628.453072,-10510.924376,306.438199
366.629523,1480.411884,-10807.006753,459.657299
366.629847,1332.370696,-10807.006753,383.047749
366.630171,1184.329507,-10658.965565,459.657299
366.630495,592.164754,-10362.883188,689.485948
366.630819,0.000000,-10288.862594,766.095498
366.631143,-740.205942,-9696.697840,383.047749
366.631468,-1406.391290,-9474.636058,229.828649
366.631792,-1702.473667,-9178.553681,229.828649
366.632116,-1924.535449,-8808.450710,0.000000
366.632440,-1776.494261,-8512.368333,0.000000
366.632764,-1776.494261,-7920.203579,153.219100
366.633088,-1850.514855,-7920.203579,-306.438199
366.633412,-1554.432478,-7994.224174,76.609550
366.633737,-1184.329507,-7846.182985,0.000000
366.634061,-814.226536,-8290.306550,-229.828649
366.634385,-592.164754,-8808.450710,0.000000
366.634709,222.061783,-9252.574275,76.609550
366.635033,444.123565,-9474.636058,0.000000
366.635357,962.267725,-9770.718434,536.266849
366.635681,1628.453072,-10140.821405,689.485948
366.636005,1776.494261,-10584.944971,383.047749
366.636330,1998.556043,-10881.027347,76.609550
366.636654,1628.453072,-10584.944971,0.000000
366.636978,1332.370696,-11029.068536,0.000000
366.637302,1184.329507,-11325.150913,-306.438199
366.637626,518.144159,-10955.047942,0.000000
366.637950,148.041188,-10881.027347,-919.314598
366.638274,-740.205942,-10658.965565,-995.924147
366.638598,-1332.370696,-10436.903782,-766.095498
366.638923,-1702.473667,-10362.883188,-995.924147
366.639247,-2220.617826,-9992.780217,-842.705048
366.639571,-2072.576638,-9844.739029,-766.095498
366.639895,-2368.659014,-9474.636058,-689.485948
366.640219,-2072.576638,-8956.491898,-1072.533697
366.640543,-1258.350101,-9474.636058,-459.657299
366.640867,-444.123565,-8808.450710,0.000000
366.641191,148.041188,-8956.491898,-153.219100
366.641516,888.247130,-9178.553681,-153.219100
366.641840,1406.391290,-9030.512492,-153.219100
366.642164,1924.535449,-9622.677246,-459.657299
366.642488,2146.597232,-9992.780217,-842.705048
366.642812,2442.679609,-10288.862594,0.000000
366.643136,2294.638420,-10140.821405,-153.219100
366.643460,2368.659014,-11029.068536,0.000000
366.643784,1776.494261,-10955.047942,-306.438199
366.644109,1036.288319,-10807.006753,-229.828649
366.644433,444.123565,-10732.986159,0.000000
366.644757,-148.041188,-10140.821405,306.438199
366.645081,-740.205942,-10066.800811,0.000000
366.645405,-1184.329507,-9474.636058,0.000000
366.645729,-1776.494261,-9178.553681,76.609550
366.646053,-2146.597232,-8808.450710,0.000000
366.646377,-2146.597232,-8512.368333,0.000000
366.646702,-2072.576638,-8512.368333,-306.438199
366.647026,-1924.535449,-8216.285956,-153.219100
366.647350,-1628.453072,-8364.327145,-842.705048
366.647674,-1480.411884,-7550.100608,-1072.533697
366.647998,-1184.329507,-8068.244768,-229.828649
366.648322,-962.267725,-8512.368333,0.000000
366.648646,-296.082377,-8808.450710,0.000000
366.648970,592.164754,-9030.512492,306.438199
366.649295,1110.308913,-9400.615463,383.047749
366.649619,962.267725,-9696.697840,383.047749
366.649943,1480.411884,-10288.862594,536.266849
366.650267,1554.432478,-9770.718434,536.266849
366.650591,2072.576638,-10436.903782,459.657299
366.650915,1850.514855,-11103.089130,536.266849
366.651239,1480.411884,-11103.089130,459.657299
366.651563,1036.288319,-11325.150913,153.219100
366.651888,814.226536,-11251.130318,0.000000
366.652212,-370.102971,-10881.027347,0.000000
366.652536,-962.267725,-11547.212695,-383.047749
366.652860,-1332.370696,-10955.047942,0.000000
366.653184,-1480.411884,-10510.924376,-459.657299
366.653508,-1850.514855,-10140.821405,0.000000
366.653832,-1998.556043,-9548.656652,0.000000
366.654156,-1850.514855,-9326.594869,-459.657299
366.654481,-1184.329507,-9252.574275,-76.609550
366.654805,-740.205942,-8512.368333,-153.219100
366.655129,-222.061783,-8586.388927,76.609550
366.655453,74.020594,-8438.347739,-153.219100
366.655777,444.123565,-8882.471304,76.609550
366.656101,888.247130,-9030.512492,153.219100
366.656425,1110.308913,-9400.615463,229.828649
366.656749,1776.494261,-9770.718434,612.876398
366.657074,1924.535449,-10140.821405,76.609550
366.657398,2072.576638,-10436.903782,0.000000
366.657722,2072.576638,-10436.903782,536.266849
366.658046,1998.556043,-10658.965565,153.219100
366.658370,1480.411884,-10658.965565,306.438199
366.658694,814.226536,-10436.903782,306.438199
366.659018,222.061783,-10658.965565,536.266849
366.659342,-592.164754,-9770.718434,459.657299
366.659667,-962.267725,-9252.574275,612.876398
366.659991,-1480.411884,-9178.553681,-306.438199
366.660315,-1924.535449,-8956.491898,0.000000
366.660639,-1998.556043,-8364.327145,306.438199
366.660963,-2368.659014,-8290.306550,-766.095498
366.661287,-2146.597232,-7920.203579,-229.828649
366.661611,-1776.494261,-8142.265362,-536.266849
366.661935,-1554.432478,-7920.203579,-612.876398
366.662260,-962.267725,-8364.327145,-459.657299
366.662584,-518.144159,-8142.265362,-383.047749
366.662908,-222.061783,-8734.430116,76.609550
366.663232,740.205942,-9474.636058,306.438199
366.663556,962.267725,-9622.677246,0.000000
366.663880,1628.453072,-10066.800811,0.000000
366.664204,1850.514855,-10510.924376,0.000000
366.664528,2146.597232,-10807.006753,-306.438199
366.664853,1850.514855,-10955.047942,459.657299
366.665177,1776.494261,-10732.986159,-229.828649
366.665501,1406.391290,-11177.109724,-536.266849
366.665825,740.205942,-11029.068536,-383.047749
366.666149,-222.061783,-10955.047942,0.000000
366.666473,-1036.288319,-10732.986159,-689.485948
366.666797,-1776.494261,-10658.965565,-919.314598
366.667121,-2146.597232,-10288.862594,-995.924147
366.667446,-2294.638420,-9770.718434,-689.485948
366.667770,-2072.576638,-9844.739029,-1072.533697
366.668094,-2368.659014,-9548.656652,-1225.752797
366.668418,-2220.617826,-9104.533087,-689.485948
366.668742,-1924.535449,-8586.388927,-536.266849
366.669066,-962.267725,-8882.471304,-766.095498
366.669390,0.000000,-9030.512492,-229.828649
366.669715,740.205942,-9178.553681,0.000000
366.670039,1110.308913,-9326.594869,0.000000
366.670363,1924.535449,-9474.636058,383.047749
366.670687,2072.576638,-9918.759623,76.609550
366.671011,2072.576638,-10066.800811,229.828649
366.671335,1628.453072,-10214.842000,0.000000
366.671659,1998.556043,-10510.924376,0.000000
366.671983,1850.514855,-10510.924376,306.438199
366.672308,1332.370696,-10584.944971,153.219100
366.672632,370.102971,-10066.800811,612.876398
366.672956,0.000000,-9844.739029,0.000000
366.673280,-592.164754,-9474.636058,153.219100
366.673604,-1406.391290,-9474.636058,229.828649
366.673928,-1332.370696,-9326.594869,153.219100
366.674252,-1702.473667,-8808.450710,0.000000
366.674576,-1554.432478,-8660.409521,306.438199
366.674901,-1628.453072,-8512.368333,0.000000
366.675225,-1480.411884,-8364.327145,229.828649
366.675549,-1258.350101,-8290.306550,306.438199
366.675873,-1258.350101,-8290.306550,76.609550
366.676197,-1110.308913,-8216.285956,0.000000
366.676521,-666.185348,-8586.388927,-306.438199
366.676845,0.000000,-8882.471304,76.609550
366.677169,666.185348,-9326.594869,229.828649
366.677494,1258.350101,-9252.574275,459.657299
366.677818,1702.473667,-9474.636058,306.438199
366.678142,1554.432478,-10288.862594,459.657299
366.678466,1776.494261,-10288.862594,306.438199
366.678790,1776.494261,-10510.924376,383.047749
366.679114,1998.556043,-10955.047942,153.219100
366.679438,1776.494261,-10807.006753,0.000000
366.679762,1332.370696,-11029.068536,229.828649
366.680087,666.185348,-11029.068536,76.609550
366.680411,740.205942,-11621.233289,0.000000
366.680735,-666.185348,-10584.944971,-153.219100
366.681059,-1332.370696,-11103.089130,-153.219100
366.681383,-1628.453072,-10510.924376,0.000000
366.681707,-1850.514855,-10214.842000,-153.219100
366.682031,-1702.473667,-9918.759623,0.000000
366.682355,-1628.453072,-9622.677246,153.219100
366.682680,-1332.370696,-9400.615463,-612.876398
366.683004,-1036.288319,-8734.430116,459.657299
366.683328,-1184.329507,-8438.347739,383.047749
366.683652,-592.164754,-8660.409521,153.219100
366.683976,0.000000,-8586.388927,76.609550
366.684300,444.123565,-8808.450710,383.047749
366.684624,962.267725,-8660.409521,612.876398
366.684948,1110.308913,-9178.553681,153.219100
366.685273,1480.411884,-9400.615463,383.047749
366.685597,1628.453072,-9770.718434,612.876398
366.685921,1628.453072,-10066.800811,612.876398
366.686245,1258.350101,-10510.924376,842.705048
366.686569,1332.370696,-10732.986159,766.095498
366.686893,814.226536,-10658.965565,612.876398
366.687217,592.164754,-10658.965565,766.095498
366.687541,148.041188,-9992.780217,842.705048
366.687866,-962.267725,-9622.677246,459.657299
366.688190,-1110.308913,-9696.697840,306.438199
366.688514,-1480.411884,-8956.491898,153.219100
366.688838,-1702.473667,-8364.327145,0.000000
366.689162,-1924.535449,-8216.285956,-306.438199
366.689486,-1998.556043,-7994.224174,-76.609550
366.689810,-1110.308913,-7846.182985,-306.438199
366.690134,-1332.370696,-7698.141797,-612.876398
366.690459,-1184.329507,-7772.162391,-612.876398
366.690783,-1184.329507,-8290.306550,-919.314598
366.691107,-814.226536,-8734.430116,-459.657299
366.691431,-148.041188,-9474.636058,-383.047749
366.691755,592.164754,-9474.636058,-306.438199
366.692079,1332.370696,-10066.800811,0.000000
366.692403,1850.514855,-10362.883188,0.000000
366.692727,2368.659014,-11029.068536,306.438199
366.693052,2368.659014,-11029.068536,0.000000
366.693376,2072.576638,-11473.192101,-229.828649
366.693700,1554.432478,-11621.233289,-383.047749
366.694024,1036.288319,-11325.150913,-612.876398
366.694348,592.164754,-11325.150913,-919.314598
366.694672,-666.185348,-10732.986159,-919.314598
366.694996,-1480.411884,-10807.006753,-1302.362347
366.695320,-1480.411884,-10658.965565,-1072.533697
366.695645,-2220.617826,-10288.862594,-1072.533697
366.695969,-2590.720797,-9770.718434,-1149.143247
366.696293,-2590.720797,-9474.636058,-1149.143247
366.696617,-2368.659014,-9474.636058,-919.314598
366.696941,-2220.617826,-9030.512492,-995.924147
366.697265,-1406.391290,-7994.224174,-306.438199
366.697589,-592.164754,-8290.306550,0.000000
366.697913,148.041188,-8808.450710,-612.876398
366.698238,1036.288319,-9178.553681,-229.828649
366.698562,1776.494261,-9252.574275,0.000000
366.698886,2146.597232,-9474.636058,0.000000
366.699210,2590.720797,-9992.780217,76.609550
366.699534,2590.720797,-10066.800811,0.000000
366.699858,2294.638420,-10140.821405,229.828649
366.700182,1776.494261,-10362.883188,306.438199
366.700506,1332.370696,-10436.903782,153.219100
366.700831,592.164754,-10436.903782,76.609550
366.701155,0.000000,-10510.924376,383.047749
366.701479,-666.185348,-10140.821405,306.438199
366.701803,-1628.453072,-9696.697840,306.438199
366.702127,-2220.617826,-9252.574275,689.485948
366.702451,-2294.638420,-8808.450710,0.000000
366.702775,-2294.638420,-8512.368333,0.000000
366.703099,-2072.576638,-8438.347739,0.000000
366.703424,-1776.494261,-8290.306550,0.000000
366.703748,-1480.411884,-8068.244768,306.438199
366.704072,-888.247130,-8068.244768,0.000000
366.704396,-962.267725,-8290.306550,-153.219100
366.704720,-444.123565,-8512.368333,153.219100
366.705044,0.000000,-9326.594869,-689.485948
366.705368,592.164754,-9474.636058,76.609550
366.705692,1184.329507,-9622.677246,153.219100
366.706017,1628.453072,-9696.697840,306.438199
366.706341,1998.556043,-9992.780217,842.705048
366.706665,2220.617826,-9992.780217,689.485948
366.706989,2220.617826,-10510.924376,919.314598
366.707313,1702.473667,-10288.862594,536.266849
366.707637,1628.453072,-10881.027347,306.438199
366.707961,1406.391290,-11251.130318,229.828649
366.708285,814.226536,-11103.089130,76.609550
366.708610,296.082377,-11325.150913,0.000000
366.708934,-444.123565,-11251.130318,0.000000
366.709258,-1036.288319,-10807.006753,0.000000
366.709582,-1406.391290,-11103.089130,-306.438199
366.709906,-1776.494261,-10584.944971,153.219100
366.710230,-1628.453072,-10362.883188,76.609550
366.710554,-1406.391290,-10066.800811,0.000000
366.710878,-1110.308913,-9622.677246,229.828649
366.711203,-740.205942,-9030.512492,842.705048
366.711527,-592.164754,-8586.388927,229.828649
366.711851,-666.185348,-8216.285956,383.047749
366.712175,0.000000,-8290.306550,536.266849
366.712499,444.123565,-8512.368333,459.657299
366.712823,888.247130,-9030.512492,76.609550
366.713147,1332.370696,-9474.636058,153.219100
366.713471,1628.453072,-9474.636058,0.000000
366.713796,1628.453072,-9474.636058,229.828649
366.714120,1702.473667,-10214.842000,919.314598
366.714444,1332.370696,-10362.883188,766.095498
366.714768,1184.329507,-10362.883188,842.705048
366.715092,962.267725,-10658.965565,612.876398
366.715416,518.144159,-10658.965565,612.876398
366.715740,0.000000,-10140.821405,842.705048
366.716064,-592.164754,-10140.821405,153.219100
366.716389,-962.267725,-9400.615463,76.609550
366.716713,-1702.473667,-8512.368333,0.000000
366.717037,-1924.535449,-8586.388927,536.266849
366.717361,-1850.514855,-8142.265362,-306.438199
366.717685,-1998.556043,-8068.244768,-536.266849
366.718009,-2146.597232,-7846.182985,-459.657299
366.718333,-1702.473667,-8364.327145,-766.095498
366.718657,-1332.370696,-8142.265362,-612.876398
366.718982,-888.247130,-8438.347739,-842.705048
366.719306,-296.082377,-8586.388927,-306.438199
366.719630,222.061783,-9252.574275,-229.828649
366.719954,740.205942,-9844.739029,-229.828649
366.720278,1406.391290,-10140.821405,-153.219100
366.720602,2294.638420,-10510.924376,0.000000
366.720926,2516.700203,-10362.883188,0.000000
366.721250,2590.720797,-10807.006753,-229.828649
366.721575,2442.679609,-10732.986159,-153.219100
366.721899,1850.514855,-11325.150913,0.000000
366.722223,888.247130,-11473.192101,-1072.533697
366.722547,148.041188,-11325.150913,-1072.533697
366.722871,-740.205942,-11029.068536,-1225.752797
366.723195,-1480.411884,-11103.089130,-1378.971896
366.723519,-1850.514855,-10732.986159,-919.314598
366.723843,-2738.761985,-9696.697840,-995.924147
366.724168,-2368.659014,-10288.862594,-919.314598
366.724492,-2442.679609,-9622.677246,-995.924147
366.724816,-2664.741391,-9622.677246,-689.485948
366.725140,-2368.659014,-9400.615463,-766.095498
366.725464,-1480.411884,-9030.512492,-383.047749
366.725788,-592.164754,-8808.450710,153.219100
366.726112,148.041188,-8808.450710,76.609550
366.726436,1258.350101,-8808.450710,-153.219100
366.726761,2146.597232,-8882.471304,0.000000
366.727085,2220.617826,-9326.594869,0.000000
366.727409,2368.659014,-9548.656652,0.000000
366.727733,2220.617826,-9992.780217,0.000000
366.728057,2294.638420,-9918.759623,0.000000
366.728381,1924.535449,-10288.862594,306.438199
366.728705,1480.411884,-10214.842000,612.876398
366.729029,740.205942,-9992.780217,459.657299
366.729354,0.000000,-10066.800811,459.657299
366.729678,-666.185348,-9844.739029,536.266849
366.730002,-1332.370696,-9548.656652,383.047749
366.730326,-1776.494261,-9474.636058,459.657299
366.730650,-2294.638420,-8364.327145,383.047749
366.730974,-1702.473667,-8290.306550,153.219100
366.731298,-1628.453072,-7772.162391,536.266849
366.731623,-1480.411884,-7846.182985,76.609550
366.731947,-1110.308913,-8438.347739,0.000000
366.732271,-1258.350101,-8142.265362,0.000000
366.732595,-962.267725,-8512.368333,0.000000
366.732919,-814.226536,-8660.409521,-153.219100
366.733243,-296.082377,-9030.512492,-153.219100
366.733567,370.102971,-9474.636058,459.657299
366.733892,962.267725,-9178.553681,536.266849
366.734216,1406.391290,-9474.636058,153.219100
366.734540,1628.453072,-9918.759623,459.657299
366.734864,1702.473667,-10140.821405,306.438199
366.735188,1998.556043,-10140.821405,459.657299
366.735512,1776.494261,-10066.800811,383.047749
366.735837,1776.494261,-10732.986159,383.047749
366.736161,1628.453072,-10881.027347,306.438199
366.736485,518.144159,-10881.027347,0.000000
366.736809,370.102971,-11177.109724,-306.438199
366.737133,-222.061783,-11695.253884,-612.876398
366.737457,-1036.288319,-11399.171507,-612.876398
366.737782,-1332.370696,-11325.150913,-306.438199
366.738106,-1480.411884,-10807.006753,-229.828649
366.738430,-1406.391290,-10510.924376,0.000000
366.738754,-1924.535449,-9770.718434,-153.219100
366.739078,-1184.329507,-9474.636058,0.000000
366.739402,-814.226536,-9326.594869,0.000000
366.739727,-740.205942,-8882.471304,76.609550
366.740051,-592.164754,-8660.409521,0.000000
366.740375,-370.102971,-8364.327145,0.000000
366.740699,222.061783,-8216.285956,0.000000
366.741023,592.164754,-8438.347739,0.000000
366.741347,1036.288319,-8808.450710,0.000000
366.741672,1258.350101,-9252.574275,0.000000
366.741996,1628.453072,-9400.615463,0.000000
366.742320,1776.494261,-9696.697840,0.000000
366.742644,1480.411884,-10140.821405,459.657299
366.742968,1332.370696,-10066.800811,0.000000
366.743292,814.226536,-10658.965565,536.266849
366.743617,370.102971,-10288.862594,459.657299
366.743941,592.164754,-10436.903782,919.314598
366.744265,-296.082377,-10140.821405,459.657299
366.744589,-962.267725,-9548.656652,229.828649
366.744913,-1406.391290,-9178.553681,153.219100
366.745237,-1924.535449,-8808.450710,-229.828649
366.745562,-2220.617826,-8216.285956,-766.095498
366.745886,-1998.556043,-8142.265362,-995.924147
366.746210,-1924.535449,-7550.100608,-766.095498
366.746534,-1480.411884,-7772.162391,-919.314598
366.746858,-1332.370696,-8068.244768,-766.095498
366.747182,-1036.288319,-8216.285956,-689.485948
366.747507,-592.164754,-8956.491898,-306.438199
366.747831,0.000000,-9178.553681,-459.657299
366.748155,444.123565,-9548.656652,-306.438199
366.748479,1406.391290,-9844.739029,-153.219100
366.748803,1776.494261,-10436.903782,-229.828649
366.749127,2294.638420,-10881.027347,76.609550
366.749452,2516.700203,-10955.047942,-306.438199
366.749776,2442.679609,-11177.109724,-306.438199
366.750100,1776.494261,-11325.150913,-306.438199
366.750424,1628.453072,-11547.212695,-995.924147
366.750748,518.144159,-11473.192101,-459.657299
366.751072,-370.102971,-11325.150913,-1532.190996
366.751397,-1258.350101,-11473.192101,-1225.752797
366.751721,-1924.535449,-11177.109724,-1149.143247
366.752045,-2294.638420,-10807.006753,-1302.362347
366.752369,-2590.720797,-10436.903782,-1072.533697
366.752693,-2516.700203,-9696.697840,-919.314598
366.753017,-2442.679609,-9622.677246,-842.705048
366.753342,-2368.659014,-9474.636058,-842.705048
366.753666,-1924.535449,-8956.491898,-1225.752797
366.753990,-962.267725,-8734.430116,-229.828649
366.754314,0.000000,-9178.553681,-153.219100
366.754638,1036.288319,-9030.512492,0.000000
366.754962,1776.494261,-9252.574275,459.657299
366.755287,1998.556043,-9326.594869,612.876398
366.755611,2294.638420,-9622.677246,153.219100
366.755935,2220.617826,-9844.739029,383.047749
366.756259,2294.638420,-10288.862594,153.219100
366.756583,2220.617826,-10288.862594,459.657299
366.756907,1480.411884,-10214.842000,306.438199
366.757232,1036.288319,-10140.821405,459.657299
366.757556,296.082377,-9992.780217,76.609550
366.757880,222.061783,-10214.842000,0.000000
366.758204,-962.267725,-9252.574275,306.438199
366.758528,-1406.391290,-9474.636058,-153.219100
366.758852,-2146.597232,-8882.471304,459.657299
366.759177,-2368.659014,-8586.388927,459.657299
366.759501,-2072.576638,-8586.388927,76.609550
366.759825,-1924.535449,-7846.182985,76.609550
366.760149,-1776.494261,-7772.162391,0.000000
366.760473,-1628.453072,-7772.162391,-229.828649
366.760798,-1036.288319,-8068.244768,-306.438199
366.761122,-1036.288319,-8808.450710,0.000000
366.761446,-370.102971,-8882.471304,0.000000
366.761770,148.041188,-8808.450710,153.219100
366.762094,814.226536,-9178.553681,229.828649
366.762418,1776.494261,-9400.615463,383.047749
366.762743,1554.432478,-9992.780217,306.438199
366.763067,1776.494261,-10066.800811,1149.143247
366.763391,2146.597232,-10140.821405,842.705048
366.763715,1776.494261,-10436.903782,76.609550
366.764039,1258.350101,-10658.965565,0.000000
366.764363,1406.391290,-11029.068536,0.000000
366.764688,888.247130,-11325.150913,229.828649
366.765012,592.164754,-11103.089130,-306.438199
366.765336,74.020594,-10955.047942,0.000000
366.765660,-740.205942,-11325.150913,-842.705048
366.765984,-1184.329507,-10955.047942,-612.876398
366.766308,-1554.432478,-10807.006753,-229.828649
366.766633,-1850.514855,-10288.862594,-306.438199
366.766957,-2072.576638,-9918.759623,-229.828649
366.767281,-1702.473667,-9770.718434,-612.876398
366.767605,-1776.494261,-8882.471304,-229.828649
366.767929,-1850.514855,-8734.430116,-153.219100
366.768253,-814.226536,-8882.471304,-383.047749
366.768578,-370.102971,-8734.430116,76.609550
366.768902,74.020594,-8660.409521,-153.219100
366.769226,666.185348,-8808.450710,76.609550
366.769550,1110.308913,-8956.491898,-153.219100
366.769874,1702.473667,-9918.759623,0.000000
366.770198,1998.556043,-9326.594869,0.000000
366.770523,2220.617826,-9992.780217,229.828649
366.770847,1850.514855,-10214.842000,383.047749
366.771171,1998.556043,-10807.006753,383.047749
366.771495,1406.391290,-10658.965565,689.485948
366.771819,888.247130,-10658.965565,612.876398
366.772143,592.164754,-10436.903782,153.219100
366.772468,-148.041188,-10066.800811,536.266849
366.772792,-1184.329507,-9622.677246,0.000000
366.773116,-1406.391290,-8956.491898,536.266849
366.773440,-1480.411884,-8660.409521,153.219100
366.773764,-1702.473667,-8290.306550,0.000000
366.774088,-1924.535449,-8142.265362,-383.047749
366.774413,-1998.556043,-7772.162391,-383.047749
366.774737,-1554.432478,-7624.121203,-536.266849
366.775061,-1628.453072,-7698.141797,-689.485948
366.775385,-1036.288319,-8216.285956,-612.876398
366.775709,-740.205942,-8660.409521,-459.657299
366.776033,0.000000,-8956.491898,-306.438199
366.776358,518.144159,-9326.594869,-306.438199
366.776682,1110.308913,-9844.739029,-76.609550
366.777006,1628.453072,-10140.821405,76.609550
366.777330,2368.659014,-10955.047942,459.657299
366.777654,2146.597232,-10732.986159,-153.219100
366.777978,2368.659014,-10955.047942,229.828649
366.778303,2146.597232,-11325.150913,76.609550
366.778627,1776.494261,-11325.150913,0.000000
366.778951,1036.288319,-11473.192101,-459.657299
366.779275,222.061783,-10881.027347,-536.266849
366.779599,-518.144159,-10584.944971,-1149.143247
366.779923,-1776.494261,-10140.821405,-536.266849
366.780248,-1776.494261,-10584.944971,-766.095498
366.780572,-2368.659014,-10362.883188,-766.095498
366.780896,-2516.700203,-9992.780217,-1072.533697
366.781220,-2664.741391,-9622.677246,-612.876398
366.781544,-2442.679609,-9474.636058,-536.266849
366.781868,-2146.597232,-8882.471304,-153.219100
366.782193,-814.226536,-9030.512492,459.657299
366.782517,-666.185348,-8882.471304,229.828649
366.782841,296.082377,-9178.553681,0.000000
366.783165,1258.350101,-9178.553681,76.609550
366.783489,1924.535449,-9474.636058,76.609550
366.783813,2442.679609,-9622.677246,153.219100
366.784138,2516.700203,-9548.656652,612.876398
366.784462,2368.659014,-9844.739029,306.438199
366.784786,2368.659014,-9770.718434,153.219100
366.785110,1998.556043,-10066.800811,76.609550
366.785434,962.267725,-10214.842000,0.000000
366.785758,148.041188,-10214.842000,459.657299
366.786083,-592.164754,-10066.800811,153.219100
366.786407,-962.267725,-9622.677246,153.219100
366.786731,-1924.535449,-9326.594869,0.000000
366.787055,-1850.514855,-9104.533087,153.219100
366.787379,-1924.535449,-8734.430116,689.485948
366.787703,-2294.638420,-8216.285956,0.000000
366.788028,-2146.597232,-8068.244768,0.000000
366.788352,-1924.535449,-8216.285956,0.000000
366.788676,-1406.391290,-8142.265362,0.000000
366.789000,-962.267725,-8216.285956,0.000000
366.789324,-444.123565,-8142.265362,153.219100
366.789648,-296.082377,-8956.491898,-383.047749
366.789973,148.041188,-9178.553681,0.000000
366.790297,592.164754,-9548.656652,0.000000
366.790621,1184.329507,-9770.718434,-306.438199
366.790945,1332.370696,-9992.780217,76.609550
366.791269,1332.370696,-10288.862594,76.609550
366.791593,1702.473667,-10140.821405,306.438199
366.791918,1332.370696,-10362.883188,0.000000
366.792242,1850.514855,-10807.006753,229.828649
366.792566,2072.576638,-10881.027347,-383.047749
366.792890,1776.494261,-11251.130318,-383.047749
366.793214,962.267725,-11103.089130,-229.828649
366.793538,222.061783,-11103.089130,-536.266849
366.793863,-148.041188,-11177.109724,-536.266849
366.794187,-1036.288319,-10807.006753,-383.047749
366.794511,-1036.288319,-10658.965565,-383.047749
366.794835,-1480.411884,-9770.718434,-306.438199
366.795159,-1554.432478,-10066.800811,-689.485948
366.795483,-1850.514855,-10066.800811,-459.657299
366.795808,-1776.494261,-9548.656652,-459.657299
366.796132,-1332.370696,-9178.553681,0.000000
366.796456,-740.205942,-8956.491898,0.000000
366.796780,-444.123565,-8956.491898,153.219100
366.797104,222.061783,-8660.409521,76.609550
366.797429,962.267725,-9178.553681,-229.828649
366.797753,1110.308913,-8956.491898,0.000000
366.798077,1554.432478,-9400.615463,153.219100
366.798401,1776.494261,-9770.718434,0.000000
366.798725,1702.473667,-9844.739029,306.438199
366.799049,1850.514855,-10362.883188,383.047749
366.799374,1332.370696,-10732.986159,76.609550
366.799698,1184.329507,-10510.924376,0.000000
366.800022,888.247130,-10584.944971,459.657299
366.800346,370.102971,-10214.842000,536.266849
366.800670,-222.061783,-9770.718434,612.876398
366.800994,-962.267725,-9918.759623,459.657299
366.801319,-1480.411884,-9548.656652,842.705048
366.801643,-2294.638420,-8808.450710,0.000000
366.801967,-1924.535449,-8586.388927,919.314598
366.802291,-1702.473667,-8512.368333,-383.047749
366.802615,-1776.494261,-7846.182985,153.219100
366.802939,-1554.432478,-8142.265362,0.000000
366.803264,-1480.411884,-7994.224174,-306.438199
366.803588,-1332.370696,-8068.244768,-383.047749
366.803912,-1406.391290,-7846.182985,0.000000
366.804236,-518.144159,-8364.327145,76.609550
366.804560,148.041188,-9030.512492,0.000000
366.804884,888.247130,-9622.677246,0.000000
366.805209,1258.350101,-10140.821405,229.828649
366.805533,1406.391290,-10362.883188,383.047749
366.805857,1776.494261,-10807.006753,612.876398
366.806181,2072.576638,-11029.068536,383.047749
366.806505,2368.659014,-11251.130318,459.657299
366.806829,2146.597232,-11251.130318,76.609550
366.807154,1258.350101,-11177.109724,153.219100
366.807478,814.226536,-11103.089130,-229.828649
366.807802,0.000000,-10881.027347,-459.657299
366.808126,-888.247130,-10658.965565,-536.266849
366.808450,-1628.453072,-10214.842000,-842.705048
366.808774,-1628.453072,-10362.883188,-842.705048
366.809099,-1998.556043,-10066.800811,-766.095498
366.809423,-1924.535449,-10066.800811,-536.266849
366.809747,-2294.638420,-9474.636058,-689.485948
366.810071,-1628.453072,-9400.615463,-612.876398
366.810395,-1332.370696,-9178.553681,-459.657299
366.810719,-666.185348,-9400.615463,-306.438199
366.811044,0.000000,-9104.533087,0.000000
366.811368,444.123565,-9030.512492,76.609550
366.811692,1258.350101,-9178.553681,-153.219100
366.812016,1924.535449,-9770.718434,76.609550
366.812340,2220.617826,-9992.780217,76.609550
366.812664,2146.597232,-10214.842000,0.000000
366.812989,2146.597232,-10140.821405,0.000000
366.813313,1998.556043,-10362.883188,-383.047749
366.813637,1406.391290,-10955.047942,0.000000
366.813961,444.123565,-10658.965565,0.000000
366.814285,0.000000,-10214.842000,76.609550
366.814609,-814.226536,-9918.759623,0.000000
366.814934,-1628.453072,-9622.677246,0.000000
366.815258,-1776.494261,-9474.636058,-229.828649
366.815582,-1850.514855,-8734.430116,-306.438199
366.815906,-2220.617826,-8438.347739,0.000000
366.816230,-1850.514855,-8364.327145,0.000000
366.816554,-1628.453072,-7920.203579,-229.828649
366.816879,-1406.391290,-7846.182985,0.000000
366.817203,-1110.308913,-8142.265362,-153.219100
366.817527,-888.247130,-8068.244768,-153.219100
366.817851,-740.205942,-8364.327145,-306.438199
366.818175,-222.061783,-8586.388927,76.609550
366.818499,296.082377,-9030.512492,-306.438199
366.818824,1184.329507,-9474.636058,-459.657299
366.819148,1036.288319,-9696.697840,459.657299
366.819472,1110.308913,-9918.759623,76.609550
366.819796,1702.473667,-10362.883188,76.609550
366.820120,1850.514855,-10214.842000,306.438199
366.820444,1850.514855,-10658.965565,0.000000
366.820769,1628.453072,-10732.986159,306.438199
366.821093,814.226536,-10658.965565,0.000000
366.821417,666.185348,-10732.986159,0.000000
366.821741,0.000000,-10732.986159,-76.609550
366.822065,-592.164754,-10732.986159,-536.266849
366.822389,-1184.329507,-10955.047942,-612.876398
366.822714,-1702.473667,-10658.965565,-612.876398
366.823038,-1998.556043,-10658.965565,-383.047749
366.823362,-1850.514855,-10066.800811,-306.438199
366.823686,-1998.556043,-9622.677246,-536.266849
366.824010,-1628.453072,-9696.697840,-306.438199
366.824334,-1332.370696,-9326.594869,-229.828649
366.824659,-666.185348,-9252.574275,0.000000
366.824983,-370.102971,-8956.491898,153.219100
366.825307,148.041188,-8956.491898,153.219100
366.825631,814.226536,-8734.430116,306.438199
366.825955,1480.411884,-9400.615463,76.609550
366.826279,1406.391290,-9474.636058,-306.438199
366.826604,1628.453072,-9992.780217,0.000000
366.826928,1776.494261,-10066.800811,-306.438199
366.827252,1776.494261,-10658.965565,153.219100
366.827576,1332.370696,-10807.006753,76.609550
366.827900,1110.308913,-10658.965565,229.828649
366.828224,1184.329507,-10732.986159,383.047749
366.828549,296.082377,-10658.965565,76.609550
366.828873,222.061783,-10066.800811,689.485948
366.829197,-666.185348,-9844.739029,306.438199
366.829521,-888.247130,-9326.594869,459.657299
366.829845,-1480.411884,-9030.512492,459.657299
366.830169,-1406.391290,-8734.430116,0.000000
366.830494,-1702.473667,-8068.244768,229.828649
366.830818,-1776.494261,-7698.141797,0.000000
366.831142,-1258.350101,-7846.182985,0.000000
366.831466,-1036.288319,-8142.265362,-766.095498
366.831790,-1332.370696,-8216.285956,-306.438199
366.832114,-1110.308913,-8364.327145,0.000000
366.832439,-370.102971,-8438.347739,-229.828649
366.832763,0.000000,-8808.450710,76.609550
366.833087,962.267725,-9548.656652,229.828649
366.833411,518.144159,-9548.656652,612.876398
366.833735,1628.453072,-10214.842000,383.047749
366.834059,2146.597232,-10288.862594,842.705048
366.834384,2146.597232,-10510.924376,612.876398
366.834708,1924.535449,-10658.965565,383.047749
366.835032,1702.473667,-10807.006753,229.828649
366.835356,1184.329507,-11029.068536,0.000000
366.835680,592.164754,-10732.986159,229.828649
366.836004,74.020594,-11029.068536,-383.047749
366.836328,-740.205942,-10658.965565,-919.314598
366.836653,-1406.391290,-10658.965565,-536.266849
366.836977,-1998.556043,-10362.883188,-766.095498
366.837301,-2368.659014,-9992.780217,-536.266849
366.837625,-2664.741391,-9844.739029,-536.266849
366.837949,-2516.700203,-9326.594869,-153.219100
366.838273,-2072.576638,-9178.553681,-459.657299
366.838597,-962.267725,-9030.512492,76.609550
366.838922,-444.123565,-9030.512492,76.609550
366.839246,148.041188,-9104.533087,0.000000
366.839570,444.123565,-9104.533087,76.609550
366.839894,888.247130,-9326.594869,76.609550
366.840218,1480.411884,-9474.636058,0.000000
366.840542,1776.494261,-9770.718434,0.000000
366.840866,2072.576638,-10066.800811,153.219100
366.841190,2146.597232,-10658.965565,0.000000
366.841515,2072.576638,-10140.821405,153.219100
366.841839,1554.432478,-10732.986159,76.609550
366.842163,592.164754,-10584.944971,229.828649
366.842487,148.041188,-10584.944971,153.219100
366.842811,-592.164754,-10362.883188,153.219100
366.843135,-888.247130,-10066.800811,383.047749
366.843459,-1332.370696,-9622.677246,383.047749
366.843784,-1702.473667,-9252.574275,459.657299
366.844108,-1998.556043,-8586.388927,0.000000
366.844432,-2146.597232,-8142.265362,0.000000
366.844756,-2072.576638,-8364.327145,-459.657299
366.845080,-1850.514855,-8364.327145,-229.828649
366.845404,-1332.370696,-8142.265362,-383.047749
366.845728,-1110.308913,-7772.162391,-306.438199
366.846053,-592.164754,-8660.409521,-229.828649
366.846377,-444.123565,-8660.409521,-383.047749
366.846701,296.082377,-8808.450710,0.000000
366.847025,814.226536,-8882.471304,-229.828649
366.847349,1480.411884,-9178.553681,0.000000
366.847673,2220.617826,-9992.780217,0.000000
366.847997,2294.638420,-10140.821405,0.000000
366.848322,2368.659014,-10362.883188,229.828649
366.848646,1998.556043,-10510.924376,0.000000
366.848970,1702.473667,-10510.924376,76.609550
366.849294,888.247130,-10955.047942,383.047749
366.849618,1184.329507,-11103.089130,153.219100
366.849942,444.123565,-10955.047942,-383.047749
366.850266,-222.061783,-11029.068536,-306.438199
366.850591,-888.247130,-10955.047942,-536.266849
366.850915,-1110.308913,-10658.965565,-536.266849
366.851239,-1332.370696,-10288.862594,0.000000
366.851563,-1776.494261,-9918.759623,-612.876398
366.851887,-2368.659014,-9326.594869,-919.314598
366.852211,-1628.453072,-9400.615463,-306.438199
366.852535,-1036.288319,-9326.594869,-153.219100
366.852860,-962.267725,-8808.450710,-306.438199
366.853184,-740.205942,-8734.430116,-306.438199
366.853508,-370.102971,-8882.471304,0.000000
366.853832,296.082377,-8660.409521,153.219100
366.854156,888.247130,-9104.533087,0.000000
366.854480,1406.391290,-9474.636058,306.438199
366.854804,1110.308913,-9548.656652,0.000000
366.855129,1554.432478,-10066.800811,229.828649
366.855453,1924.535449,-10362.883188,229.828649
366.855777,1776.494261,-10362.883188,306.438199
366.856101,1258.350101,-10584.944971,383.047749
366.856425,592.164754,-10732.986159,0.000000
366.856749,444.123565,-10436.903782,689.485948
366.857073,-148.041188,-10510.924376,229.828649
366.857398,-518.144159,-9992.780217,612.876398
366.857722,-1184.329507,-9844.739029,383.047749
366.858046,-1776.494261,-9548.656652,229.828649
366.858370,-1850.514855,-9252.574275,153.219100
366.858694,-2146.597232,-8808.450710,0.000000
366.859018,-1924.535449,-8364.327145,383.047749
366.859342,-1776.494261,-7698.141797,0.000000
366.859666,-1406.391290,-7994.224174,0.000000
366.859991,-888.247130,-8290.306550,0.000000
366.860315,-814.226536,-8512.368333,0.000000
366.860639,-370.102971,-8660.409521,0.000000
366.860963,74.020594,-8882.471304,0.000000
366.861287,444.123565,-9178.553681,153.219100
366.861611,740.205942,-9252.574275,229.828649
366.861935,1850.514855,-9844.739029,536.266849
366.862260,2442.679609,-10510.924376,0.000000
366.862584,2368.659014,-10362.883188,229.828649
366.862908,2294.638420,-10881.027347,229.828649
366.863232,2146.597232,-11103.089130,153.219100
366.863556,1480.411884,-10881.027347,229.828649
366.863880,740.205942,-11251.130318,0.000000
366.864204,-222.061783,-10807.006753,153.219100
366.864529,-1036.288319,-10881.027347,-536.266849
366.864853,-1184.329507,-10658.965565,-459.657299
366.865177,-1480.411884,-10288.862594,-459.657299
366.865501,-1702.473667,-9844.739029,-766.095498
366.865825,-1998.556043,-9548.656652,-536.266849
366.866149,-1776.494261,-9400.615463,-153.219100
366.866473,-1998.556043,-9030.512492,-229.828649
366.866798,-1554.432478,-8808.450710,0.000000
366.867122,-1332.370696,-8364.327145,-229.828649
366.867446,-296.082377,-8808.450710,-153.219100
366.867770,592.164754,-9030.512492,76.609550
366.868094,1258.350101,-9104.533087,306.438199
366.868418,1850.514855,-9326.594869,306.438199
366.868742,1850.514855,-9622.677246,0.000000
366.869067,1554.432478,-10288.862594,0.000000
366.869391,1998.556043,-10510.924376,229.828649
366.869715,2072.576638,-10584.944971,229.828649
366.870039,1702.473667,-10658.965565,153.219100
366.870363,888.247130,-10510.924376,229.828649
366.870687,518.144159,-10955.047942,229.828649
366.871011,-148.041188,-10214.842000,153.219100
366.871336,-1628.453072,-9548.656652,-536.266849
366.871660,-1554.432478,-9326.594869,-306.438199
366.871984,-1850.514855,-9474.636058,-306.438199
366.872308,-2368.659014,-9104.533087,-612.876398
366.872632,-2516.700203,-8660.409521,-536.266849
366.872956,-2368.659014,-8586.388927,-612.876398
366.873280,-2146.597232,-7920.203579,-536.266849
366.873605,-1850.514855,-8216.285956,-536.266849
366.873929,-1628.453072,-7994.224174,-229.828649
366.874253,-1184.329507,-8142.265362,-383.047749
366.874577,-518.144159,-8956.491898,-536.266849
366.874901,0.000000,-9252.574275,-459.657299
366.875225,444.123565,-9474.636058,-689.485948
366.875549,1036.288319,-9474.636058,-383.047749
366.875874,1332.370696,-9770.718434,-612.876398
366.876198,1628.453072,-10288.862594,-459.657299
366.876522,1628.453072,-10288.862594,-459.657299
366.876846,1850.514855,-10807.006753,-459.657299
366.877170,1850.514855,-10955.047942,-383.047749
366.877494,1480.411884,-10807.006753,-995.924147
366.877818,1110.308913,-11029.068536,-612.876398
366.878142,518.144159,-10881.027347,-689.485948
366.878467,0.000000,-11029.068536,-919.314598
366.878791,-888.247130,-11251.130318,-766.095498
366.879115,-888.247130,-10732.986159,-689.485948
366.879439,-1628.453072,-10288.862594,-612.876398
366.879763,-1406.391290,-10436.903782,-919.314598
366.880087,-2146.597232,-9622.677246,-383.047749
366.880411,-1628.453072,-9770.718434,-459.657299
366.880736,-1258.350101,-9548.656652,-536.266849
366.881060,-888.247130,-9104.533087,-536.266849
366.881384,-444.123565,-8660.409521,229.828649
366.881708,74.020594,-8586.388927,0.000000
366.882032,888.247130,-8364.327145,229.828649
366.882356,1702.473667,-8808.450710,153.219100
366.882680,1702.473667,-9030.512492,459.657299
366.883005,1850.514855,-9474.636058,383.047749
366.883329,1850.514855,-9770.718434,459.657299
366.883653,1776.494261,-10214.842000,229.828649
366.883977,1776.494261,-9918.759623,229.828649
366.884301,1332.370696,-10066.800811,919.314598
366.884625,888.247130,-10362.883188,1225.752797
366.884949,370.102971,-10436.903782,383.047749
366.885274,74.020594,-10140.821405,766.095498
366.885598,-592.164754,-10066.800811,919.314598
366.885922,-1110.308913,-9770.718434,689.485948
366.886246,-1628.453072,-9400.615463,1072.533697
366.886570,-1406.391290,-8956.491898,995.924147
366.886894,-1776.494261,-8364.327145,689.485948
366.887218,-2146.597232,-8438.347739,612.876398
366.887543,-1998.556043,-8216.285956,536.266849
366.887867,-1332.370696,-7994.224174,306.438199
366.888191,-1110.308913,-7920.203579,459.657299
366.888515,-814.226536,-8216.285956,0.000000
366.888839,-666.185348,-8290.306550,229.828649
366.889163,-148.041188,-8956.491898,612.876398
366.889487,0.000000,-9178.553681,459.657299
366.889812,444.123565,-9474.636058,689.485948
366.890136,1036.288319,-9696.697840,689.485948
366.890460,1480.411884,-10140.821405,612.876398
366.890784,2368.659014,-10436.903782,842.705048
366.891108,2146.597232,-10807.006753,1072.533697
366.891432,2368.659014,-10881.027347,919.314598
366.891756,1998.556043,-11177.109724,306.438199
366.892081,1702.473667,-10955.047942,0.000000
366.892405,518.144159,-11103.089130,0.000000
366.892729,-444.123565,-11103.089130,-689.485948
366.893053,-1480.411884,-10955.047942,-842.705048
366.893377,-2220.617826,-10584.944971,-459.657299
366.893701,-2072.576638,-10362.883188,-1149.143247
366.894025,-2220.617826,-9622.677246,-612.876398
366.894350,-2442.679609,-9400.615463,-995.924147
366.894674,-2368.659014,-9030.512492,-995.924147
366.894998,-1776.494261,-9252.574275,-766.095498
366.895322,-1258.350101,-8808.450710,-306.438199
366.895646,-296.082377,-8956.491898,-306.438199
366.895970,74.020594,-8956.491898,383.047749
366.896294,962.267725,-8660.409521,-383.047749
366.896618,1480.411884,-9474.636058,0.000000
366.896943,1850.514855,-9696.697840,-306.438199
366.897267,2220.617826,-10214.842000,-536.266849
366.897591,2294.638420,-10584.944971,-536.266849
366.897915,2294.638420,-10807.006753,-536.266849
366.898239,2072.576638,-10658.965565,-612.876398
366.898563,1480.411884,-10881.027347,-229.828649
366.898887,740.205942,-10658.965565,0.000000
366.899212,0.000000,-10362.883188,-536.266849
366.899536,-444.123565,-10436.903782,-383.047749
366.899860,-1628.453072,-9696.697840,-689.485948
366.900184,-2220.617826,-9400.615463,-612.876398
366.900508,-2368.659014,-9030.512492,-612.876398
366.900832,-2368.659014,-8438.347739,-612.876398
366.901156,-1924.535449,-8068.244768,-536.266849
366.901481,-1924.535449,-7920.203579,-612.876398
366.901805,-1776.494261,-8142.265362,-766.095498
366.902129,-1406.391290,-8068.244768,-612.876398
366.902453,-1184.329507,-8216.285956,-766.095498
366.902777,-740.205942,-8734.430116,-766.095498
366.903101,0.000000,-8956.491898,-612.876398
366.903425,666.185348,-9104.533087,-76.609550
366.903750,1110.308913,-9326.594869,0.000000
366.904074,1480.411884,-9770.718434,-766.095498
366.904398,1776.494261,-9918.759623,153.219100
366.904722,2072.576638,-10436.903782,0.000000
366.905046,2146.597232,-10658.965565,76.609550
366.905370,1924.535449,-10732.986159,153.219100
366.905694,1776.494261,-11177.109724,0.000000
366.906019,1480.411884,-10955.047942,0.000000
366.906343,592.164754,-10658.965565,306.438199
366.906667,0.000000,-11177.109724,-919.314598
366.906991,-1184.329507,-10807.006753,-383.047749
366.907315,-2072.576638,-10881.027347,-459.657299
366.907639,-2294.638420,-10584.944971,-459.657299
366.907963,-2368.659014,-9992.780217,-459.657299
366.908288,-2442.679609,-9918.759623,-612.876398
366.908612,-2220.617826,-9474.636058,0.000000
366.908936,-1332.370696,-9326.594869,0.000000
366.909260,-740.205942,-9104.533087,306.438199
366.909584,-148.041188,-8956.491898,536.266849
366.909908,0.000000,-8734.430116,306.438199
366.910232,592.164754,-8808.450710,766.095498
366.910557,1110.308913,-8660.409521,842.705048
366.910881,1628.453072,-8882.471304,842.705048
366.911205,1998.556043,-9696.697840,306.438199
366.911529,1998.556043,-9622.677246,306.438199
366.911853,1998.556043,-9992.780217,536.266849
366.912177,1480.411884,-10214.842000,689.485948
366.912501,1184.329507,-10436.903782,612.876398
366.912826,962.267725,-10362.883188,689.485948
366.913150,370.102971,-10140.821405,459.657299
366.913474,74.020594,-10140.821405,1149.143247
366.913798,0.000000,-9770.718434,842.705048
