#time,accel_x,accel_y,accel_z
864.403801,-7550.100608,-7698.141797,-4519.963438
864.404125,-10140.821405,-10362.883188,-2374.896044
864.404450,-10658.965565,-13027.624579,-1072.533697
864.404774,-8734.430116,-11843.295072,-2451.505594
864.405098,-7105.977043,-9770.718434,1149.143247
864.405422,-3256.906145,-5625.565159,689.485948
864.405746,740.205942,-4145.153275,306.438199
864.406070,3330.926739,-6587.832884,2374.896044
864.406394,5773.606348,-7254.018232,3294.210641
864.406719,7105.977043,-10584.944971,4290.134789
864.407043,5625.565159,-11251.130318,3524.039291
864.407367,2442.679609,-8956.491898,2911.162892
864.407691,-518.144159,-8586.388927,-306.438199
864.408015,-3108.864956,-11621.233289,-689.485948
864.408339,-5329.482782,-15766.386565,-1072.533697
864.408663,-4811.338623,-15248.242405,-1915.238745
864.408987,-4959.379811,-10066.800811,-1149.143247
864.409312,-5477.523971,-6957.935855,-153.219100
864.409636,-4737.318029,-7328.038826,-383.047749
864.409960,-4885.359217,-8216.285956,0.000000
864.410284,-4589.276840,-9400.615463,-612.876398
864.410608,-3330.926739,-10140.821405,1302.362347
864.410932,-1480.411884,-11695.253884,3140.991542
864.411256,1554.432478,-11473.192101,3830.477490
864.411581,2368.659014,-9622.677246,3830.477490
864.411905,444.123565,-9770.718434,2528.115143
864.412229,-1406.391290,-12361.439231,1608.800546
864.412553,-962.267725,-13545.768739,1149.143247
864.412877,444.123565,-11695.253884,1685.410096
864.413201,814.226536,-9696.697840,2298.286494
864.413525,-518.144159,-9770.718434,1532.190996
864.413849,-2590.720797,-10288.862594,919.314598
864.414174,-4885.359217,-9992.780217,689.485948
864.414498,-6217.729913,-9252.574275,842.705048
864.414822,-6291.750507,-8290.306550,1532.190996
864.415146,-5625.565159,-7772.162391,2451.505594
864.415470,-4737.318029,-7846.182985,2911.162892
864.415794,-4663.297435,-8364.327145,3907.087040
864.416118,-4885.359217,-10584.944971,4136.915689
864.416443,-5033.400406,-11029.068536,4443.353888
864.416767,-2886.803174,-10881.027347,4826.401637
864.417091,222.061783,-9844.739029,5669.106685
864.417415,2738.761985,-9178.553681,6128.763984
864.417739,4145.153275,-9326.594869,6205.373534
864.418063,3108.864956,-9178.553681,6052.154434
864.418387,2146.597232,-8438.347739,4903.011187
864.418711,-222.061783,-7772.162391,3830.477490
864.419036,-3478.967927,-6587.832884,3830.477490
864.419360,-5477.523971,-6439.791695,2528.115143
864.419684,-7698.141797,-6883.915261,1762.019645
864.420008,-10140.821405,-7550.100608,1532.190996
864.420332,-10732.986159,-8660.409521,1685.410096
864.420656,-9400.615463,-9030.512492,2757.943793
864.420980,-5773.606348,-9178.553681,3983.696590
864.421305,-2886.803174,-9474.636058,5286.058936
864.421629,-666.185348,-9844.739029,5362.668486
864.421953,1258.350101,-10955.047942,5286.058936
864.422277,2516.700203,-11325.150913,5286.058936
864.422601,4145.153275,-10288.862594,4903.011187
864.422925,4367.215058,-9400.615463,4979.620737
864.423249,4293.194464,-9326.594869,4673.182538
864.423573,2960.823768,-8734.430116,3907.087040
864.423898,370.102971,-6883.915261,-612.876398
864.424222,-3775.050304,-8734.430116,-1762.019645
864.424546,-6809.894666,-12139.377449,-1378.971896
864.424870,-6587.832884,-11843.295072,-2911.162892
864.425194,-8068.244768,-10436.903782,-612.876398
864.425518,-9844.739029,-8660.409521,1302.362347
864.425842,-8068.244768,-9326.594869,383.047749
864.426167,-4367.215058,-10955.047942,306.438199
864.426491,-740.205942,-10584.944971,1072.533697
864.426815,3849.070898,-11695.253884,4136.915689
864.427139,6809.894666,-13693.809927,4443.353888
864.427463,6513.812290,-13841.851115,5209.449386
864.427787,5107.421000,-11695.253884,5515.887586
864.428111,4515.256246,-10362.883188,3907.087040
864.428436,3627.009116,-11251.130318,2145.067394
864.428760,1998.556043,-11325.150913,459.657299
864.429084,592.164754,-7772.162391,-1302.362347
864.429408,-2516.700203,-5033.400406,-5056.230287
864.429732,-8956.491898,-8290.306550,-4443.353888
864.430056,-11399.171507,-11769.274478,-3677.258390
864.430380,-9770.718434,-10510.924376,-4826.401637
864.430704,-10658.965565,-8142.265362,-2145.067394
864.431029,-10066.800811,-7698.141797,-153.219100
864.431353,-5995.668130,-9474.636058,-995.924147
864.431677,-2072.576638,-9474.636058,-766.095498
864.432001,1036.288319,-9030.512492,1532.190996
864.432325,4811.338623,-11029.068536,4519.963438
864.432649,8734.430116,-14137.933492,4519.963438
864.432973,7994.224174,-12953.603985,5822.325785
864.433297,4737.318029,-8734.430116,5132.839837
864.433621,2146.597232,-7105.977043,2298.286494
864.433945,740.205942,-9326.594869,-306.438199
864.434269,296.082377,-9030.512492,-842.705048
864.434593,-444.123565,-5477.523971,-1455.581446
864.434917,-4367.215058,-3923.091493,-2068.457845
864.435241,-9770.718434,-5699.585753,-2145.067394
864.435565,-12435.459826,-7105.977043,-3140.991542
864.435889,-11251.130318,-8142.265362,-3753.867940
864.436213,-10436.903782,-9178.553681,-3064.381992
864.436537,-8290.306550,-10807.006753,-919.314598
864.436861,-4441.235652,-12583.501014,1455.581446
864.437185,1184.329507,-12731.542202,2374.896044
864.437509,5625.565159,-10955.047942,3217.601092
864.437833,7105.977043,-8734.430116,2374.896044
864.438157,7994.224174,-10362.883188,2221.676944
864.438481,7624.121203,-12583.501014,2987.772442
864.438805,7179.997637,-13101.645173,3294.210641
864.439129,5181.441594,-11843.295072,2145.067394
864.439453,2146.597232,-10362.883188,-612.876398
864.439777,-1554.432478,-9474.636058,-2987.772442
864.440102,-5477.523971,-10214.842000,-3140.991542
864.440426,-7254.018232,-10807.006753,-2834.553343
864.440750,-6661.853478,-9326.594869,-1991.848295
864.441074,-5107.421000,-6439.791695,-1378.971896
864.441398,-3256.906145,-5033.400406,-1072.533697
864.441722,-2072.576638,-5477.523971,-306.438199
864.442046,370.102971,-7994.224174,1762.019645
864.442370,2812.782580,-10807.006753,3064.381992
864.442694,4145.153275,-11843.295072,2834.553343
864.443018,4219.173869,-10288.862594,2604.724693
864.443342,3775.050304,-11029.068536,2451.505594
864.443666,4515.256246,-13841.851115,2374.896044
864.443990,4737.318029,-15174.221811,1608.800546
864.444314,3627.009116,-13989.892304,689.485948
864.444638,1702.473667,-11695.253884,0.000000
864.444962,1480.411884,-9918.759623,0.000000
864.445286,444.123565,-9030.512492,-1302.362347
864.445610,-1184.329507,-8290.306550,-919.314598
864.445934,-3849.070898,-7698.141797,-1762.019645
864.446258,-5403.503377,-7476.080014,-1608.800546
864.446582,-4811.338623,-6661.853478,-229.828649
864.446906,-2812.782580,-6143.709319,1608.800546
864.447230,-1110.308913,-7105.977043,2068.457845
864.447554,-1702.473667,-7846.182985,459.657299
864.447878,-1406.391290,-7994.224174,1915.238745
864.448202,740.205942,-9474.636058,2681.334243
864.448526,4367.215058,-9770.718434,3064.381992
864.448850,5995.668130,-9326.594869,2604.724693
864.449174,4515.256246,-8808.450710,1225.752797
864.449499,2664.741391,-9770.718434,1149.143247
864.449823,1850.514855,-11103.089130,1302.362347
864.450147,1850.514855,-12139.377449,459.657299
864.450471,-592.164754,-10214.842000,-612.876398
864.450795,-4293.194464,-9030.512492,-1225.752797
864.451119,-6217.729913,-9326.594869,-1532.190996
864.451443,-5329.482782,-9844.739029,-612.876398
864.451767,-4145.153275,-10140.821405,0.000000
864.452091,-3849.070898,-8956.491898,-995.924147
864.452415,-4589.276840,-8438.347739,-1608.800546
864.452739,-3552.988522,-8660.409521,-842.705048
864.453063,-592.164754,-9400.615463,153.219100
864.453387,1036.288319,-10510.924376,229.828649
864.453711,518.144159,-10214.842000,-383.047749
864.454035,222.061783,-10140.821405,-919.314598
864.454359,2294.638420,-10584.944971,0.000000
864.454683,5181.441594,-11103.089130,536.266849
864.455007,5995.668130,-11621.233289,306.438199
864.455331,2960.823768,-11473.192101,-459.657299
864.455655,74.020594,-11325.150913,-612.876398
864.455979,-666.185348,-10955.047942,-919.314598
864.456303,-296.082377,-10362.883188,-995.924147
864.456627,-1332.370696,-9400.615463,-1378.971896
864.456951,-3256.906145,-8512.368333,-1685.410096
864.457275,-3256.906145,-8586.388927,-1762.019645
864.457599,-370.102971,-9030.512492,-536.266849
864.457923,2442.679609,-9474.636058,0.000000
864.458247,2516.700203,-9622.677246,-1072.533697
864.458571,0.000000,-9474.636058,-1915.238745
864.458895,-1184.329507,-9474.636058,-1532.190996
864.459220,296.082377,-10584.944971,-689.485948
864.459544,1924.535449,-11769.274478,-842.705048
864.459868,2294.638420,-11399.171507,-1378.971896
864.460192,1110.308913,-10584.944971,-1302.362347
864.460516,1184.329507,-10658.965565,0.000000
864.460840,3034.844362,-11473.192101,689.485948
864.461164,3108.864956,-11029.068536,383.047749
864.461488,148.041188,-9104.533087,0.000000
864.461812,-2368.659014,-8142.265362,0.000000
864.462136,-1480.411884,-8290.306550,459.657299
864.462460,0.000000,-8808.450710,842.705048
864.462784,296.082377,-8586.388927,689.485948
864.463108,-1924.535449,-8068.244768,-612.876398
864.463432,-3034.844362,-8216.285956,-459.657299
864.463756,-962.267725,-8586.388927,229.828649
864.464080,1628.453072,-8882.471304,459.657299
864.464404,814.226536,-9030.512492,-689.485948
864.464728,-2072.576638,-8512.368333,-689.485948
864.465052,-2886.803174,-8956.491898,-229.828649
864.465376,-666.185348,-10288.862594,0.000000
864.465700,1628.453072,-10436.903782,0.000000
864.466024,888.247130,-10140.821405,0.000000
864.466348,-740.205942,-9992.780217,0.000000
864.466672,-1702.473667,-9622.677246,689.485948
864.466996,-1110.308913,-10066.800811,1685.410096
864.467320,296.082377,-10510.924376,1072.533697
864.467644,-518.144159,-10066.800811,229.828649
864.467968,-2072.576638,-9400.615463,766.095498
864.468292,-1628.453072,-9104.533087,1378.971896
864.468616,222.061783,-9326.594869,1072.533697
864.468941,-296.082377,-9326.594869,612.876398
864.469265,-2664.741391,-8734.430116,-995.924147
864.469589,-3182.885551,-8290.306550,-919.314598
864.469913,-296.082377,-9326.594869,76.609550
864.470237,2442.679609,-9622.677246,459.657299
864.470561,2294.638420,-9770.718434,0.000000
864.470885,-222.061783,-9696.697840,-536.266849
864.471209,-666.185348,-9918.759623,-306.438199
864.471533,1110.308913,-9622.677246,919.314598
864.471857,2220.617826,-10140.821405,1378.971896
864.472181,962.267725,-10214.842000,766.095498
864.472505,-962.267725,-9770.718434,0.000000
864.472829,-444.123565,-9696.697840,995.924147
864.473153,1998.556043,-10510.924376,1685.410096
864.473477,2294.638420,-10807.006753,1608.800546
864.473801,-222.061783,-9474.636058,1225.752797
864.474125,-1628.453072,-8216.285956,689.485948
864.474449,-962.267725,-9030.512492,689.485948
864.474773,74.020594,-10288.862594,1072.533697
864.475097,0.000000,-9770.718434,0.000000
864.475421,-1776.494261,-8808.450710,-689.485948
864.475745,-1258.350101,-8142.265362,-383.047749
864.476069,1628.453072,-8438.347739,766.095498
864.476393,3256.906145,-9770.718434,1072.533697
864.476717,3182.885551,-9474.636058,-229.828649
864.477041,592.164754,-8808.450710,-1072.533697
864.477365,0.000000,-9474.636058,-229.828649
864.477689,1406.391290,-9918.759623,459.657299
864.478013,2294.638420,-10658.965565,842.705048
864.478338,962.267725,-9992.780217,-306.438199
864.478662,-962.267725,-9474.636058,-1302.362347
864.478986,-1110.308913,-9548.656652,0.000000
864.479310,1258.350101,-10436.903782,995.924147
864.479634,1406.391290,-10436.903782,306.438199
864.479958,-888.247130,-9252.574275,-383.047749
864.480282,-2738.761985,-8734.430116,-766.095498
864.480606,-1480.411884,-9844.739029,-153.219100
864.480930,666.185348,-10066.800811,306.438199
864.481254,1110.308913,-9474.636058,-689.485948
864.481578,-1184.329507,-8734.430116,-1991.848295
864.481902,-2368.659014,-9252.574275,-1838.629195
864.482226,-370.102971,-9696.697840,-1149.143247
864.482550,1628.453072,-10362.883188,-995.924147
864.482874,666.185348,-10288.862594,-1762.019645
864.483198,-1702.473667,-9844.739029,-2451.505594
864.483522,-2146.597232,-9992.780217,-1225.752797
864.483846,0.000000,-10807.006753,-383.047749
864.484170,1332.370696,-11251.130318,-689.485948
864.484494,592.164754,-10140.821405,-1532.190996
864.484818,-1036.288319,-9474.636058,-1762.019645
864.485142,-148.041188,-9696.697840,-383.047749
864.485466,1850.514855,-11029.068536,612.876398
864.485790,1850.514855,-10955.047942,-612.876398
864.486114,-518.144159,-9918.759623,-1225.752797
864.486438,-1850.514855,-8956.491898,-1532.190996
864.486762,-370.102971,-9770.718434,-1608.800546
864.487086,666.185348,-10584.944971,-842.705048
864.487410,0.000000,-10288.862594,-995.924147
864.487734,-1332.370696,-9474.636058,-1608.800546
864.488059,-1554.432478,-9252.574275,-1455.581446
864.488383,296.082377,-9030.512492,0.000000
864.488707,1628.453072,-9252.574275,459.657299
864.489031,1332.370696,-9326.594869,0.000000
864.489355,-1036.288319,-8956.491898,-766.095498
864.489679,-1110.308913,-9030.512492,76.609550
864.490003,0.000000,-9548.656652,919.314598
864.490327,592.164754,-9770.718434,612.876398
864.490651,222.061783,-9400.615463,0.000000
864.490975,-814.226536,-8808.450710,0.000000
864.491299,-222.061783,-9548.656652,612.876398
864.491623,1776.494261,-10362.883188,1302.362347
864.491947,1924.535449,-9992.780217,842.705048
864.492271,296.082377,-8660.409521,536.266849
864.492595,-1480.411884,-8364.327145,459.657299
864.492919,-1036.288319,-9770.718434,1149.143247
864.493243,296.082377,-10288.862594,1608.800546
864.493567,0.000000,-9770.718434,919.314598
864.493891,-2072.576638,-9178.553681,0.000000
864.494215,-2590.720797,-8586.388927,612.876398
864.494539,-888.247130,-9252.574275,1225.752797
864.494863,962.267725,-9992.780217,1608.800546
864.495187,444.123565,-9770.718434,612.876398
864.495511,-1036.288319,-9696.697840,383.047749
864.495835,-1924.535449,-9918.759623,612.876398
864.496159,0.000000,-9992.780217,1072.533697
864.496483,1110.308913,-10140.821405,766.095498
864.496807,74.020594,-9992.780217,0.000000
864.497131,-1184.329507,-9548.656652,-459.657299
864.497456,-888.247130,-9844.739029,459.657299
864.497780,1332.370696,-9992.780217,1149.143247
864.498104,1998.556043,-10140.821405,842.705048
864.498428,370.102971,-9622.677246,153.219100
864.498752,-1702.473667,-9474.636058,459.657299
864.499076,-1628.453072,-9696.697840,919.314598
864.499400,222.061783,-11029.068536,1302.362347
864.499724,222.061783,-10658.965565,1072.533697
864.500048,-1332.370696,-9548.656652,536.266849
864.500372,-1998.556043,-9104.533087,919.314598
864.500696,0.000000,-9548.656652,1149.143247
864.501020,1628.453072,-9548.656652,766.095498
864.501344,1406.391290,-9252.574275,0.000000
864.501668,-296.082377,-8734.430116,-536.266849
864.501992,-1036.288319,-8586.388927,-229.828649
864.502316,518.144159,-9030.512492,-76.609550
864.502640,1702.473667,-9474.636058,0.000000
864.502964,740.205942,-9252.574275,-1072.533697
864.503288,-1036.288319,-8734.430116,-612.876398
864.503612,-296.082377,-8882.471304,153.219100
864.503936,518.144159,-9252.574275,689.485948
864.504260,1480.411884,-9770.718434,153.219100
864.504584,74.020594,-9400.615463,0.000000
864.504908,-1406.391290,-8882.471304,-306.438199
864.505232,-666.185348,-9474.636058,842.705048
864.505556,1110.308913,-10066.800811,1685.410096
864.505880,1628.453072,-9770.718434,76.609550
864.506204,-592.164754,-8660.409521,-306.438199
864.506528,-1406.391290,-8734.430116,0.000000
864.506852,592.164754,-9622.677246,383.047749
864.507177,2442.679609,-10066.800811,153.219100
864.507501,1628.453072,-9696.697840,-459.657299
864.507825,-814.226536,-8808.450710,-1685.410096
864.508149,-1628.453072,-9770.718434,-1302.362347
864.508473,0.000000,-10288.862594,-766.095498
864.508797,814.226536,-10214.842000,-1302.362347
864.509121,-592.164754,-10066.800811,-1532.190996
864.509445,-1924.535449,-9992.780217,-1838.629195
864.509769,-1406.391290,-10214.842000,-919.314598
864.510093,1036.288319,-10658.965565,-153.219100
864.510417,2220.617826,-10658.965565,-306.438199
864.510741,74.020594,-10214.842000,-766.095498
864.511065,-1776.494261,-9918.759623,-306.438199
864.511389,-962.267725,-10436.903782,229.828649
864.511713,518.144159,-10658.965565,229.828649
864.512037,0.000000,-10807.006753,-536.266849
864.512361,-1998.556043,-10288.862594,-1149.143247
864.512685,-2368.659014,-9548.656652,-919.314598
864.513009,444.123565,-10436.903782,0.000000
864.513333,1850.514855,-10214.842000,-153.219100
864.513657,518.144159,-9918.759623,-1455.581446
864.513981,-1924.535449,-9696.697840,-2451.505594
864.514305,-1628.453072,-9918.759623,-1915.238745
864.514629,666.185348,-10140.821405,-842.705048
864.514953,1998.556043,-9622.677246,-612.876398
864.515277,962.267725,-10066.800811,-1685.410096
864.515601,0.000000,-9030.512492,-1149.143247
864.515925,1184.329507,-9622.677246,76.609550
864.516249,3108.864956,-10510.924376,612.876398
864.516573,2664.741391,-10140.821405,919.314598
864.516898,296.082377,-9474.636058,459.657299
864.517222,-1110.308913,-9104.533087,995.924147
864.517546,-148.041188,-9548.656652,689.485948
864.517870,444.123565,-9696.697840,919.314598
864.518194,-592.164754,-9030.512492,-306.438199
864.518518,-2220.617826,-8660.409521,-1149.143247
864.518842,-1998.556043,-8586.388927,-689.485948
864.519166,74.020594,-8956.491898,229.828649
864.519490,1850.514855,-9252.574275,76.609550
864.519814,814.226536,-8586.388927,-689.485948
864.520138,-1184.329507,-9030.512492,-919.314598
864.520462,-1480.411884,-9252.574275,-459.657299
864.520786,0.000000,-9252.574275,995.924147
864.521110,1110.308913,-9474.636058,1378.971896
864.521434,74.020594,-9326.594869,153.219100
864.521758,-814.226536,-8734.430116,306.438199
864.522082,-222.061783,-9104.533087,1608.800546
864.522406,1628.453072,-9548.656652,2298.286494
864.522730,2220.617826,-9696.697840,1991.848295
864.523054,-222.061783,-8364.327145,766.095498
864.523378,-2738.761985,-8068.244768,383.047749
864.523702,-1702.473667,-9252.574275,766.095498
864.524026,-370.102971,-9696.697840,919.314598
864.524350,-1110.308913,-9696.697840,153.219100
864.524674,-2590.720797,-9400.615463,-689.485948
864.524998,-2590.720797,-9474.636058,383.047749
864.525322,-296.082377,-9770.718434,995.924147
864.525646,1776.494261,-10362.883188,919.314598
864.525970,296.082377,-10807.006753,-153.219100
864.526295,-1924.535449,-10584.944971,-229.828649
864.526619,-1998.556043,-10140.821405,306.438199
864.526943,370.102971,-11029.068536,1149.143247
864.527267,1406.391290,-10732.986159,842.705048
864.527591,0.000000,-10658.965565,459.657299
864.527915,-1258.350101,-10436.903782,536.266849
864.528239,370.102971,-10214.842000,689.485948
864.528563,2738.761985,-10362.883188,1225.752797
864.528887,2368.659014,-10214.842000,612.876398
864.529211,0.000000,-9622.677246,76.609550
864.529535,-1628.453072,-9326.594869,0.000000
864.529859,-518.144159,-9400.615463,153.219100
864.530183,444.123565,-9474.636058,229.828649
864.530507,222.061783,-9252.574275,-229.828649
864.530831,-1554.432478,-8808.450710,-766.095498
864.531155,-1332.370696,-8660.409521,0.000000
864.531479,962.267725,-9326.594869,766.095498
864.531803,2442.679609,-9696.697840,612.876398
864.532128,888.247130,-9770.718434,-153.219100
864.532452,-1184.329507,-9252.574275,-153.219100
864.532776,-888.247130,-8808.450710,306.438199
864.533101,1258.350101,-9622.677246,612.876398
864.533425,1998.556043,-10807.006753,459.657299
864.533749,444.123565,-10288.862594,-689.485948
864.534073,-1184.329507,-9104.533087,-995.924147
864.534398,0.000000,-8956.491898,0.000000
864.534722,2442.679609,-9992.780217,612.876398
864.535046,2220.617826,-10214.842000,-383.047749
864.535371,-666.185348,-8808.450710,-995.924147
864.535695,-2220.617826,-8660.409521,-919.314598
864.536019,-962.267725,-9178.553681,-919.314598
864.536343,666.185348,-9770.718434,-536.266849
864.536668,0.000000,-9030.512492,-995.924147
864.536992,-1258.350101,-9252.574275,-1149.143247
864.537316,-1258.350101,-9400.615463,-536.266849
864.537641,1036.288319,-9770.718434,229.828649
864.537965,2220.617826,-9844.739029,0.000000
864.538289,1924.535449,-10288.862594,-766.095498
864.538613,-222.061783,-9844.739029,-995.924147
864.538938,-222.061783,-9770.718434,-536.266849
864.539262,1258.350101,-9918.759623,0.000000
864.539586,1554.432478,-10066.800811,-536.266849
864.539911,-370.102971,-9918.759623,-1685.410096
864.540235,-1480.411884,-9474.636058,-1378.971896
864.540559,-148.041188,-9622.677246,-919.314598
864.540884,1036.288319,-10140.821405,-766.095498
864.541208,0.000000,-9918.759623,-1302.362347
864.541532,-2368.659014,-9770.718434,-1991.848295
864.541856,-2886.803174,-9622.677246,-1532.190996
864.542181,-1036.288319,-10140.821405,0.000000
864.542505,962.267725,-10955.047942,76.609550
864.542829,148.041188,-10732.986159,-766.095498
864.543154,-1480.411884,-9992.780217,-842.705048
864.543478,-1184.329507,-9770.718434,306.438199
864.543802,1406.391290,-10807.006753,1685.410096
864.544126,2886.803174,-11029.068536,1149.143247
864.544451,1258.350101,-10436.903782,-229.828649
864.544775,-1406.391290,-9104.533087,-919.314598
864.545099,-1332.370696,-8882.471304,-306.438199
864.545424,296.082377,-9696.697840,-306.438199
864.545748,148.041188,-9474.636058,-995.924147
864.546072,-1628.453072,-8586.388927,-1762.019645
864.546397,-2368.659014,-8068.244768,-995.924147
864.546721,-592.164754,-8512.368333,-459.657299
864.547045,1702.473667,-9474.636058,153.219100
864.547369,518.144159,-9474.636058,0.000000
864.547694,-1332.370696,-8808.450710,-612.876398
864.548018,-2590.720797,-8956.491898,0.000000
864.548342,-888.247130,-9474.636058,1225.752797
864.548667,1258.350101,-10436.903782,1532.190996
864.548991,962.267725,-10436.903782,766.095498
864.549315,0.000000,-9992.780217,383.047749
864.549639,0.000000,-9326.594869,1149.143247
864.549964,2072.576638,-10066.800811,1225.752797
864.550288,2738.761985,-10066.800811,459.657299
864.550612,1110.308913,-9844.739029,-383.047749
864.550937,-1184.329507,-9844.739029,-306.438199
864.551261,-1480.411884,-9696.697840,-229.828649
864.551585,-444.123565,-10436.903782,229.828649
864.551909,-370.102971,-10288.862594,0.000000
864.552234,-1998.556043,-9474.636058,-689.485948
864.552558,-2442.679609,-9474.636058,-995.924147
864.552882,-666.185348,-9548.656652,689.485948
864.553207,1924.535449,-9474.636058,995.924147
864.553531,2590.720797,-9696.697840,766.095498
864.553855,740.205942,-9474.636058,0.000000
864.554180,0.000000,-9326.594869,306.438199
864.554504,888.247130,-9992.780217,1455.581446
864.554828,2368.659014,-10658.965565,919.314598
864.555152,1332.370696,-10214.842000,0.000000
864.555477,-814.226536,-9400.615463,-383.047749
864.555801,-666.185348,-9548.656652,383.047749
864.556125,1406.391290,-10362.883188,1149.143247
864.556450,2294.638420,-10510.924376,1072.533697
864.556774,0.000000,-9622.677246,229.828649
864.557098,-2442.679609,-8734.430116,76.609550
864.557422,-2294.638420,-9326.594869,76.609550
864.557747,-666.185348,-9474.636058,1149.143247
864.558071,148.041188,-10140.821405,0.000000
864.558395,-1998.556043,-9252.574275,-459.657299
864.558720,-2886.803174,-8956.491898,0.000000
864.559044,-1184.329507,-9696.697840,995.924147
864.559368,1110.308913,-10066.800811,1608.800546
864.559692,962.267725,-9844.739029,919.314598
864.560017,-666.185348,-9030.512492,0.000000
864.560341,-1998.556043,-8586.388927,459.657299
864.560665,-888.247130,-9104.533087,1072.533697
864.560990,444.123565,-9548.656652,842.705048
864.561314,-222.061783,-9474.636058,306.438199
864.561638,-1480.411884,-8586.388927,-306.438199
864.561963,-740.205942,-8068.244768,612.876398
864.562287,370.102971,-8512.368333,766.095498
864.562611,1110.308913,-8956.491898,153.219100
864.562935,-222.061783,-8734.430116,-612.876398
864.563260,-2072.576638,-8438.347739,-612.876398
864.563584,-1406.391290,-8808.450710,0.000000
864.563908,666.185348,-9326.594869,536.266849
864.564233,1036.288319,-9918.759623,0.000000
864.564557,222.061783,-9844.739029,-766.095498
864.564881,-518.144159,-10066.800811,-153.219100
864.565205,444.123565,-10362.883188,229.828649
864.565530,3034.844362,-10955.047942,536.266849
864.565854,2368.659014,-10955.047942,0.000000
864.566178,370.102971,-10288.862594,-766.095498
864.566503,-962.267725,-10510.924376,-919.314598
864.566827,518.144159,-10732.986159,-689.485948
864.567151,1776.494261,-10881.027347,0.000000
864.567476,1776.494261,-10732.986159,-1225.752797
864.567800,-592.164754,-9770.718434,-2221.676944
864.568124,-888.247130,-9474.636058,-1302.362347
864.568448,888.247130,-10436.903782,-766.095498
864.568773,2294.638420,-10584.944971,-1378.971896
864.569097,1480.411884,-9770.718434,-1838.629195
864.569421,74.020594,-9548.656652,-1302.362347
864.569746,666.185348,-9770.718434,-383.047749
864.570070,1924.535449,-10362.883188,-383.047749
864.570394,1110.308913,-10436.903782,-536.266849
864.570718,-592.164754,-10288.862594,-1378.971896
864.571043,-1184.329507,-9770.718434,-1072.533697
864.571367,296.082377,-10140.821405,0.000000
864.571691,2294.638420,-10436.903782,536.266849
864.572016,1628.453072,-10066.800811,-536.266849
864.572340,-1480.411884,-9400.615463,-1455.581446
864.572664,-2442.679609,-9474.636058,-919.314598
864.572988,-1628.453072,-9696.697840,-383.047749
864.573313,-592.164754,-9622.677246,-536.266849
864.573637,-1628.453072,-9474.636058,-1225.752797
864.573961,-2516.700203,-9030.512492,-1149.143247
864.574286,-1480.411884,-8882.471304,-306.438199
864.574610,518.144159,-8956.491898,766.095498
864.574934,1406.391290,-9326.594869,229.828649
864.575259,-370.102971,-8216.285956,-459.657299
864.575583,-1776.494261,-8290.306550,-459.657299
864.575907,-1628.453072,-8882.471304,0.000000
864.576231,-666.185348,-9474.636058,689.485948
864.576556,0.000000,-9474.636058,153.219100
864.576880,-888.247130,-8364.327145,-153.219100
864.577204,-1184.329507,-7994.224174,229.828649
864.577529,296.082377,-8882.471304,1302.362347
864.577853,2146.597232,-9622.677246,1455.581446
864.578177,1628.453072,-9400.615463,459.657299
864.578501,-962.267725,-9030.512492,-153.219100
864.578826,-1776.494261,-9030.512492,-153.219100
864.579150,-444.123565,-9992.780217,536.266849
864.579474,518.144159,-10436.903782,0.000000
864.579799,0.000000,-10732.986159,0.000000
864.580123,-2146.597232,-10140.821405,-689.485948
864.580447,-1554.432478,-9992.780217,0.000000
864.580772,666.185348,-10510.924376,383.047749
864.581096,1554.432478,-11177.109724,0.000000
864.581420,370.102971,-10510.924376,-229.828649
864.581744,-1184.329507,-10362.883188,76.609550
864.582069,-148.041188,-10584.944971,1149.143247
864.582393,1184.329507,-11029.068536,1378.971896
864.582717,1258.350101,-10584.944971,766.095498
864.583042,148.041188,-10214.842000,153.219100
864.583366,0.000000,-10214.842000,995.924147
864.583690,1480.411884,-10214.842000,766.095498
864.584014,2812.782580,-10066.800811,1838.629195
864.584339,1924.535449,-9548.656652,0.000000
864.584663,-370.102971,-9474.636058,-153.219100
864.584987,-1332.370696,-9326.594869,-383.047749
864.585312,-740.205942,-9030.512492,459.657299
864.585636,444.123565,-9474.636058,612.876398
864.585960,-888.247130,-9474.636058,-842.705048
864.586284,-2442.679609,-8512.368333,-842.705048
864.586609,-1554.432478,-8512.368333,229.828649
864.586933,666.185348,-9474.636058,842.705048
864.587257,1332.370696,-9400.615463,229.828649
864.587582,-444.123565,-8660.409521,306.438199
864.587906,-1776.494261,-8216.285956,0.000000
864.588230,-1258.350101,-9326.594869,383.047749
864.588555,148.041188,-9696.697840,995.924147
864.588879,74.020594,-9548.656652,383.047749
864.589203,-1184.329507,-9252.574275,0.000000
864.589527,-1924.535449,-8956.491898,229.828649
864.589852,-222.061783,-9474.636058,1532.190996
864.590176,1628.453072,-9104.533087,1072.533697
864.590500,962.267725,-9104.533087,0.000000
864.590825,-1332.370696,-9178.553681,-459.657299
864.591149,-2294.638420,-8882.471304,-536.266849
864.591473,-740.205942,-9030.512492,76.609550
864.591797,148.041188,-9474.636058,0.000000
864.592122,0.000000,-9030.512492,-842.705048
864.592446,-1258.350101,-8216.285956,-459.657299
864.592770,74.020594,-9104.533087,0.000000
864.593095,2442.679609,-9992.780217,76.609550
864.593419,2886.803174,-10436.903782,-383.047749
864.593743,444.123565,-9622.677246,-1149.143247
864.594067,-1702.473667,-9696.697840,-1225.752797
864.594392,-666.185348,-10658.965565,-995.924147
864.594716,1332.370696,-10584.944971,-459.657299
864.595040,888.247130,-10732.986159,-612.876398
864.595365,-740.205942,-9770.718434,-1608.800546
864.595689,-666.185348,-9844.739029,-1149.143247
864.596013,1036.288319,-10066.800811,-383.047749
864.596338,2368.659014,-10584.944971,-229.828649
864.596662,1110.308913,-10807.006753,-842.705048
864.596986,-1110.308913,-10732.986159,-1378.971896
864.597310,-1702.473667,-9696.697840,-689.485948
864.597635,148.041188,-10584.944971,459.657299
864.597959,1850.514855,-11103.089130,153.219100
864.598283,592.164754,-10807.006753,-995.924147
864.598608,-1628.453072,-9918.759623,-1225.752797
864.598932,-370.102971,-9992.780217,-383.047749
864.599256,1850.514855,-10436.903782,76.609550
864.599580,2590.720797,-10436.903782,-153.219100
864.599905,888.247130,-9400.615463,-689.485948
864.600229,-1036.288319,-9252.574275,-1072.533697
864.600553,-296.082377,-9770.718434,0.000000
864.600878,1184.329507,-10066.800811,0.000000
864.601202,814.226536,-9696.697840,-153.219100
864.601526,-666.185348,-9400.615463,-689.485948
864.601851,-1110.308913,-9400.615463,306.438199
864.602175,592.164754,-9326.594869,919.314598
864.602499,1850.514855,-9178.553681,919.314598
864.602823,444.123565,-9326.594869,-536.266849
864.603148,-1998.556043,-8808.450710,-536.266849
864.603472,-2368.659014,-8734.430116,459.657299
864.603796,-370.102971,-8956.491898,1072.533697
864.604121,518.144159,-8586.388927,153.219100
864.604445,-1406.391290,-8586.388927,-1378.971896
864.604769,-2738.761985,-8216.285956,-1225.752797
864.605093,-1480.411884,-9104.533087,306.438199
864.605418,1110.308913,-9326.594869,766.095498
864.605742,1924.535449,-8956.491898,306.438199
864.606066,-148.041188,-8512.368333,-536.266849
864.606391,-1776.494261,-9030.512492,0.000000
864.606715,-814.226536,-9770.718434,306.438199
864.607039,666.185348,-10214.842000,1072.533697
864.607363,148.041188,-9770.718434,-383.047749
864.607688,-1406.391290,-9400.615463,-383.047749
864.608012,-1406.391290,-9400.615463,153.219100
864.608336,888.247130,-9696.697840,919.314598
864.608661,2368.659014,-10362.883188,229.828649
864.608985,1036.288319,-10288.862594,-536.266849
864.609309,-1332.370696,-9326.594869,-1149.143247
864.609634,-1258.350101,-9252.574275,-383.047749
864.609958,666.185348,-9696.697840,689.485948
864.610282,962.267725,-10732.986159,-306.438199
864.610606,-888.247130,-10658.965565,-1225.752797
864.610931,-2294.638420,-9770.718434,-1455.581446
864.611255,-370.102971,-9326.594869,-306.438199
864.611579,2738.761985,-10584.944971,0.000000
864.611904,2738.761985,-10584.944971,0.000000
864.612228,888.247130,-10140.821405,-766.095498
864.612552,-1554.432478,-9992.780217,-919.314598
864.612876,-444.123565,-10436.903782,-306.438199
864.613201,962.267725,-10584.944971,76.609550
864.613525,814.226536,-10955.047942,-153.219100
864.613849,-370.102971,-10436.903782,-766.095498
864.614174,-370.102971,-9622.677246,0.000000
864.614498,1184.329507,-9844.739029,612.876398
864.614822,1406.391290,-10510.924376,76.609550
864.615147,0.000000,-10140.821405,0.000000
864.615471,-1924.535449,-9252.574275,0.000000
864.615795,-1036.288319,-9400.615463,306.438199
864.616119,962.267725,-9918.759623,1225.752797
864.616444,1332.370696,-9622.677246,1072.533697
864.616768,-666.185348,-9474.636058,459.657299
864.617092,-1998.556043,-8512.368333,0.000000
864.617417,-814.226536,-8660.409521,536.266849
864.617741,1924.535449,-9548.656652,1532.190996
864.618065,2220.617826,-10066.800811,459.657299
864.618389,0.000000,-9400.615463,-766.095498
864.618714,-1924.535449,-8216.285956,-919.314598
864.619038,-1184.329507,-9326.594869,-842.705048
864.619362,222.061783,-9992.780217,76.609550
864.619687,0.000000,-10362.883188,-1072.533697
864.620011,-1850.514855,-9252.574275,-766.095498
864.620335,-2072.576638,-9104.533087,153.219100
864.620659,-148.041188,-10214.842000,1225.752797
864.620984,1036.288319,-10658.965565,1685.410096
864.621308,-74.020594,-10066.800811,1072.533697
864.621632,-2294.638420,-9326.594869,919.314598
864.621957,-2146.597232,-9474.636058,919.314598
864.622281,-370.102971,-9918.759623,1149.143247
864.622605,148.041188,-9770.718434,459.657299
864.622930,-1554.432478,-8882.471304,-612.876398
864.623254,-2516.700203,-8808.450710,-1225.752797
864.623578,-592.164754,-8956.491898,-306.438199
864.623902,2146.597232,-9178.553681,-153.219100
864.624227,2442.679609,-9252.574275,-689.485948
864.624551,518.144159,-8660.409521,-1608.800546
864.624875,-740.205942,-8808.450710,-1225.752797
864.625200,296.082377,-9474.636058,0.000000
864.625524,1554.432478,-10436.903782,153.219100
864.625848,1554.432478,-10584.944971,-306.438199
864.626172,148.041188,-10214.842000,-459.657299
864.626497,0.000000,-9992.780217,153.219100
864.626821,1406.391290,-10436.903782,1455.581446
864.627145,2368.659014,-10881.027347,1455.581446
864.627470,962.267725,-10288.862594,153.219100
864.627794,-666.185348,-9696.697840,0.000000
864.628118,-1110.308913,-9844.739029,0.000000
864.628442,444.123565,-10140.821405,76.609550
864.628767,888.247130,-9992.780217,-689.485948
864.629091,-666.185348,-9548.656652,-1225.752797
864.629415,-1702.473667,-9400.615463,-1302.362347
864.629740,-222.061783,-9326.594869,-1149.143247
864.630064,2220.617826,-9696.697840,-383.047749
864.630388,2294.638420,-9548.656652,-995.924147
864.630713,592.164754,-9400.615463,-1685.410096
864.631037,-370.102971,-9326.594869,-612.876398
864.631361,814.226536,-9696.697840,306.438199
864.631685,1924.535449,-9474.636058,383.047749
864.632010,1184.329507,-9326.594869,-612.876398
864.632337,-296.082377,-9400.615463,-383.047749
864.632661,-222.061783,-9548.656652,0.000000
864.632985,1628.453072,-9474.636058,995.924147
864.633309,1702.473667,-9918.759623,383.047749
864.633634,-296.082377,-9770.718434,-536.266849
864.633958,-2368.659014,-9770.718434,-842.705048
864.634282,-2146.597232,-9696.697840,-229.828649
864.634607,-518.144159,-10066.800811,0.000000
864.634931,0.000000,-9770.718434,-919.314598
864.635255,-2146.597232,-10288.862594,-1762.019645
864.635579,-3330.926739,-9548.656652,-766.095498
864.635904,-1702.473667,-9548.656652,-536.266849
864.636228,592.164754,-9992.780217,76.609550
864.636552,370.102971,-9770.718434,-842.705048
864.636877,-1924.535449,-9400.615463,-1608.800546
864.637201,-2146.597232,-9474.636058,-919.314598
864.637525,-740.205942,-9770.718434,229.828649
864.637849,740.205942,-9696.697840,153.219100
864.638174,0.000000,-9178.553681,-383.047749
864.638498,-592.164754,-9400.615463,-229.828649
864.638822,222.061783,-9474.636058,459.657299
864.639147,2294.638420,-9770.718434,919.314598
864.639471,2738.761985,-9474.636058,612.876398
864.639795,888.247130,-9104.533087,0.000000
864.640119,-740.205942,-9400.615463,-306.438199
864.640444,-148.041188,-8438.347739,0.000000
864.640768,1036.288319,-9030.512492,0.000000
864.641092,888.247130,-9844.739029,-383.047749
864.641417,-814.226536,-10066.800811,-1225.752797
864.641741,-1924.535449,-9474.636058,-536.266849
864.642065,-296.082377,-9400.615463,536.266849
864.642389,1332.370696,-9770.718434,0.000000
864.642714,1406.391290,-10510.924376,0.000000
864.643038,-592.164754,-10214.842000,-1149.143247
864.643362,-888.247130,-10510.924376,-229.828649
864.643687,296.082377,-10214.842000,76.609550
864.644011,1406.391290,-10066.800811,0.000000
864.644335,962.267725,-10807.006753,-536.266849
864.644659,-370.102971,-10362.883188,-229.828649
864.644984,296.082377,-10584.944971,459.657299
864.645308,1332.370696,-9770.718434,995.924147
864.645632,1184.329507,-9548.656652,153.219100
864.645957,0.000000,-9622.677246,-383.047749
864.646281,-1480.411884,-9548.656652,-383.047749
864.646605,-666.185348,-9770.718434,153.219100
864.646929,444.123565,-9474.636058,1608.800546
864.647254,0.000000,-9548.656652,383.047749
864.647578,-1258.350101,-8956.491898,-689.485948
864.647902,-2146.597232,-8364.327145,0.000000
864.648227,-518.144159,-9030.512492,1072.533697
864.648551,1998.556043,-9992.780217,1302.362347
864.648875,1554.432478,-9622.677246,919.314598
864.649199,-740.205942,-9030.512492,76.609550
864.649524,-1850.514855,-8808.450710,842.705048
864.649848,-1036.288319,-9178.553681,459.657299
864.650172,74.020594,-9992.780217,306.438199
864.650497,-666.185348,-9696.697840,-995.924147
864.650821,-2664.741391,-8882.471304,-1149.143247
864.651145,-1924.535449,-8956.491898,-383.047749
864.651469,148.041188,-9474.636058,229.828649
864.651794,1332.370696,-9474.636058,-153.219100
864.652118,-222.061783,-9622.677246,-919.314598
864.652442,-2442.679609,-9326.594869,-459.657299
864.652767,-1702.473667,-9844.739029,919.314598
864.653091,444.123565,-10214.842000,1378.971896
864.653415,1184.329507,-10214.842000,919.314598
864.653739,-296.082377,-9548.656652,-153.219100
864.654064,-740.205942,-9326.594869,229.828649
864.654388,1406.391290,-9622.677246,1225.752797
864.654712,3330.926739,-10066.800811,1149.143247
864.655037,2368.659014,-9252.574275,76.609550
864.655361,-148.041188,-8956.491898,-1072.533697
864.655685,-1628.453072,-8808.450710,-1378.971896
864.656009,-518.144159,-9252.574275,-995.924147
864.656334,592.164754,-10066.800811,-1072.533697
864.656658,0.000000,-10214.842000,-1838.629195
864.656982,-1554.432478,-9326.594869,-1378.971896
864.657306,-296.082377,-9252.574275,306.438199
864.657631,1924.535449,-10066.800811,459.657299
864.657955,2294.638420,-10658.965565,229.828649
864.658279,814.226536,-10584.944971,0.000000
864.658604,-666.185348,-10066.800811,0.000000
864.658928,0.000000,-10214.842000,689.485948
864.659252,2220.617826,-10658.965565,1685.410096
864.659576,2072.576638,-10066.800811,459.657299
864.659901,0.000000,-9992.780217,-1225.752797
864.660225,-1406.391290,-9770.718434,-459.657299
864.660549,444.123565,-10066.800811,0.000000
864.660874,2368.659014,-10288.862594,-229.828649
864.661198,1850.514855,-9992.780217,-842.705048
864.661522,-592.164754,-8882.471304,-1532.190996
864.661846,-1702.473667,-8882.471304,-1072.533697
864.662171,0.000000,-9474.636058,-536.266849
864.662495,74.020594,-9178.553681,-153.219100
864.662819,-74.020594,-9474.636058,-1378.971896
864.663144,-1554.432478,-9252.574275,-995.924147
864.663468,-888.247130,-9548.656652,76.609550
864.663792,1036.288319,-9844.739029,1072.533697
864.664116,1332.370696,-9400.615463,153.219100
864.664441,-296.082377,-9474.636058,-536.266849
864.664765,-2072.576638,-9326.594869,0.000000
864.665089,-1184.329507,-9474.636058,383.047749
864.665414,444.123565,-9474.636058,383.047749
864.665738,222.061783,-9104.533087,-612.876398
864.666062,-2294.638420,-9474.636058,-1225.752797
864.666386,-2590.720797,-9474.636058,-1532.190996
864.666711,-444.123565,-8882.471304,-612.876398
864.667035,1406.391290,-9622.677246,689.485948
864.667359,1184.329507,-9474.636058,-459.657299
864.667684,-740.205942,-9622.677246,-1225.752797
864.668008,-1406.391290,-9770.718434,-536.266849
864.668332,-444.123565,-9844.739029,0.000000
864.668656,370.102971,-9844.739029,-383.047749
864.668981,-592.164754,-9252.574275,-383.047749
864.669305,-1480.411884,-9178.553681,-1149.143247
864.669629,0.000000,-9178.553681,0.000000
864.669954,2220.617826,-9400.615463,383.047749
864.670278,1480.411884,-9696.697840,76.609550
864.670602,-148.041188,-10214.842000,-689.485948
864.670926,-888.247130,-9696.697840,0.000000
864.671251,74.020594,-9400.615463,536.266849
864.671575,1480.411884,-9844.739029,766.095498
864.671899,1036.288319,-10732.986159,-153.219100
864.672224,-888.247130,-10214.842000,-383.047749
864.672548,-962.267725,-9622.677246,0.000000
864.672872,592.164754,-8956.491898,229.828649
864.673196,2516.700203,-9474.636058,306.438199
864.673521,1406.391290,-9992.780217,-766.095498
864.673845,-888.247130,-9474.636058,-919.314598
864.674169,-1628.453072,-9474.636058,-383.047749
864.674494,-222.061783,-9918.759623,-229.828649
864.674818,296.082377,-10066.800811,0.000000
864.675142,0.000000,-10140.821405,-153.219100
864.675466,-518.144159,-10288.862594,0.000000
864.675791,666.185348,-10362.883188,1149.143247
864.676115,1702.473667,-10510.924376,1685.410096
864.676439,1406.391290,-10436.903782,383.047749
864.676764,-592.164754,-10436.903782,0.000000
864.677088,-1924.535449,-10140.821405,229.828649
864.677412,-962.267725,-9992.780217,689.485948
864.677736,296.082377,-9992.780217,995.924147
864.678061,-370.102971,-9400.615463,76.609550
864.678385,-1998.556043,-9252.574275,-766.095498
864.678709,-2368.659014,-8956.491898,-153.219100
864.679034,-444.123565,-9252.574275,689.485948
864.679358,888.247130,-9844.739029,383.047749
864.679682,444.123565,-9548.656652,536.266849
864.680006,-1480.411884,-8586.388927,0.000000
864.680331,-1628.453072,-9326.594869,536.266849
864.680655,-222.061783,-9474.636058,1225.752797
864.680979,814.226536,-9548.656652,459.657299
864.681304,0.000000,-9474.636058,0.000000
864.681628,-888.247130,-9030.512492,306.438199
864.681952,0.000000,-9252.574275,919.314598
864.682276,1850.514855,-9252.574275,1072.533697
864.682601,1554.432478,-9548.656652,459.657299
864.682925,0.000000,-10066.800811,76.609550
864.683249,-1406.391290,-9548.656652,-229.828649
864.683574,0.000000,-9696.697840,995.924147
864.683898,1184.329507,-10066.800811,1149.143247
864.684222,370.102971,-10066.800811,0.000000
864.684546,-1406.391290,-9696.697840,-383.047749
864.684871,-1554.432478,-9622.677246,306.438199
864.685195,888.247130,-9770.718434,689.485948
864.685519,2368.659014,-10140.821405,689.485948
864.685843,1036.288319,-9622.677246,76.609550
864.686168,-814.226536,-9400.615463,-689.485948
864.686492,-1036.288319,-9844.739029,0.000000
864.686816,0.000000,-9696.697840,612.876398
864.687141,666.185348,-9992.780217,612.876398
864.687465,0.000000,-9770.718434,-306.438199
864.687789,-592.164754,-9400.615463,-612.876398
864.688113,370.102971,-9326.594869,536.266849
864.688438,2220.617826,-9992.780217,459.657299
864.688762,2294.638420,-9992.780217,-153.219100
864.689086,74.020594,-9696.697840,-383.047749
864.689411,-962.267725,-9400.615463,-612.876398
864.689735,0.000000,-9326.594869,-229.828649
864.690059,1036.288319,-9548.656652,536.266849
864.690383,222.061783,-9548.656652,-306.438199
864.690708,-1406.391290,-9474.636058,-1532.190996
864.691032,-1628.453072,-9252.574275,-842.705048
864.691356,370.102971,-9696.697840,0.000000
864.691681,1850.514855,-10066.800811,229.828649
864.692005,1036.288319,-9992.780217,-842.705048
864.692329,-962.267725,-10214.842000,-1302.362347
864.692653,-1184.329507,-9696.697840,-459.657299
864.692978,0.000000,-9770.718434,-306.438199
864.693302,1036.288319,-10066.800811,-612.876398
864.693626,222.061783,-9844.739029,-1378.971896
864.693951,-518.144159,-9474.636058,-1532.190996
864.694275,592.164754,-9474.636058,-536.266849
864.694599,2072.576638,-9622.677246,-229.828649
864.694923,2220.617826,-10288.862594,-1378.971896
864.695248,-518.144159,-9326.594869,-1991.848295
864.695572,-1924.535449,-9622.677246,-1608.800546
864.695896,-962.267725,-9918.759623,-1072.533697
864.696221,296.082377,-10510.924376,-689.485948
864.696545,148.041188,-10436.903782,-1225.752797
864.696869,-962.267725,-9992.780217,-1149.143247
864.697193,-1332.370696,-9474.636058,-1149.143247
864.697518,814.226536,-10288.862594,536.266849
864.697842,2590.720797,-10362.883188,153.219100
864.698166,1480.411884,-10066.800811,-536.266849
864.698491,-740.205942,-10066.800811,-995.924147
864.698815,-1036.288319,-10288.862594,-383.047749
864.699139,74.020594,-10066.800811,0.000000
864.699463,296.082377,-10140.821405,-1225.752797
864.699788,-1184.329507,-10066.800811,-1378.971896
864.700112,-2220.617826,-9474.636058,-842.705048
864.700436,-1036.288319,-9622.677246,-689.485948
864.700761,518.144159,-9770.718434,76.609550
864.701085,740.205942,-9548.656652,-383.047749
864.701409,-962.267725,-9400.615463,-766.095498
864.701733,-2146.597232,-8734.430116,-842.705048
864.702058,-592.164754,-7920.203579,919.314598
864.702382,888.247130,-8734.430116,1149.143247
864.702706,148.041188,-9622.677246,153.219100
864.703031,-1332.370696,-9252.574275,76.609550
864.703355,-1184.329507,-8586.388927,919.314598
864.703679,740.205942,-9030.512492,1838.629195
864.704003,2146.597232,-9548.656652,1608.800546
864.704328,888.247130,-9252.574275,1455.581446
864.704652,-814.226536,-9178.553681,919.314598
864.704976,-1184.329507,-9474.636058,383.047749
864.705301,-222.061783,-9770.718434,1149.143247
864.705625,370.102971,-9844.739029,536.266849
864.705949,-740.205942,-9992.780217,-153.219100
864.706273,-1924.535449,-9622.677246,229.828649
864.706598,-592.164754,-9696.697840,1302.362347
864.706922,1036.288319,-9992.780217,1608.800546
864.707246,1480.411884,-10658.965565,919.314598
864.707571,-222.061783,-9844.739029,229.828649
864.707895,-1332.370696,-9696.697840,612.876398
864.708219,-592.164754,-10140.821405,1455.581446
864.708543,296.082377,-10807.006753,1991.848295
864.708868,-148.041188,-10732.986159,612.876398
864.709192,-2072.576638,-9178.553681,842.705048
864.709516,-1776.494261,-8956.491898,229.828649
864.709841,1036.288319,-9622.677246,1149.143247
864.710165,2368.659014,-9918.759623,1455.581446
864.710489,1258.350101,-9696.697840,612.876398
864.710813,-592.164754,-9474.636058,0.000000
864.711138,-1184.329507,-9030.512492,0.000000
864.711462,222.061783,-9474.636058,612.876398
864.711786,1258.350101,-10066.800811,76.609550
864.712111,-296.082377,-9844.739029,-153.219100
864.712435,-1850.514855,-9474.636058,-536.266849
864.712759,-666.185348,-9622.677246,306.438199
864.713083,1480.411884,-10066.800811,689.485948
864.713408,1776.494261,-10066.800811,0.000000
864.713732,-518.144159,-9622.677246,-459.657299
864.714056,-1480.411884,-9326.594869,0.000000
864.714380,-814.226536,-9474.636058,229.828649
864.714705,592.164754,-9844.739029,689.485948
864.715029,0.000000,-9770.718434,-536.266849
864.715353,-1036.288319,-9104.533087,-995.924147
864.715678,-1036.288319,-8882.471304,-536.266849
864.716002,814.226536,-9400.615463,306.438199
864.716326,2590.720797,-9918.759623,306.438199
864.716650,1332.370696,-9770.718434,-995.924147
864.716975,-740.205942,-8586.388927,-1302.362347
864.717299,-1036.288319,-8438.347739,-919.314598
864.717623,296.082377,-8956.491898,-153.219100
864.717948,1258.350101,-9770.718434,-689.485948
864.718272,-148.041188,-9696.697840,-1608.800546
864.718596,-1110.308913,-8882.471304,-1302.362347
864.718920,-370.102971,-9252.574275,-229.828649
864.719245,1184.329507,-9918.759623,0.000000
864.719569,1628.453072,-9992.780217,-1149.143247
864.719893,-148.041188,-9548.656652,-1532.190996
864.720218,-962.267725,-9918.759623,-919.314598
864.720542,0.000000,-10288.862594,-383.047749
864.720866,1110.308913,-10807.006753,0.000000
864.721190,888.247130,-10807.006753,-766.095498
864.721515,-592.164754,-10066.800811,-689.485948
864.721839,-1184.329507,-9844.739029,-1225.752797
864.722163,888.247130,-11029.068536,229.828649
864.722488,1924.535449,-11251.130318,-459.657299
864.722812,962.267725,-10362.883188,-1225.752797
864.723136,-1110.308913,-9474.636058,-1302.362347
864.723460,-1850.514855,-9252.574275,-1915.238745
864.723785,-222.061783,-9992.780217,-689.485948
864.724109,222.061783,-10436.903782,-995.924147
864.724433,-592.164754,-9844.739029,-1455.581446
864.724758,-1850.514855,-9104.533087,-1072.533697
864.725082,-814.226536,-9104.533087,0.000000
864.725406,1184.329507,-10214.842000,306.438199
864.725730,1554.432478,-9992.780217,229.828649
864.726055,296.082377,-9844.739029,0.000000
864.726379,-1184.329507,-9474.636058,76.609550
864.726703,-296.082377,-9844.739029,689.485948
864.727028,1036.288319,-9844.739029,536.266849
864.727352,592.164754,-9844.739029,-153.219100
864.727676,-1628.453072,-9844.739029,-1302.362347
864.728000,-1406.391290,-9548.656652,-459.657299
864.728325,1110.308913,-9474.636058,536.266849
864.728649,1554.432478,-9178.553681,0.000000
864.728973,74.020594,-9326.594869,-612.876398
864.729298,-1850.514855,-9844.739029,-612.876398
864.729622,-1998.556043,-9844.739029,76.609550
864.729946,-370.102971,-9474.636058,306.438199
864.730270,296.082377,-8808.450710,229.828649
864.730595,-518.144159,-9104.533087,0.000000
864.730919,-740.205942,-9326.594869,689.485948
864.731243,740.205942,-9992.780217,1685.410096
864.731568,2516.700203,-9844.739029,1762.019645
864.731892,1702.473667,-9104.533087,1149.143247
864.732216,-518.144159,-9030.512492,689.485948
864.732540,-1850.514855,-9178.553681,612.876398
864.732865,-666.185348,-9474.636058,1149.143247
864.733189,222.061783,-9622.677246,919.314598
864.733513,-1036.288319,-10066.800811,0.000000
864.733837,-1702.473667,-9474.636058,-153.219100
864.734161,-592.164754,-8734.430116,383.047749
864.734486,1702.473667,-8438.347739,919.314598
864.734810,2220.617826,-9474.636058,919.314598
864.735134,666.185348,-9844.739029,766.095498
864.735458,-888.247130,-9474.636058,1149.143247
864.735782,-518.144159,-9474.636058,766.095498
864.736107,370.102971,-8808.450710,1149.143247
864.736431,74.020594,-9104.533087,995.924147
864.736755,-814.226536,-9474.636058,229.828649
864.737079,-1628.453072,-9104.533087,153.219100
864.737403,-148.041188,-8660.409521,995.924147
864.737728,666.185348,-8512.368333,459.657299
864.738052,74.020594,-9474.636058,-229.828649
864.738376,-1776.494261,-9474.636058,-842.705048
864.738700,-2368.659014,-9178.553681,-612.876398
864.739024,-1110.308913,-9326.594869,-306.438199
864.739349,74.020594,-9992.780217,0.000000
864.739673,-296.082377,-10584.944971,-383.047749
864.739997,-666.185348,-10362.883188,-919.314598
864.740321,370.102971,-10510.924376,0.000000
864.740645,2664.741391,-11325.150913,995.924147
864.740970,3108.864956,-11621.233289,306.438199
864.741294,814.226536,-11769.274478,-536.266849
864.741618,-1406.391290,-11325.150913,-306.438199
864.741942,-1480.411884,-10510.924376,-153.219100
864.742266,222.061783,-10955.047942,76.609550
864.742591,370.102971,-11177.109724,-153.219100
864.742915,-1184.329507,-10732.986159,-689.485948
864.743239,-1702.473667,-9622.677246,-766.095498
864.743563,-370.102971,-9474.636058,0.000000
864.743887,1554.432478,-9918.759623,-229.828649
864.744212,1332.370696,-10140.821405,-612.876398
864.744536,0.000000,-9474.636058,-383.047749
864.744860,-814.226536,-9178.553681,76.609550
864.745184,74.020594,-9548.656652,842.705048
864.745508,0.000000,-9548.656652,0.000000
864.745833,-370.102971,-9474.636058,-383.047749
864.746157,-1554.432478,-9252.574275,-536.266849
864.746481,-740.205942,-8734.430116,459.657299
864.746805,1776.494261,-8734.430116,842.705048
864.747129,2590.720797,-9104.533087,306.438199
864.747454,1184.329507,-8956.491898,-153.219100
864.747778,-592.164754,-8808.450710,-153.219100
864.748102,-592.164754,-8956.491898,76.609550
864.748426,296.082377,-9030.512492,229.828649
864.748750,444.123565,-9400.615463,-153.219100
864.749075,-962.267725,-9326.594869,-842.705048
864.749399,-1776.494261,-9178.553681,-919.314598
864.749723,222.061783,-9400.615463,995.924147
864.750047,1406.391290,-9326.594869,459.657299
864.750371,666.185348,-8882.471304,-153.219100
864.750696,-1110.308913,-9030.512492,-842.705048
864.751020,-1776.494261,-9326.594869,-229.828649
864.751344,-592.164754,-9548.656652,153.219100
864.751668,370.102971,-9696.697840,229.828649
864.751992,-296.082377,-9474.636058,-1455.581446
864.752317,-592.164754,-9030.512492,-612.876398
864.752641,518.144159,-9474.636058,459.657299
864.752965,2812.782580,-10140.821405,689.485948
864.753289,3627.009116,-10362.883188,0.000000
864.753613,1924.535449,-10066.800811,-689.485948
864.753938,0.000000,-9918.759623,-1149.143247
864.754262,592.164754,-10066.800811,-306.438199
864.754586,1480.411884,-10436.903782,0.000000
864.754910,1406.391290,-10955.047942,-766.095498
864.755234,-1110.308913,-9844.739029,-1455.581446
864.755558,-1554.432478,-10140.821405,-1072.533697
864.755883,-148.041188,-10214.842000,-229.828649
864.756207,1480.411884,-10732.986159,0.000000
864.756531,888.247130,-10881.027347,229.828649
864.756855,-1480.411884,-10214.842000,-1072.533697
864.757179,-1850.514855,-10214.842000,76.609550
864.757504,0.000000,-10140.821405,536.266849
864.757828,740.205942,-10436.903782,612.876398
864.758152,-296.082377,-10510.924376,0.000000
864.758476,-1554.432478,-10584.944971,-306.438199
864.758800,-592.164754,-9992.780217,459.657299
864.759125,1554.432478,-9622.677246,536.266849
864.759449,1702.473667,-9252.574275,0.000000
864.759773,-888.247130,-8882.471304,-1072.533697
864.760097,-2368.659014,-8956.491898,-536.266849
864.760421,-2294.638420,-8290.306550,0.000000
864.760746,-370.102971,-8216.285956,229.828649
864.761070,0.000000,-8438.347739,0.000000
864.761394,-1480.411884,-8290.306550,-459.657299
864.761718,-1554.432478,-8216.285956,-153.219100
864.762042,-148.041188,-8586.388927,612.876398
864.762367,1110.308913,-8882.471304,1072.533697
864.762691,296.082377,-9030.512492,536.266849
864.763015,-962.267725,-8660.409521,0.000000
864.763339,-1110.308913,-8956.491898,459.657299
864.763663,222.061783,-9770.718434,995.924147
864.763988,1110.308913,-10288.862594,842.705048
864.764312,-444.123565,-10214.842000,0.000000
864.764636,-1702.473667,-9548.656652,-766.095498
864.764960,-518.144159,-8956.491898,229.828649
864.765284,1184.329507,-9548.656652,306.438199
864.765609,1776.494261,-10362.883188,0.000000
864.765933,0.000000,-10362.883188,-1072.533697
864.766257,-1702.473667,-9844.739029,-1455.581446
864.766581,-1110.308913,-9622.677246,-842.705048
864.766905,518.144159,-10214.842000,-76.609550
864.767230,1110.308913,-10658.965565,-842.705048
864.767554,148.041188,-10807.006753,-919.314598
864.767878,-296.082377,-9548.656652,-689.485948
864.768202,1406.391290,-9622.677246,766.095498
864.768526,2664.741391,-10510.924376,536.266849
864.768851,2220.617826,-10881.027347,306.438199
864.769175,962.267725,-10510.924376,229.828649
864.769499,148.041188,-9992.780217,919.314598
864.769823,962.267725,-10288.862594,842.705048
864.770147,1406.391290,-10807.006753,153.219100
864.770472,-518.144159,-10807.006753,-229.828649
864.770796,-1850.514855,-10214.842000,-153.219100
864.771120,-814.226536,-9770.718434,-153.219100
864.771444,962.267725,-9696.697840,306.438199
864.771768,1110.308913,-9918.759623,-306.438199
864.772093,-740.205942,-9770.718434,-1149.143247
864.772417,-2368.659014,-9474.636058,-612.876398
864.772741,-1702.473667,-8882.471304,0.000000
864.773065,222.061783,-9844.739029,383.047749
864.773389,296.082377,-9770.718434,76.609550
864.773714,-888.247130,-9474.636058,0.000000
864.774038,-666.185348,-9326.594869,995.924147
864.774362,370.102971,-8808.450710,1608.800546
864.774686,1036.288319,-9252.574275,1225.752797
864.775010,0.000000,-8438.347739,995.924147
864.775335,-1036.288319,-8512.368333,689.485948
864.775659,-1480.411884,-8586.388927,1149.143247
864.775983,-296.082377,-8882.471304,1225.752797
864.776307,0.000000,-8660.409521,766.095498
864.776631,-1554.432478,-8364.327145,-153.219100
864.776956,-2516.700203,-8068.244768,-919.314598
864.777280,-1184.329507,-8364.327145,0.000000
864.777604,962.267725,-8882.471304,306.438199
864.777928,666.185348,-9474.636058,-383.047749
864.778252,-296.082377,-9622.677246,-995.924147
864.778577,-1332.370696,-9474.636058,-995.924147
864.778901,0.000000,-9992.780217,-229.828649
864.779225,1628.453072,-10807.006753,842.705048
864.779549,1406.391290,-11029.068536,536.266849
864.779873,0.000000,-10288.862594,0.000000
864.780198,-518.144159,-9178.553681,0.000000
864.780522,888.247130,-10066.800811,612.876398
864.780846,1554.432478,-10807.006753,459.657299
864.781170,370.102971,-10288.862594,-306.438199
864.781494,-1332.370696,-9844.739029,-766.095498
864.781819,-1628.453072,-9474.636058,-229.828649
864.782143,-296.082377,-9474.636058,-459.657299
864.782467,592.164754,-10214.842000,-536.266849
864.782791,-296.082377,-9622.677246,-1302.362347
864.783115,-814.226536,-9548.656652,-1608.800546
864.783440,444.123565,-10066.800811,-459.657299
864.783764,2738.761985,-10214.842000,0.000000
864.784088,3330.926739,-10288.862594,842.705048
864.784412,1628.453072,-10362.883188,-306.438199
864.784736,0.000000,-10584.944971,-306.438199
864.785061,370.102971,-10807.006753,383.047749
864.785385,1184.329507,-10807.006753,306.438199
864.785709,888.247130,-10436.903782,0.000000
864.786033,-740.205942,-9918.759623,-383.047749
864.786357,-1628.453072,-9622.677246,-459.657299
864.786682,0.000000,-9326.594869,383.047749
864.787006,740.205942,-9030.512492,459.657299
864.787330,0.000000,-9178.553681,153.219100
864.787654,-1998.556043,-8882.471304,-76.609550
864.787978,-2294.638420,-8586.388927,153.219100
864.788303,-592.164754,-8734.430116,383.047749
864.788627,148.041188,-9104.533087,0.000000
864.788951,-592.164754,-8956.491898,-459.657299
864.789275,-1258.350101,-9030.512492,76.609550
864.789599,-370.102971,-9178.553681,766.095498
864.789924,1776.494261,-8438.347739,1685.410096
864.790248,1998.556043,-8734.430116,459.657299
864.790572,-296.082377,-9030.512492,-842.705048
864.790896,-1998.556043,-9326.594869,-842.705048
864.791220,-1036.288319,-9252.574275,0.000000
864.791545,148.041188,-9474.636058,383.047749
864.791869,74.020594,-9252.574275,-919.314598
864.792193,-1184.329507,-9474.636058,-995.924147
864.792517,-814.226536,-9844.739029,229.828649
864.792841,1554.432478,-10881.027347,919.314598
864.793165,2812.782580,-11029.068536,1072.533697
864.793490,1406.391290,-10510.924376,153.219100
864.793814,-592.164754,-9474.636058,-536.266849
864.794138,-592.164754,-9474.636058,229.828649
864.794462,666.185348,-9992.780217,459.657299
864.794786,370.102971,-10214.842000,-153.219100
864.795111,-1480.411884,-9918.759623,-1149.143247
864.795435,-2516.700203,-8956.491898,-1149.143247
864.795759,-962.267725,-8882.471304,-459.657299
864.796083,1184.329507,-9474.636058,-383.047749
864.796407,1702.473667,-9770.718434,-306.438199
864.796732,0.000000,-9918.759623,-1532.190996
864.797056,-740.205942,-10066.800811,-689.485948
864.797380,518.144159,-9696.697840,0.000000
864.797704,1480.411884,-10436.903782,153.219100
864.798028,1184.329507,-10214.842000,-306.438199
864.798353,-222.061783,-10066.800811,-919.314598
864.798677,0.000000,-9992.780217,-612.876398
864.799001,1480.411884,-10066.800811,306.438199
864.799325,2368.659014,-9992.780217,459.657299
864.799649,1480.411884,-9696.697840,-306.438199
864.799974,-1110.308913,-9400.615463,-995.924147
864.800298,-1850.514855,-9030.512492,-536.266849
864.800622,-1036.288319,-9622.677246,0.000000
864.800946,-888.247130,-10214.842000,-536.266849
864.801270,-2146.597232,-9178.553681,-1149.143247
864.801595,-2368.659014,-9030.512492,-229.828649
864.801919,-1110.308913,-8660.409521,306.438199
864.802243,1184.329507,-9104.533087,995.924147
864.802567,1332.370696,-9770.718434,306.438199
864.802891,-296.082377,-9844.739029,-536.266849
864.803216,-1554.432478,-9622.677246,383.047749
864.803540,0.000000,-9844.739029,1225.752797
864.803864,1036.288319,-9770.718434,536.266849
864.804188,222.061783,-9918.759623,-229.828649
864.804512,-1850.514855,-9474.636058,-919.314598
864.804837,-1702.473667,-9400.615463,-306.438199
864.805161,222.061783,-9918.759623,306.438199
864.805485,1406.391290,-10214.842000,536.266849
864.805809,518.144159,-10288.862594,229.828649
864.806133,-1332.370696,-9622.677246,-459.657299
864.806458,-1924.535449,-9326.594869,0.000000
864.806782,-518.144159,-9252.574275,919.314598
864.807106,0.000000,-9770.718434,1072.533697
864.807430,-296.082377,-9770.718434,459.657299
864.807754,-1258.350101,-9474.636058,1149.143247
864.808079,74.020594,-9252.574275,1455.581446
864.808403,1776.494261,-9622.677246,1302.362347
864.808727,1776.494261,-9770.718434,1072.533697
864.809051,74.020594,-9474.636058,0.000000
864.809375,-888.247130,-9326.594869,76.609550
864.809700,148.041188,-9474.636058,459.657299
864.810024,1258.350101,-9992.780217,383.047749
864.810348,740.205942,-9844.739029,-689.485948
864.810672,-740.205942,-9622.677246,-919.314598
864.810996,-1036.288319,-9474.636058,0.000000
864.811321,888.247130,-9252.574275,612.876398
864.811645,2072.576638,-9326.594869,1225.752797
864.811969,1406.391290,-9252.574275,536.266849
864.812293,-666.185348,-9030.512492,229.828649
864.812617,-1480.411884,-8808.450710,229.828649
864.812942,-370.102971,-9178.553681,919.314598
864.813266,444.123565,-9474.636058,536.266849
864.813590,-148.041188,-9178.553681,-229.828649
864.813914,-888.247130,-8216.285956,-383.047749
864.814238,74.020594,-8512.368333,612.876398
864.814563,1702.473667,-9104.533087,459.657299
864.814887,2812.782580,-9474.636058,-383.047749
864.815211,740.205942,-9548.656652,-919.314598
864.815535,-814.226536,-9844.739029,-995.924147
864.815859,0.000000,-9918.759623,-612.876398
864.816184,1184.329507,-10214.842000,0.000000
864.816508,962.267725,-10362.883188,-689.485948
864.816832,0.000000,-10140.821405,-1455.581446
864.817156,-370.102971,-9622.677246,-689.485948
864.817480,1406.391290,-10214.842000,383.047749
864.817805,2368.659014,-11177.109724,306.438199
864.818129,814.226536,-10732.986159,-459.657299
864.818453,-2146.597232,-9918.759623,-612.876398
864.818777,-2516.700203,-9696.697840,-689.485948
864.819101,-814.226536,-9844.739029,-306.438199
864.819426,-148.041188,-10584.944971,-919.314598
864.819750,-1628.453072,-9992.780217,-1302.362347
864.820074,-1850.514855,-9548.656652,-995.924147
864.820398,0.000000,-9474.636058,-536.266849
864.820722,1850.514855,-9474.636058,-383.047749
864.821047,1628.453072,-9474.636058,-1149.143247
864.821371,-666.185348,-9474.636058,-1838.629195
864.821695,-1850.514855,-9548.656652,-1378.971896
864.822019,-148.041188,-9844.739029,-612.876398
864.822343,1036.288319,-9770.718434,-995.924147
864.822668,222.061783,-9622.677246,-1072.533697
864.822992,-1110.308913,-9844.739029,-1378.971896
864.823316,-814.226536,-9696.697840,-842.705048
864.823640,370.102971,-9474.636058,0.000000
864.823964,1110.308913,-9696.697840,76.609550
864.824289,-296.082377,-9474.636058,-306.438199
864.824613,-1036.288319,-9548.656652,-536.266849
864.824937,-666.185348,-9474.636058,-153.219100
864.825261,222.061783,-9770.718434,0.000000
864.825585,370.102971,-9918.759623,-76.609550
864.825910,-592.164754,-9474.636058,-689.485948
864.826234,-1184.329507,-8364.327145,-383.047749
864.826558,74.020594,-8586.388927,0.000000
864.826882,1332.370696,-9474.636058,76.609550
864.827206,814.226536,-10066.800811,-612.876398
864.827531,-518.144159,-9992.780217,-1072.533697
864.827855,-1184.329507,-9696.697840,-459.657299
864.828179,0.000000,-9474.636058,689.485948
864.828503,1480.411884,-9696.697840,306.438199
864.828827,814.226536,-9548.656652,306.438199
864.829152,-518.144159,-9844.739029,0.000000
864.829476,-296.082377,-9696.697840,459.657299
864.829800,888.247130,-9844.739029,919.314598
864.830124,1776.494261,-9992.780217,689.485948
864.830448,666.185348,-9548.656652,306.438199
864.830773,-888.247130,-9104.533087,459.657299
864.831097,-1184.329507,-9474.636058,995.924147
864.831421,-740.205942,-9992.780217,1378.971896
864.831745,0.000000,-10658.965565,919.314598
864.832069,-1480.411884,-9992.780217,153.219100
864.832393,-2072.576638,-9252.574275,459.657299
864.832718,-666.185348,-9104.533087,919.314598
864.833042,1480.411884,-9844.739029,1225.752797
864.833366,1258.350101,-10510.924376,612.876398
864.833690,74.020594,-10066.800811,766.095498
864.834015,-1036.288319,-8808.450710,689.485948
864.834339,296.082377,-9474.636058,919.314598
864.834663,962.267725,-9992.780217,995.924147
864.834987,0.000000,-10140.821405,153.219100
864.835311,-1480.411884,-9770.718434,0.000000
864.835636,-962.267725,-10066.800811,612.876398
864.835960,888.247130,-9918.759623,1225.752797
864.836284,2146.597232,-9844.739029,1225.752797
864.836608,444.123565,-9474.636058,459.657299
864.836932,-1184.329507,-8956.491898,76.609550
864.837257,-1332.370696,-9104.533087,383.047749
864.837581,-296.082377,-9326.594869,689.485948
864.837905,0.000000,-9326.594869,229.828649
864.838229,-1036.288319,-8882.471304,-153.219100
864.838554,-1258.350101,-8734.430116,0.000000
864.838878,-222.061783,-8882.471304,306.438199
864.839202,1554.432478,-9326.594869,842.705048
864.839526,888.247130,-9474.636058,0.000000
864.839850,-814.226536,-9474.636058,-383.047749
864.840175,-1480.411884,-9178.553681,-459.657299
864.840499,0.000000,-9252.574275,76.609550
864.840823,1406.391290,-9548.656652,0.000000
864.841147,370.102971,-9548.656652,-766.095498
864.841472,-1258.350101,-9326.594869,-612.876398
864.841796,-518.144159,-9252.574275,-383.047749
864.842120,1924.535449,-9770.718434,-229.828649
864.842444,2220.617826,-9400.615463,0.000000
864.842768,666.185348,-9696.697840,-995.924147
864.843093,-1184.329507,-9474.636058,-1149.143247
864.843417,-1036.288319,-10066.800811,-612.876398
864.843741,222.061783,-10362.883188,-689.485948
864.844065,518.144159,-10214.842000,-1685.410096
864.844389,-814.226536,-10066.800811,-2068.457845
864.844714,-1628.453072,-9992.780217,-1762.019645
864.845038,-148.041188,-10066.800811,-919.314598
864.845362,1924.535449,-10658.965565,-459.657299
864.845686,1110.308913,-10807.006753,-1072.533697
864.846011,-666.185348,-10732.986159,-1225.752797
864.846335,-666.185348,-10732.986159,-766.095498
864.846659,740.205942,-10436.903782,-153.219100
864.846983,1110.308913,-10732.986159,-536.266849
864.847307,148.041188,-10658.965565,-1455.581446
864.847632,-1036.288319,-10510.924376,-1685.410096
864.847956,-370.102971,-10288.862594,-689.485948
864.848280,1480.411884,-10362.883188,0.000000
864.848604,1776.494261,-10140.821405,-612.876398
864.848929,296.082377,-10066.800811,-1225.752797
864.849253,-962.267725,-10214.842000,-842.705048
864.849577,-962.267725,-9326.594869,-153.219100
864.849901,148.041188,-9474.636058,306.438199
864.850225,148.041188,-9918.759623,0.000000
864.850550,-1258.350101,-9770.718434,-306.438199
864.850874,-1480.411884,-9178.553681,0.000000
864.851198,0.000000,-8364.327145,1225.752797
864.851522,1406.391290,-8586.388927,1302.362347
864.851846,888.247130,-8364.327145,-153.219100
864.852171,-518.144159,-8438.347739,-153.219100
864.852495,-666.185348,-8586.388927,0.000000
864.852819,370.102971,-8660.409521,459.657299
864.853143,740.205942,-8438.347739,0.000000
864.853468,-444.123565,-9104.533087,-766.095498
864.853792,-1702.473667,-9622.677246,-153.219100
864.854116,-1036.288319,-9030.512492,153.219100
864.854440,518.144159,-9252.574275,919.314598
864.854764,1332.370696,-9326.594869,383.047749
864.855089,0.000000,-9918.759623,-306.438199
864.855413,-1480.411884,-9400.615463,-153.219100
864.855737,-814.226536,-9252.574275,766.095498
864.856061,962.267725,-10732.986159,919.314598
864.856385,666.185348,-10288.862594,919.314598
864.856710,-148.041188,-9474.636058,612.876398
864.857034,-148.041188,-8882.471304,995.924147
864.857358,1258.350101,-9252.574275,536.266849
864.857682,1924.535449,-9918.759623,383.047749
864.858007,1184.329507,-9992.780217,-153.219100
864.858331,-740.205942,-9918.759623,-229.828649
864.858655,-888.247130,-9992.780217,0.000000
864.858979,888.247130,-9844.739029,-383.047749
864.859303,1036.288319,-9474.636058,995.924147
864.859628,222.061783,-10066.800811,-995.924147
864.859952,-1036.288319,-9918.759623,-689.485948
864.860276,-666.185348,-9696.697840,153.219100
864.860600,814.226536,-10066.800811,1072.533697
864.860925,1554.432478,-10140.821405,1149.143247
864.861249,0.000000,-9548.656652,229.828649
864.861573,-1776.494261,-9030.512492,-306.438199
864.861897,-1850.514855,-9696.697840,459.657299
864.862221,-666.185348,-10807.006753,536.266849
864.862546,-1036.288319,-10658.965565,383.047749
864.862870,-1850.514855,-10140.821405,0.000000
864.863194,-1776.494261,-9474.636058,0.000000
864.863518,-148.041188,-9844.739029,766.095498
864.863842,1036.288319,-10362.883188,459.657299
864.864167,444.123565,-10066.800811,0.000000
864.864491,-1036.288319,-9696.697840,-919.314598
864.864815,-1924.535449,-9474.636058,-306.438199
864.865139,-518.144159,-9474.636058,383.047749
864.865464,518.144159,-9844.739029,0.000000
864.865788,-592.164754,-9326.594869,-612.876398
864.866112,-1332.370696,-9252.574275,0.000000
864.866436,-814.226536,-9474.636058,842.705048
864.866760,666.185348,-9252.574275,842.705048
864.867085,1776.494261,-9030.512492,306.438199
864.867409,222.061783,-9104.533087,-229.828649
864.867733,-1480.411884,-9326.594869,-383.047749
864.868057,-1258.350101,-9326.594869,0.000000
864.868381,0.000000,-9252.574275,153.219100
864.868706,444.123565,-9622.677246,229.828649
864.869030,-518.144159,-9548.656652,-689.485948
864.869354,-1184.329507,-9326.594869,-383.047749
864.869678,0.000000,-9400.615463,0.000000
864.870003,1702.473667,-9918.759623,-306.438199
864.870327,1480.411884,-10288.862594,-459.657299
864.870651,148.041188,-9400.615463,-766.095498
864.870975,0.000000,-9252.574275,-459.657299
864.871299,1110.308913,-9844.739029,0.000000
864.871624,1702.473667,-10066.800811,-536.266849
864.871948,444.123565,-10362.883188,-1378.971896
864.872272,-814.226536,-9918.759623,-995.924147
864.872596,-148.041188,-9474.636058,0.000000
864.872921,2220.617826,-9770.718434,153.219100
864.873245,2886.803174,-9770.718434,229.828649
864.873569,1110.308913,-9548.656652,-612.876398
864.873893,-962.267725,-9104.533087,-1149.143247
864.874217,-1184.329507,-9252.574275,-1072.533697
864.874542,0.000000,-9474.636058,-306.438199
864.874866,222.061783,-9548.656652,-766.095498
864.875190,-814.226536,-9770.718434,-1149.143247
864.875514,-592.164754,-9844.739029,-995.924147
864.875838,0.000000,-9992.780217,76.609550
864.876163,1480.411884,-10140.821405,-153.219100
864.876487,1110.308913,-10510.924376,-229.828649
864.876811,-888.247130,-10288.862594,-995.924147
864.877135,-1702.473667,-10214.842000,-612.876398
864.877460,-962.267725,-10658.965565,76.609550
864.877784,0.000000,-10436.903782,-459.657299
864.878108,-740.205942,-9770.718434,-1072.533697
864.878432,-1628.453072,-10140.821405,-383.047749
864.878756,-444.123565,-10140.821405,459.657299
864.879081,1480.411884,-10066.800811,229.828649
864.879405,1850.514855,-10140.821405,536.266849
864.879729,0.000000,-9918.759623,-229.828649
864.880053,-1702.473667,-9474.636058,-459.657299
864.880378,-1258.350101,-9326.594869,842.705048
864.880702,444.123565,-9474.636058,842.705048
864.881026,222.061783,-9400.615463,-306.438199
864.881350,-1258.350101,-8808.450710,-459.657299
864.881674,-1554.432478,-8512.368333,-459.657299
864.881999,0.000000,-8438.347739,153.219100
864.882323,1406.391290,-8956.491898,306.438199
864.882647,814.226536,-9400.615463,-383.047749
864.882971,-666.185348,-9474.636058,-383.047749
864.883295,-814.226536,-9622.677246,-153.219100
864.883620,962.267725,-9548.656652,1149.143247
864.883944,1480.411884,-9622.677246,0.000000
864.884268,518.144159,-9770.718434,76.609550
864.884592,-740.205942,-9844.739029,306.438199
864.884917,666.185348,-10436.903782,842.705048
864.885241,2368.659014,-10362.883188,1838.629195
864.885565,2368.659014,-10140.821405,1149.143247
864.885889,0.000000,-9474.636058,-306.438199
864.886213,-2146.597232,-9474.636058,-383.047749
864.886538,-1480.411884,-9474.636058,0.000000
864.886862,444.123565,-9696.697840,306.438199
864.887186,0.000000,-9474.636058,-536.266849
864.887510,-2072.576638,-8882.471304,-1762.019645
864.887834,-2664.741391,-8438.347739,-1072.533697
864.888159,-148.041188,-8660.409521,-612.876398
864.888483,1924.535449,-9326.594869,0.000000
864.888807,1776.494261,-9696.697840,-689.485948
864.889131,592.164754,-9474.636058,0.000000
864.889456,-222.061783,-9178.553681,306.438199
864.889780,1036.288319,-9770.718434,689.485948
864.890104,1184.329507,-10362.883188,536.266849
864.890428,-222.061783,-10955.047942,-306.438199
864.890752,-1332.370696,-10658.965565,0.000000
864.891077,-370.102971,-10140.821405,612.876398
864.891401,1702.473667,-10140.821405,842.705048
864.891725,962.267725,-9548.656652,0.000000
864.892049,-1702.473667,-9474.636058,-1149.143247
864.892374,-3404.947333,-9252.574275,-1302.362347
864.892698,-2442.679609,-9770.718434,-536.266849
864.893022,-666.185348,-9992.780217,0.000000
864.893346,-296.082377,-9548.656652,-383.047749
864.893670,-1406.391290,-9548.656652,-842.705048
864.893995,-962.267725,-9474.636058,0.000000
864.894319,1110.308913,-9844.739029,766.095498
864.894643,3478.967927,-10658.965565,1378.971896
864.894967,2516.700203,-10362.883188,919.314598
864.895291,666.185348,-9770.718434,612.876398
864.895616,-148.041188,-9918.759623,919.314598
864.895940,888.247130,-9992.780217,1072.533697
864.896264,1036.288319,-9548.656652,536.266849
864.896588,-444.123565,-9622.677246,-383.047749
864.896913,-2590.720797,-8808.450710,-153.219100
864.897237,-1480.411884,-9104.533087,229.828649
864.897561,814.226536,-9252.574275,536.266849
864.897885,592.164754,-9104.533087,-536.266849
864.898209,-1702.473667,-9104.533087,-1149.143247
864.898534,-3330.926739,-9474.636058,-766.095498
864.898858,-1554.432478,-9918.759623,306.438199
864.899182,592.164754,-10288.862594,689.485948
864.899506,592.164754,-9844.739029,153.219100
864.899830,-814.226536,-9992.780217,-612.876398
864.900155,-1184.329507,-9622.677246,-153.219100
864.900479,222.061783,-10214.842000,842.705048
864.900803,1850.514855,-10214.842000,1149.143247
864.901127,592.164754,-9622.677246,0.000000
864.901452,-518.144159,-9548.656652,-536.266849
864.901776,-666.185348,-9178.553681,76.609550
864.902100,666.185348,-9252.574275,0.000000
864.902424,1036.288319,-9326.594869,-306.438199
864.902748,-370.102971,-9696.697840,-919.314598
864.903073,-1406.391290,-9178.553681,-536.266849
864.903397,0.000000,-8512.368333,459.657299
864.903721,2072.576638,-9326.594869,766.095498
864.904045,1776.494261,-9104.533087,76.609550
864.904370,148.041188,-9548.656652,-612.876398
864.904694,-740.205942,-9770.718434,-536.266849
864.905018,666.185348,-9844.739029,153.219100
864.905342,2294.638420,-9992.780217,306.438199
864.905666,1480.411884,-9992.780217,0.000000
864.905991,-296.082377,-10066.800811,-1072.533697
864.906315,-666.185348,-10214.842000,-766.095498
864.906639,296.082377,-9918.759623,-153.219100
864.906963,1480.411884,-10140.821405,-383.047749
864.907287,518.144159,-10436.903782,-995.924147
864.907612,-888.247130,-10140.821405,-1302.362347
864.907936,-888.247130,-9696.697840,-306.438199
864.908260,370.102971,-9696.697840,-153.219100
864.908584,296.082377,-9992.780217,-612.876398
864.908909,-888.247130,-10066.800811,-1072.533697
864.909233,-1110.308913,-9178.553681,-1072.533697
864.909557,444.123565,-9252.574275,76.609550
864.909881,2368.659014,-9622.677246,306.438199
864.910205,2294.638420,-10066.800811,0.000000
864.910530,-296.082377,-9400.615463,-383.047749
864.910854,-1998.556043,-8956.491898,-383.047749
864.911178,-814.226536,-9474.636058,766.095498
864.911502,444.123565,-9622.677246,153.219100
864.911827,0.000000,-9918.759623,-459.657299
864.912151,-2146.597232,-9918.759623,-919.314598
864.912475,-2368.659014,-9104.533087,-306.438199
864.912799,370.102971,-9400.615463,919.314598
864.913123,1702.473667,-9474.636058,459.657299
864.913448,888.247130,-9104.533087,-383.047749
864.913772,-1332.370696,-9400.615463,-383.047749
864.914096,-1258.350101,-9844.739029,-153.219100
864.914420,0.000000,-9622.677246,306.438199
864.914744,592.164754,-9770.718434,0.000000
864.915069,-592.164754,-9474.636058,-459.657299
864.915393,-1480.411884,-9326.594869,0.000000
864.915717,0.000000,-9548.656652,612.876398
864.916041,2072.576638,-9770.718434,1455.581446
864.916366,1258.350101,-9474.636058,459.657299
864.916690,-1036.288319,-9400.615463,0.000000
864.917014,-1776.494261,-9252.574275,229.828649
864.917338,0.000000,-9030.512492,995.924147
864.917662,1110.308913,-8734.430116,766.095498
864.917987,370.102971,-8660.409521,-229.828649
864.918311,-1480.411884,-8438.347739,-1302.362347
864.918635,-1184.329507,-8364.327145,-612.876398
864.918959,1036.288319,-9030.512492,229.828649
864.919283,2368.659014,-9844.739029,0.000000
864.919608,814.226536,-10066.800811,-766.095498
864.919932,-1184.329507,-9844.739029,-842.705048
864.920256,-814.226536,-10436.903782,0.000000
864.920580,518.144159,-10881.027347,229.828649
864.920905,1036.288319,-10881.027347,0.000000
864.921229,-592.164754,-10807.006753,-689.485948
864.921553,-1184.329507,-10584.944971,-612.876398
864.921877,518.144159,-10658.965565,459.657299
864.922201,2072.576638,-10955.047942,995.924147
864.922526,1702.473667,-10955.047942,76.609550
864.922850,-222.061783,-9844.739029,0.000000
864.923174,-1480.411884,-9178.553681,229.828649
864.923498,0.000000,-10288.862594,383.047749
864.923823,888.247130,-10510.924376,0.000000
864.924147,-296.082377,-10362.883188,-842.705048
864.924471,-2072.576638,-9548.656652,-919.314598
864.924795,-1184.329507,-9548.656652,-612.876398
864.925119,1480.411884,-9622.677246,383.047749
864.925444,3182.885551,-9696.697840,0.000000
864.925768,1850.514855,-9178.553681,-919.314598
864.926092,-444.123565,-9252.574275,-1072.533697
864.926416,-592.164754,-9178.553681,0.000000
864.926740,592.164754,-9178.553681,842.705048
864.927065,666.185348,-9548.656652,0.000000
864.927389,-962.267725,-9696.697840,0.000000
864.927713,-2220.617826,-9474.636058,0.000000
864.928037,-1332.370696,-9326.594869,766.095498
864.928362,0.000000,-9474.636058,766.095498
864.928686,0.000000,-9622.677246,229.828649
864.929010,-1776.494261,-9030.512492,0.000000
864.929334,-2812.782580,-8734.430116,536.266849
864.929658,-1480.411884,-8956.491898,842.705048
864.929983,74.020594,-9326.594869,383.047749
864.930307,-740.205942,-9474.636058,-536.266849
864.930631,-2146.597232,-9326.594869,-1072.533697
864.930955,-1258.350101,-9178.553681,0.000000
864.931280,1036.288319,-9400.615463,536.266849
864.931604,2368.659014,-9696.697840,766.095498
864.931928,1184.329507,-9844.739029,-306.438199
864.932252,-444.123565,-9696.697840,-306.438199
864.932576,-444.123565,-9400.615463,153.219100
864.932901,814.226536,-9622.677246,612.876398
864.933225,1036.288319,-9622.677246,383.047749
864.933549,296.082377,-9104.533087,-536.266849
864.933873,-592.164754,-8956.491898,-306.438199
864.934197,370.102971,-8586.388927,766.095498
864.934522,1480.411884,-9252.574275,383.047749
864.934846,962.267725,-10140.821405,153.219100
864.935170,-814.226536,-10214.842000,-459.657299
864.935494,-1850.514855,-10214.842000,-229.828649
864.935818,-888.247130,-9696.697840,0.000000
864.936143,370.102971,-11177.109724,0.000000
864.936467,-444.123565,-11177.109724,-306.438199
864.936791,-1554.432478,-10881.027347,-995.924147
864.937115,-1110.308913,-10584.944971,76.609550
864.937439,1332.370696,-10436.903782,229.828649
864.937764,2960.823768,-10362.883188,0.000000
864.938088,1850.514855,-10214.842000,-689.485948
864.938412,0.000000,-9992.780217,-383.047749
864.938736,296.082377,-10732.986159,153.219100
864.939060,1184.329507,-10140.821405,0.000000
864.939385,1110.308913,-9696.697840,-612.876398
864.939709,-296.082377,-9548.656652,-995.924147
864.940033,-1110.308913,-9400.615463,-919.314598
864.940357,148.041188,-9474.636058,0.000000
864.940682,1480.411884,-9474.636058,919.314598
864.941006,1406.391290,-9474.636058,459.657299
864.941330,-370.102971,-9030.512492,-383.047749
864.941654,-1332.370696,-8216.285956,153.219100
864.941978,-444.123565,-8956.491898,1072.533697
864.942303,1036.288319,-9770.718434,306.438199
864.942627,0.000000,-9622.677246,-306.438199
864.942951,-2146.597232,-8956.491898,-842.705048
864.943275,-1998.556043,-8882.471304,-153.219100
864.943599,148.041188,-9474.636058,459.657299
864.943924,1628.453072,-9770.718434,0.000000
864.944248,370.102971,-9474.636058,-1072.533697
864.944572,-1332.370696,-9474.636058,-1225.752797
864.944896,-1406.391290,-9548.656652,-383.047749
864.945220,-222.061783,-9770.718434,229.828649
864.945545,-148.041188,-9326.594869,-153.219100
864.945869,-1924.535449,-8808.450710,-995.924147
864.946193,-1776.494261,-8808.450710,-612.876398
864.946517,0.000000,-8956.491898,612.876398
864.946841,1628.453072,-9178.553681,919.314598
864.947166,1258.350101,-9326.594869,306.438199
864.947490,-518.144159,-9178.553681,0.000000
864.947814,-1036.288319,-8586.388927,459.657299
864.948138,222.061783,-8882.471304,383.047749
864.948462,1036.288319,-9844.739029,0.000000
864.948787,0.000000,-10140.821405,-612.876398
864.949111,-1924.535449,-9696.697840,-1225.752797
864.949435,-1332.370696,-9474.636058,-766.095498
864.949759,518.144159,-9992.780217,0.000000
864.950083,1332.370696,-9918.759623,-766.095498
864.950408,296.082377,-10436.903782,-1762.019645
864.950732,-1702.473667,-10362.883188,-1225.752797
864.951056,-1332.370696,-10881.027347,-689.485948
864.951380,148.041188,-10510.924376,76.609550
864.951704,740.205942,-10881.027347,-459.657299
864.952029,0.000000,-11399.171507,-1225.752797
864.952353,-518.144159,-11251.130318,-766.095498
864.952677,814.226536,-11029.068536,383.047749
864.953001,2220.617826,-10584.944971,995.924147
864.953325,1554.432478,-10510.924376,153.219100
864.953650,0.000000,-10066.800811,0.000000
864.953974,-740.205942,-9992.780217,0.000000
864.954298,-222.061783,-10436.903782,306.438199
864.954622,666.185348,-10214.842000,76.609550
864.954947,-592.164754,-9326.594869,-459.657299
864.955271,-2294.638420,-8438.347739,-689.485948
864.955595,-1036.288319,-8364.327145,0.000000
864.955919,1332.370696,-9252.574275,1455.581446
864.956243,2368.659014,-9548.656652,459.657299
864.956568,814.226536,-9178.553681,-306.438199
864.956892,-1184.329507,-8734.430116,0.000000
864.957216,-1110.308913,-9104.533087,536.266849
864.957540,370.102971,-9474.636058,1378.971896
864.957864,1332.370696,-9696.697840,612.876398
864.958189,-518.144159,-9622.677246,153.219100
864.958513,-1850.514855,-9474.636058,689.485948
864.958837,-518.144159,-9474.636058,1455.581446
864.959161,1776.494261,-9696.697840,1838.629195
864.959485,1036.288319,-9622.677246,689.485948
864.959810,-1554.432478,-9326.594869,229.828649
864.960134,-2590.720797,-8660.409521,766.095498
864.960458,-1110.308913,-8808.450710,919.314598
864.960782,0.000000,-9474.636058,919.314598
864.961106,-1776.494261,-9104.533087,-383.047749
864.961431,-3404.947333,-8660.409521,-383.047749
864.961755,-2368.659014,-8808.450710,459.657299
864.962079,814.226536,-9326.594869,1149.143247
864.962403,2442.679609,-9400.615463,459.657299
864.962727,296.082377,-8734.430116,0.000000
864.963052,-888.247130,-8808.450710,0.000000
864.963376,-148.041188,-9474.636058,612.876398
864.963700,1258.350101,-10510.924376,306.438199
864.964024,1036.288319,-10066.800811,76.609550
864.964348,-592.164754,-9992.780217,-766.095498
864.964673,-1036.288319,-9844.739029,-842.705048
864.964997,1110.308913,-10584.944971,229.828649
864.965321,2294.638420,-9992.780217,76.609550
864.965645,2220.617826,-10807.006753,76.609550
864.965969,-666.185348,-10288.862594,-766.095498
864.966294,-1776.494261,-10140.821405,0.000000
864.966618,-296.082377,-10140.821405,229.828649
864.966942,74.020594,-10658.965565,0.000000
864.967266,-962.267725,-10436.903782,-995.924147
864.967590,-2294.638420,-9548.656652,-1225.752797
864.967915,-814.226536,-9104.533087,-766.095498
864.968239,2590.720797,-9918.759623,383.047749
864.968563,3923.091493,-10140.821405,306.438199
864.968887,2516.700203,-9696.697840,-612.876398
864.969211,-296.082377,-9030.512492,-1532.190996
864.969536,-370.102971,-9400.615463,-1302.362347
864.969860,1258.350101,-9844.739029,-1225.752797
864.970184,1702.473667,-10140.821405,-1302.362347
864.970508,444.123565,-9992.780217,-1608.800546
864.970833,148.041188,-9400.615463,-1302.362347
864.971157,1332.370696,-9326.594869,-229.828649
864.971481,2442.679609,-9992.780217,842.705048
864.971805,1184.329507,-10362.883188,-306.438199
864.972129,-1332.370696,-10066.800811,-919.314598
864.972454,-2072.576638,-9992.780217,0.000000
864.972778,-518.144159,-10140.821405,689.485948
864.973102,1036.288319,-10584.944971,229.828649
864.973426,-888.247130,-9918.759623,-383.047749
864.973750,-3034.844362,-9474.636058,-1225.752797
864.974075,-1924.535449,-9252.574275,-153.219100
864.974399,666.185348,-9696.697840,306.438199
864.974723,1332.370696,-9844.739029,-153.219100
864.975047,-740.205942,-9252.574275,-995.924147
864.975371,-2664.741391,-8808.450710,-1225.752797
864.975696,-1628.453072,-9104.533087,-766.095498
864.976020,-148.041188,-9474.636058,-689.485948
864.976344,-444.123565,-8660.409521,-1225.752797
864.976668,-1332.370696,-8734.430116,-1149.143247
864.976992,-1110.308913,-8734.430116,-995.924147
864.977317,666.185348,-8956.491898,229.828649
864.977641,2072.576638,-9400.615463,766.095498
864.977965,1036.288319,-9770.718434,383.047749
864.978289,-296.082377,-9474.636058,306.438199
864.978613,-962.267725,-9030.512492,689.485948
864.978938,740.205942,-9326.594869,919.314598
864.979262,1036.288319,-10140.821405,919.314598
864.979586,-666.185348,-10288.862594,-536.266849
864.979910,-2220.617826,-9696.697840,-842.705048
864.980234,-1036.288319,-9548.656652,-153.219100
864.980559,740.205942,-9770.718434,612.876398
864.980883,1998.556043,-10658.965565,536.266849
864.981207,0.000000,-10066.800811,-842.705048
864.981531,-2072.576638,-9992.780217,-842.705048
864.981855,-1702.473667,-10288.862594,-153.219100
864.982180,148.041188,-10807.006753,229.828649
864.982504,666.185348,-10584.944971,0.000000
864.982828,-370.102971,-9918.759623,-383.047749
864.983152,74.020594,-10066.800811,306.438199
864.983476,1406.391290,-10140.821405,1149.143247
864.983801,3108.864956,-10362.883188,1685.410096
864.984125,2738.761985,-9770.718434,306.438199
864.984449,74.020594,-8956.491898,76.609550
864.984773,-370.102971,-9178.553681,306.438199
864.985098,222.061783,-9548.656652,842.705048
864.985422,1480.411884,-10066.800811,842.705048
864.985746,0.000000,-9400.615463,459.657299
864.986070,-1850.514855,-8586.388927,-612.876398
864.986394,-1480.411884,-8586.388927,459.657299
864.986719,814.226536,-9252.574275,766.095498
864.987043,1924.535449,-9992.780217,766.095498
864.987367,148.041188,-9918.759623,0.000000
864.987691,-2072.576638,-9030.512492,459.657299
864.988015,-1850.514855,-9400.615463,229.828649
864.988340,-592.164754,-9474.636058,766.095498
864.988664,148.041188,-10288.862594,306.438199
864.988988,-1480.411884,-10140.821405,-689.485948
864.989312,-1998.556043,-9474.636058,76.609550
864.989636,-518.144159,-9770.718434,1072.533697
864.989961,1110.308913,-10436.903782,1072.533697
864.990285,962.267725,-9918.759623,459.657299
864.990609,-962.267725,-9326.594869,229.828649
864.990933,-1628.453072,-8956.491898,76.609550
864.991257,-592.164754,-9770.718434,919.314598
864.991582,296.082377,-9696.697840,689.485948
864.991906,-222.061783,-9252.574275,0.000000
864.992230,-1554.432478,-8808.450710,-536.266849
864.992554,-1184.329507,-8660.409521,76.609550
864.992878,1554.432478,-9844.739029,383.047749
864.993203,2368.659014,-10214.842000,229.828649
864.993527,296.082377,-9474.636058,-1149.143247
864.993851,-1776.494261,-9252.574275,-842.705048
864.994175,-1184.329507,-9326.594869,-536.266849
864.994499,444.123565,-9992.780217,-153.219100
864.994824,666.185348,-10436.903782,-153.219100
864.995148,-666.185348,-9622.677246,-919.314598
864.995472,-444.123565,-9548.656652,0.000000
864.995796,1554.432478,-9918.759623,689.485948
864.996120,2516.700203,-10214.842000,536.266849
864.996445,1776.494261,-10214.842000,-306.438199
864.996769,-296.082377,-9992.780217,-612.876398
864.997093,-814.226536,-9770.718434,-842.705048
864.997417,444.123565,-9770.718434,-612.876398
864.997741,1110.308913,-9992.780217,0.000000
864.998066,370.102971,-10140.821405,-766.095498
864.998390,-962.267725,-9844.739029,-1225.752797
864.998714,-740.205942,-9474.636058,-306.438199
864.999038,1776.494261,-9474.636058,153.219100
864.999362,2368.659014,-9918.759623,-306.438199
864.999687,1258.350101,-9622.677246,-689.485948
865.000011,-296.082377,-8882.471304,459.657299
865.000335,222.061783,-9548.656652,536.266849
865.000659,1554.432478,-9622.677246,1225.752797
865.000984,1258.350101,-10214.842000,0.000000
865.001308,-592.164754,-9326.594869,-995.924147
865.001632,-1332.370696,-9030.512492,-612.876398
865.001956,0.000000,-9918.759623,0.000000
865.002280,888.247130,-10658.965565,-153.219100
865.002605,74.020594,-10214.842000,-689.485948
865.002929,-1998.556043,-9400.615463,-1455.581446
865.003253,-2146.597232,-9030.512492,-842.705048
865.003577,-370.102971,-9104.533087,-536.266849
865.003901,814.226536,-9622.677246,-306.438199
865.004226,-592.164754,-9770.718434,-766.095498
865.004550,-1850.514855,-9326.594869,-536.266849
865.004874,-962.267725,-9252.574275,383.047749
865.005198,1258.350101,-10066.800811,995.924147
865.005522,2516.700203,-10658.965565,536.266849
865.005847,592.164754,-9770.718434,0.000000
865.006171,-1332.370696,-9252.574275,-612.876398
865.006495,-1184.329507,-9992.780217,153.219100
865.006819,74.020594,-10214.842000,76.609550
865.007143,296.082377,-10584.944971,-459.657299
865.007468,-888.247130,-9844.739029,-1302.362347
865.007792,-1406.391290,-9104.533087,-1072.533697
865.008116,0.000000,-8956.491898,0.000000
865.008440,1110.308913,-9474.636058,0.000000
865.008764,740.205942,-9992.780217,-842.705048
865.009089,-1184.329507,-9548.656652,-766.095498
865.009413,-1554.432478,-9400.615463,76.609550
865.009737,0.000000,-9918.759623,919.314598
865.010061,962.267725,-10436.903782,842.705048
865.010385,-296.082377,-10510.924376,536.266849
865.010710,-1998.556043,-9474.636058,-383.047749
865.011034,-1554.432478,-9252.574275,1455.581446
865.011358,888.247130,-9918.759623,1302.362347
865.011682,1480.411884,-9918.759623,766.095498
865.012006,74.020594,-9178.553681,-153.219100
865.012331,-1184.329507,-8586.388927,-383.047749
865.012655,-1110.308913,-9030.512492,306.438199
865.012979,592.164754,-9770.718434,612.876398
865.013303,222.061783,-9104.533087,306.438199
865.013627,-518.144159,-8734.430116,-153.219100
865.013952,-888.247130,-8734.430116,-459.657299
865.014276,740.205942,-9474.636058,995.924147
865.014600,1850.514855,-10214.842000,1378.971896
865.014924,1332.370696,-10066.800811,842.705048
865.015248,-444.123565,-9252.574275,536.266849
865.015573,-1850.514855,-9030.512492,536.266849
865.015897,-444.123565,-9252.574275,919.314598
865.016221,148.041188,-9844.739029,153.219100
865.016545,-1110.308913,-10066.800811,0.000000
865.016870,-2072.576638,-9178.553681,76.609550
865.017194,-740.205942,-9104.533087,995.924147
865.017518,1406.391290,-9178.553681,995.924147
865.017842,1776.494261,-9918.759623,306.438199
865.018166,370.102971,-10140.821405,-153.219100
865.018491,-1702.473667,-10362.883188,0.000000
865.018815,-1184.329507,-10066.800811,76.609550
865.019139,74.020594,-9918.759623,383.047749
865.019463,518.144159,-9992.780217,-229.828649
865.019787,-592.164754,-10362.883188,-842.705048
865.020112,-888.247130,-9918.759623,-383.047749
865.020436,1036.288319,-9844.739029,995.924147
865.020760,1776.494261,-9844.739029,1225.752797
865.021084,888.247130,-10140.821405,306.438199
865.021408,-1406.391290,-9622.677246,-536.266849
865.021733,-1850.514855,-9400.615463,0.000000
865.022057,-222.061783,-10066.800811,536.266849
865.022381,740.205942,-10288.862594,919.314598
865.022705,-222.061783,-9474.636058,-229.828649
865.023029,-888.247130,-8438.347739,0.000000
865.023354,-222.061783,-8808.450710,459.657299
865.023678,2368.659014,-9474.636058,0.000000
865.024002,2368.659014,-9548.656652,-229.828649
865.024326,74.020594,-8956.491898,-919.314598
865.024650,-1184.329507,-8660.409521,-919.314598
865.024975,222.061783,-9030.512492,-536.266849
865.025299,1332.370696,-9548.656652,-153.219100
865.025623,518.144159,-9918.759623,-842.705048
865.025947,-1110.308913,-9474.636058,-1225.752797
865.026271,-1258.350101,-9030.512492,-612.876398
865.026596,296.082377,-9474.636058,153.219100
865.026920,1628.453072,-10066.800811,229.828649
865.027244,1110.308913,-9770.718434,0.000000
865.027568,-444.123565,-9252.574275,-689.485948
865.027892,-518.144159,-9474.636058,0.000000
865.028217,814.226536,-9770.718434,0.000000
865.028541,1036.288319,-10066.800811,-383.047749
865.028865,-592.164754,-9844.739029,-1302.362347
865.029189,-1702.473667,-9548.656652,-1455.581446
865.029513,-444.123565,-9844.739029,-766.095498
865.029838,1480.411884,-9844.739029,-536.266849
865.030162,1776.494261,-10436.903782,-919.314598
865.030486,-370.102971,-10214.842000,-1072.533697
865.030810,-1554.432478,-9844.739029,-1455.581446
865.031135,-518.144159,-9918.759623,-766.095498
865.031459,666.185348,-9918.759623,-612.876398
865.031783,148.041188,-10362.883188,-1225.752797
865.032107,-814.226536,-10214.842000,-689.485948
865.032431,-814.226536,-10140.821405,-612.876398
865.032756,888.247130,-10288.862594,995.924147
865.033080,1998.556043,-10140.821405,689.485948
865.033404,666.185348,-10214.842000,-306.438199
865.033728,-1110.308913,-10362.883188,-383.047749
865.034052,-1036.288319,-10066.800811,0.000000
865.034376,592.164754,-10066.800811,689.485948
865.034701,888.247130,-10140.821405,153.219100
865.035025,-592.164754,-9992.780217,-229.828649
865.035349,-2368.659014,-9622.677246,-1225.752797
865.035673,-1184.329507,-9548.656652,0.000000
865.035997,592.164754,-9770.718434,306.438199
865.036321,1036.288319,-10066.800811,-153.219100
865.036645,-814.226536,-10066.800811,-612.876398
865.036969,-2368.659014,-9030.512492,0.000000
865.037294,-1332.370696,-9252.574275,919.314598
865.037618,592.164754,-9992.780217,766.095498
865.037942,296.082377,-9696.697840,766.095498
865.038266,-518.144159,-9474.636058,536.266849
865.038590,0.000000,-8438.347739,1378.971896
865.038914,1406.391290,-8956.491898,2068.457845
865.039238,2294.638420,-9622.677246,1532.190996
865.039562,222.061783,-9474.636058,919.314598
865.039886,-1850.514855,-8438.347739,0.000000
865.040211,-1406.391290,-7846.182985,612.876398
865.040535,-296.082377,-8216.285956,995.924147
865.040859,0.000000,-9252.574275,0.000000
865.041183,-1332.370696,-9474.636058,-306.438199
865.041507,-1850.514855,-8808.450710,-459.657299
865.041831,296.082377,-8142.265362,383.047749
865.042155,2368.659014,-8068.244768,842.705048
865.042479,2220.617826,-8660.409521,919.314598
865.042804,74.020594,-9326.594869,0.000000
865.043128,-962.267725,-9252.574275,612.876398
865.043452,0.000000,-9622.677246,1762.019645
865.043776,1184.329507,-10066.800811,1685.410096
865.044100,592.164754,-9918.759623,689.485948
865.044424,-666.185348,-9474.636058,383.047749
865.044748,-814.226536,-9400.615463,459.657299
865.045072,518.144159,-9548.656652,1149.143247
865.045396,814.226536,-10584.944971,383.047749
865.045721,-592.164754,-10214.842000,-612.876398
865.046045,-2220.617826,-9178.553681,-919.314598
865.046369,-1554.432478,-9252.574275,-1072.533697
865.046693,0.000000,-9918.759623,-612.876398
865.047017,592.164754,-10732.986159,-229.828649
865.047341,-740.205942,-10436.903782,-919.314598
865.047665,-1480.411884,-10214.842000,-919.314598
865.047989,0.000000,-9770.718434,0.000000
865.048314,2294.638420,-10584.944971,383.047749
865.048638,2220.617826,-11325.150913,-612.876398
865.048962,0.000000,-10955.047942,-919.314598
865.049286,-1554.432478,-9622.677246,0.000000
865.049610,-518.144159,-9992.780217,0.000000
865.049934,814.226536,-11029.068536,76.609550
865.050258,148.041188,-10584.944971,-919.314598
865.050582,-1110.308913,-9844.739029,-1378.971896
865.050907,-1480.411884,-9252.574275,-842.705048
865.051231,74.020594,-9696.697840,0.000000
865.051555,1036.288319,-10510.924376,0.000000
865.051879,148.041188,-9992.780217,-766.095498
865.052203,-1036.288319,-9178.553681,-995.924147
865.052527,-1554.432478,-8734.430116,-612.876398
865.052851,74.020594,-9030.512492,-229.828649
865.053175,666.185348,-9770.718434,-459.657299
865.053499,-518.144159,-9474.636058,-383.047749
865.053824,-1406.391290,-8734.430116,-306.438199
865.054148,-148.041188,-8512.368333,76.609550
865.054472,1776.494261,-8734.430116,612.876398
865.054796,1702.473667,-9400.615463,-229.828649
865.055120,0.000000,-9178.553681,-612.876398
865.055444,-1406.391290,-8068.244768,-612.876398
865.055768,-296.082377,-8290.306550,383.047749
865.056092,1184.329507,-9400.615463,229.828649
865.056417,1036.288319,-9326.594869,-153.219100
865.056741,222.061783,-8660.409521,-153.219100
865.057065,740.205942,-8586.388927,459.657299
865.057389,2368.659014,-9474.636058,842.705048
865.057713,2442.679609,-10288.862594,536.266849
865.058037,1110.308913,-10140.821405,229.828649
865.058361,-740.205942,-9770.718434,-229.828649
865.058685,-1184.329507,-9622.677246,0.000000
865.059009,-222.061783,-10288.862594,76.609550
865.059334,148.041188,-10881.027347,0.000000
865.059658,-370.102971,-10288.862594,-229.828649
865.059982,-1554.432478,-9326.594869,0.000000
865.060306,222.061783,-9252.574275,612.876398
865.060630,1702.473667,-9992.780217,459.657299
865.060954,1628.453072,-10288.862594,-306.438199
865.061278,148.041188,-9548.656652,0.000000
865.061602,-888.247130,-9474.636058,-459.657299
865.061927,-370.102971,-9918.759623,-229.828649
865.062251,814.226536,-10658.965565,459.657299
865.062575,222.061783,-11177.109724,76.609550
865.062899,-592.164754,-10658.965565,-766.095498
865.063223,-1776.494261,-9770.718434,76.609550
865.063547,-296.082377,-10140.821405,536.266849
865.063871,740.205942,-10881.027347,306.438199
865.064195,0.000000,-10288.862594,-383.047749
865.064519,-1702.473667,-9622.677246,0.000000
865.064844,-1628.453072,-9474.636058,919.314598
865.065168,-888.247130,-9326.594869,1225.752797
865.065492,-148.041188,-9770.718434,459.657299
865.065816,-1110.308913,-9474.636058,-306.438199
865.066140,-1998.556043,-8956.491898,0.000000
865.066464,-518.144159,-9400.615463,766.095498
865.066788,1406.391290,-9918.759623,1072.533697
865.067112,1406.391290,-9548.656652,536.266849
865.067437,-666.185348,-8586.388927,-919.314598
865.067761,-2146.597232,-8290.306550,-612.876398
865.068085,-962.267725,-9252.574275,153.219100
865.068409,444.123565,-9992.780217,153.219100
865.068733,148.041188,-9400.615463,-153.219100
865.069057,-888.247130,-8216.285956,-229.828649
865.069381,-518.144159,-7994.224174,459.657299
865.069705,1036.288319,-8734.430116,919.314598
865.070029,2072.576638,-9622.677246,1378.971896
865.070354,1184.329507,-9474.636058,612.876398
865.070678,-296.082377,-8882.471304,76.609550
865.071002,0.000000,-8808.450710,842.705048
865.071326,370.102971,-9770.718434,842.705048
865.071650,296.082377,-10436.903782,0.000000
865.071974,-518.144159,-9844.739029,-536.266849
865.072298,-1258.350101,-8882.471304,-306.438199
865.072622,222.061783,-8438.347739,0.000000
865.072947,2072.576638,-9326.594869,76.609550
865.073271,1628.453072,-9992.780217,-229.828649
865.073595,-370.102971,-10066.800811,-1225.752797
865.073919,-1924.535449,-9918.759623,-1378.971896
865.074243,-1406.391290,-9252.574275,-766.095498
865.074567,-370.102971,-9992.780217,-536.266849
865.074891,0.000000,-10658.965565,-1378.971896
865.075215,-1110.308913,-10066.800811,-1225.752797
865.075540,-592.164754,-9992.780217,-459.657299
865.075864,1110.308913,-10807.006753,76.609550
865.076188,1998.556043,-11621.233289,229.828649
865.076512,1110.308913,-10658.965565,0.000000
865.076836,0.000000,-9474.636058,-383.047749
865.077160,-740.205942,-9844.739029,0.000000
865.077484,296.082377,-11029.068536,153.219100
865.077808,444.123565,-11399.171507,-153.219100
865.078132,-962.267725,-10066.800811,-919.314598
865.078457,-1850.514855,-8808.450710,-1225.752797
865.078781,-444.123565,-9400.615463,-459.657299
865.079105,1924.535449,-10288.862594,-153.219100
865.079429,814.226536,-9844.739029,-842.705048
865.079753,-1332.370696,-9178.553681,-1378.971896
865.080077,-2738.761985,-8734.430116,-1378.971896
865.080401,-1924.535449,-9474.636058,-459.657299
865.080725,0.000000,-10066.800811,-229.828649
865.081050,222.061783,-9844.739029,-689.485948
865.081374,-888.247130,-9474.636058,-842.705048
865.081698,-1036.288319,-9104.533087,842.705048
865.082022,444.123565,-9548.656652,1302.362347
865.082346,2072.576638,-10362.883188,1762.019645
865.082670,1406.391290,-9474.636058,919.314598
865.082994,-444.123565,-8438.347739,459.657299
865.083318,-814.226536,-9030.512492,842.705048
865.083642,518.144159,-9844.739029,689.485948
865.083967,444.123565,-9474.636058,76.609550
865.084291,-814.226536,-8364.327145,-306.438199
865.084615,-1554.432478,-7550.100608,-459.657299
865.084939,-148.041188,-7698.141797,-229.828649
865.085263,1850.514855,-8882.471304,459.657299
865.085587,1258.350101,-8882.471304,-383.047749
865.085911,-962.267725,-8512.368333,-689.485948
865.086235,-1628.453072,-8364.327145,-612.876398
865.086560,-148.041188,-8882.471304,383.047749
865.086884,1258.350101,-9770.718434,1072.533697
865.087208,1628.453072,-9696.697840,383.047749
865.087532,148.041188,-9696.697840,-383.047749
865.087856,444.123565,-9622.677246,536.266849
865.088180,1850.514855,-10362.883188,1225.752797
865.088504,2368.659014,-11103.089130,1225.752797
865.088828,1110.308913,-11029.068536,536.266849
865.089152,-962.267725,-10288.862594,229.828649
865.089477,-1258.350101,-9918.759623,536.266849
865.089801,-444.123565,-10510.924376,0.000000
865.090125,-962.267725,-10436.903782,-536.266849
865.090449,-1702.473667,-10362.883188,-995.924147
865.090773,-2146.597232,-9770.718434,-1072.533697
865.091097,-444.123565,-9918.759623,-229.828649
865.091421,2368.659014,-9918.759623,0.000000
865.091745,1628.453072,-10140.821405,-1225.752797
865.092070,-518.144159,-9696.697840,-1378.971896
865.092394,-1332.370696,-9178.553681,-1072.533697
865.092718,148.041188,-10214.842000,0.000000
865.093042,1554.432478,-10584.944971,-153.219100
865.093366,1258.350101,-10881.027347,-229.828649
865.093690,0.000000,-10214.842000,0.000000
865.094014,444.123565,-9474.636058,689.485948
865.094338,1924.535449,-10288.862594,153.219100
865.094662,1924.535449,-10214.842000,766.095498
865.094987,370.102971,-10436.903782,-536.266849
865.095311,-1332.370696,-9548.656652,-306.438199
865.095635,-1332.370696,-9252.574275,0.000000
865.095959,0.000000,-9770.718434,0.000000
865.096283,0.000000,-9622.677246,-689.485948
865.096607,-1998.556043,-9918.759623,-1072.533697
865.096931,-2738.761985,-8734.430116,-153.219100
865.097255,-740.205942,-9104.533087,383.047749
865.097580,814.226536,-9474.636058,0.000000
865.097904,444.123565,-9252.574275,-689.485948
865.098228,-1184.329507,-8734.430116,-919.314598
865.098552,-1850.514855,-8734.430116,-842.705048
865.098876,-148.041188,-9548.656652,612.876398
865.099200,518.144159,-9252.574275,0.000000
865.099524,888.247130,-9104.533087,229.828649
865.099848,-222.061783,-8512.368333,-612.876398
865.100173,296.082377,-8512.368333,383.047749
865.100497,1776.494261,-9326.594869,1302.362347
865.100821,2146.597232,-9992.780217,1072.533697
865.101145,740.205942,-9474.636058,-383.047749
865.101469,-1036.288319,-8808.450710,-459.657299
865.101793,-592.164754,-8956.491898,459.657299
865.102117,222.061783,-9918.759623,0.000000
865.102441,-444.123565,-10881.027347,0.000000
865.102765,-1776.494261,-10362.883188,-766.095498
865.103090,-2220.617826,-9622.677246,-689.485948
865.103414,-740.205942,-9696.697840,76.609550
865.103738,1036.288319,-10288.862594,0.000000
865.104062,444.123565,-10732.986159,-842.705048
865.104386,-888.247130,-10807.006753,-229.828649
865.104710,-1480.411884,-10436.903782,-306.438199
865.105034,222.061783,-10732.986159,383.047749
865.105358,1480.411884,-10955.047942,153.219100
865.105683,592.164754,-10584.944971,-306.438199
865.106007,-592.164754,-9918.759623,-689.485948
865.106331,222.061783,-9918.759623,459.657299
865.106655,1850.514855,-10214.842000,1149.143247
865.106979,2368.659014,-10066.800811,536.266849
865.107303,222.061783,-9696.697840,-536.266849
865.107627,-1554.432478,-8808.450710,-229.828649
865.107951,-962.267725,-9178.553681,229.828649
865.108275,296.082377,-10214.842000,76.609550
865.108600,-296.082377,-9474.636058,-153.219100
865.108924,-1554.432478,-8808.450710,0.000000
865.109248,-1332.370696,-8142.265362,0.000000
865.109572,518.144159,-9178.553681,919.314598
865.109896,2294.638420,-9548.656652,689.485948
865.110220,1406.391290,-9622.677246,0.000000
865.110544,-592.164754,-9400.615463,-459.657299
865.110868,-1332.370696,-9326.594869,-459.657299
865.111193,296.082377,-9770.718434,536.266849
865.111517,1702.473667,-10436.903782,612.876398
865.111841,740.205942,-9992.780217,0.000000
865.112165,-962.267725,-9622.677246,0.000000
865.112489,-666.185348,-9400.615463,306.438199
865.112813,962.267725,-9844.739029,766.095498
865.113137,1332.370696,-9992.780217,766.095498
865.113461,-370.102971,-9548.656652,-229.828649
865.113785,-1628.453072,-8586.388927,-612.876398
865.114110,-1110.308913,-8364.327145,612.876398
865.114434,0.000000,-9326.594869,842.705048
865.114758,-370.102971,-9474.636058,229.828649
865.115082,-1924.535449,-8438.347739,-229.828649
865.115406,-1850.514855,-7846.182985,229.828649
865.115730,444.123565,-8512.368333,1149.143247
865.116054,1702.473667,-9474.636058,766.095498
865.116378,1776.494261,-9474.636058,229.828649
865.116703,-296.082377,-9548.656652,-153.219100
865.117027,-1332.370696,-9252.574275,-306.438199
865.117351,-518.144159,-9474.636058,0.000000
865.117675,74.020594,-10066.800811,0.000000
865.117999,-518.144159,-10288.862594,-612.876398
865.118323,-1258.350101,-9844.739029,-689.485948
865.118647,-1480.411884,-9622.677246,-383.047749
865.118971,444.123565,-9992.780217,842.705048
865.119295,1184.329507,-10955.047942,0.000000
865.119620,0.000000,-10658.965565,-383.047749
865.119944,-1554.432478,-9992.780217,-306.438199
865.120268,-1110.308913,-10066.800811,76.609550
865.120592,296.082377,-10436.903782,0.000000
865.120916,296.082377,-10658.965565,-306.438199
865.121240,-444.123565,-10066.800811,-229.828649
865.121564,-666.185348,-9548.656652,-229.828649
865.121888,1258.350101,-9622.677246,383.047749
865.122213,2886.803174,-9770.718434,-229.828649
865.122537,2072.576638,-9696.697840,-995.924147
865.122861,148.041188,-9548.656652,-1225.752797
865.123185,-370.102971,-10288.862594,-1149.143247
865.123509,444.123565,-10362.883188,-1072.533697
865.123833,1332.370696,-9548.656652,-842.705048
865.124157,222.061783,-9474.636058,-2298.286494
865.124481,-666.185348,-9770.718434,-1838.629195
865.124806,148.041188,-9844.739029,-766.095498
865.125130,2220.617826,-10584.944971,306.438199
865.125454,2738.761985,-11177.109724,229.828649
865.125778,1036.288319,-9844.739029,-229.828649
865.126102,-962.267725,-9178.553681,0.000000
865.126426,-740.205942,-9992.780217,229.828649
865.126750,296.082377,-10658.965565,153.219100
865.127074,0.000000,-10214.842000,-229.828649
865.127398,-1554.432478,-9474.636058,-842.705048
865.127723,-1258.350101,-9030.512492,-766.095498
865.128047,74.020594,-9178.553681,-536.266849
865.128371,1332.370696,-8882.471304,-229.828649
865.128695,444.123565,-9326.594869,-995.924147
865.129019,-1480.411884,-8734.430116,-1608.800546
865.129343,-2072.576638,-8512.368333,-995.924147
865.129667,-370.102971,-8586.388927,-229.828649
865.129991,814.226536,-9326.594869,-229.828649
865.130316,370.102971,-9030.512492,-383.047749
865.130640,-1184.329507,-8438.347739,-1225.752797
865.130964,-962.267725,-8438.347739,612.876398
865.131288,296.082377,-9400.615463,689.485948
865.131612,666.185348,-10288.862594,229.828649
865.131936,-444.123565,-9622.677246,0.000000
865.132260,-1480.411884,-8956.491898,0.000000
865.132584,-1184.329507,-9030.512492,383.047749
865.132908,-296.082377,-9918.759623,612.876398
865.133233,0.000000,-10658.965565,0.000000
865.133557,-592.164754,-10066.800811,-229.828649
865.133881,-296.082377,-9992.780217,536.266849
865.134205,1184.329507,-10214.842000,766.095498
865.134529,2294.638420,-10436.903782,766.095498
865.134853,1036.288319,-10732.986159,0.000000
865.135177,-962.267725,-10288.862594,-459.657299
865.135502,-1332.370696,-9548.656652,-229.828649
865.135826,-444.123565,-9622.677246,0.000000
865.136150,518.144159,-10584.944971,0.000000
865.136474,-592.164754,-9844.739029,-842.705048
865.136798,-1850.514855,-9178.553681,-1072.533697
865.137122,-1480.411884,-9326.594869,0.000000
865.137447,222.061783,-9844.739029,459.657299
865.137771,1184.329507,-10288.862594,689.485948
865.138095,296.082377,-9474.636058,153.219100
865.138419,-518.144159,-9178.553681,383.047749
865.138743,0.000000,-9474.636058,766.095498
865.139068,1110.308913,-10436.903782,1072.533697
865.139392,962.267725,-10732.986159,306.438199
865.139716,-148.041188,-9622.677246,383.047749
865.140040,-296.082377,-8956.491898,536.266849
865.140364,1036.288319,-9548.656652,919.314598
865.140688,1998.556043,-10362.883188,459.657299
865.141013,222.061783,-9992.780217,-995.924147
865.141337,-1850.514855,-9622.677246,-689.485948
865.141661,-2146.597232,-9622.677246,0.000000
865.141985,-666.185348,-9992.780217,612.876398
865.142309,74.020594,-10066.800811,766.095498
865.142633,-370.102971,-9178.553681,-536.266849
865.142958,-1332.370696,-8882.471304,-383.047749
865.143282,-888.247130,-8142.265362,689.485948
865.143606,370.102971,-9326.594869,1302.362347
865.143930,1332.370696,-9548.656652,919.314598
865.144254,296.082377,-8438.347739,153.219100
865.144579,-962.267725,-7698.141797,0.000000
865.144903,-592.164754,-8660.409521,689.485948
865.145227,370.102971,-9770.718434,612.876398
865.145551,-148.041188,-10140.821405,459.657299
865.145875,-666.185348,-9400.615463,-383.047749
865.146199,-740.205942,-8808.450710,0.000000
865.146524,592.164754,-8956.491898,536.266849
865.146848,1480.411884,-9696.697840,0.000000
865.147172,962.267725,-10140.821405,-383.047749
865.147496,-518.144159,-9326.594869,0.000000
865.147820,-370.102971,-9622.677246,383.047749
865.148144,666.185348,-9252.574275,689.485948
865.148469,740.205942,-9548.656652,-153.219100
865.148793,-592.164754,-9474.636058,-995.924147
865.149117,-1776.494261,-9474.636058,-842.705048
865.149441,-592.164754,-9696.697840,689.485948
865.149765,1850.514855,-10436.903782,689.485948
865.150090,2072.576638,-9474.636058,-306.438199
865.150414,814.226536,-9400.615463,-612.876398
865.150738,-296.082377,-9252.574275,-1838.629195
865.151062,-518.144159,-9918.759623,-536.266849
865.151386,518.144159,-10584.944971,-766.095498
865.151710,74.020594,-10881.027347,-995.924147
865.152035,-814.226536,-10584.944971,-842.705048
865.152359,-222.061783,-10214.842000,-383.047749
865.152683,1036.288319,-10362.883188,-766.095498
865.153007,1924.535449,-10658.965565,-306.438199
865.153331,740.205942,-10807.006753,-1302.362347
865.153655,-740.205942,-10066.800811,-1149.143247
865.153980,-814.226536,-10140.821405,-306.438199
865.154304,370.102971,-10658.965565,0.000000
865.154628,666.185348,-10362.883188,-536.266849
865.154952,-666.185348,-9770.718434,-919.314598
865.155276,-1924.535449,-8808.450710,-1455.581446
865.155600,-814.226536,-9104.533087,-766.095498
865.155925,740.205942,-10362.883188,-153.219100
865.156249,888.247130,-10362.883188,-766.095498
865.156573,-370.102971,-9104.533087,-1532.190996
865.156897,-1702.473667,-8512.368333,-1225.752797
865.157221,-888.247130,-9178.553681,-536.266849
865.157546,666.185348,-9622.677246,-306.438199
865.157870,518.144159,-9844.739029,0.000000
865.158194,-518.144159,-9474.636058,-689.485948
865.158518,-962.267725,-9252.574275,76.609550
865.158842,370.102971,-9474.636058,689.485948
865.159166,1480.411884,-10140.821405,1072.533697
865.159491,518.144159,-9992.780217,0.000000
865.159815,-1628.453072,-8586.388927,76.609550
865.160139,-1850.514855,-8956.491898,229.828649
865.160463,-740.205942,-9400.615463,0.000000
865.160787,-296.082377,-9474.636058,-306.438199
865.161111,-1184.329507,-9030.512492,-1302.362347
865.161436,-2294.638420,-8808.450710,-1225.752797
865.161760,-1554.432478,-8956.491898,-766.095498
865.162084,0.000000,-9696.697840,0.000000
865.162408,1184.329507,-10140.821405,0.000000
865.162732,-296.082377,-9400.615463,0.000000
865.163057,-1036.288319,-9104.533087,0.000000
865.163381,-148.041188,-9474.636058,459.657299
865.163705,1184.329507,-9918.759623,689.485948
865.164029,1332.370696,-10510.924376,383.047749
865.164353,0.000000,-10066.800811,612.876398
865.164677,0.000000,-9474.636058,1072.533697
865.165002,1184.329507,-9622.677246,1302.362347
865.165326,2294.638420,-10140.821405,459.657299
865.165650,1110.308913,-10214.842000,-306.438199
865.165974,-592.164754,-10362.883188,-229.828649
865.166298,-370.102971,-10362.883188,229.828649
865.166622,666.185348,-9770.718434,-153.219100
865.166947,444.123565,-10066.800811,76.609550
865.167271,-1332.370696,-10510.924376,-153.219100
865.167595,-1702.473667,-9918.759623,-766.095498
865.167919,-296.082377,-9844.739029,842.705048
865.168243,2072.576638,-10214.842000,1608.800546
865.168568,2812.782580,-10510.924376,919.314598
865.168892,592.164754,-10066.800811,612.876398
865.169216,-962.267725,-9326.594869,383.047749
865.169540,-148.041188,-10214.842000,1455.581446
865.169864,370.102971,-9992.780217,612.876398
865.170188,-888.247130,-9770.718434,0.000000
865.170513,-2146.597232,-9474.636058,612.876398
865.170837,-962.267725,-8808.450710,919.314598
865.171161,888.247130,-9104.533087,919.314598
865.171485,1258.350101,-9400.615463,0.000000
865.171809,-148.041188,-8364.327145,-306.438199
865.172133,-1036.288319,-9030.512492,0.000000
865.172458,-814.226536,-8808.450710,459.657299
865.172782,592.164754,-8586.388927,842.705048
865.173106,370.102971,-9252.574275,229.828649
865.173430,-1332.370696,-9548.656652,-612.876398
865.173754,-1776.494261,-9178.553681,76.609550
865.174079,0.000000,-9474.636058,766.095498
865.174403,1332.370696,-9770.718434,1225.752797
865.174727,1258.350101,-9770.718434,306.438199
865.175051,-1184.329507,-9474.636058,-842.705048
865.175375,-2368.659014,-9696.697840,0.000000
865.175699,-1702.473667,-9844.739029,229.828649
865.176024,-444.123565,-10362.883188,0.000000
865.176348,-370.102971,-10066.800811,0.000000
865.176672,-1110.308913,-8882.471304,-536.266849
865.176996,-888.247130,-8586.388927,0.000000
865.177320,370.102971,-9622.677246,0.000000
865.177644,1184.329507,-10732.986159,-153.219100
865.177969,74.020594,-10436.903782,-459.657299
865.178293,-962.267725,-9918.759623,-459.657299
865.178617,-592.164754,-9474.636058,-229.828649
865.178941,518.144159,-9474.636058,-689.485948
865.179265,444.123565,-10066.800811,-1072.533697
865.179590,0.000000,-9844.739029,-766.095498
865.179914,-296.082377,-9474.636058,-766.095498
865.180238,1258.350101,-9400.615463,459.657299
865.180562,2590.720797,-9474.636058,229.828649
865.180886,2072.576638,-9918.759623,-612.876398
865.181210,222.061783,-9400.615463,-1378.971896
865.181535,-666.185348,-9844.739029,-1378.971896
865.181859,444.123565,-9696.697840,153.219100
865.182183,1110.308913,-10140.821405,0.000000
865.182507,814.226536,-10362.883188,-612.876398
865.182831,-222.061783,-9622.677246,-919.314598
865.183155,0.000000,-9474.636058,-459.657299
865.183480,666.185348,-9918.759623,-383.047749
865.183804,1184.329507,-10288.862594,-1149.143247
865.184128,370.102971,-9992.780217,-995.924147
865.184452,-296.082377,-9326.594869,-1072.533697
865.184776,222.061783,-9178.553681,-229.828649
865.185101,888.247130,-9770.718434,76.609550
865.185425,74.020594,-10658.965565,-383.047749
865.185749,-1850.514855,-10214.842000,-1149.143247
865.186073,-1554.432478,-9178.553681,-229.828649
865.186397,370.102971,-9548.656652,459.657299
865.186721,2368.659014,-10584.944971,842.705048
865.187046,1702.473667,-10214.842000,229.828649
865.187370,-444.123565,-9548.656652,-459.657299
865.187694,-1628.453072,-8734.430116,-536.266849
865.188018,-962.267725,-8438.347739,-153.219100
865.188342,814.226536,-9474.636058,-153.219100
865.188666,74.020594,-9474.636058,-995.924147
865.188991,-1480.411884,-8882.471304,-919.314598
865.189315,-1406.391290,-9030.512492,-612.876398
865.189639,0.000000,-9696.697840,0.000000
865.189963,1036.288319,-9992.780217,0.000000
865.190287,222.061783,-9474.636058,0.000000
865.190611,-1702.473667,-9326.594869,-612.876398
865.190936,-2368.659014,-9844.739029,-536.266849
865.191260,-1702.473667,-10584.944971,0.000000
865.191584,-888.247130,-10584.944971,0.000000
865.191908,-1110.308913,-9992.780217,-1225.752797
865.192232,-1184.329507,-9400.615463,0.000000
865.192557,148.041188,-9474.636058,76.609550
865.192881,1110.308913,-10214.842000,919.314598
865.193205,666.185348,-10436.903782,-306.438199
865.193529,-1332.370696,-9696.697840,-689.485948
865.193853,-1850.514855,-9474.636058,-229.828649
865.194177,-148.041188,-9622.677246,153.219100
865.194502,1110.308913,-10214.842000,459.657299
865.194826,518.144159,-10214.842000,-229.828649
865.195150,-296.082377,-9178.553681,-536.266849
865.195474,74.020594,-8882.471304,229.828649
865.195798,1850.514855,-9178.553681,1455.581446
865.196122,2812.782580,-9326.594869,612.876398
865.196447,1628.453072,-9030.512492,306.438199
865.196771,-148.041188,-8808.450710,995.924147
865.197095,-1258.350101,-9178.553681,612.876398
865.197419,0.000000,-9548.656652,383.047749
865.197743,-296.082377,-9844.739029,153.219100
865.198068,-1480.411884,-9992.780217,0.000000
865.198392,-1258.350101,-9474.636058,153.219100
865.198716,74.020594,-9474.636058,612.876398
865.199040,1480.411884,-10436.903782,919.314598
865.199364,1258.350101,-10436.903782,153.219100
865.199688,74.020594,-9844.739029,-229.828649
865.200013,0.000000,-9548.656652,766.095498
865.200337,666.185348,-10584.944971,995.924147
865.200661,1036.288319,-10881.027347,306.438199
865.200985,74.020594,-10362.883188,0.000000
865.201309,-814.226536,-10140.821405,0.000000
865.201633,-518.144159,-9696.697840,0.000000
865.201958,1406.391290,-9992.780217,383.047749
865.202282,1924.535449,-10362.883188,459.657299
865.202606,666.185348,-9770.718434,-536.266849
865.202930,-666.185348,-9030.512492,-842.705048
865.203254,-962.267725,-8290.306550,0.000000
865.203579,-296.082377,-9030.512492,383.047749
865.203903,-444.123565,-9548.656652,-612.876398
865.204227,-1110.308913,-9326.594869,-459.657299
865.204551,-1628.453072,-8734.430116,-153.219100
865.204875,-148.041188,-8956.491898,536.266849
865.205199,740.205942,-9918.759623,153.219100
865.205524,370.102971,-9696.697840,-153.219100
865.205848,-2072.576638,-9400.615463,-383.047749
865.206172,-2738.761985,-9400.615463,-306.438199
865.206496,-1184.329507,-9770.718434,-229.828649
865.206820,-444.123565,-9844.739029,-229.828649
865.207144,-740.205942,-9548.656652,-1072.533697
865.207469,-962.267725,-9548.656652,-995.924147
865.207793,-592.164754,-9474.636058,-383.047749
865.208117,1332.370696,-9770.718434,0.000000
865.208441,2368.659014,-10140.821405,0.000000
865.208765,1628.453072,-10288.862594,-842.705048
865.209090,-148.041188,-9326.594869,-1225.752797
865.209414,-592.164754,-9030.512492,-229.828649
865.209738,814.226536,-10214.842000,383.047749
865.210062,888.247130,-11029.068536,-229.828649
865.210386,0.000000,-9622.677246,-459.657299
865.210710,-444.123565,-8734.430116,76.609550
865.211035,1110.308913,-9104.533087,689.485948
865.211359,2664.741391,-10436.903782,612.876398
865.211683,1628.453072,-10584.944971,229.828649
865.212007,-666.185348,-9548.656652,0.000000
865.212331,-1480.411884,-9400.615463,0.000000
865.212655,-740.205942,-9770.718434,536.266849
865.212980,518.144159,-10658.965565,306.438199
865.213304,-222.061783,-10584.944971,-383.047749
865.213628,-1480.411884,-9178.553681,-919.314598
865.213952,-814.226536,-9252.574275,306.438199
865.214276,1332.370696,-10288.862594,995.924147
865.214601,1850.514855,-10214.842000,842.705048
865.214925,148.041188,-9696.697840,0.000000
865.215249,-1702.473667,-8882.471304,-383.047749
865.215573,-1258.350101,-8956.491898,0.000000
865.215897,0.000000,-9548.656652,229.828649
865.216221,-148.041188,-9252.574275,0.000000
865.216546,-222.061783,-8956.491898,153.219100
865.216870,-296.082377,-8068.244768,0.000000
865.217194,888.247130,-8290.306550,842.705048
865.217518,2368.659014,-9252.574275,536.266849
865.217842,1628.453072,-9474.636058,-153.219100
865.218166,-222.061783,-8956.491898,76.609550
865.218491,-888.247130,-9030.512492,76.609550
865.218815,-296.082377,-9178.553681,229.828649
865.219139,740.205942,-9918.759623,-383.047749
865.219463,-444.123565,-9178.553681,-919.314598
865.219787,-1924.535449,-9400.615463,-1685.410096
865.220111,-1332.370696,-9696.697840,-766.095498
865.220436,296.082377,-10214.842000,0.000000
865.220760,962.267725,-10214.842000,-766.095498
865.221084,-296.082377,-10066.800811,-842.705048
865.221408,-1332.370696,-9844.739029,-1608.800546
865.221732,-1110.308913,-10881.027347,-1455.581446
865.222057,148.041188,-10658.965565,-383.047749
