#time,accel_x,accel_y,accel_z
752.988474,-4589.276840,-6735.874072,2757.943793
752.988798,-148.041188,-5773.606348,1378.971896
752.989122,3034.844362,-9696.697840,2298.286494
752.989446,7254.018232,-9918.759623,3447.429741
752.989770,9474.636058,-9548.656652,5669.106685
752.990094,6883.915261,-11917.315666,4290.134789
752.990418,2664.741391,-12139.377449,2374.896044
752.990742,-1850.514855,-9844.739029,1455.581446
752.991066,-4367.215058,-9030.512492,-2221.676944
752.991390,-6735.874072,-14137.933492,-1378.971896
752.991714,-7624.121203,-17098.757260,-2451.505594
752.992038,-5181.441594,-10732.986159,-3677.258390
752.992362,-3997.112087,-6957.935855,153.219100
752.992686,-4071.132681,-7920.203579,459.657299
752.993010,-2664.741391,-8512.368333,-842.705048
752.993334,-3034.844362,-8290.306550,-1225.752797
752.993658,-2368.659014,-6587.832884,76.609550
752.993982,148.041188,-7846.182985,3370.820191
752.994306,3182.885551,-11177.109724,3370.820191
752.994630,3330.926739,-9030.512492,3600.648841
752.994954,518.144159,-8290.306550,1838.629195
752.995278,-1776.494261,-9474.636058,-1762.019645
752.995602,-2738.761985,-12213.398043,-1149.143247
752.995926,-1998.556043,-14359.995275,689.485948
752.996250,296.082377,-11843.295072,-153.219100
752.996574,-148.041188,-9992.780217,1225.752797
752.996898,-2072.576638,-8956.491898,306.438199
752.997222,-2738.761985,-8364.327145,229.828649
752.997546,-3552.988522,-9622.677246,-383.047749
752.997870,-3849.070898,-8808.450710,842.705048
752.998194,-3256.906145,-8290.306550,2451.505594
752.998518,-2072.576638,-9918.759623,2681.334243
752.998842,-1554.432478,-9696.697840,3064.381992
752.999166,-2368.659014,-8734.430116,2834.553343
752.999490,-3552.988522,-9104.533087,1149.143247
752.999814,-2960.823768,-10288.862594,-306.438199
753.000138,-1184.329507,-10881.027347,306.438199
753.000462,1110.308913,-9474.636058,1072.533697
753.000786,2812.782580,-9770.718434,1762.019645
753.001110,2960.823768,-10288.862594,2068.457845
753.001434,1850.514855,-9918.759623,1225.752797
753.001758,592.164754,-10140.821405,459.657299
753.002082,518.144159,-8956.491898,1838.629195
753.002406,1480.411884,-8956.491898,2528.115143
753.002730,2072.576638,-9252.574275,3140.991542
753.003054,592.164754,-8290.306550,3217.601092
753.003378,-2146.597232,-7846.182985,2604.724693
753.003702,-3552.988522,-7920.203579,2145.067394
753.004026,-3256.906145,-7920.203579,1685.410096
753.004350,-2812.782580,-8068.244768,1532.190996
753.004674,-2294.638420,-8364.327145,2145.067394
753.004998,-1628.453072,-9400.615463,1762.019645
753.005322,-740.205942,-10066.800811,1991.848295
753.005646,-444.123565,-10362.883188,1072.533697
753.005970,-148.041188,-10510.924376,1225.752797
753.006294,370.102971,-10288.862594,1149.143247
753.006618,1998.556043,-10140.821405,1302.362347
753.006942,2960.823768,-9844.739029,1225.752797
753.007266,2960.823768,-10362.883188,76.609550
753.007590,1628.453072,-10881.027347,-842.705048
753.007914,518.144159,-10214.842000,-1072.533697
753.008238,666.185348,-9178.553681,-1072.533697
753.008562,-148.041188,-8438.347739,-766.095498
753.008886,-1258.350101,-9178.553681,-383.047749
753.009210,-2368.659014,-9474.636058,153.219100
753.009534,-2442.679609,-9918.759623,0.000000
753.009858,-2368.659014,-9844.739029,-306.438199
753.010182,-1924.535449,-10140.821405,383.047749
753.010506,-444.123565,-10140.821405,1455.581446
753.010830,1332.370696,-10214.842000,1455.581446
753.011154,2220.617826,-9696.697840,1838.629195
753.011478,2368.659014,-9326.594869,689.485948
753.011802,2368.659014,-9474.636058,-612.876398
753.012126,2886.803174,-9474.636058,-1915.238745
753.012450,2664.741391,-9696.697840,-2681.334243
753.012774,1258.350101,-10214.842000,-3830.477490
753.013098,-666.185348,-10288.862594,-4290.134789
753.013422,-2590.720797,-10288.862594,-5056.230287
753.013746,-3478.967927,-9992.780217,-4290.134789
753.014070,-3923.091493,-10140.821405,-4060.306139
753.014394,-3108.864956,-10288.862594,-2451.505594
753.014718,-1184.329507,-9918.759623,-383.047749
753.015042,370.102971,-9770.718434,689.485948
753.015366,444.123565,-9474.636058,1455.581446
753.015690,-740.205942,-10584.944971,995.924147
753.016014,-1184.329507,-11917.315666,1838.629195
753.016338,1924.535449,-12509.480420,2451.505594
753.016662,4219.173869,-11325.150913,3064.381992
753.016986,5181.441594,-8956.491898,2834.553343
753.017310,5477.523971,-8068.244768,1838.629195
753.017635,4959.379811,-7920.203579,842.705048
753.017959,2812.782580,-4811.338623,-2528.115143
753.018283,-1702.473667,-2368.659014,-9116.536426
753.018607,-8290.306550,-8290.306550,-5745.716235
753.018931,-7402.059420,-14434.015869,-5439.278036
753.019256,-4145.153275,-13693.809927,-7507.735880
753.019580,-6069.688724,-10807.006753,-1532.190996
753.019904,-4959.379811,-9178.553681,-459.657299
753.020228,-1184.329507,-11177.109724,-2528.115143
753.020553,74.020594,-11029.068536,153.219100
753.020877,2146.597232,-7328.038826,3294.210641
753.021201,6439.791695,-9474.636058,4826.401637
753.021525,6143.709319,-14434.015869,5592.497135
753.021850,5847.626942,-13545.768739,7048.078582
753.022174,6809.894666,-10066.800811,6052.154434
753.022498,4959.379811,-8882.471304,4060.306139
753.022822,2072.576638,-10066.800811,1991.848295
753.023147,592.164754,-8364.327145,-153.219100
753.023471,0.000000,-814.226536,-5898.935335
753.023795,-4145.153275,-370.102971,-8963.317327
753.024119,-10732.986159,-11325.150913,-3983.696590
753.024443,-7550.100608,-15766.386565,-6281.983084
753.024768,-5403.503377,-11917.315666,-7354.516781
753.025092,-9326.594869,-7846.182985,1149.143247
753.025416,-4071.132681,-8068.244768,0.000000
753.025740,2294.638420,-12139.377449,-689.485948
753.026065,3627.009116,-10510.924376,3447.429741
753.026389,6143.709319,-7328.038826,5132.839837
753.026713,7698.141797,-13619.789333,6741.640382
753.027037,7254.018232,-17246.798449,7277.907231
753.027362,7031.956449,-13397.727550,8963.317327
753.027686,6513.812290,-9696.697840,8044.002729
753.028010,3997.112087,-8882.471304,3217.601092
753.028334,-518.144159,-11029.068536,1915.238745
753.028659,-1258.350101,-7550.100608,459.657299
753.028983,-222.061783,74.020594,-5515.887586
753.029307,-4959.379811,592.164754,-8580.269578
753.029631,-12287.418637,-9178.553681,-3677.258390
753.029956,-9622.677246,-14508.036463,-5898.935335
753.030280,-5995.668130,-10436.903782,-8350.440928
753.030604,-10140.821405,-6143.709319,1072.533697
753.030928,-5551.544565,-8586.388927,1532.190996
753.031252,1924.535449,-12139.377449,-306.438199
753.031577,4367.215058,-10658.965565,3140.991542
753.031901,6217.729913,-7179.997637,5745.716235
753.032225,9104.533087,-12583.501014,6741.640382
753.032549,9252.574275,-18209.066173,7277.907231
753.032874,8660.409521,-14359.995275,8810.098227
753.033198,8512.368333,-9548.656652,7890.783629
753.033522,5773.606348,-9844.739029,4060.306139
753.033846,1184.329507,-11621.233289,1302.362347
753.034171,-1628.453072,-5921.647536,-2221.676944
753.034495,-2368.659014,2368.659014,-12870.404366
753.034819,-9770.718434,-5699.585753,-5822.325785
753.035143,-11547.212695,-13619.789333,-5362.668486
753.035468,-5995.668130,-10881.027347,-10265.679673
753.035792,-8956.491898,-6069.688724,-3294.210641
753.036116,-9548.656652,-4441.235652,-1532.190996
753.036440,-3775.050304,-9400.615463,-4443.353888
753.036764,-296.082377,-11325.150913,-1532.190996
753.037089,3256.906145,-7550.100608,3140.991542
753.037413,7254.018232,-11399.171507,5669.106685
753.037737,8438.347739,-18875.251521,5745.716235
753.038061,7772.162391,-16136.489536,8350.440928
753.038386,9474.636058,-12879.583391,8197.221829
753.038710,8216.285956,-11769.274478,5209.449386
753.039034,4589.276840,-13323.706956,1302.362347
753.039358,1702.473667,-12361.439231,2068.457845
753.039683,3701.029710,-6069.688724,-995.924147
753.040007,888.247130,814.226536,-9729.412825
753.040331,-7920.203579,-2368.659014,-9039.926876
753.040655,-13249.686362,-11399.171507,-5056.230287
753.040980,-7698.141797,-13397.727550,-12257.527968
753.041304,-10066.800811,-7846.182985,-9959.241474
753.041628,-14878.139434,-6809.894666,383.047749
753.041952,-5181.441594,-10436.903782,-4060.306139
753.042277,1110.308913,-11547.212695,-4213.525239
753.042601,592.164754,-6957.935855,1225.752797
753.042925,2886.803174,-6365.771101,4136.915689
753.043249,7105.977043,-17172.777854,4979.620737
753.043573,9696.697840,-22354.219448,9652.803275
753.043898,13619.789333,-13101.645173,9959.241474
753.044222,13915.871710,-7328.038826,6971.469032
753.044546,8734.430116,-10807.006753,4213.525239
753.044870,4441.235652,-14434.015869,2681.334243
753.045195,4589.276840,-8808.450710,-536.266849
753.045519,1110.308913,4071.132681,-10265.679673
753.045843,-8290.306550,1258.350101,-9882.631924
753.046167,-16136.489536,-12879.583391,-4213.525239
753.046492,-9548.656652,-15766.386565,-12334.137518
753.046816,-11103.089130,-7550.100608,-11568.042020
753.047140,-17246.798449,-4367.215058,1915.238745
753.047464,-7105.977043,-9252.574275,-2221.676944
753.047789,740.205942,-12657.521608,-3370.820191
753.048113,592.164754,-3997.112087,1302.362347
753.048437,3552.988522,-3330.926739,5822.325785
753.048761,8512.368333,-20503.704593,8273.831378
753.049085,11177.109724,-25092.981434,9959.241474
753.049410,14434.015869,-11177.109724,11491.432470
753.049734,13545.768739,-2516.700203,9882.631924
753.050058,9696.697840,-9400.615463,4290.134789
753.050382,5033.400406,-19097.313304,2374.896044
753.050707,2812.782580,-11843.295072,-536.266849
753.051031,740.205942,2738.761985,-4519.963438
753.051355,-7772.162391,3997.112087,-11184.994271
753.051679,-18061.024985,-9992.780217,-5132.839837
753.052004,-15544.324782,-16210.510130,-8197.221829
753.052328,-11399.171507,-8438.347739,-13713.109414
753.052652,-15692.365970,-4441.235652,536.266849
753.052976,-9770.718434,-9474.636058,1149.143247
753.053301,1184.329507,-12213.398043,-2145.067394
753.053625,2738.761985,-6365.771101,2451.505594
753.053949,4367.215058,-2812.782580,5592.497135
753.054273,9252.574275,-15174.221811,7660.954980
753.054598,13027.624579,-26129.269753,9193.145976
753.054922,13693.809927,-15840.407159,10495.508323
753.055246,13619.789333,-3923.091493,11338.213370
753.055570,11621.233289,-9474.636058,7124.688131
753.055894,6365.771101,-17394.839637,2298.286494
753.056219,1776.494261,-11769.274478,-1072.533697
753.056543,-3627.009116,5551.544565,-10342.289223
753.056867,-10658.965565,3182.885551,-10265.679673
753.057191,-17690.922014,-14582.057057,-3677.258390
753.057516,-11029.068536,-16876.695478,-9116.536426
753.057840,-9400.615463,-6439.791695,-10495.508323
753.058164,-16802.674883,-2368.659014,306.438199
753.058488,-9326.594869,-9252.574275,-1455.581446
753.058813,-222.061783,-14211.954086,-3294.210641
753.059137,2368.659014,-5847.626942,1455.581446
753.059461,5329.482782,-2220.617826,6894.859482
753.059785,10066.800811,-18357.107362,8427.050478
753.060110,12953.603985,-25241.022622,9039.926876
753.060434,14508.036463,-12213.398043,10495.508323
753.060758,12953.603985,-4515.256246,8886.707777
753.061082,9844.739029,-10362.883188,4596.572988
753.061407,5107.421000,-17912.983796,306.438199
753.061731,1480.411884,-9622.677246,-612.876398
753.062055,-1184.329507,5995.668130,-10495.508323
753.062379,-9992.780217,148.041188,-10418.898773
753.062703,-16802.674883,-16654.633695,-4213.525239
753.063028,-9252.574275,-16506.592507,-11797.870669
753.063352,-10584.944971,-5921.647536,-10955.165621
753.063676,-17394.839637,-2812.782580,1455.581446
753.064000,-8068.244768,-10658.965565,-2451.505594
753.064325,666.185348,-14359.995275,-3677.258390
753.064649,2220.617826,-4367.215058,536.266849
753.064973,5477.523971,-3330.926739,6052.154434
753.065297,10066.800811,-20133.601622,7814.174080
753.065622,12657.521608,-24500.816680,8350.440928
753.065946,14730.098246,-11621.233289,10572.117872
753.066270,13323.706956,-4219.173869,8656.879127
753.066594,10584.944971,-11621.233289,3600.648841
753.066919,5773.606348,-18135.045579,1455.581446
753.067243,3701.029710,-7105.977043,-1991.848295
753.067567,-962.267725,7328.038826,-12563.966167
753.067891,-12139.377449,-3775.050304,-7584.345430
753.068215,-16654.633695,-18949.272115,-4519.963438
753.068540,-8438.347739,-16062.468941,-13713.109414
753.068864,-11917.315666,-4367.215058,-8120.612279
753.069188,-16210.510130,-1554.432478,766.095498
753.069512,-7179.997637,-11103.089130,-3830.477490
753.069837,-592.164754,-13249.686362,-2757.943793
753.070161,1184.329507,-1036.288319,689.485948
753.070485,4367.215058,-5477.523971,7354.516781
753.070809,8142.265362,-24870.919651,9882.631924
753.071134,12435.459826,-23242.466579,9193.145976
753.071458,15026.180623,-5625.565159,9346.365076
753.071782,10807.006753,-1332.370696,10572.117872
753.072106,8216.285956,-14730.098246,1225.752797
753.072431,4737.318029,-21762.054695,689.485948
753.072755,3478.967927,-7550.100608,-766.095498
753.073079,-444.123565,6291.750507,-8120.612279
753.073403,-10214.842000,-2960.823768,-8120.612279
753.073728,-17912.983796,-17912.983796,-6052.154434
753.074052,-11399.171507,-15544.324782,-11338.213370
753.074376,-12583.501014,-4885.359217,-10648.727422
753.074700,-17024.736666,-4293.194464,1991.848295
753.075024,-7179.997637,-11695.253884,-612.876398
753.075349,1702.473667,-11621.233289,-2451.505594
753.075673,2294.638420,-592.164754,1532.190996
753.075997,4441.235652,-2886.803174,5439.278036
753.076321,9474.636058,-22206.178260,8886.707777
753.076646,14063.912898,-25463.084405,9422.974625
753.076970,16506.592507,-8512.368333,10112.460574
753.077294,13841.851115,-962.267725,10418.898773
753.077618,11695.253884,-12805.562797,5056.230287
753.077943,6809.894666,-20133.601622,0.000000
753.078267,1258.350101,-6143.709319,-4366.744339
753.078591,-4145.153275,7846.182985,-13636.499864
753.078915,-14508.036463,-8068.244768,-3907.087040
753.079240,-14359.995275,-21391.951724,-5056.230287
753.079564,-7328.038826,-12657.521608,-12947.013916
753.079888,-14211.954086,-1702.473667,-2757.943793
753.080212,-13841.851115,-2368.659014,-842.705048
753.080536,-4959.379811,-12657.521608,-3983.696590
753.080861,-1924.535449,-10658.965565,-842.705048
753.081185,2590.720797,1924.535449,3064.381992
753.081509,7772.162391,-9104.533087,10189.070123
753.081833,11325.150913,-25907.207970,10035.851024
753.082158,13989.892304,-16802.674883,8810.098227
753.082482,12583.501014,-3478.967927,10112.460574
753.082806,10214.842000,-4071.132681,8044.002729
753.083130,7846.182985,-17912.983796,1455.581446
753.083455,3552.988522,-17912.983796,919.314598
753.083779,1924.535449,666.185348,-3600.648841
753.084103,-3849.070898,5107.421000,-11797.870669
753.084427,-16950.716072,-12583.501014,-4979.620737
753.084752,-16876.695478,-19393.395680,-6511.811733
753.085076,-9844.739029,-9770.718434,-12947.013916
753.085400,-14656.077652,-1332.370696,-1915.238745
753.085724,-11991.336260,-6291.750507,-153.219100
753.086049,-1628.453072,-13545.768739,-3140.991542
753.086373,1776.494261,-7476.080014,919.314598
753.086697,4441.235652,-1480.411884,3677.258390
753.087021,7994.224174,-13545.768739,10342.289223
753.087345,12287.418637,-24426.796086,8427.050478
753.087670,14730.098246,-15174.221811,9116.536426
753.087994,13027.624579,-2886.803174,10878.556072
753.088318,11399.171507,-6809.894666,5898.935335
753.088642,8290.306550,-19837.519246,1149.143247
753.088967,3775.050304,-14285.974681,-612.876398
753.089291,-888.247130,7402.059420,-13713.109414
753.089615,-10214.842000,222.061783,-7124.688131
753.089939,-17764.942608,-20059.581028,-4366.744339
753.090264,-9400.615463,-19393.395680,-12640.575717
753.090588,-10584.944971,-6069.688724,-8580.269578
753.090912,-15396.283594,-222.061783,0.000000
753.091236,-7105.977043,-9474.636058,-3907.087040
753.091561,-1110.308913,-15988.448347,-2298.286494
753.091885,1850.514855,-2294.638420,76.609550
753.092209,5921.647536,-3923.091493,7507.735880
753.092533,8438.347739,-23020.404796,11108.384721
753.092857,12657.521608,-21984.116477,7431.126331
753.093182,14211.954086,-6661.853478,8273.831378
753.093506,9844.739029,-1776.494261,10189.070123
753.093830,7624.121203,-13989.892304,1762.019645
753.094154,3330.926739,-22502.260637,689.485948
753.094479,2812.782580,-5255.462188,-2298.286494
753.094803,-518.144159,9696.697840,-13559.890315
753.095127,-13101.645173,-7179.997637,-6052.154434
753.095451,-16654.633695,-20133.601622,-5745.716235
753.095776,-8808.450710,-14063.912898,-13866.328514
753.096100,-11843.295072,-3034.844362,-5056.230287
753.096424,-13175.665768,-1924.535449,383.047749
753.096748,-3923.091493,-12953.603985,-3677.258390
753.097073,1258.350101,-11325.150913,229.828649
753.097397,2442.679609,222.061783,1685.410096
753.097721,5625.565159,-9400.615463,8273.831378
753.098045,8512.368333,-25389.063811,10572.117872
753.098370,13323.706956,-19837.519246,8810.098227
753.098694,14508.036463,-3404.947333,9422.974625
753.099018,10807.006753,-1184.329507,7967.393179
753.099342,7402.059420,-16728.654289,2145.067394
753.099666,3701.029710,-18505.148550,0.000000
753.099991,1628.453072,3034.844362,-9116.536426
753.100315,-4441.235652,6809.894666,-9806.022374
753.100639,-14434.015869,-14582.057057,-2298.286494
753.100963,-10362.883188,-21465.972318,-9959.241474
753.101288,-9474.636058,-10214.842000,-12870.404366
753.101612,-17024.736666,-592.164754,76.609550
753.101936,-10584.944971,-7254.018232,-1455.581446
753.102260,-1924.535449,-18135.045579,-2604.724693
753.102585,962.267725,-7105.977043,1455.581446
753.102909,5181.441594,814.226536,5362.668486
753.103233,7328.038826,-17764.942608,10342.289223
753.103557,9770.718434,-27165.558071,9116.536426
753.103882,12583.501014,-11621.233289,8886.707777
753.104206,10658.965565,296.082377,10648.727422
753.104530,8142.265362,-6513.812290,5209.449386
753.104854,6291.750507,-21317.931130,919.314598
753.105178,4515.256246,-12953.603985,-612.876398
753.105503,888.247130,8290.306550,-12027.699319
753.105827,-9178.553681,-962.267725,-6818.249932
753.106151,-16580.613101,-20133.601622,-3140.991542
753.106475,-7920.203579,-17838.963202,-13483.280765
753.106800,-10066.800811,-5403.503377,-8503.660028
753.107124,-15396.283594,-1184.329507,2834.553343
753.107448,-6069.688724,-11991.336260,-2834.553343
753.107772,-518.144159,-15618.345376,-1378.971896
753.108097,1258.350101,-518.144159,1225.752797
753.108421,5255.462188,-2442.679609,7431.126331
753.108745,9474.636058,-22946.384202,10189.070123
753.109069,12805.562797,-24056.693115,9116.536426
753.109394,13693.809927,-6883.915261,10418.898773
753.109718,9548.656652,1480.411884,9806.022374
753.110042,6217.729913,-11399.171507,3064.381992
753.110366,3923.091493,-21614.013506,919.314598
753.110691,4737.318029,-6513.812290,-2987.772442
753.111015,296.082377,8660.409521,-12334.137518
753.111339,-12509.480420,-5773.606348,-4290.134789
753.111663,-16506.592507,-19689.478057,-4826.401637
753.111987,-8438.347739,-14359.995275,-14632.424012
753.112312,-12657.521608,-3182.885551,-5515.887586
753.112636,-14359.995275,-3478.967927,536.266849
753.112960,-3849.070898,-14285.974681,-3600.648841
753.113284,1332.370696,-12583.501014,-612.876398
753.113609,2960.823768,1332.370696,1302.362347
753.113933,5477.523971,-6661.853478,8503.660028
753.114257,7402.059420,-26425.352129,8656.879127
753.114581,11029.068536,-22132.157666,9959.241474
753.114906,14063.912898,-4293.194464,9269.755526
753.115230,10288.862594,-444.123565,7814.174080
753.115554,6365.771101,-15100.201217,1762.019645
753.115878,4589.276840,-20651.745782,0.000000
753.116203,4515.256246,-4737.318029,-3140.991542
753.116527,-1406.391290,7624.121203,-12793.794817
753.116851,-13101.645173,-7105.977043,-4903.011187
753.117175,-15396.283594,-19393.395680,-6358.592633
753.117499,-7550.100608,-13397.727550,-16011.395908
753.117823,-14211.954086,-3108.864956,-4673.182538
753.118147,-14211.954086,-6143.709319,153.219100
753.118472,-3478.967927,-15174.221811,-4519.963438
753.118796,1776.494261,-11695.253884,-689.485948
753.119120,2146.597232,2960.823768,1762.019645
753.119444,5107.421000,-7031.956449,8197.221829
753.119768,7698.141797,-28275.866984,9269.755526
753.120092,12213.398043,-22576.281231,10342.289223
753.120416,15618.345376,-2886.803174,8733.488677
753.120740,11621.233289,-666.185348,8273.831378
753.121064,8734.430116,-16506.592507,2911.162892
753.121388,6365.771101,-19319.375086,383.047749
753.121712,3701.029710,1702.473667,-8120.612279
753.122036,-4367.215058,6587.832884,-11108.384721
753.122360,-15914.427753,-12879.583391,-3600.648841
753.122684,-10658.965565,-19689.478057,-10572.117872
753.123008,-8956.491898,-9622.677246,-13789.718964
753.123333,-18135.045579,-1036.288319,-153.219100
753.123657,-11251.130318,-6587.832884,-2221.676944
753.123981,-2368.659014,-16432.571912,-3370.820191
753.124305,0.000000,-6217.729913,-229.828649
753.124629,3478.967927,3849.070898,3677.258390
753.124953,6143.709319,-15840.407159,9959.241474
753.125277,8882.471304,-31088.649564,12640.575717
753.125601,12657.521608,-13175.665768,7584.345430
753.125925,10881.027347,2886.803174,10189.070123
753.126249,6439.791695,-4219.173869,6971.469032
753.126573,7698.141797,-21984.116477,-1455.581446
753.126897,5255.462188,-17394.839637,612.876398
753.127221,3627.009116,5329.482782,-6741.640382
753.127545,-5033.400406,3923.091493,-9959.241474
753.127869,-18283.086767,-17468.860231,-3370.820191
753.128194,-11029.068536,-18283.086767,-13100.233016
753.128518,-9326.594869,-6809.894666,-12257.527968
753.128842,-15470.304188,-2812.782580,0.000000
753.129166,-7698.141797,-11695.253884,-995.924147
753.129490,518.144159,-16062.468941,-1915.238745
753.129814,2294.638420,-2220.617826,1455.581446
753.130138,3330.926739,2886.803174,5286.058936
753.130462,5625.565159,-20207.622217,9116.536426
753.130786,9030.512492,-30200.402434,9806.022374
753.131110,12509.480420,-12361.439231,8810.098227
753.131434,10955.047942,2960.823768,9882.631924
753.131758,8882.471304,-5625.565159,6511.811733
753.132082,8216.285956,-22502.260637,766.095498
753.132406,5847.626942,-12953.603985,-1532.190996
753.132731,444.123565,8660.409521,-14249.376263
753.133055,-11029.068536,-2812.782580,-4290.134789
753.133379,-15470.304188,-21243.910535,-4136.915689
753.133703,-7179.997637,-17690.922014,-15092.081311
753.134027,-11769.274478,-4589.276840,-5975.544884
753.134351,-14063.912898,-1110.308913,383.047749
753.134675,-4367.215058,-14137.933492,-3907.087040
753.134999,-814.226536,-15322.262999,-842.705048
753.135323,962.267725,3034.844362,612.876398
753.135647,4737.318029,-1184.329507,8427.050478
753.135971,6291.750507,-26129.269753,10955.165621
753.136295,9548.656652,-25537.104999,9959.241474
753.136619,13471.748144,-3997.112087,7737.564530
753.136943,8956.491898,3182.885551,10801.946522
753.137267,7402.059420,-13175.665768,2604.724693
753.137592,6809.894666,-23168.445985,459.657299
753.137916,5625.565159,-5255.462188,-1838.629195
753.138240,814.226536,9030.512492,-12104.308868
753.138564,-12435.459826,-8142.265362,-4366.744339
753.138888,-15840.407159,-21169.889941,-6588.421283
753.139212,-7179.997637,-13397.727550,-16164.615008
753.139536,-13175.665768,-2442.679609,-4290.134789
753.139860,-13397.727550,-5107.421000,383.047749
753.140184,-3182.885551,-15396.283594,-3370.820191
753.140508,74.020594,-11103.089130,-766.095498
753.140832,888.247130,4219.173869,1378.971896
753.141156,3627.009116,-6069.688724,7737.564530
753.141480,6365.771101,-28349.887579,10342.289223
753.141804,10066.800811,-22354.219448,9346.365076
753.142128,13397.727550,-1406.391290,8503.660028
753.142453,8956.491898,1110.308913,9116.536426
753.142777,8734.430116,-16728.654289,1838.629195
753.143101,8364.327145,-22576.281231,0.000000
753.143425,4663.297435,0.000000,-6511.811733
753.143749,-1480.411884,8956.491898,-11797.870669
753.144073,-14730.098246,-13545.768739,-1991.848295
753.144397,-11621.233289,-22280.198854,-10265.679673
753.144721,-7550.100608,-10436.903782,-15245.300410
753.145045,-16654.633695,-296.082377,-919.314598
753.145369,-10584.944971,-6883.915261,-1991.848295
753.145693,-1110.308913,-18283.086767,-2987.772442
753.146017,296.082377,-8364.327145,-306.438199
753.146341,2368.659014,5699.585753,2911.162892
753.146665,3701.029710,-12953.603985,9116.536426
753.146990,6291.750507,-31384.731941,9729.412825
753.147314,10362.883188,-16802.674883,7201.297681
753.147638,10807.006753,2220.617826,9806.022374
753.147962,9252.574275,-2072.576638,8427.050478
753.148286,10584.944971,-21614.013506,459.657299
753.148610,8068.244768,-18505.148550,0.000000
753.148934,2812.782580,7550.100608,-9959.241474
753.149258,-6217.729913,3997.112087,-9576.193725
753.149582,-16136.489536,-19541.436869,-2987.772442
753.149906,-7920.203579,-20281.642811,-13330.061665
753.150230,-8512.368333,-6735.874072,-11951.089769
753.150554,-17172.777854,-814.226536,1149.143247
753.150878,-7920.203579,-11325.150913,-2757.943793
753.151202,74.020594,-17912.983796,-2834.553343
753.151526,740.205942,-2294.638420,-229.828649
753.151851,2886.803174,5255.462188,4596.572988
753.152175,5625.565159,-18357.107362,9576.193725
753.152499,8068.244768,-30570.505405,10801.946522
753.152823,12213.398043,-11325.150913,7354.516781
753.153147,10510.924376,4145.153275,10112.460574
753.153471,7772.162391,-5773.606348,6588.421283
753.153795,9696.697840,-24426.796086,689.485948
753.154119,7698.141797,-14359.995275,-383.047749
753.154443,2072.576638,9844.739029,-14249.376263
753.154767,-10584.944971,-1850.514855,-5515.887586
753.155091,-16580.613101,-22428.240043,-4213.525239
753.155415,-6809.894666,-18431.127956,-16471.053207
753.155739,-11917.315666,-3849.070898,-6894.859482
753.156063,-15248.242405,-740.205942,1225.752797
753.156387,-3849.070898,-12879.583391,-3217.601092
753.156712,0.000000,-16506.592507,-1762.019645
753.157036,-592.164754,2516.700203,-153.219100
753.157360,2220.617826,1184.329507,7124.688131
753.157684,3923.091493,-25389.063811,10955.165621
753.158008,7402.059420,-27313.599260,9806.022374
753.158332,11547.212695,-5033.400406,7660.954980
753.158656,9030.512492,3701.029710,10418.898773
753.158980,8956.491898,-12287.418637,3294.210641
753.159304,9252.574275,-25907.207970,689.485948
753.159628,7179.997637,-8068.244768,-536.266849
753.159952,1998.556043,10288.862594,-12104.308868
753.160276,-12139.377449,-7550.100608,-4519.963438
753.160600,-16062.468941,-22058.137072,-5669.106685
753.160924,-6661.853478,-15322.262999,-15398.519510
753.161249,-12731.542202,-2368.659014,-5745.716235
753.161573,-14359.995275,-3108.864956,919.314598
753.161897,-2886.803174,-16062.468941,-1991.848295
753.162221,1110.308913,-13101.645173,-766.095498
753.162545,0.000000,5551.544565,1225.752797
753.162869,2072.576638,-1702.473667,6818.249932
753.163193,5477.523971,-26055.249158,9882.631924
753.163517,10362.883188,-24870.919651,9039.926876
753.163841,12879.583391,-3923.091493,8580.269578
753.164165,10066.800811,3182.885551,10801.946522
753.164489,9400.615463,-14434.015869,4826.401637
753.164813,8734.430116,-22354.219448,995.924147
753.165137,5255.462188,-2146.597232,-4826.401637
753.165461,-740.205942,9178.553681,-13176.842566
753.165785,-14211.954086,-10807.006753,-2298.286494
753.166110,-13249.686362,-23316.487173,-7431.126331
753.166434,-8216.285956,-12361.439231,-15551.738609
753.166758,-16580.613101,296.082377,-1072.533697
753.167082,-11547.212695,-4811.338623,-153.219100
753.167406,-740.205942,-17987.004391,-4290.134789
753.167730,0.000000,-10510.924376,-306.438199
753.168054,740.205942,6587.832884,1838.629195
753.168378,2960.823768,-9178.553681,9499.584175
753.168702,6439.791695,-32421.020260,12027.699319
753.169026,10955.047942,-18135.045579,7354.516781
753.169350,11251.130318,2664.741391,9422.974625
753.169674,7105.977043,-222.061783,10418.898773
753.169998,9770.718434,-20429.683999,-536.266849
753.170322,7254.018232,-21910.095883,1532.190996
753.170646,4441.235652,2072.576638,-4673.182538
753.170971,-1184.329507,8734.430116,-13023.623466
753.171295,-15914.427753,-14804.118840,-3447.429741
753.171619,-13471.748144,-21762.054695,-11031.775171
753.171943,-8586.388927,-9770.718434,-15168.690860
753.172267,-15988.448347,-1924.535449,-1762.019645
753.172591,-10436.903782,-9326.594869,-459.657299
753.172915,444.123565,-18357.107362,-2911.162892
753.173239,1406.391290,-6957.935855,-689.485948
753.173563,1628.453072,7031.956449,2757.943793
753.173887,3775.050304,-12657.521608,8120.612279
753.174211,6809.894666,-32791.123231,11721.261119
753.174535,11843.295072,-17246.798449,7354.516781
753.174859,12361.439231,3108.864956,8810.098227
753.175183,9030.512492,-1110.308913,9576.193725
753.175508,11103.089130,-21910.095883,229.828649
753.175832,7179.997637,-19615.457463,0.000000
753.176156,814.226536,8734.430116,-12947.013916
753.176480,-7846.182985,5033.400406,-7431.126331
753.176804,-15988.448347,-20947.828159,-2145.067394
753.177128,-6439.791695,-21688.034101,-15475.129060
753.177452,-9474.636058,-5477.523971,-10265.679673
753.177776,-16358.551318,1776.494261,1072.533697
753.178100,-6587.832884,-10955.047942,-3294.210641
753.178424,-740.205942,-20059.581028,-1991.848295
753.178748,592.164754,0.000000,153.219100
753.179072,4219.173869,6957.935855,6971.469032
753.179396,5921.647536,-21539.992912,10572.117872
753.179720,6069.688724,-31532.773129,11031.775171
753.180044,12065.356855,-8808.450710,6741.640382
753.180369,8882.471304,5107.421000,10955.165621
753.180693,6661.853478,-7254.018232,5975.544884
753.181017,9696.697840,-24944.940245,-766.095498
753.181341,5773.606348,-13915.871710,76.609550
753.181665,1998.556043,9622.677246,-8886.707777
753.181989,-7328.038826,666.185348,-8656.879127
753.182313,-17024.736666,-21762.054695,-2834.553343
753.182637,-8290.306550,-20281.642811,-14325.985813
753.182961,-10732.986159,-4589.276840,-11184.994271
753.183285,-16802.674883,-1850.514855,766.095498
753.183609,-6735.874072,-14508.036463,-1302.362347
753.183933,740.205942,-17838.963202,-1915.238745
753.184257,1258.350101,592.164754,383.047749
753.184581,2368.659014,3627.009116,5745.716235
753.184905,5921.647536,-22058.137072,9882.631924
753.185230,9326.594869,-30570.505405,10265.679673
753.185554,12805.562797,-8808.450710,7507.735880
753.185878,9622.677246,4959.379811,11414.822920
753.186202,8142.265362,-8290.306550,5515.887586
753.186526,9844.739029,-25167.002028,689.485948
753.186850,5033.400406,-11991.336260,-1378.971896
753.187174,222.061783,11177.109724,-12640.575717
753.187498,-10066.800811,-2516.700203,-5209.449386
753.187822,-16358.551318,-24574.837274,-3294.210641
753.188146,-6883.915261,-17912.983796,-16088.005458
753.188470,-12435.459826,-1332.370696,-8427.050478
753.188794,-16802.674883,-1702.473667,1225.752797
753.189118,-4959.379811,-15470.304188,-3217.601092
753.189442,296.082377,-16580.613101,-1685.410096
753.189767,740.205942,4663.297435,842.705048
753.190091,3256.906145,1184.329507,7584.345430
753.190415,5477.523971,-26943.496289,10265.679673
753.190739,8512.368333,-27757.722825,9422.974625
753.191063,13619.789333,-3775.050304,8503.660028
753.191387,9622.677246,4515.256246,11951.089769
753.191711,9400.615463,-12805.562797,3294.210641
753.192035,9178.553681,-25167.002028,153.219100
753.192359,5181.441594,-7402.059420,-689.485948
753.192683,666.185348,11843.295072,-12257.527968
753.193007,-11251.130318,-5921.647536,-5362.668486
753.193331,-16358.551318,-22946.384202,-5669.106685
753.193655,-6513.812290,-14211.954086,-15934.786358
753.193979,-12139.377449,-1406.391290,-7584.345430
753.194303,-16136.489536,-4367.215058,1225.752797
753.194628,-3701.029710,-16506.592507,-2145.067394
753.194952,1554.432478,-14211.954086,-1532.190996
753.195276,1110.308913,5255.462188,1072.533697
753.195600,3478.967927,-1406.391290,7354.516781
753.195924,6587.832884,-27979.784608,9806.022374
753.196248,9992.780217,-27165.558071,9806.022374
753.196572,14434.015869,-3627.009116,8503.660028
753.196896,10658.965565,3108.864956,10955.165621
753.197220,9844.739029,-14508.036463,3370.820191
753.197544,8290.306550,-24130.713709,0.000000
753.197868,4219.173869,-3478.967927,-4903.011187
753.198192,-518.144159,11547.212695,-14479.204912
753.198516,-15470.304188,-9474.636058,-2604.724693
753.198840,-14952.160028,-24722.878463,-7277.907231
753.199164,-7476.080014,-12583.501014,-17160.539155
753.199489,-15100.201217,740.205942,-2451.505594
753.199813,-11399.171507,-3775.050304,-766.095498
753.200137,-1332.370696,-18579.169144,-3447.429741
753.200461,518.144159,-11621.233289,-1532.190996
753.200785,1332.370696,6439.791695,2145.067394
753.201109,4737.318029,-9474.636058,10342.289223
753.201433,8660.409521,-33013.185013,10342.289223
753.201757,12435.459826,-18505.148550,6358.592633
753.202081,11473.192101,2368.659014,9652.803275
753.202405,7698.141797,-592.164754,9422.974625
753.202729,9326.594869,-20725.766376,-1685.410096
753.203053,5403.503377,-21243.910535,306.438199
753.203377,2960.823768,3256.906145,-4366.744339
753.203701,-1258.350101,8438.347739,-14019.547613
753.204026,-16950.716072,-14063.912898,-4290.134789
753.204350,-15470.304188,-21910.095883,-8580.269578
753.204674,-7920.203579,-9770.718434,-16088.005458
753.204998,-13841.851115,-740.205942,-2604.724693
753.205322,-10955.047942,-8882.471304,995.924147
753.205646,74.020594,-17987.004391,-2757.943793
753.205970,1036.288319,-7698.141797,-306.438199
753.206294,740.205942,3997.112087,3677.258390
753.206618,4737.318029,-13249.686362,9116.536426
753.206942,10362.883188,-29312.155303,9039.926876
753.207266,13693.809927,-16950.716072,8656.879127
753.207590,12435.459826,1036.288319,11338.213370
753.207914,9844.739029,-2738.761985,7737.564530
753.208238,9252.574275,-20059.581028,919.314598
753.208562,4219.173869,-17320.819043,229.828649
753.208887,-592.164754,5995.668130,-9346.365076
753.209211,-6587.832884,8364.327145,-12257.527968
753.209535,-17690.922014,-15988.448347,-1608.800546
753.209859,-11325.150913,-22946.384202,-10112.460574
753.210183,-8290.306550,-8290.306550,-14709.033562
753.210507,-16876.695478,888.247130,1072.533697
753.210831,-9474.636058,-9326.594869,-919.314598
753.211155,0.000000,-19467.416275,-2757.943793
753.211479,0.000000,-5551.544565,76.609550
753.211803,1480.411884,3034.844362,6588.421283
753.212127,7179.997637,-17838.963202,10495.508323
753.212451,12953.603985,-29830.299463,8427.050478
753.212775,14656.077652,-11547.212695,9193.145976
753.213099,11695.253884,2442.679609,12257.527968
753.213423,9918.759623,-6661.853478,6971.469032
753.213748,7698.141797,-22132.157666,0.000000
753.214072,2146.597232,-13471.748144,0.000000
753.214396,-962.267725,9400.615463,-9806.022374
753.214720,-8512.368333,3775.050304,-11414.822920
753.215044,-19171.333898,-19245.354492,-1378.971896
753.215368,-9992.780217,-19985.560434,-11108.384721
753.215692,-8216.285956,-5477.523971,-12563.966167
753.216016,-16728.654289,-296.082377,2374.896044
753.216340,-7105.977043,-11769.274478,-536.266849
753.216664,1480.411884,-17542.880825,-2298.286494
753.216988,1850.514855,-4293.194464,2374.896044
753.217312,4737.318029,0.000000,7814.174080
753.217636,10140.821405,-17912.983796,8427.050478
753.217961,13027.624579,-26277.310941,7354.516781
753.218285,13915.871710,-13101.645173,10495.508323
753.218609,13175.665768,-2516.700203,10265.679673
753.218933,11473.192101,-9696.697840,5822.325785
753.219257,5921.647536,-19097.313304,919.314598
753.219582,740.205942,-6513.812290,-3370.820191
753.219906,-2886.803174,10436.903782,-17160.539155
753.220230,-14730.098246,-5033.400406,-5822.325785
753.220554,-16802.674883,-21539.992912,-3447.429741
753.220878,-7105.977043,-14952.160028,-14325.985813
753.221203,-11917.315666,-2072.576638,-4443.353888
753.221527,-14285.974681,444.123565,76.609550
753.221851,-4071.132681,-13249.686362,-4903.011187
753.222175,0.000000,-14730.098246,-1532.190996
753.222499,2368.659014,-592.164754,1532.190996
753.222824,6143.709319,-8290.306550,9806.022374
753.223148,10436.903782,-25537.104999,8963.317327
753.223472,14211.954086,-20059.581028,8273.831378
753.223796,14434.015869,-5255.462188,9729.412825
753.224120,10214.842000,-3478.967927,8120.612279
753.224445,5699.585753,-17172.777854,153.219100
753.224769,2738.761985,-19097.313304,229.828649
753.225093,2960.823768,-1480.411884,-3294.210641
753.225417,-1480.411884,8808.450710,-13942.938064
753.225742,-14434.015869,-7402.059420,-5898.935335
753.226066,-17394.839637,-19319.375086,-5898.935335
753.226390,-8586.388927,-13397.727550,-15858.176809
753.226714,-13619.789333,-1850.514855,-5209.449386
753.227038,-15100.201217,-4441.235652,1302.362347
753.227363,-3404.947333,-15396.283594,-4060.306139
753.227687,222.061783,-11917.315666,-1762.019645
753.228011,-222.061783,518.144159,919.314598
753.228335,3552.988522,-9030.512492,8044.002729
753.228659,9400.615463,-27609.681637,8580.269578
753.228984,13989.892304,-21317.931130,8733.488677
753.229308,15396.283594,-3552.988522,10418.898773
753.229632,12213.398043,-2664.741391,7737.564530
753.229956,8364.327145,-18431.127956,1455.581446
753.230280,4145.153275,-19023.292709,-229.828649
753.230605,2294.638420,888.247130,-5822.325785
753.230929,-2146.597232,9474.636058,-12947.013916
753.231253,-14730.098246,-10362.883188,-3600.648841
753.231577,-13989.892304,-21391.951724,-5898.935335
753.231901,-7994.224174,-11473.192101,-15321.909960
753.232226,-15988.448347,74.020594,-2911.162892
753.232550,-14137.933492,-4737.318029,76.609550
753.232874,-2294.638420,-16284.530724,-3140.991542
753.233198,296.082377,-9918.759623,76.609550
753.233522,2590.720797,2960.823768,4290.134789
753.233847,6809.894666,-10140.821405,9576.193725
753.234171,11177.109724,-27757.722825,8810.098227
753.234495,14211.954086,-18357.107362,9882.631924
753.234819,14952.160028,-2368.659014,11491.432470
753.235143,12065.356855,-2960.823768,8044.002729
753.235468,7846.182985,-18135.045579,2374.896044
753.235792,3330.926739,-16432.571912,1225.752797
753.236116,962.267725,2220.617826,-6281.983084
753.236440,-5107.421000,6957.935855,-12334.137518
753.236765,-17172.777854,-12213.398043,-3140.991542
753.237089,-14582.057057,-20947.828159,-6741.640382
753.237413,-8660.409521,-9770.718434,-14709.033562
753.237737,-16284.530724,-222.061783,-612.876398
753.238061,-11473.192101,-7031.956449,-153.219100
753.238386,-1332.370696,-16284.530724,-2451.505594
753.238710,1998.556043,-9326.594869,1838.629195
753.239034,5255.462188,370.102971,5745.716235
753.239358,9918.759623,-11843.295072,9652.803275
753.239682,13989.892304,-26129.269753,8733.488677
753.240007,15248.242405,-17246.798449,10265.679673
753.240331,13619.789333,-4367.215058,9806.022374
753.240655,10658.965565,-5625.565159,6205.373534
753.240979,5921.647536,-17542.880825,1378.971896
753.241303,2220.617826,-13175.665768,-1225.752797
753.241628,-1998.556043,7328.038826,-14019.547613
753.241952,-10362.883188,1998.556043,-8886.707777
753.242276,-18283.086767,-19245.354492,-2681.334243
753.242600,-9252.574275,-19319.375086,-11491.432470
753.242924,-11029.068536,-6439.791695,-10035.851024
753.243249,-17542.880825,592.164754,1302.362347
753.243573,-8068.244768,-9918.759623,-4060.306139
753.243897,-444.123565,-17468.860231,-3140.991542
753.244221,1924.535449,-4663.297435,383.047749
753.244545,5551.544565,-3182.885551,7354.516781
753.244870,10288.862594,-20503.704593,9346.365076
753.245194,13619.789333,-24870.919651,8656.879127
753.245518,15322.262999,-11473.192101,9652.803275
753.245842,11769.274478,-1776.494261,8427.050478
753.246166,6439.791695,-10066.800811,2528.115143
753.246491,3404.947333,-19985.560434,-153.219100
753.246815,2960.823768,-8512.368333,-2145.067394
753.247139,-148.041188,6735.874072,-8963.317327
753.247463,-8438.347739,1628.453072,-9422.974625
753.247788,-17542.880825,-15988.448347,-3294.210641
753.248112,-10584.944971,-17616.901420,-12334.137518
753.248436,-10807.006753,-4885.359217,-12334.137518
753.248760,-17320.819043,-1776.494261,2068.457845
753.249084,-7846.182985,-12065.356855,-1991.848295
753.249409,962.267725,-15544.324782,-3064.381992
753.249733,1110.308913,-4589.276840,766.095498
753.250057,3627.009116,-2516.700203,6588.421283
753.250381,9178.553681,-18505.148550,6894.859482
753.250705,13397.727550,-26055.249158,7507.735880
753.251030,15618.345376,-12583.501014,10418.898773
753.251354,14137.933492,-3256.906145,9193.145976
753.251678,10288.862594,-9770.718434,3830.477490
753.252002,4441.235652,-16728.654289,153.219100
753.252326,1110.308913,-6883.915261,-3524.039291
753.252651,-2738.761985,8364.327145,-14325.985813
753.252975,-11695.253884,-3256.906145,-6435.202183
753.253299,-16136.489536,-18949.272115,-2604.724693
753.253623,-7698.141797,-15692.365970,-12640.575717
753.253947,-11991.336260,-3775.050304,-7354.516781
753.254272,-17172.777854,-962.267725,919.314598
753.254596,-7254.018232,-12435.459826,-3983.696590
753.254920,-1332.370696,-14656.077652,-2451.505594
753.255244,1998.556043,-2368.659014,1915.238745
753.255568,6809.894666,-6069.688724,9039.926876
753.255893,12213.398043,-23538.548956,9269.755526
753.256217,15100.201217,-22354.219448,8886.707777
753.256541,14878.139434,-8586.388927,10495.508323
753.256865,11399.171507,-3849.070898,8044.002729
753.257189,7105.977043,-14434.015869,2451.505594
753.257514,4145.153275,-18357.107362,229.828649
753.257838,2442.679609,-3701.029710,-3907.087040
753.258162,-2072.576638,7550.100608,-12947.013916
753.258486,-14211.954086,-7105.977043,-5209.449386
753.258811,-17690.922014,-19911.539840,-5439.278036
753.259135,-9474.636058,-13915.871710,-14709.033562
753.259459,-14137.933492,-1554.432478,-4749.792088
753.259783,-14211.954086,-3108.864956,1455.581446
753.260107,-3182.885551,-14137.933492,-3140.991542
753.260432,1480.411884,-12213.398043,0.000000
753.260756,4367.215058,-888.247130,3217.601092
753.261080,9104.533087,-7994.224174,9116.536426
753.261404,13249.686362,-23834.631332,8580.269578
753.261728,15396.283594,-20281.642811,10342.289223
753.262053,15618.345376,-7550.100608,11874.480219
753.262377,11843.295072,-4959.379811,7354.516781
753.262701,5625.565159,-15100.201217,3140.991542
753.263025,2146.597232,-15692.365970,-306.438199
753.263349,222.061783,1628.453072,-7890.783629
753.263674,-5773.606348,7328.038826,-12257.527968
753.263998,-18653.189738,-10807.006753,-3677.258390
753.264322,-16210.510130,-19245.354492,-7354.516781
753.264646,-10436.903782,-10362.883188,-13942.938064
753.264970,-16876.695478,-666.185348,-76.609550
753.265295,-11769.274478,-5033.400406,-459.657299
753.265619,-888.247130,-14285.974681,-3370.820191
753.265943,2294.638420,-8956.491898,1838.629195
753.266267,5847.626942,-1184.329507,5056.230287
753.266591,9474.636058,-13767.830521,9116.536426
753.266916,12435.459826,-26055.249158,9422.974625
753.267240,14952.160028,-16580.613101,10648.727422
753.267564,14063.912898,-4145.153275,9422.974625
753.267888,9992.780217,-6069.688724,5439.278036
753.268213,3849.070898,-16802.674883,383.047749
753.268537,1628.453072,-13397.727550,-306.438199
753.268861,370.102971,2072.576638,-6281.983084
753.269185,-5995.668130,4737.318029,-12104.308868
753.269509,-17320.819043,-10510.924376,-4366.744339
753.269834,-15618.345376,-18431.127956,-7507.735880
753.270158,-10140.821405,-9992.780217,-14632.424012
753.270482,-15914.427753,-2146.597232,-383.047749
753.270806,-11769.274478,-8660.409521,0.000000
753.271130,-1332.370696,-15174.221811,-3677.258390
753.271455,1850.514855,-9178.553681,919.314598
753.271779,4589.276840,-2220.617826,4519.963438
753.272103,9622.677246,-13767.830521,8120.612279
753.272427,13841.851115,-25167.002028,7201.297681
753.272751,15396.283594,-17468.860231,9882.631924
753.273076,14730.098246,-6365.771101,10342.289223
753.273400,12657.521608,-8882.471304,6358.592633
753.273724,7105.977043,-16580.613101,2145.067394
753.274048,3182.885551,-10955.047942,-1685.410096
753.274372,-2294.638420,6291.750507,-15092.081311
753.274697,-10881.027347,-666.185348,-7354.516781
753.275021,-16802.674883,-18061.024985,-3294.210641
753.275345,-8734.430116,-17098.757260,-12104.308868
753.275669,-11103.089130,-5255.462188,-7354.516781
753.275993,-16728.654289,222.061783,536.266849
753.276318,-8068.244768,-9474.636058,-4290.134789
753.276642,-1998.556043,-14656.077652,-3217.601092
753.276966,1850.514855,-3701.029710,1685.410096
753.277290,7550.100608,-4737.318029,8656.879127
753.277614,11251.130318,-20355.663405,8427.050478
753.277939,13101.645173,-22724.322419,10955.165621
753.278263,14804.118840,-10732.986159,11031.775171
753.278587,12287.418637,-4737.318029,8197.221829
753.278911,7105.977043,-12213.398043,3370.820191
753.279236,3108.864956,-16802.674883,306.438199
753.279560,2886.803174,-5995.668130,-1072.533697
753.279884,-666.185348,4737.318029,-6818.249932
753.280208,-9474.636058,370.102971,-10265.679673
753.280532,-20059.581028,-14063.912898,-3600.648841
753.280857,-14211.954086,-16062.468941,-11261.603821
753.281181,-12361.439231,-5255.462188,-11721.261119
753.281505,-17024.736666,-3182.885551,2604.724693
753.281829,-7328.038826,-10658.965565,-383.047749
753.282153,1998.556043,-13101.645173,-1225.752797
753.282478,3330.926739,-5995.668130,1685.410096
753.282802,6217.729913,-3182.885551,6281.983084
753.283126,11843.295072,-16876.695478,7737.564530
753.283450,15248.242405,-24574.837274,8580.269578
753.283774,15470.304188,-13471.748144,11261.603821
753.284099,13767.830521,-5403.503377,8503.660028
753.284423,9326.594869,-10214.842000,4673.182538
753.284747,3478.967927,-16210.510130,-153.219100
753.285071,-296.082377,-6661.853478,-4290.134789
753.285395,-5181.441594,7846.182985,-14785.643111
753.285720,-14508.036463,-4737.318029,-6511.811733
753.286044,-18061.024985,-20133.601622,-4366.744339
753.286368,-9400.615463,-15100.201217,-13253.452115
753.286692,-12953.603985,-3775.050304,-5975.544884
753.287016,-14878.139434,-2590.720797,459.657299
753.287341,-4737.318029,-12731.542202,-4060.306139
753.287665,1258.350101,-13767.830521,-1302.362347
753.287989,4589.276840,-2442.679609,3140.991542
753.288313,8734.430116,-8438.347739,8810.098227
753.288637,12509.480420,-23834.631332,7431.126331
753.288962,14656.077652,-20947.828159,9039.926876
753.289286,15248.242405,-8808.450710,9729.412825
753.289610,12361.439231,-5551.544565,6971.469032
753.289934,6957.935855,-14137.933492,1378.971896
753.290259,2960.823768,-13915.871710,-1149.143247
753.290583,296.082377,740.205942,-7354.516781
753.290907,-4811.338623,4737.318029,-12717.185267
753.291231,-15396.283594,-11325.150913,-4903.011187
753.291555,-13471.748144,-18357.107362,-6741.640382
753.291880,-9400.615463,-9770.718434,-13406.671215
753.292204,-16062.468941,-1184.329507,-612.876398
753.292528,-11843.295072,-6143.709319,-842.705048
753.292852,-2886.803174,-15248.242405,-4136.915689
753.293176,888.247130,-9178.553681,0.000000
753.293501,5107.421000,-1850.514855,4519.963438
753.293825,9030.512492,-13249.686362,8427.050478
753.294149,11695.253884,-23316.487173,7277.907231
753.294473,13249.686362,-16580.613101,10495.508323
753.294797,13915.871710,-6957.935855,9422.974625
753.295122,10807.006753,-8364.327145,4903.011187
753.295446,4885.359217,-15544.324782,1838.629195
753.295770,3478.967927,-9770.718434,-689.485948
753.296094,740.205942,4589.276840,-8886.707777
753.296418,-6735.874072,1110.308913,-9193.145976
753.296743,-16580.613101,-14878.139434,-2528.115143
753.297067,-12509.480420,-17542.880825,-8733.488677
753.297391,-10510.924376,-6883.915261,-10495.508323
753.297715,-16580.613101,-888.247130,1072.533697
753.298039,-9770.718434,-8660.409521,-1762.019645
753.298364,-1480.411884,-14211.954086,-2451.505594
753.298688,1998.556043,-5773.606348,995.924147
753.299012,5477.523971,-3701.029710,6511.811733
753.299336,9252.574275,-17172.777854,8044.002729
753.299660,11917.315666,-23464.528361,9269.755526
753.299985,12953.603985,-13101.645173,9959.241474
753.300309,12509.480420,-4885.359217,9193.145976
753.300633,8882.471304,-9918.759623,4596.572988
753.300957,3923.091493,-16876.695478,1149.143247
753.301282,2442.679609,-9400.615463,-1455.581446
753.301606,148.041188,2664.741391,-6128.763984
753.301930,-6735.874072,1332.370696,-10189.070123
753.302254,-17320.819043,-13101.645173,-3753.867940
753.302578,-14804.118840,-16728.654289,-8580.269578
753.302903,-11325.150913,-7402.059420,-11031.775171
753.303227,-15766.386565,-4145.153275,842.705048
753.303551,-9918.759623,-10436.903782,-306.438199
753.303875,-296.082377,-13249.686362,-2221.676944
753.304199,3256.906145,-5625.565159,1915.238745
753.304524,6587.832884,-2960.823768,5439.278036
753.304848,10362.883188,-15914.427753,8120.612279
753.305172,13323.706956,-23390.507767,7660.954980
753.305496,15026.180623,-14656.077652,10955.165621
753.305820,14730.098246,-5625.565159,8503.660028
753.306145,10881.027347,-9178.553681,5515.887586
753.306469,5329.482782,-14434.015869,1378.971896
753.306793,666.185348,-6365.771101,-4673.182538
753.307117,-3627.009116,5107.421000,-14479.204912
753.307441,-13027.624579,-6513.812290,-5515.887586
753.307766,-14434.015869,-18505.148550,-5515.887586
753.308090,-9696.697840,-13175.665768,-11951.089769
753.308414,-14285.974681,-4071.132681,-2911.162892
753.308738,-13471.748144,-2738.761985,-919.314598
753.309062,-5329.482782,-11917.315666,-5362.668486
753.309387,-1406.391290,-11621.233289,-1302.362347
753.309711,3627.009116,-1628.453072,1685.410096
753.310035,7846.182985,-10436.903782,8503.660028
753.310359,10658.965565,-25167.002028,8810.098227
753.310683,13249.686362,-19615.457463,10189.070123
753.311008,15692.365970,-7031.956449,8963.317327
753.311332,11029.068536,-6143.709319,6205.373534
753.311656,6365.771101,-16062.468941,1225.752797
753.311980,4589.276840,-14508.036463,-459.657299
753.312305,2886.803174,0.000000,-3983.696590
753.312629,-2664.741391,4293.194464,-11874.480219
753.312953,-14582.057057,-10140.821405,-5286.058936
753.313277,-16358.551318,-17394.839637,-7431.126331
753.313601,-10140.821405,-9918.759623,-13559.890315
753.313926,-14359.995275,-2294.638420,-1838.629195
753.314250,-12065.356855,-6143.709319,0.000000
753.314574,-2590.720797,-13693.809927,-3064.381992
753.314898,148.041188,-8068.244768,-306.438199
753.315222,3478.967927,-444.123565,3294.210641
753.315547,7550.100608,-12065.356855,7584.345430
753.315871,11029.068536,-24944.940245,7584.345430
753.316195,13323.706956,-17616.901420,10495.508323
753.316519,14730.098246,-5995.668130,9499.584175
753.316843,11621.233289,-6661.853478,6511.811733
753.317168,6069.688724,-16506.592507,2068.457845
753.317492,3330.926739,-13175.665768,-1685.410096
753.317816,-962.267725,3849.070898,-10342.289223
753.318140,-8142.265362,2590.720797,-9499.584175
753.318464,-17468.860231,-15988.448347,-3524.039291
753.318789,-12361.439231,-18949.272115,-9116.536426
753.319113,-10288.862594,-7328.038826,-10418.898773
753.319437,-16358.551318,-370.102971,766.095498
753.319761,-8882.471304,-7994.224174,-2221.676944
753.320085,-1258.350101,-15100.201217,-2757.943793
753.320409,2220.617826,-5477.523971,1225.752797
753.320733,6069.688724,-2664.741391,7048.078582
753.321057,9622.677246,-18209.066173,9729.412825
753.321382,12065.356855,-23094.425390,8656.879127
753.321706,12361.439231,-10510.924376,9882.631924
753.322030,11251.130318,-3034.844362,8886.707777
753.322354,8364.327145,-9548.656652,4290.134789
753.322678,4293.194464,-19541.436869,383.047749
753.323002,1998.556043,-10066.800811,-1991.848295
753.323326,-1702.473667,6809.894666,-9882.631924
753.323651,-9918.759623,-2072.576638,-7584.345430
753.323975,-17912.983796,-18949.272115,-3677.258390
753.324299,-11547.212695,-17912.983796,-12180.918418
753.324623,-11029.068536,-5329.482782,-9729.412825
753.324947,-15026.180623,-2590.720797,2528.115143
753.325271,-5699.585753,-12879.583391,-1608.800546
753.325595,1184.329507,-14582.057057,-1225.752797
753.325920,3627.009116,-3108.864956,2604.724693
753.326244,7698.141797,-4367.215058,7814.174080
753.326568,11843.295072,-19837.519246,7737.564530
753.326892,13175.665768,-22280.198854,8503.660028
753.327216,14063.912898,-10140.821405,10572.117872
753.327540,12435.459826,-4293.194464,8197.221829
753.327864,8438.347739,-12139.377449,4213.525239
753.328189,3552.988522,-16136.489536,0.000000
753.328513,-666.185348,-1776.494261,-6281.983084
753.328837,-4071.132681,7994.224174,-14325.985813
753.329161,-14952.160028,-8956.491898,-4213.525239
753.329485,-14508.036463,-20651.745782,-5822.325785
753.329809,-8956.491898,-11769.274478,-13100.233016
753.330133,-14434.015869,-1554.432478,-919.314598
753.330458,-11325.150913,-3108.864956,-1072.533697
753.330782,-2516.700203,-14063.912898,-4136.915689
753.331106,1406.391290,-12139.377449,1302.362347
753.331430,5773.606348,-2516.700203,4290.134789
753.331754,9992.780217,-12213.398043,9193.145976
753.332078,11547.212695,-24130.713709,9193.145976
753.332402,12361.439231,-16284.530724,9346.365076
753.332727,12361.439231,-6735.874072,9882.631924
753.333051,9474.636058,-7179.997637,6128.763984
753.333375,4885.359217,-16284.530724,1608.800546
753.333699,2812.782580,-13175.665768,-995.924147
753.334023,740.205942,4071.132681,-7354.516781
753.334347,-5699.585753,4811.338623,-11721.261119
753.334671,-17542.880825,-13027.624579,-4290.134789
753.334996,-14730.098246,-18431.127956,-9806.022374
753.335320,-10584.944971,-9104.533087,-13176.842566
753.335644,-15100.201217,-1776.494261,536.266849
753.335968,-8290.306550,-8068.244768,-689.485948
753.336292,740.205942,-14952.160028,-2451.505594
753.336616,3701.029710,-8660.409521,689.485948
753.336940,6291.750507,-3256.906145,5209.449386
753.337265,9992.780217,-15396.283594,8044.002729
753.337589,12657.521608,-24130.713709,8886.707777
753.337913,13323.706956,-14656.077652,10112.460574
753.338237,12065.356855,-4811.338623,8810.098227
753.338561,7846.182985,-8290.306550,4596.572988
753.338885,2664.741391,-17246.798449,0.000000
753.339209,888.247130,-9770.718434,-3753.867940
753.339534,-2442.679609,8438.347739,-14709.033562
753.339858,-11547.212695,-370.102971,-6894.859482
753.340182,-17690.922014,-18653.189738,-3830.477490
753.340506,-10214.842000,-17616.901420,-14402.595362
753.340830,-12805.562797,-5847.626942,-7814.174080
753.341154,-15544.324782,-1184.329507,536.266849
753.341478,-4959.379811,-11251.130318,-3677.258390
753.341803,1110.308913,-15322.262999,-2068.457845
753.342127,3627.009116,-2886.803174,1762.019645
753.342451,7328.038826,-6291.750507,8580.269578
753.342775,11399.171507,-23760.610738,9422.974625
753.343099,12657.521608,-23242.466579,9576.193725
753.343423,13471.748144,-8290.306550,9882.631924
753.343747,9770.718434,-1924.535449,8120.612279
753.344072,4811.338623,-12731.542202,2757.943793
753.344396,3775.050304,-19689.478057,-306.438199
753.344720,3182.885551,-4811.338623,-3983.696590
753.345044,-2072.576638,8512.368333,-12027.699319
753.345368,-13323.706956,-5033.400406,-5669.106685
753.345692,-17246.798449,-19097.313304,-5056.230287
753.346016,-9030.512492,-14211.954086,-14479.204912
753.346341,-12287.418637,-2664.741391,-4903.011187
753.346665,-12805.562797,-3478.967927,1915.238745
753.346989,-1850.514855,-14359.995275,-2681.334243
753.347313,3182.885551,-12509.480420,1149.143247
753.347637,5921.647536,-1406.391290,4673.182538
753.347961,9844.739029,-7402.059420,9499.584175
753.348285,11991.336260,-22280.198854,7354.516781
753.348610,11769.274478,-20133.601622,9806.022374
753.348934,12731.542202,-8142.265362,10725.336972
753.349258,11103.089130,-5181.441594,6894.859482
753.349582,5329.482782,-13397.727550,3677.258390
753.349906,1554.432478,-13841.851115,-919.314598
753.350230,-1480.411884,3775.050304,-11184.994271
753.350554,-7254.018232,5773.606348,-11031.775171
753.350879,-16506.592507,-13249.686362,-3907.087040
753.351203,-11621.233289,-18801.230927,-8427.050478
753.351527,-9326.594869,-8660.409521,-11721.261119
753.351851,-16210.510130,-666.185348,766.095498
753.352175,-9474.636058,-6661.853478,-2451.505594
753.352499,-592.164754,-16284.530724,-3294.210641
753.352823,3701.029710,-8882.471304,2298.286494
753.353148,8512.368333,-3404.947333,7048.078582
753.353472,10732.986159,-16210.510130,9039.926876
753.353796,11769.274478,-24722.878463,10189.070123
753.354120,12213.398043,-14211.954086,10265.679673
753.354444,9992.780217,-4737.318029,7431.126331
753.354768,4737.318029,-8142.265362,3753.867940
753.355092,1406.391290,-17542.880825,0.000000
753.355417,2442.679609,-11103.089130,-1685.410096
753.355741,1480.411884,5551.544565,-9039.926876
753.356065,-7328.038826,2220.617826,-9806.022374
753.356389,-18209.066173,-14878.139434,-3907.087040
753.356713,-12435.459826,-18061.024985,-12257.527968
753.357037,-11103.089130,-7698.141797,-12180.918418
753.357361,-15840.407159,-2220.617826,1685.410096
753.357686,-6069.688724,-10881.027347,-1608.800546
753.358010,2886.803174,-16580.613101,-1455.581446
753.358334,4071.132681,-6291.750507,2068.457845
753.358658,6365.771101,-3627.009116,6588.421283
753.358982,9474.636058,-18579.169144,7354.516781
753.359306,11621.233289,-24944.940245,8273.831378
753.359630,12583.501014,-12287.418637,10035.851024
753.359954,11843.295072,-3182.885551,8120.612279
753.360279,8290.306550,-10066.800811,4366.744339
753.360603,4367.215058,-18135.045579,536.266849
753.360927,3182.885551,-6587.832884,-4366.744339
753.361251,-592.164754,9252.574275,-14325.985813
753.361575,-11991.336260,-2960.823768,-4903.011187
753.361899,-15840.407159,-18727.210333,-4596.572988
753.362223,-9474.636058,-15322.262999,-14479.204912
753.362548,-13915.871710,-3701.029710,-5669.106685
753.362872,-14804.118840,-1628.453072,383.047749
753.363196,-4293.194464,-12879.583391,-4136.915689
753.363520,1184.329507,-13989.892304,-383.047749
753.363844,3627.009116,-370.102971,3294.210641
753.364168,6291.750507,-7105.977043,8733.488677
753.364492,8512.368333,-25981.228564,9652.803275
753.364817,11029.068536,-21614.013506,9806.022374
753.365141,13471.748144,-5181.441594,9346.365076
753.365465,9252.574275,-1628.453072,8197.221829
753.365789,5699.585753,-14952.160028,2451.505594
753.366113,5181.441594,-19393.395680,919.314598
753.366437,4737.318029,-3034.844362,-2834.553343
753.366761,-1184.329507,8438.347739,-11184.994271
753.367086,-14211.954086,-5995.668130,-5286.058936
753.367410,-18505.148550,-18949.272115,-6511.811733
753.367734,-11177.109724,-13545.768739,-15092.081311
753.368058,-13545.768739,-2664.741391,-5439.278036
753.368382,-12657.521608,-5181.441594,919.314598
753.368706,-1998.556043,-13915.871710,-2145.067394
753.369030,3034.844362,-11029.068536,306.438199
753.369355,4293.194464,666.185348,3370.820191
753.369679,7179.997637,-8660.409521,8427.050478
753.370003,9992.780217,-25759.166782,8656.879127
753.370327,12435.459826,-21317.931130,10112.460574
753.370651,15026.180623,-5551.544565,10112.460574
753.370975,11473.192101,-3182.885551,7277.907231
753.371299,7105.977043,-16580.613101,4596.572988
753.371624,4737.318029,-19467.416275,-306.438199
753.371948,1480.411884,-222.061783,-8656.879127
753.372272,-5699.585753,8142.265362,-13253.452115
753.372596,-18505.148550,-11177.109724,-4290.134789
753.372920,-15692.365970,-20947.828159,-9039.926876
753.373244,-9992.780217,-10732.986159,-14402.595362
753.373568,-15470.304188,-592.164754,-689.485948
753.373893,-9104.533087,-4959.379811,-1455.581446
753.374217,740.205942,-15840.407159,-3447.429741
753.374541,3256.906145,-8660.409521,1302.362347
753.374865,6291.750507,1628.453072,4903.011187
753.375189,7994.224174,-14952.160028,10265.679673
753.375513,9622.677246,-28497.928767,10112.460574
753.375837,13027.624579,-13915.871710,7660.954980
753.376162,12435.459826,-814.226536,10035.851024
753.376486,9030.512492,-6365.771101,6741.640382
753.376810,7624.121203,-20725.766376,229.828649
753.377134,3404.947333,-15396.283594,459.657299
753.377458,148.041188,6735.874072,-9346.365076
753.377782,-8512.368333,5403.503377,-10955.165621
753.378106,-19393.395680,-15988.448347,-3677.258390
753.378431,-12731.542202,-18949.272115,-11568.042020
753.378755,-10436.903782,-7031.956449,-12257.527968
753.379079,-15766.386565,-370.102971,919.314598
753.379403,-7624.121203,-10066.800811,-612.876398
753.379727,1628.453072,-17320.819043,-2451.505594
753.380051,3997.112087,-4145.153275,1991.848295
753.380375,4885.359217,296.082377,6435.202183
753.380700,6513.812290,-20059.581028,8656.879127
753.381024,9548.656652,-26499.372724,8120.612279
753.381348,12879.583391,-9918.759623,8120.612279
753.381672,10881.027347,148.041188,10725.336972
753.381996,10140.821405,-9326.594869,5056.230287
753.382320,7846.182985,-21762.054695,842.705048
753.382644,3923.091493,-9770.718434,-1302.362347
753.382969,-962.267725,10362.883188,-13253.452115
753.383293,-11695.253884,-666.185348,-7354.516781
753.383617,-19023.292709,-20355.663405,-4749.792088
753.383941,-10732.986159,-18283.086767,-12640.575717
753.384265,-11843.295072,-4959.379811,-8427.050478
753.384589,-14285.974681,-1258.350101,1072.533697
753.384913,-4441.235652,-12657.521608,-2374.896044
753.385238,1480.411884,-15692.365970,-1225.752797
753.385562,2812.782580,-444.123565,919.314598
753.385886,3330.926739,-3923.091493,7814.174080
753.386210,6439.791695,-25463.084405,11414.822920
753.386534,10881.027347,-24204.734303,8580.269578
753.386858,13323.706956,-5107.421000,7890.783629
753.387182,9030.512492,370.102971,10112.460574
753.387507,8290.306550,-13767.830521,3140.991542
753.387831,7550.100608,-22798.343014,459.657299
753.388155,4145.153275,-5847.626942,-2221.676944
753.388479,-814.226536,10584.944971,-11951.089769
753.388803,-13249.686362,-5699.585753,-6052.154434
753.389127,-17468.860231,-21317.931130,-6358.592633
753.389451,-9030.512492,-15248.242405,-14172.766713
753.389776,-11695.253884,-2960.823768,-5592.497135
753.390100,-12139.377449,-3256.906145,306.438199
753.390424,-2664.741391,-14359.995275,-2221.676944
753.390748,2738.761985,-12287.418637,-306.438199
753.391072,3923.091493,1628.453072,2681.334243
753.391396,5551.544565,-6661.853478,8810.098227
753.391720,7179.997637,-26055.249158,10035.851024
753.392045,11399.171507,-20725.766376,9269.755526
753.392369,13619.789333,-2664.741391,8197.221829
753.392693,9400.615463,-1332.370696,9499.584175
753.393017,8956.491898,-17024.736666,2911.162892
753.393341,7031.956449,-20503.704593,612.876398
753.393665,2294.638420,0.000000,-5209.449386
753.393989,-4293.194464,9178.553681,-12870.404366
753.394314,-17172.777854,-9992.780217,-4749.792088
753.394638,-14730.098246,-21465.972318,-8350.440928
753.394962,-9252.574275,-12213.398043,-14172.766713
753.395286,-14730.098246,-444.123565,-2604.724693
753.395610,-9770.718434,-3404.947333,-689.485948
753.395934,-444.123565,-15692.365970,-2528.115143
753.396258,3404.947333,-10066.800811,1149.143247
753.396582,5255.462188,2516.700203,3677.258390
753.396907,4959.379811,-12879.583391,9959.241474
753.397231,6735.874072,-29460.196492,11108.384721
753.397555,11917.315666,-15766.386565,6818.249932
753.397879,11399.171507,592.164754,9499.584175
753.398203,7698.141797,-3627.009116,9039.926876
753.398527,9030.512492,-20503.704593,-306.438199
753.398851,5625.565159,-19467.416275,919.314598
753.399176,1702.473667,3034.844362,-5592.497135
753.399500,-4811.338623,8142.265362,-13100.233016
753.399824,-18209.066173,-13175.665768,-4903.011187
753.400148,-15618.345376,-21095.869347,-9652.803275
753.400472,-10288.862594,-9918.759623,-14172.766713
753.400796,-13989.892304,-1184.329507,-2451.505594
753.401120,-9696.697840,-7698.141797,-306.438199
753.401445,1628.453072,-17246.798449,-1915.238745
753.401769,4515.256246,-7846.182985,229.828649
753.402093,4441.235652,2072.576638,4290.134789
753.402417,5033.400406,-14582.057057,9193.145976
753.402741,8438.347739,-28201.846390,8350.440928
753.403065,13619.789333,-16062.468941,8273.831378
753.403389,11991.336260,-888.247130,10112.460574
753.403714,9400.615463,-4737.318029,6511.811733
753.404038,8512.368333,-20429.683999,1378.971896
753.404362,4737.318029,-15100.201217,-1072.533697
753.404686,-1628.453072,7624.121203,-11874.480219
753.405010,-10362.883188,4589.276840,-9652.803275
753.405334,-17320.819043,-17246.798449,-4060.306139
753.405658,-9474.636058,-20503.704593,-12717.185267
753.405983,-9844.739029,-6957.935855,-11261.603821
753.406307,-15692.365970,296.082377,76.609550
753.406631,-7254.018232,-9548.656652,-2604.724693
753.406955,740.205942,-17912.983796,-1838.629195
753.407279,3256.906145,-4515.256246,1608.800546
753.407603,5329.482782,-592.164754,7048.078582
753.407927,6587.832884,-20133.601622,9269.755526
753.408252,9104.533087,-26277.310941,9346.365076
753.408576,12953.603985,-10066.800811,7967.393179
753.408900,9918.759623,222.061783,9806.022374
753.409224,6883.915261,-8734.430116,4673.182538
753.409548,6143.709319,-20429.683999,-153.219100
753.409872,4737.318029,-10881.027347,-612.876398
753.410196,74.020594,7254.018232,-8733.488677
753.410521,-9326.594869,2294.638420,-9806.022374
753.410845,-18727.210333,-16506.592507,-4060.306139
753.411169,-11251.130318,-18875.251521,-12027.699319
753.411493,-10362.883188,-6661.853478,-12027.699319
753.411817,-15544.324782,-2516.700203,1072.533697
753.412141,-5699.585753,-11917.315666,-689.485948
753.412465,3330.926739,-16580.613101,-153.219100
753.412790,3849.070898,-4219.173869,2757.943793
753.413114,4293.194464,-1554.432478,7201.297681
753.413438,7254.018232,-19245.354492,9039.926876
753.413762,11695.253884,-26351.331535,8886.707777
753.414086,14582.057057,-12361.439231,10572.117872
753.414410,11843.295072,-1184.329507,9422.974625
753.414734,8660.409521,-9104.533087,5362.668486
753.415059,6365.771101,-19763.498651,1378.971896
753.415383,3330.926739,-8882.471304,-3370.820191
753.415707,-3256.906145,9178.553681,-13942.938064
753.416031,-14804.118840,-2220.617826,-6435.202183
753.416355,-18579.169144,-20059.581028,-4596.572988
753.416679,-9030.512492,-17690.922014,-13942.938064
753.417003,-11621.233289,-3849.070898,-5669.106685
753.417328,-14285.974681,-370.102971,919.314598
753.417652,-3256.906145,-12139.377449,-3294.210641
753.417976,2368.659014,-14508.036463,229.828649
753.418300,5107.421000,-370.102971,2681.334243
753.418624,7105.977043,-5995.668130,9729.412825
753.418948,9252.574275,-24204.734303,10495.508323
753.419272,12731.542202,-21984.116477,9806.022374
753.419597,14137.933492,-5625.565159,9652.803275
753.419921,9178.553681,-1480.411884,8656.879127
753.420245,5329.482782,-13989.892304,2834.553343
753.420569,4737.318029,-19985.560434,612.876398
753.420893,2960.823768,-4219.173869,-3294.210641
753.421217,-2664.741391,9622.677246,-12563.966167
753.421541,-15692.365970,-4293.194464,-6971.469032
753.421866,-19763.498651,-19689.478057,-6511.811733
753.422190,-10584.944971,-15470.304188,-14709.033562
753.422514,-12953.603985,-2960.823768,-6511.811733
753.422838,-13323.706956,-3627.009116,1072.533697
753.423162,-1776.494261,-13693.809927,-2068.457845
753.423487,4219.173869,-12731.542202,153.219100
753.423811,5847.626942,-888.247130,2604.724693
753.424135,6217.729913,-8956.491898,8120.612279
753.424459,8882.471304,-26055.249158,9729.412825
753.424784,13323.706956,-21095.869347,8733.488677
753.425108,14878.139434,-4663.297435,9193.145976
753.425432,9918.759623,-2368.659014,7814.174080
753.425756,6513.812290,-15618.345376,2834.553343
753.426081,5107.421000,-19763.498651,-612.876398
753.426405,1258.350101,-370.102971,-7814.174080
753.426729,-5625.565159,9400.615463,-13866.328514
753.427053,-18727.210333,-9696.697840,-4749.792088
753.427378,-15618.345376,-21688.034101,-9269.755526
753.427702,-10140.821405,-13101.645173,-14785.643111
753.428026,-15396.283594,-1406.391290,-1762.019645
753.428350,-10214.842000,-4367.215058,-1225.752797
753.428674,0.000000,-16136.489536,-2451.505594
753.428999,3552.988522,-9622.677246,1225.752797
753.429323,5995.668130,1998.556043,3830.477490
753.429647,5995.668130,-14285.974681,10265.679673
753.429971,8142.265362,-30200.402434,10725.336972
753.430296,13545.768739,-15470.304188,7507.735880
753.430620,13027.624579,0.000000,10189.070123
753.430944,8438.347739,-4515.256246,7890.783629
753.431268,7179.997637,-20577.725188,766.095498
753.431593,4515.256246,-16802.674883,0.000000
753.431917,222.061783,5847.626942,-8427.050478
753.432241,-7846.182985,6291.750507,-10878.556072
753.432565,-18431.127956,-14656.077652,-3830.477490
753.432890,-11695.253884,-19393.395680,-10955.165621
753.433214,-8660.409521,-7994.224174,-11797.870669
753.433538,-14359.995275,-222.061783,0.000000
753.433862,-8216.285956,-7920.203579,-1378.971896
753.434186,962.267725,-16580.613101,-1608.800546
753.434511,4071.132681,-5329.482782,1838.629195
753.434835,5921.647536,666.185348,6281.983084
753.435159,6291.750507,-17172.777854,8963.317327
753.435483,8882.471304,-27831.743419,9882.631924
753.435808,13027.624579,-13027.624579,8810.098227
753.436132,12435.459826,0.000000,10035.851024
753.436456,7179.997637,-6809.894666,6358.592633
753.436780,5847.626942,-20355.663405,1225.752797
753.437105,4589.276840,-12583.501014,-1685.410096
753.437429,-1258.350101,8438.347739,-12257.527968
753.437753,-11251.130318,2368.659014,-7967.393179
753.438077,-18875.251521,-18209.066173,-3907.087040
753.438402,-9696.697840,-20059.581028,-12487.356617
753.438726,-10066.800811,-5995.668130,-9806.022374
753.439050,-14804.118840,222.061783,919.314598
753.439374,-4885.359217,-11177.109724,-2451.505594
753.439698,2220.617826,-17616.901420,-842.705048
753.440023,4589.276840,-2960.823768,1608.800546
753.440347,5921.647536,-2220.617826,8273.831378
753.440671,7846.182985,-22354.219448,10265.679673
753.440995,11029.068536,-25092.981434,8273.831378
753.441320,13027.624579,-7328.038826,7814.174080
753.441644,8882.471304,444.123565,8810.098227
753.441968,6143.709319,-11843.295072,3753.867940
753.442292,5403.503377,-22206.178260,-229.828649
753.442617,3404.947333,-8586.388927,-2221.676944
753.442941,-2072.576638,9326.594869,-11644.651570
753.443265,-12805.562797,-2294.638420,-7890.783629
753.443589,-18653.189738,-20947.828159,-4903.011187
753.443914,-8956.491898,-18357.107362,-13866.328514
753.444238,-10955.047942,-4219.173869,-8810.098227
753.444562,-14656.077652,-2664.741391,842.705048
753.444886,-3997.112087,-13619.789333,-2604.724693
753.445210,3627.009116,-15840.407159,-459.657299
753.445535,4367.215058,-1332.370696,2298.286494
753.445859,6143.709319,-4663.297435,8120.612279
753.446183,9178.553681,-22206.178260,8273.831378
753.446507,12657.521608,-23094.425390,7737.564530
753.446832,14359.995275,-8216.285956,10265.679673
753.447156,11029.068536,-1702.473667,8044.002729
753.447480,7105.977043,-12213.398043,3294.210641
753.447804,4663.297435,-18283.086767,0.000000
753.448129,2590.720797,-3330.926739,-4749.792088
753.448453,-4737.318029,9992.780217,-13789.718964
753.448777,-15914.427753,-5181.441594,-5898.935335
753.449101,-17098.757260,-20503.704593,-4826.401637
753.449426,-7105.977043,-15322.262999,-14632.424012
753.449750,-12139.377449,-2146.597232,-5132.839837
753.450074,-13619.789333,-1776.494261,76.609550
753.450398,-2368.659014,-14285.974681,-3140.991542
753.450722,3182.885551,-15174.221811,459.657299
753.451047,6069.688724,-2220.617826,3294.210641
753.451371,7550.100608,-7105.977043,9499.584175
753.451695,10584.944971,-23464.528361,8120.612279
753.452019,12361.439231,-21317.931130,9116.536426
753.452344,12953.603985,-7328.038826,10035.851024
753.452668,8216.285956,-2738.761985,6665.030833
753.452992,2664.741391,-13397.727550,1149.143247
753.453316,740.205942,-16580.613101,-689.485948
753.453641,1110.308913,-1924.535449,-4749.792088
753.453965,-5477.523971,8142.265362,-10725.336972
753.454289,-15322.262999,-3627.009116,-7431.126331
753.454613,-18135.045579,-17394.839637,-4826.401637
753.454938,-8882.471304,-15026.180623,-12640.575717
753.455262,-10955.047942,-3108.864956,-8350.440928
753.455586,-13619.789333,-4367.215058,1532.190996
753.455910,-1554.432478,-14285.974681,-536.266849
753.456234,5699.585753,-15840.407159,1378.971896
753.456559,7254.018232,-5107.421000,4519.963438
753.456883,9178.553681,-5477.523971,8273.831378
753.457207,12139.377449,-19023.292709,7201.297681
753.457531,13915.871710,-22650.301825,7814.174080
753.457856,13397.727550,-12731.542202,10955.165621
753.458180,10807.006753,-6513.812290,6894.859482
753.458504,5773.606348,-11991.336260,3140.991542
753.458828,592.164754,-13249.686362,-383.047749
753.459153,-3478.967927,2146.597232,-12257.527968
753.459477,-9696.697840,4737.318029,-11797.870669
753.459801,-18135.045579,-12805.562797,-4519.963438
753.460125,-11251.130318,-18875.251521,-9116.536426
753.460450,-8216.285956,-9770.718434,-10035.851024
753.460774,-14508.036463,-1258.350101,-229.828649
753.461098,-8216.285956,-5699.585753,-1915.238745
753.461422,-592.164754,-15766.386565,-2911.162892
753.461746,4071.132681,-11029.068536,2604.724693
753.462071,9474.636058,-5033.400406,6741.640382
753.462395,12213.398043,-13989.892304,8810.098227
753.462719,13323.706956,-21317.931130,9116.536426
753.463043,13397.727550,-15396.283594,10955.165621
753.463368,11695.253884,-8290.306550,9269.755526
753.463692,6217.729913,-9844.739029,4519.963438
753.464016,1628.453072,-15248.242405,459.657299
753.464340,1036.288319,-7624.121203,-1532.190996
753.464665,-666.185348,4959.379811,-7354.516781
753.464989,-7846.182985,3182.885551,-11338.213370
753.465313,-18875.251521,-11695.253884,-3370.820191
753.465637,-14582.057057,-16358.551318,-10495.508323
753.465962,-10807.006753,-7920.203579,-12563.966167
753.466286,-15174.221811,-2294.638420,612.876398
753.466610,-7624.121203,-8660.409521,-995.924147
753.466934,2072.576638,-15396.283594,-306.438199
753.467258,4737.318029,-10288.862594,2681.334243
753.467583,7994.224174,-4441.235652,6052.154434
753.467907,11547.212695,-13397.727550,7967.393179
753.468231,13693.809927,-21688.034101,7890.783629
753.468555,13397.727550,-15766.386565,10648.727422
753.468880,12139.377449,-7698.141797,9576.193725
753.469204,8438.347739,-9326.594869,4366.744339
753.469528,2294.638420,-15396.283594,1225.752797
753.469852,444.123565,-9104.533087,-3217.601092
753.470177,-2886.803174,6365.771101,-11261.603821
753.470501,-10214.842000,3256.906145,-10801.946522
753.470825,-19393.395680,-14952.160028,-4060.306139
753.471149,-12287.418637,-18727.210333,-10572.117872
753.471474,-10214.842000,-8586.388927,-12104.308868
753.471798,-15988.448347,-2442.679609,1532.190996
753.472122,-6587.832884,-10066.800811,-1378.971896
753.472446,2960.823768,-17024.736666,-1532.190996
753.472770,5181.441594,-8808.450710,2681.334243
753.473095,8512.368333,-3923.091493,7124.688131
753.473419,12213.398043,-16802.674883,8120.612279
753.473743,14656.077652,-24204.734303,8963.317327
753.474067,14211.954086,-14137.933492,9346.365076
753.474392,10955.047942,-5033.400406,8580.269578
753.474716,6439.791695,-9474.636058,3983.696590
753.475040,1998.556043,-16506.592507,-1072.533697
753.475364,-1258.350101,-6957.935855,-3753.867940
753.475689,-4737.318029,8734.430116,-14632.424012
753.476013,-13471.748144,-1110.308913,-8886.707777
753.476337,-17912.983796,-18209.066173,-4443.353888
753.476661,-9548.656652,-16284.530724,-12793.794817
753.476986,-11769.274478,-4737.318029,-7507.735880
753.477310,-15248.242405,-1850.514855,995.924147
753.477634,-5255.462188,-11843.295072,-2911.162892
753.477958,2368.659014,-15988.448347,-536.266849
753.478282,6883.915261,-5255.462188,3370.820191
753.478607,11177.109724,-5033.400406,9039.926876
753.478931,14582.057057,-18653.189738,7737.564530
753.479255,15248.242405,-21391.951724,8427.050478
753.479579,13471.748144,-12953.603985,10189.070123
753.479904,9992.780217,-7402.059420,7507.735880
753.480228,4663.297435,-12731.542202,2451.505594
753.480552,1110.308913,-14878.139434,76.609550
753.480876,-444.123565,-1332.370696,-5898.935335
753.481201,-5773.606348,7772.162391,-14402.595362
753.481525,-16210.510130,-6513.812290,-6205.373534
753.481849,-17838.963202,-18357.107362,-5362.668486
753.482173,-9918.759623,-13101.645173,-13023.623466
753.482498,-13471.748144,-1998.556043,-3140.991542
753.482822,-12287.418637,-2294.638420,0.000000
753.483146,-1036.288319,-12731.542202,-3370.820191
753.483470,4441.235652,-13693.809927,1378.971896
753.483794,8290.306550,-5477.523971,4443.353888
753.484119,11251.130318,-10288.862594,9806.022374
753.484443,13027.624579,-21243.910535,8963.317327
753.484767,14359.995275,-19319.375086,9499.584175
753.485091,12583.501014,-10807.006753,10342.289223
753.485416,9030.512492,-8660.409521,6281.983084
753.485740,3034.844362,-13323.706956,995.924147
753.486064,-1258.350101,-11177.109724,-995.924147
753.486388,-1924.535449,2220.617826,-7277.907231
753.486713,-6661.853478,4737.318029,-11568.042020
753.487037,-16950.716072,-9474.636058,-4903.011187
753.487361,-15470.304188,-16580.613101,-7277.907231
753.487685,-9918.759623,-10584.944971,-11414.822920
753.488010,-14137.933492,-2886.803174,-1455.581446
753.488334,-9992.780217,-6439.791695,766.095498
753.488658,888.247130,-14878.139434,-919.314598
753.488982,6365.771101,-12509.480420,3524.039291
753.489306,10584.944971,-6217.729913,6588.421283
753.489631,12731.542202,-11695.253884,9193.145976
753.489955,12657.521608,-19245.354492,8350.440928
753.490279,11991.336260,-16580.613101,9193.145976
753.490603,10436.903782,-10214.842000,8963.317327
753.490928,6809.894666,-9178.553681,4443.353888
753.491252,2072.576638,-12953.603985,612.876398
753.491576,-1480.411884,-6957.935855,-2145.067394
753.491900,-3330.926739,5699.585753,-14479.204912
753.492225,-11695.253884,-2146.597232,-7507.735880
753.492549,-17320.819043,-14582.057057,-5515.887586
753.492873,-10658.965565,-13619.789333,-11414.822920
753.493197,-11325.150913,-6291.750507,-4519.963438
753.493522,-12213.398043,-2146.597232,-229.828649
753.493846,-5033.400406,-9992.780217,-1762.019645
753.494170,1480.411884,-15026.180623,0.000000
753.494494,6661.853478,-7846.182985,3447.429741
753.494819,11029.068536,-10140.821405,9039.926876
753.495143,12065.356855,-19171.333898,8963.317327
753.495467,11325.150913,-18431.127956,9499.584175
753.495791,10288.862594,-12287.418637,9652.803275
753.496115,7846.182985,-7994.224174,5745.716235
753.496440,2590.720797,-12213.398043,612.876398
753.496764,-666.185348,-13397.727550,-383.047749
753.497088,1036.288319,-3627.009116,-3830.477490
753.497412,-3108.864956,4219.173869,-8733.488677
753.497737,-11251.130318,0.000000,-10878.556072
753.498061,-19023.292709,-11547.212695,-5592.497135
753.498385,-13249.686362,-14952.160028,-10801.946522
753.498709,-10584.944971,-7179.997637,-9499.584175
753.499034,-13101.645173,-5773.606348,2298.286494
753.499358,-3478.967927,-11177.109724,0.000000
753.499682,6069.688724,-13841.851115,1149.143247
753.500006,8882.471304,-8364.327145,4136.915689
753.500331,11473.192101,-6217.729913,7354.516781
753.500655,13101.645173,-15692.365970,8580.269578
753.500979,12805.562797,-21391.951724,7277.907231
753.501303,11399.171507,-14211.954086,9652.803275
753.501627,9252.574275,-8142.265362,6741.640382
753.501952,5847.626942,-9918.759623,1991.848295
753.502276,370.102971,-11399.171507,-1072.533697
753.502600,-3108.864956,-1110.308913,-8503.660028
753.502924,-6513.812290,6069.688724,-14172.766713
753.503249,-15322.262999,-7254.018232,-6741.640382
753.503573,-14063.912898,-17172.777854,-7890.783629
753.503897,-9326.594869,-11621.233289,-11184.994271
753.504221,-13175.665768,-4885.359217,-1991.848295
753.504546,-9918.759623,-5551.544565,-1149.143247
753.504870,-1184.329507,-14137.933492,-2451.505594
753.505194,4737.318029,-13767.830521,1838.629195
753.505518,10214.842000,-6143.709319,5362.668486
753.505843,14211.954086,-13323.706956,9116.536426
753.506167,13397.727550,-20947.828159,8733.488677
753.506491,12139.377449,-17098.757260,9652.803275
753.506815,10066.800811,-10214.842000,7507.735880
753.507139,6217.729913,-9030.512492,3983.696590
753.507464,1480.411884,-13101.645173,-383.047749
753.507788,0.000000,-8882.471304,-1991.848295
753.508112,-1036.288319,3552.988522,-8197.221829
753.508436,-7179.997637,3034.844362,-12180.918418
753.508761,-17098.757260,-9696.697840,-5975.544884
753.509085,-14434.015869,-15914.427753,-9422.974625
753.509409,-10732.986159,-9918.759623,-11184.994271
753.509733,-14137.933492,-4441.235652,76.609550
753.510058,-7846.182985,-8290.306550,-459.657299
753.510382,1850.514855,-14434.015869,-842.705048
753.510706,7105.977043,-11621.233289,3370.820191
753.511030,10881.027347,-7105.977043,6128.763984
753.511355,12805.562797,-13841.851115,8810.098227
753.511679,12731.542202,-19911.539840,8580.269578
753.512003,11695.253884,-16136.489536,10801.946522
753.512327,9844.739029,-9104.533087,7814.174080
753.512651,5995.668130,-9104.533087,2604.724693
753.512976,0.000000,-12583.501014,383.047749
753.513300,-1258.350101,-6217.729913,-3217.601092
753.513624,-3034.844362,5477.523971,-10189.070123
753.513948,-9918.759623,1554.432478,-9269.755526
753.514273,-17690.922014,-12879.583391,-4596.572988
753.514597,-12953.603985,-15618.345376,-9806.022374
753.514921,-10584.944971,-8142.265362,-9116.536426
753.515245,-13915.871710,-3923.091493,1991.848295
753.515570,-4737.318029,-9622.677246,76.609550
753.515894,4367.215058,-15100.201217,459.657299
753.516218,8438.347739,-9474.636058,4290.134789
753.516542,10881.027347,-6957.935855,7814.174080
753.516867,12213.398043,-16876.695478,8963.317327
753.517191,11843.295072,-20651.745782,8273.831378
753.517515,10584.944971,-13767.830521,9652.803275
753.517839,8216.285956,-7476.080014,8044.002729
753.518163,4441.235652,-9548.656652,2298.286494
753.518488,0.000000,-12657.521608,-612.876398
753.518812,-1702.473667,-4145.153275,-3294.210641
753.519136,-3849.070898,4811.338623,-9269.755526
753.519455,-10807.006753,-1406.391290,-9039.926876
753.519779,-17246.798449,-13767.830521,-4903.011187
753.520103,-11547.212695,-14730.098246,-9116.536426
753.520427,-9844.739029,-7920.203579,-8197.221829
753.520752,-12953.603985,-5921.647536,1532.190996
753.521076,-4811.338623,-11769.274478,-306.438199
753.521400,4441.235652,-14656.077652,766.095498
753.521724,9030.512492,-9474.636058,4826.401637
753.522049,11843.295072,-7179.997637,7737.564530
753.522373,13027.624579,-15618.345376,7967.393179
753.522697,12509.480420,-19319.375086,7814.174080
753.523022,11251.130318,-14211.954086,9806.022374
753.523346,8660.409521,-8586.388927,6435.202183
753.523670,4293.194464,-9474.636058,1991.848295
753.523994,0.000000,-10066.800811,-1225.752797
753.524319,-2442.679609,0.000000,-8503.660028
753.524643,-6217.729913,4071.132681,-12870.404366
753.524967,-14878.139434,-9252.574275,-5286.058936
753.525291,-13471.748144,-16136.489536,-8503.660028
753.525616,-10658.965565,-10436.903782,-10878.556072
753.525940,-13915.871710,-4367.215058,-1838.629195
753.526264,-9400.615463,-5773.606348,-1225.752797
753.526589,-1480.411884,-14137.933492,-3064.381992
753.526913,3701.029710,-12583.501014,1991.848295
753.527237,9252.574275,-7254.018232,5286.058936
753.527561,12657.521608,-14359.995275,8197.221829
753.527886,12583.501014,-19689.478057,8503.660028
753.528210,12065.356855,-15248.242405,9576.193725
753.528534,10658.965565,-10436.903782,7584.345430
753.528859,6365.771101,-10214.842000,3217.601092
753.529183,1702.473667,-13767.830521,-229.828649
753.529507,814.226536,-7476.080014,-1915.238745
753.529831,592.164754,3552.988522,-7277.907231
753.530156,-6217.729913,1850.514855,-11108.384721
753.530480,-16136.489536,-10140.821405,-5745.716235
753.530804,-14359.995275,-14285.974681,-9193.145976
753.531128,-11029.068536,-9030.512492,-11874.480219
753.531453,-14730.098246,-4219.173869,-842.705048
753.531777,-8364.327145,-8290.306550,-995.924147
753.532101,1184.329507,-13915.871710,-1225.752797
753.532426,5773.606348,-10584.944971,2451.505594
753.532750,9104.533087,-7105.977043,5745.716235
753.533074,11917.315666,-14285.974681,7584.345430
753.533398,13175.665768,-19911.539840,8427.050478
753.533723,12879.583391,-15988.448347,10878.556072
753.534047,11695.253884,-9400.615463,8503.660028
753.534371,7772.162391,-9326.594869,3524.039291
753.534696,1998.556043,-12953.603985,306.438199
753.535020,0.000000,-7179.997637,-3370.820191
753.535344,-2590.720797,4737.318029,-12180.918418
753.535668,-10732.986159,-296.082377,-8427.050478
753.535993,-18061.024985,-14211.954086,-4903.011187
753.536317,-12583.501014,-15396.283594,-10878.556072
753.536641,-12361.439231,-7254.018232,-9193.145976
753.536965,-15766.386565,-2960.823768,612.876398
753.537290,-6439.791695,-9770.718434,-1838.629195
753.537614,2368.659014,-14359.995275,-306.438199
753.537938,6365.771101,-6957.935855,3370.820191
753.538263,9770.718434,-7698.141797,8427.050478
753.538587,12065.356855,-19541.436869,8197.221829
753.538911,12879.583391,-21465.972318,9193.145976
753.539235,12287.418637,-11843.295072,10035.851024
753.539560,9326.594869,-5625.565159,7277.907231
753.539884,4811.338623,-10881.027347,2145.067394
753.540208,1258.350101,-14730.098246,-153.219100
753.540532,888.247130,-5551.544565,-3140.991542
753.540857,-2294.638420,4515.256246,-8273.831378
753.541181,-10288.862594,-222.061783,-9576.193725
753.541505,-18283.086767,-13027.624579,-5056.230287
753.541830,-13767.830521,-15100.201217,-10342.289223
753.542154,-11843.295072,-7254.018232,-10112.460574
753.542478,-14434.015869,-5403.503377,1532.190996
753.542802,-5033.400406,-12065.356855,-229.828649
753.543127,4145.153275,-14285.974681,536.266849
753.543451,6957.935855,-8142.265362,4290.134789
753.543775,9696.697840,-6439.791695,7354.516781
753.544100,12657.521608,-16580.613101,8350.440928
753.544424,13545.768739,-21169.889941,7660.954980
753.544748,12509.480420,-14211.954086,10418.898773
753.545072,10584.944971,-7994.224174,7890.783629
753.545397,7105.977043,-9400.615463,3294.210641
753.545721,2294.638420,-11843.295072,229.828649
753.546045,-1702.473667,-1258.350101,-7507.735880
753.546369,-6365.771101,5033.400406,-13942.938064
753.546694,-15840.407159,-8216.285956,-4673.182538
753.547018,-13175.665768,-16506.592507,-7354.516781
753.547342,-8660.409521,-9992.780217,-10648.727422
753.547667,-13841.851115,-3923.091493,0.000000
753.547991,-10140.821405,-4737.318029,-1455.581446
753.548315,-2220.617826,-12509.480420,-2987.772442
753.548639,3034.844362,-11399.171507,2221.676944
753.548964,8882.471304,-6365.771101,5898.935335
753.549288,11621.233289,-13989.892304,9346.365076
753.549612,12139.377449,-20873.807564,8733.488677
753.549936,12139.377449,-16062.468941,11184.994271
753.550261,11029.068536,-9104.533087,7967.393179
753.550585,6513.812290,-8290.306550,4519.963438
753.550909,814.226536,-14137.933492,229.828649
753.551234,444.123565,-9770.718434,-1915.238745
753.551558,814.226536,1924.535449,-5975.544884
753.551882,-6217.729913,2442.679609,-11031.775171
753.552206,-17764.942608,-9622.677246,-5362.668486
753.552531,-16728.654289,-15544.324782,-8886.707777
753.552855,-11177.109724,-9252.574275,-12793.794817
753.553179,-13471.748144,-3552.988522,536.266849
753.553504,-7846.182985,-7772.162391,-689.485948
753.553828,2072.576638,-14211.954086,-229.828649
753.554152,5921.647536,-9918.759623,2528.115143
753.554476,8734.430116,-5847.626942,5132.839837
753.554801,10362.883188,-14211.954086,8656.879127
753.555125,11769.274478,-21688.034101,8120.612279
753.555449,12139.377449,-15692.365970,9959.241474
753.555773,10881.027347,-6735.874072,7431.126331
753.556098,6957.935855,-8290.306550,3217.601092
753.556422,1998.556043,-14211.954086,536.266849
753.556746,814.226536,-9252.574275,-3983.696590
753.557071,-2738.761985,5995.668130,-13942.938064
753.557395,-11695.253884,-370.102971,-8044.002729
753.557719,-17764.942608,-16506.592507,-5056.230287
753.558043,-10436.903782,-16506.592507,-12104.308868
753.558368,-10362.883188,-7105.977043,-7890.783629
753.558692,-12361.439231,-2738.761985,0.000000
753.559016,-3701.029710,-10658.965565,-2451.505594
753.559340,2590.720797,-16136.489536,0.000000
753.559665,6957.935855,-7105.977043,3140.991542
753.559989,10584.944971,-7179.997637,8273.831378
753.560313,12509.480420,-19837.519246,8350.440928
753.560638,11695.253884,-21317.931130,8810.098227
753.560962,11177.109724,-11325.150913,8886.707777
753.561286,8364.327145,-4737.318029,6741.640382
753.561610,3701.029710,-11103.089130,1608.800546
753.561935,518.144159,-15544.324782,-842.705048
753.562259,814.226536,-4145.153275,-4060.306139
753.562583,-3034.844362,7105.977043,-12257.527968
753.562908,-13027.624579,-2960.823768,-7967.393179
753.563232,-17690.922014,-16284.530724,-4903.011187
753.563556,-9992.780217,-15100.201217,-13023.623466
753.563880,-11325.150913,-5477.523971,-6281.983084
753.564205,-12361.439231,-4441.235652,1685.410096
753.564529,-1850.514855,-13175.665768,-1149.143247
753.564853,5403.503377,-15174.221811,1685.410096
753.565177,9104.533087,-5477.523971,4596.572988
753.565502,11399.171507,-7994.224174,9806.022374
753.565826,12065.356855,-19911.539840,8350.440928
753.566150,11843.295072,-20799.786970,9499.584175
753.566475,10362.883188,-11029.068536,10648.727422
753.566799,7846.182985,-5181.441594,5745.716235
753.567123,2294.638420,-10288.862594,1915.238745
753.567447,-888.247130,-11547.212695,-842.705048
753.567772,-814.226536,222.061783,-7660.954980
753.568096,-5329.482782,6661.853478,-12563.966167
753.568420,-15692.365970,-6069.688724,-5362.668486
753.568745,-16210.510130,-16728.654289,-6052.154434
753.569069,-10288.862594,-12213.398043,-12027.699319
753.569393,-12731.542202,-3552.988522,-1991.848295
753.569717,-8808.450710,-4885.359217,919.314598
753.570042,1702.473667,-14285.974681,-306.438199
753.570366,7254.018232,-12657.521608,3907.087040
753.570690,10955.047942,-5773.606348,6358.592633
753.571014,11843.295072,-12361.439231,10955.165621
753.571339,11769.274478,-21688.034101,8963.317327
753.571663,10510.924376,-18209.066173,9806.022374
753.571987,8142.265362,-8142.265362,7737.564530
753.572312,4663.297435,-5847.626942,3830.477490
753.572636,-148.041188,-12731.542202,689.485948
753.572960,-296.082377,-10140.821405,-1991.848295
753.573284,-888.247130,2886.803174,-7890.783629
753.573609,-7624.121203,4441.235652,-11491.432470
753.573933,-17764.942608,-9548.656652,-6205.373534
753.574257,-15100.201217,-17246.798449,-8580.269578
753.574581,-9548.656652,-11103.089130,-11951.089769
753.574906,-12805.562797,-3923.091493,-153.219100
753.575230,-6365.771101,-8808.450710,612.876398
753.575554,3627.009116,-15988.448347,-383.047749
753.575879,8808.450710,-12213.398043,3677.258390
753.576203,11547.212695,-6661.853478,6205.373534
753.576527,12287.418637,-14063.912898,9422.974625
753.576851,12435.459826,-21910.095883,7890.783629
753.577176,11399.171507,-17246.798449,9806.022374
753.577500,8808.450710,-7179.997637,6894.859482
753.577824,4811.338623,-7105.977043,3370.820191
753.578149,148.041188,-12805.562797,-306.438199
753.578473,-518.144159,-6291.750507,-5362.668486
753.578797,-3256.906145,7031.956449,-15475.129060
753.579121,-13175.665768,-1776.494261,-7354.516781
753.579446,-16876.695478,-15248.242405,-6818.249932
753.579770,-10807.006753,-14878.139434,-12257.527968
753.580094,-12139.377449,-6809.894666,-5362.668486
753.580418,-11621.233289,-2442.679609,-229.828649
753.580743,-2886.803174,-10881.027347,-2528.115143
753.581067,2960.823768,-15100.201217,536.266849
753.581391,8216.285956,-7031.956449,3447.429741
753.581716,11621.233289,-10584.944971,9269.755526
753.582040,12213.398043,-21465.972318,10112.460574
753.582364,11473.192101,-19319.375086,10342.289223
753.582688,10362.883188,-9474.636058,9039.926876
753.583013,6291.750507,-4515.256246,5056.230287
753.583337,962.267725,-12509.480420,536.266849
753.583661,-148.041188,-15396.283594,-1072.533697
753.583985,1998.556043,-2664.741391,-4213.525239
753.584310,-2590.720797,7772.162391,-11568.042020
753.584634,-13471.748144,-2516.700203,-7354.516781
753.584958,-18357.107362,-16284.530724,-6588.421283
753.585283,-10807.006753,-14582.057057,-14096.157163
753.585607,-11325.150913,-5255.462188,-6052.154434
753.585931,-10807.006753,-5181.441594,1838.629195
753.586255,518.144159,-13619.789333,-306.438199
753.586580,7254.018232,-14211.954086,2528.115143
753.586904,10362.883188,-5699.585753,4903.011187
753.587228,11103.089130,-8290.306550,9806.022374
753.587553,11917.315666,-21243.910535,8273.831378
753.587877,11991.336260,-21317.931130,9806.022374
753.588201,10955.047942,-10214.842000,9882.631924
753.588525,7994.224174,-5181.441594,5745.716235
753.588850,2886.803174,-12139.377449,2298.286494
753.589174,0.000000,-13101.645173,-1762.019645
753.589498,-1924.535449,1258.350101,-9346.365076
753.589822,-7031.956449,6291.750507,-12640.575717
753.590147,-16876.695478,-8956.491898,-5439.278036
753.590471,-14137.933492,-18283.086767,-7814.174080
753.590795,-9770.718434,-11843.295072,-12027.699319
753.591120,-14508.036463,-3552.988522,-919.314598
753.591444,-8512.368333,-5995.668130,-766.095498
753.591768,1850.514855,-15322.262999,-1455.581446
753.592092,7328.038826,-12287.418637,3907.087040
753.592417,11621.233289,-5107.421000,7354.516781
753.592741,12435.459826,-13249.686362,9652.803275
753.593065,11843.295072,-22650.301825,9499.584175
753.593390,10584.944971,-16580.613101,9422.974625
753.593714,8068.244768,-7179.997637,7967.393179
753.594038,3923.091493,-7105.977043,4136.915689
753.594362,-518.144159,-14582.057057,76.609550
753.594687,0.000000,-10362.883188,-1991.848295
753.595011,0.000000,3182.885551,-7277.907231
753.595335,-7476.080014,3775.050304,-10878.556072
753.595659,-17764.942608,-9474.636058,-5592.497135
753.595984,-15544.324782,-15914.427753,-8963.317327
753.596308,-10881.027347,-9474.636058,-11797.870669
753.596632,-13471.748144,-3849.070898,-153.219100
753.596957,-7550.100608,-8438.347739,0.000000
753.597281,2886.803174,-14730.098246,0.000000
753.597605,7105.977043,-11621.233289,3677.258390
753.597929,9474.636058,-5921.647536,6052.154434
753.598254,10510.924376,-13841.851115,8886.707777
753.598578,11399.171507,-21614.013506,8350.440928
753.598902,11695.253884,-16506.592507,10265.679673
753.599226,10214.842000,-7920.203579,8350.440928
753.599551,6883.915261,-7920.203579,4290.134789
753.599875,2516.700203,-13841.851115,842.705048
753.600199,1480.411884,-7402.059420,-3370.820191
753.600524,-2368.659014,7105.977043,-13789.718964
753.600848,-11547.212695,370.102971,-7354.516781
753.601172,-17616.901420,-15248.242405,-5362.668486
753.601496,-10584.944971,-15470.304188,-12870.404366
753.601821,-11399.171507,-6217.729913,-7660.954980
753.602145,-13175.665768,-2368.659014,459.657299
753.602469,-3034.844362,-10881.027347,-2604.724693
753.602794,3330.926739,-15396.283594,153.219100
753.603118,6587.832884,-6513.812290,3753.867940
753.603442,9696.697840,-7994.224174,8810.098227
753.603766,11177.109724,-20947.828159,8580.269578
753.604091,11843.295072,-21614.013506,9729.412825
753.604415,11547.212695,-10732.986159,9806.022374
753.604739,8438.347739,-5033.400406,6128.763984
753.605063,3701.029710,-12287.418637,2451.505594
753.605388,1480.411884,-16284.530724,-306.438199
753.605712,2368.659014,-3923.091493,-4673.182538
753.606036,-2664.741391,7920.203579,-13253.452115
753.606361,-14508.036463,-3552.988522,-7354.516781
753.606685,-17764.942608,-17172.777854,-6894.859482
753.607009,-9622.677246,-14804.118840,-14632.424012
753.607333,-11769.274478,-4441.235652,-5515.887586
753.607658,-11325.150913,-3997.112087,689.485948
753.607982,-1480.411884,-13175.665768,-2298.286494
753.608306,4515.256246,-14285.974681,1302.362347
753.608630,7920.203579,-5255.462188,4060.306139
753.608955,10288.862594,-9252.574275,8503.660028
753.609279,11473.192101,-22576.281231,9652.803275
753.609603,11991.336260,-19319.375086,9499.584175
753.609928,11769.274478,-7328.038826,8273.831378
753.610252,7328.038826,-4441.235652,6128.763984
753.610576,2960.823768,-14359.995275,1762.019645
753.610900,1554.432478,-16728.654289,-995.924147
753.611225,1332.370696,-296.082377,-7507.735880
753.611549,-4885.359217,9030.512492,-13023.623466
753.611873,-17690.922014,-7698.141797,-5209.449386
753.612198,-16728.654289,-19023.292709,-8733.488677
753.612522,-9844.739029,-12879.583391,-14632.424012
753.612846,-13989.892304,-2294.638420,-2145.067394
753.613170,-8956.491898,-4737.318029,-536.266849
753.613495,1776.494261,-15322.262999,-1455.581446
753.613819,6735.874072,-11547.212695,1915.238745
753.614143,9474.636058,-2368.659014,5822.325785
753.614467,9548.656652,-12657.521608,9806.022374
753.614792,10807.006753,-25315.043216,9806.022374
753.615116,12361.439231,-16506.592507,9576.193725
753.615440,10881.027347,-3775.050304,8963.317327
753.615765,5477.523971,-5107.421000,6205.373534
753.616089,1406.391290,-17246.798449,919.314598
753.616413,444.123565,-13841.851115,-1762.019645
753.616737,-222.061783,3404.947333,-6971.469032
753.617062,-7105.977043,7402.059420,-11414.822920
753.617386,-18061.024985,-9770.718434,-4290.134789
753.617710,-14804.118840,-18357.107362,-8963.317327
753.618034,-9696.697840,-9770.718434,-12717.185267
753.618359,-13101.645173,-2072.576638,-1302.362347
753.618683,-8364.327145,-7550.100608,-536.266849
753.619007,1258.350101,-15766.386565,-1302.362347
753.619332,6069.688724,-10436.903782,3600.648841
753.619656,8882.471304,-3404.947333,6588.421283
753.619980,9104.533087,-13841.851115,9269.755526
753.620304,10732.986159,-23612.569550,7507.735880
753.620629,11991.336260,-16728.654289,10265.679673
753.620953,11103.089130,-6217.729913,9499.584175
753.621277,7698.141797,-6809.894666,5362.668486
753.621601,2960.823768,-15544.324782,2068.457845
753.621925,2368.659014,-11029.068536,-2451.505594
753.622250,-1184.329507,5403.503377,-11414.822920
753.622574,-9474.636058,3552.988522,-10342.289223
753.622898,-17987.004391,-13767.830521,-4290.134789
753.623222,-11177.109724,-18949.272115,-10878.556072
753.623547,-9326.594869,-8808.450710,-11491.432470
753.623871,-15248.242405,-1850.514855,536.266849
753.624195,-6513.812290,-8808.450710,-2221.676944
753.624519,2886.803174,-16802.674883,-1532.190996
753.624843,5699.585753,-9326.594869,2757.943793
753.625168,8290.306550,-4959.379811,7354.516781
753.625492,9918.759623,-17394.839637,9576.193725
753.625816,11399.171507,-23390.507767,9116.536426
753.626140,12287.418637,-12879.583391,9729.412825
753.626465,9474.636058,-4293.194464,8427.050478
753.626789,5255.462188,-9474.636058,3370.820191
753.627113,2886.803174,-18061.024985,383.047749
753.627437,2442.679609,-8808.450710,-2374.896044
753.627761,-962.267725,8068.244768,-11568.042020
753.628086,-11177.109724,1110.308913,-8733.488677
753.628410,-18949.272115,-16580.613101,-5362.668486
753.628734,-10807.006753,-17024.736666,-13713.109414
753.629058,-11399.171507,-5699.585753,-10112.460574
753.629383,-14730.098246,-1702.473667,766.095498
753.629707,-4441.235652,-11325.150913,-1915.238745
753.630031,3775.050304,-16062.468941,0.000000
753.630355,5625.565159,-4737.318029,2911.162892
753.630679,7402.059420,-4959.379811,7660.954980
753.631004,9178.553681,-19985.560434,7890.783629
753.631328,12435.459826,-23834.631332,10342.289223
753.631652,14434.015869,-10436.903782,10265.679673
753.631976,10955.047942,-2886.803174,7660.954980
753.632301,4811.338623,-11103.089130,3830.477490
753.632625,2368.659014,-17987.004391,-153.219100
753.632949,1998.556043,-6143.709319,-4979.620737
753.633273,-3182.885551,9178.553681,-13789.718964
753.633597,-14730.098246,-2220.617826,-5975.544884
753.633922,-17987.004391,-18801.230927,-4979.620737
753.634246,-8882.471304,-16284.530724,-14325.985813
753.634570,-12139.377449,-3256.906145,-6128.763984
753.634894,-13027.624579,-1184.329507,153.219100
753.635218,-2664.741391,-13027.624579,-2757.943793
753.635543,3923.091493,-15618.345376,1378.971896
753.635867,7698.141797,-3330.926739,3983.696590
753.636191,8956.491898,-7402.059420,10112.460574
753.636515,10658.965565,-23390.507767,9806.022374
753.636840,11917.315666,-21021.848753,9269.755526
753.637164,12287.418637,-7328.038826,9806.022374
753.637488,8290.306550,-3701.029710,7354.516781
753.637812,3034.844362,-13915.871710,1608.800546
753.638136,814.226536,-18357.107362,-306.438199
753.638461,1110.308913,-3701.029710,-3753.867940
753.638785,-4367.215058,7994.224174,-11568.042020
753.639109,-15692.365970,-4515.256246,-6511.811733
753.639433,-19023.292709,-19023.292709,-5439.278036
753.639758,-9844.739029,-15396.283594,-13559.890315
753.640082,-11473.192101,-3108.864956,-7048.078582
753.640406,-12509.480420,-3849.070898,612.876398
753.640730,-1406.391290,-13545.768739,-842.705048
753.641054,6217.729913,-14434.015869,1838.629195
753.641379,8882.471304,-4145.153275,5209.449386
753.641703,9622.677246,-7179.997637,9576.193725
753.642027,11399.171507,-20577.725188,7660.954980
753.642351,12287.418637,-20577.725188,8656.879127
753.642676,12065.356855,-9178.553681,10572.117872
753.643000,9474.636058,-4663.297435,6894.859482
753.643324,4885.359217,-12213.398043,2911.162892
753.643648,1628.453072,-14656.077652,-229.828649
753.643972,222.061783,-296.082377,-7354.516781
753.644297,-5625.565159,7772.162391,-13559.890315
753.644621,-17542.880825,-7179.997637,-5822.325785
753.644945,-16654.633695,-19393.395680,-7124.688131
753.645269,-9696.697840,-13545.768739,-13406.671215
753.645594,-13767.830521,-2146.597232,-2757.943793
753.645918,-10214.842000,-4071.132681,-153.219100
753.646242,148.041188,-14508.036463,-2374.896044
753.646566,5699.585753,-14063.912898,2911.162892
753.646890,9474.636058,-5329.482782,5898.935335
753.647215,10510.924376,-11399.171507,9422.974625
753.647539,11991.336260,-22872.363608,9652.803275
753.647863,12731.542202,-18135.045579,10265.679673
753.648187,12213.398043,-6735.874072,8503.660028
753.648512,6587.832884,-5625.565159,5669.106685
753.648836,1332.370696,-15174.221811,842.705048
753.649160,1406.391290,-14211.954086,-1149.143247
753.649484,0.000000,2294.638420,-8120.612279
753.649808,-6735.874072,7105.977043,-12410.747068
753.650133,-18875.251521,-9104.533087,-4596.572988
753.650457,-14656.077652,-18579.169144,-9422.974625
753.650781,-9474.636058,-10955.047942,-13866.328514
753.651105,-14434.015869,-1628.453072,-1378.971896
753.651430,-8808.450710,-5699.585753,-1302.362347
753.651754,1924.535449,-15618.345376,-1378.971896
753.652078,5921.647536,-12065.356855,2604.724693
753.652402,8734.430116,-4367.215058,6281.983084
753.652726,10362.883188,-13767.830521,9729.412825
753.653051,12953.603985,-24870.919651,10265.679673
753.653375,14137.933492,-15544.324782,10112.460574
753.653699,11547.212695,-3701.029710,8350.440928
753.654023,4441.235652,-5773.606348,4903.011187
753.654348,1110.308913,-17246.798449,0.000000
753.654672,444.123565,-12583.501014,-2681.334243
753.654996,-2368.659014,7179.997637,-11414.822920
753.655320,-10732.986159,4885.359217,-9959.241474
753.655644,-20503.704593,-14359.995275,-3294.210641
753.655969,-12213.398043,-18949.272115,-12104.308868
753.656293,-9844.739029,-7920.203579,-10878.556072
753.656617,-14359.995275,-370.102971,0.000000
753.656941,-5625.565159,-8216.285956,-2068.457845
753.657266,3775.050304,-16580.613101,-306.438199
753.657590,7698.141797,-7846.182985,3217.601092
753.657914,9992.780217,-5107.421000,8350.440928
753.658238,10362.883188,-18727.210333,9116.536426
753.658562,12065.356855,-23390.507767,8503.660028
753.658887,12953.603985,-11695.253884,8656.879127
753.659211,8808.450710,-3849.070898,7967.393179
753.659535,4219.173869,-10214.842000,3370.820191
753.659859,1258.350101,-18949.272115,-459.657299
753.660184,518.144159,-8438.347739,-3294.210641
753.660508,-2886.803174,8438.347739,-12640.575717
753.660832,-13175.665768,-1332.370696,-8044.002729
753.661156,-18283.086767,-17468.860231,-4596.572988
753.661480,-8882.471304,-16876.695478,-12717.185267
753.661805,-9770.718434,-5477.523971,-7890.783629
753.662129,-13397.727550,-2072.576638,0.000000
753.662453,-3923.091493,-11547.212695,-2451.505594
753.662777,4885.359217,-16062.468941,383.047749
753.663102,8364.327145,-5921.647536,4366.744339
753.663426,9696.697840,-7328.038826,9193.145976
753.663750,9844.739029,-19985.560434,7967.393179
753.664074,11029.068536,-21243.910535,8580.269578
753.664398,12139.377449,-10732.986159,9422.974625
753.664723,9400.615463,-5403.503377,7354.516781
753.665047,4367.215058,-12065.356855,2681.334243
753.665371,2294.638420,-15766.386565,919.314598
753.665695,1924.535449,-2368.659014,-5745.716235
753.666020,-2960.823768,8364.327145,-14555.814462
753.666344,-15840.407159,-4737.318029,-5822.325785
753.666668,-17024.736666,-18209.066173,-4979.620737
753.666992,-8290.306550,-14656.077652,-14325.985813
753.667316,-12953.603985,-3034.844362,-4290.134789
753.667641,-12287.418637,-1924.535449,-229.828649
753.667965,-1184.329507,-13249.686362,-2757.943793
753.668289,5033.400406,-14730.098246,1072.533697
753.668613,7698.141797,-4145.153275,4290.134789
753.668938,7624.121203,-9622.677246,9806.022374
753.669262,9104.533087,-23390.507767,9806.022374
753.669586,11547.212695,-18949.272115,10112.460574
753.669910,12065.356855,-5995.668130,9576.193725
753.670234,6587.832884,-3849.070898,6511.811733
753.670559,2072.576638,-13989.892304,306.438199
753.670883,1332.370696,-15470.304188,-459.657299
753.671207,2368.659014,148.041188,-5056.230287
753.671531,-3108.864956,8808.450710,-12793.794817
753.671855,-16654.633695,-7105.977043,-4596.572988
753.672180,-17024.736666,-19245.354492,-5975.544884
753.672504,-8512.368333,-13397.727550,-14938.862211
753.672828,-12139.377449,-2368.659014,-3524.039291
753.673152,-10658.965565,-5107.421000,383.047749
753.673477,1776.494261,-15396.283594,-1225.752797
753.673801,7402.059420,-13545.768739,2528.115143
753.674125,8734.430116,-3108.864956,6052.154434
753.674449,9770.718434,-9622.677246,9959.241474
753.674773,11251.130318,-22280.198854,7201.297681
753.675098,12139.377449,-19541.436869,9729.412825
753.675422,11843.295072,-7328.038826,9576.193725
753.675746,8068.244768,-4811.338623,5362.668486
753.676070,1850.514855,-14211.954086,2145.067394
753.676395,0.000000,-12657.521608,-1455.581446
753.676719,-1924.535449,4515.256246,-13023.623466
753.677043,-9474.636058,3701.029710,-10495.508323
753.677367,-17764.942608,-13397.727550,-4290.134789
753.677691,-10658.965565,-19615.457463,-9729.412825
753.678016,-8882.471304,-10510.924376,-11338.213370
753.678340,-15470.304188,-1702.473667,0.000000
753.678664,-7846.182985,-7031.956449,-2834.553343
753.678988,1406.391290,-16358.551318,-2834.553343
753.679313,6513.812290,-9770.718434,2987.772442
753.679637,10362.883188,-4811.338623,7354.516781
753.679961,10658.965565,-15988.448347,8580.269578
753.680285,11103.089130,-22650.301825,8503.660028
753.680609,11621.233289,-13693.809927,9806.022374
753.680934,9844.739029,-5329.482782,7890.783629
753.681258,4663.297435,-8660.409521,2757.943793
753.681582,370.102971,-15914.427753,229.828649
753.681906,1776.494261,-8512.368333,-1608.800546
753.682231,0.000000,5329.482782,-10495.508323
753.682555,-9622.677246,888.247130,-9116.536426
753.682879,-17987.004391,-14137.933492,-3140.991542
753.683203,-10436.903782,-17394.839637,-12257.527968
753.683527,-10436.903782,-7550.100608,-10801.946522
753.683852,-15322.262999,-1998.556043,1072.533697
753.684176,-5995.668130,-10140.821405,-2451.505594
753.684500,3108.864956,-15914.427753,-1225.752797
753.684824,5847.626942,-7846.182985,3370.820191
753.685149,7624.121203,-4811.338623,7967.393179
753.685473,9326.594869,-17246.798449,7584.345430
753.685797,11399.171507,-22798.343014,8580.269578
753.686121,13471.748144,-13323.706956,11031.775171
753.686445,11473.192101,-5403.503377,8580.269578
753.686770,6291.750507,-9696.697840,3140.991542
753.687094,2220.617826,-15470.304188,1302.362347
753.687418,2738.761985,-6217.729913,-3294.210641
753.687742,-1110.308913,7179.997637,-13559.890315
753.688067,-12953.603985,-1924.535449,-6741.640382
753.688391,-18135.045579,-16654.633695,-3447.429741
753.688715,-8956.491898,-16136.489536,-13483.280765
753.689039,-11029.068536,-5181.441594,-7201.297681
753.689363,-14434.015869,-1110.308913,1532.190996
753.689688,-3627.009116,-11473.192101,-2834.553343
753.690012,3997.112087,-15470.304188,383.047749
753.690336,7179.997637,-4885.359217,3983.696590
753.690660,8586.388927,-6957.935855,10112.460574
753.690985,9992.780217,-21910.095883,9729.412825
753.691309,12139.377449,-23168.445985,11338.213370
753.691633,13175.665768,-10066.800811,11031.775171
753.691957,8512.368333,-2812.782580,7890.783629
753.692281,2368.659014,-11991.336260,2068.457845
753.692606,-222.061783,-17320.819043,0.000000
753.692930,1628.453072,-4959.379811,-3907.087040
753.693254,-3552.988522,8216.285956,-11338.213370
753.693578,-14804.118840,-1258.350101,-7354.516781
753.693903,-20281.642811,-16876.695478,-5362.668486
753.694227,-9770.718434,-16654.633695,-13636.499864
753.694551,-10584.944971,-4145.153275,-8503.660028
753.694875,-13101.645173,-2516.700203,1838.629195
753.695199,-1702.473667,-13323.706956,-689.485948
753.695524,6735.874072,-16432.571912,1762.019645
753.695848,9178.553681,-4811.338623,4673.182538
753.696172,9548.656652,-5477.523971,9652.803275
753.696496,10807.006753,-20799.786970,8580.269578
753.696821,12657.521608,-23242.466579,8886.707777
753.697145,12879.583391,-10140.821405,10878.556072
753.697469,9030.512492,-2812.782580,6741.640382
753.697793,3552.988522,-11325.150913,2451.505594
753.698117,222.061783,-16210.510130,-536.266849
753.698442,0.000000,-2368.659014,-8580.269578
753.698766,-6069.688724,9474.636058,-15475.129060
753.699090,-18653.189738,-5995.668130,-6588.421283
753.699414,-16876.695478,-19541.436869,-7048.078582
753.699739,-8364.327145,-15470.304188,-13406.671215
753.700063,-12361.439231,-3330.926739,-2757.943793
753.700387,-9548.656652,-2738.761985,-689.485948
753.700711,740.205942,-15026.180623,-3064.381992
753.701035,6143.709319,-15396.283594,1915.238745
753.701360,10436.903782,-4219.173869,5209.449386
753.701684,11473.192101,-9844.739029,10189.070123
753.702008,12509.480420,-23612.569550,9193.145976
753.702332,13619.789333,-19023.292709,8656.879127
753.702657,11991.336260,-6513.812290,8427.050478
753.702981,6587.832884,-4515.256246,5056.230287
753.703305,1332.370696,-14730.098246,0.000000
753.703629,518.144159,-13175.665768,-1838.629195
753.703953,-222.061783,3775.050304,-9116.536426
753.704278,-7105.977043,6957.935855,-12640.575717
753.704602,-18431.127956,-9770.718434,-4903.011187
753.704926,-14656.077652,-18135.045579,-8886.707777
753.705250,-9030.512492,-11325.150913,-12334.137518
753.705574,-14063.912898,-2220.617826,-842.705048
753.705899,-9474.636058,-6439.791695,-689.485948
753.706223,1110.308913,-16284.530724,-1149.143247
753.706547,6513.812290,-11991.336260,2757.943793
753.706871,9474.636058,-4515.256246,5669.106685
753.707196,9696.697840,-13323.706956,9269.755526
753.707520,11547.212695,-22502.260637,8044.002729
753.707844,12435.459826,-17024.736666,9652.803275
753.708168,10732.986159,-7105.977043,9269.755526
753.708492,5699.585753,-6513.812290,3677.258390
753.708817,296.082377,-13989.892304,-612.876398
753.709141,-592.164754,-8438.347739,-3064.381992
753.709465,-1480.411884,5403.503377,-9729.412825
753.709789,-9696.697840,4145.153275,-11031.775171
753.710114,-18653.189738,-11473.192101,-4673.182538
753.710438,-12509.480420,-16876.695478,-8963.317327
753.710762,-8512.368333,-9400.615463,-10878.556072
753.711086,-12435.459826,-3256.906145,76.609550
753.711410,-5699.585753,-9622.677246,-383.047749
753.711735,4737.318029,-16432.571912,459.657299
753.712059,8882.471304,-10955.047942,3830.477490
753.712383,9252.574275,-6587.832884,7660.954980
753.712707,9622.677246,-15914.427753,9729.412825
753.713032,11325.150913,-22946.384202,7354.516781
753.713356,11251.130318,-16062.468941,9269.755526
753.713680,8290.306550,-6883.915261,7201.297681
753.714004,3775.050304,-7550.100608,3064.381992
753.714328,-592.164754,-12879.583391,-995.924147
753.714653,-1998.556043,-6587.832884,-3753.867940
753.714977,-4071.132681,4737.318029,-9116.536426
753.715301,-10066.800811,1776.494261,-10955.165621
753.715625,-16728.654289,-12583.501014,-5132.839837
753.715950,-11325.150913,-16210.510130,-9422.974625
753.716274,-7105.977043,-9696.697840,-8733.488677
753.716598,-11177.109724,-5847.626942,1225.752797
753.716922,-3997.112087,-12139.377449,1149.143247
753.717246,6365.771101,-16580.613101,1455.581446
753.717571,10584.944971,-10807.006753,5362.668486
753.717895,11547.212695,-5847.626942,8044.002729
753.718219,11769.274478,-13767.830521,9116.536426
753.718543,12065.356855,-20429.683999,7354.516781
753.718868,10436.903782,-14878.139434,9116.536426
753.719192,7179.997637,-7402.059420,7354.516781
753.719516,2812.782580,-7254.018232,1915.238745
753.719840,-2146.597232,-9696.697840,-1532.190996
753.720164,-4737.318029,-1850.514855,-6741.640382
753.720489,-6957.935855,4589.276840,-14096.157163
753.720813,-15396.283594,-5995.668130,-5439.278036
753.721137,-15322.262999,-14508.036463,-6435.202183
753.721461,-8956.491898,-10955.047942,-9576.193725
753.721785,-9770.718434,-4885.359217,-919.314598
753.722109,-6883.915261,-5107.421000,76.609550
753.722433,444.123565,-13323.706956,229.828649
753.722758,6587.832884,-14137.933492,3753.867940
753.723082,11695.253884,-8290.306550,6588.421283
753.723406,12731.542202,-11843.295072,10035.851024
753.723730,11473.192101,-18283.086767,8503.660028
753.724054,9844.739029,-16284.530724,9193.145976
753.724378,7476.080014,-10807.006753,7890.783629
753.724702,3256.906145,-7846.182985,3140.991542
753.725027,-1184.329507,-9992.780217,-1762.019645
753.725351,-3404.947333,-7105.977043,-2911.162892
753.725675,-1998.556043,1036.288319,-4903.011187
753.725999,-6587.832884,2368.659014,-11031.775171
753.726323,-15618.345376,-6143.709319,-8044.002729
753.726647,-16728.654289,-12435.459826,-6665.030833
753.726971,-9474.636058,-11399.171507,-10418.898773
753.727296,-8660.409521,-7550.100608,-2757.943793
753.727620,-5921.647536,-10140.821405,1838.629195
753.727944,3849.070898,-14952.160028,1838.629195
753.728268,9326.594869,-13989.892304,4060.306139
753.728592,10510.924376,-9474.636058,5439.278036
753.728916,10807.006753,-11621.233289,7814.174080
753.729241,10584.944971,-17987.004391,6741.640382
753.729565,9770.718434,-17987.004391,6741.640382
753.729889,7994.224174,-11251.130318,6741.640382
753.730213,4885.359217,-7698.141797,2145.067394
753.730537,0.000000,-9104.533087,-1685.410096
753.730861,-4589.276840,-3627.009116,-8733.488677
753.731185,-6513.812290,1998.556043,-14479.204912
753.731510,-13249.686362,-7105.977043,-5975.544884
753.731834,-11251.130318,-14582.057057,-9576.193725
753.732158,-8808.450710,-11251.130318,-10035.851024
753.732482,-10066.800811,-6439.791695,-1378.971896
753.732806,-5107.421000,-6217.729913,-2221.676944
753.733130,-296.082377,-13693.809927,-2145.067394
753.733454,3923.091493,-14285.974681,1302.362347
753.733779,9474.636058,-8734.430116,6281.983084
753.734103,12879.583391,-13915.871710,8503.660028
753.734427,9844.739029,-19689.478057,7967.393179
753.734751,7698.141797,-15692.365970,8733.488677
753.735075,7031.956449,-10955.047942,7354.516781
753.735399,4737.318029,-9474.636058,3140.991542
753.735723,148.041188,-10955.047942,-842.705048
753.736048,-1850.514855,-6809.894666,-1302.362347
753.736372,740.205942,148.041188,-2911.162892
753.736696,-3775.050304,2516.700203,-10189.070123
753.737020,-12657.521608,-2516.700203,-8810.098227
753.737344,-17320.819043,-10732.986159,-5822.325785
753.737668,-10584.944971,-12213.398043,-10955.165621
753.737992,-7994.224174,-8438.347739,-4903.011187
753.738317,-7105.977043,-8956.491898,3600.648841
753.738641,3997.112087,-12139.377449,2145.067394
753.738965,9622.677246,-13989.892304,3524.039291
753.739289,9474.636058,-9770.718434,5515.887586
753.739613,9844.739029,-9104.533087,8580.269578
753.739937,10584.944971,-16580.613101,8427.050478
753.740261,9474.636058,-19319.375086,8197.221829
753.740586,7179.997637,-11695.253884,9499.584175
753.740910,4663.297435,-5551.544565,4290.134789
753.741234,148.041188,-7105.977043,306.438199
753.741558,-4663.297435,-8512.368333,-2681.334243
753.741882,-4737.318029,-814.226536,-7201.297681
753.742206,-7105.977043,5033.400406,-11874.480219
753.742530,-14656.077652,-5255.462188,-6894.859482
753.742855,-14952.160028,-14656.077652,-5362.668486
753.743179,-7846.182985,-12805.562797,-9269.755526
753.743503,-7105.977043,-7994.224174,-2528.115143
753.743827,-4959.379811,-9178.553681,2528.115143
753.744151,4811.338623,-15026.180623,1225.752797
753.744475,11103.089130,-15026.180623,4443.353888
753.744799,12953.603985,-9030.512492,7584.345430
753.745124,12731.542202,-11399.171507,9269.755526
753.745448,10584.944971,-18209.066173,7201.297681
753.745772,7624.121203,-17246.798449,7277.907231
753.746096,5033.400406,-11177.109724,6435.202183
753.746420,1998.556043,-6957.935855,2221.676944
753.746744,-1776.494261,-8882.471304,-2068.457845
753.747068,-5625.565159,-6291.750507,-4673.182538
753.747393,-6809.894666,1776.494261,-14096.157163
753.747717,-11991.336260,-3404.947333,-7890.783629
753.748041,-14878.139434,-12583.501014,-5669.106685
753.748365,-9252.574275,-12287.418637,-9576.193725
753.748689,-8438.347739,-7846.182985,-2757.943793
753.749013,-6291.750507,-6365.771101,0.000000
753.749337,-296.082377,-12287.418637,-229.828649
753.749662,4959.379811,-16062.468941,1915.238745
753.749986,10288.862594,-10807.006753,5592.497135
753.750310,13323.706956,-10807.006753,8350.440928
753.750634,11547.212695,-16284.530724,8120.612279
753.750958,8364.327145,-16136.489536,8580.269578
753.751282,6217.729913,-12435.459826,7354.516781
753.751606,3849.070898,-9696.697840,3753.867940
753.751931,0.000000,-9400.615463,-842.705048
753.752255,-2738.761985,-7105.977043,-1915.238745
753.752579,-2664.741391,2294.638420,-8503.660028
753.752903,-5329.482782,1258.350101,-9499.584175
753.753227,-12879.583391,-8586.388927,-4903.011187
753.753551,-11399.171507,-12139.377449,-8656.879127
753.753875,-9252.574275,-8882.471304,-8656.879127
753.754200,-9548.656652,-5699.585753,-995.924147
753.754524,-2960.823768,-8512.368333,0.000000
753.754848,4071.132681,-13767.830521,995.924147
753.755172,8660.409521,-12287.418637,4826.401637
753.755496,10955.047942,-10066.800811,7201.297681
753.755820,10362.883188,-14063.912898,7967.393179
753.756145,7254.018232,-16876.695478,8120.612279
753.756469,5699.585753,-15026.180623,7814.174080
753.756793,4589.276840,-11251.130318,7048.078582
753.757117,2146.597232,-9474.636058,2298.286494
753.757441,-1480.411884,-9622.677246,-1455.581446
753.757765,-3330.926739,-5107.421000,-1762.019645
753.758089,-1776.494261,1036.288319,-5056.230287
753.758414,-6513.812290,1406.391290,-10725.336972
753.758738,-13989.892304,-6217.729913,-6588.421283
753.759062,-13101.645173,-12361.439231,-7354.516781
753.759386,-6587.832884,-11029.068536,-9346.365076
753.759710,-5995.668130,-8660.409521,-1225.752797
753.760034,-2516.700203,-10362.883188,2757.943793
753.760358,6069.688724,-14137.933492,1838.629195
753.760683,10066.800811,-13841.851115,4366.744339
753.761007,10510.924376,-10436.903782,7048.078582
753.761331,10955.047942,-11917.315666,7967.393179
753.761655,9696.697840,-17616.901420,7201.297681
753.761979,6883.915261,-16580.613101,7507.735880
753.762303,4959.379811,-10955.047942,6052.154434
753.762627,2294.638420,-7476.080014,1762.019645
753.762952,-1628.453072,-8586.388927,-1225.752797
753.763276,-4515.256246,-4737.318029,-4826.401637
753.763600,-5773.606348,2368.659014,-13789.718964
753.763924,-11473.192101,-3404.947333,-7584.345430
753.764248,-12657.521608,-12139.377449,-7354.516781
753.764572,-8142.265362,-11917.315666,-9959.241474
753.764896,-7994.224174,-8364.327145,-3370.820191
753.765221,-5551.544565,-7031.956449,-842.705048
753.765545,592.164754,-12509.480420,-306.438199
753.765869,6365.771101,-15026.180623,1608.800546
753.766193,10732.986159,-10214.842000,6894.859482
753.766517,12657.521608,-12435.459826,8656.879127
753.766841,10066.800811,-16876.695478,8197.221829
753.767165,6661.853478,-15914.427753,8273.831378
753.767490,4811.338623,-12065.356855,6894.859482
753.767814,2516.700203,-9400.615463,4290.134789
753.768138,-666.185348,-9474.636058,-1149.143247
753.768462,-2960.823768,-6883.915261,-2221.676944
753.768786,-1850.514855,-1036.288319,-3600.648841
753.769110,-3923.091493,1850.514855,-9346.365076
753.769434,-10436.903782,-2220.617826,-8197.221829
753.769759,-15618.345376,-9178.553681,-6052.154434
753.770083,-10584.944971,-11695.253884,-8963.317327
753.770407,-7846.182985,-9474.636058,-5822.325785
753.770731,-6809.894666,-9918.759623,1455.581446
753.771055,1332.370696,-12953.603985,1838.629195
753.771379,8438.347739,-14878.139434,2681.334243
753.771703,10214.842000,-11991.336260,5669.106685
753.772028,10362.883188,-9548.656652,7737.564530
753.772352,9844.739029,-14730.098246,7967.393179
753.772676,7550.100608,-17764.942608,7354.516781
753.773000,5995.668130,-13693.809927,7507.735880
753.773324,4737.318029,-8216.285956,4443.353888
753.773648,1924.535449,-7402.059420,459.657299
