#time,accel_x,accel_y,accel_z
459.495667,5107.421000,-8734.430116,1838.629195
459.495991,3849.070898,-10362.883188,3370.820191
459.496315,2072.576638,-11547.212695,3524.039291
459.496639,-962.267725,-12139.377449,2298.286494
459.496963,-3701.029710,-11547.212695,536.266849
459.497287,-5033.400406,-9992.780217,76.609550
459.497611,-4589.276840,-8808.450710,153.219100
459.497935,-2442.679609,-7920.203579,0.000000
459.498259,-666.185348,-7105.977043,1302.362347
459.498583,2368.659014,-7179.997637,1762.019645
459.498907,5329.482782,-7550.100608,1455.581446
459.499231,5847.626942,-7328.038826,1072.533697
459.499555,5847.626942,-8882.471304,1455.581446
459.499879,5921.647536,-11621.233289,1685.410096
459.500203,6069.688724,-13545.768739,2145.067394
459.500527,4737.318029,-13027.624579,2221.676944
459.500851,2960.823768,-12139.377449,1608.800546
459.501175,888.247130,-11769.274478,383.047749
459.501498,-962.267725,-11843.295072,-153.219100
459.501822,-1332.370696,-11029.068536,0.000000
459.502146,-888.247130,-10288.862594,766.095498
459.502470,-444.123565,-9252.574275,1225.752797
459.502794,-370.102971,-8216.285956,1532.190996
459.503118,370.102971,-7994.224174,689.485948
459.503442,1554.432478,-8586.388927,995.924147
459.503766,2516.700203,-9474.636058,919.314598
459.504090,3256.906145,-10066.800811,1302.362347
459.504414,4071.132681,-10288.862594,1455.581446
459.504738,4219.173869,-10658.965565,1455.581446
459.505062,3849.070898,-10510.924376,1762.019645
459.505386,3478.967927,-10955.047942,1455.581446
459.505710,3627.009116,-10732.986159,1762.019645
459.506034,3923.091493,-9622.677246,2451.505594
459.506358,4071.132681,-9178.553681,2451.505594
459.506682,4441.235652,-9104.533087,2757.943793
459.507006,3997.112087,-8808.450710,3370.820191
459.507330,2812.782580,-8364.327145,3064.381992
459.507654,2220.617826,-8882.471304,2604.724693
459.507978,1702.473667,-9622.677246,2451.505594
459.508301,1776.494261,-9548.656652,2528.115143
459.508625,1776.494261,-10362.883188,2757.943793
459.508949,1110.308913,-11251.130318,2834.553343
459.509273,-148.041188,-11621.233289,2451.505594
459.509597,-518.144159,-11399.171507,2298.286494
459.509921,0.000000,-10288.862594,2604.724693
459.510245,1258.350101,-8660.409521,3524.039291
459.510569,2886.803174,-7476.080014,3907.087040
459.510893,3997.112087,-6365.771101,3983.696590
459.511217,5403.503377,-6217.729913,3677.258390
459.511541,5921.647536,-6217.729913,3830.477490
459.511865,5255.462188,-6069.688724,3830.477490
459.512189,4589.276840,-6661.853478,3600.648841
459.512513,2812.782580,-7476.080014,3370.820191
459.512837,888.247130,-9400.615463,3064.381992
459.513161,-1332.370696,-10807.006753,3294.210641
459.513485,-3108.864956,-11473.192101,2221.676944
459.513809,-2738.761985,-11547.212695,2145.067394
459.514133,-888.247130,-10807.006753,2604.724693
459.514457,2294.638420,-10362.883188,2987.772442
459.514781,4441.235652,-9918.759623,3600.648841
459.515104,5033.400406,-9918.759623,3600.648841
459.515428,3997.112087,-9918.759623,3447.429741
459.515752,2072.576638,-9474.636058,2374.896044
459.516076,0.000000,-9252.574275,1608.800546
459.516400,-814.226536,-8882.471304,689.485948
459.516724,-296.082377,-9030.512492,995.924147
459.517048,1036.288319,-9178.553681,1302.362347
459.517372,2146.597232,-9178.553681,1225.752797
459.517696,2960.823768,-9474.636058,1455.581446
459.518020,2590.720797,-9992.780217,1149.143247
459.518344,1258.350101,-9918.759623,842.705048
459.518668,-1258.350101,-10066.800811,842.705048
459.518992,-2368.659014,-10362.883188,842.705048
459.519316,-2072.576638,-10362.883188,306.438199
459.519640,0.000000,-10066.800811,1072.533697
459.519964,2442.679609,-10362.883188,1149.143247
459.520288,4367.215058,-10881.027347,1225.752797
459.520612,4959.379811,-11103.089130,1072.533697
459.520936,4367.215058,-10955.047942,-153.219100
459.521260,1924.535449,-9770.718434,-306.438199
459.521583,0.000000,-9548.656652,-1225.752797
459.521907,-814.226536,-9918.759623,-1455.581446
459.522231,-222.061783,-10140.821405,-1532.190996
459.522555,0.000000,-9918.759623,-919.314598
459.522879,0.000000,-9992.780217,-1225.752797
459.523203,0.000000,-9992.780217,-306.438199
459.523527,-148.041188,-9178.553681,-306.438199
459.523851,0.000000,-8512.368333,76.609550
459.524176,592.164754,-8734.430116,383.047749
459.524500,1480.411884,-9844.739029,995.924147
459.524824,1702.473667,-10584.944971,536.266849
459.525148,222.061783,-9474.636058,-459.657299
459.525472,-1332.370696,-7994.224174,-1915.238745
459.525796,-2368.659014,-8142.265362,-2604.724693
459.526120,-2368.659014,-8364.327145,-2528.115143
459.526444,-1036.288319,-8808.450710,-2681.334243
459.526768,-370.102971,-9104.533087,-2604.724693
459.527093,0.000000,-9844.739029,-2298.286494
459.527417,222.061783,-9696.697840,-1608.800546
459.527741,2146.597232,-9104.533087,-153.219100
459.528065,3997.112087,-9178.553681,612.876398
459.528389,5921.647536,-9622.677246,1838.629195
459.528713,5699.585753,-11769.274478,1532.190996
459.529037,2738.761985,-12213.398043,383.047749
459.529361,-814.226536,-12139.377449,-306.438199
459.529685,-3627.009116,-11621.233289,-1378.971896
459.530010,-4885.359217,-10807.006753,-1991.848295
459.530334,-4367.215058,-9844.739029,-2451.505594
459.530658,-3552.988522,-9104.533087,-1991.848295
459.530982,-2664.741391,-9474.636058,-2451.505594
459.531306,-1998.556043,-8586.388927,-2298.286494
459.531630,-1480.411884,-7772.162391,-1608.800546
459.531954,148.041188,-7772.162391,-383.047749
459.532278,2516.700203,-8956.491898,919.314598
459.532602,4441.235652,-10214.842000,2145.067394
459.532927,4663.297435,-11991.336260,1915.238745
459.533251,2368.659014,-11843.295072,1072.533697
459.533575,-296.082377,-12213.398043,383.047749
459.533899,-2294.638420,-11103.089130,153.219100
459.534223,-2812.782580,-11325.150913,459.657299
459.534547,-2590.720797,-11917.315666,153.219100
459.534871,-2516.700203,-11473.192101,0.000000
459.535195,-2590.720797,-9992.780217,306.438199
459.535519,-888.247130,-8290.306550,0.000000
459.535844,1480.411884,-7105.977043,306.438199
459.536168,4293.194464,-7624.121203,1915.238745
459.536492,5403.503377,-8586.388927,2834.553343
459.536816,4589.276840,-9474.636058,2757.943793
459.537140,1998.556043,-9622.677246,2221.676944
459.537464,-444.123565,-9252.574275,1838.629195
459.537788,-1480.411884,-8586.388927,1225.752797
459.538112,-1850.514855,-8882.471304,1225.752797
459.538436,-1184.329507,-9326.594869,1991.848295
459.538760,-1110.308913,-9548.656652,1455.581446
459.539085,-2294.638420,-8808.450710,1072.533697
459.539409,-2960.823768,-7179.997637,919.314598
459.539733,-2664.741391,-6217.729913,995.924147
459.540057,-740.205942,-6291.750507,1149.143247
459.540381,1850.514855,-7920.203579,1455.581446
459.540705,2812.782580,-9770.718434,1685.410096
459.541029,1998.556043,-10288.862594,1915.238745
459.541353,370.102971,-10140.821405,842.705048
459.541677,-740.205942,-9696.697840,306.438199
459.542002,-370.102971,-10214.842000,612.876398
459.542326,518.144159,-11177.109724,383.047749
459.542650,0.000000,-11399.171507,383.047749
459.542974,-962.267725,-10362.883188,0.000000
459.543298,-1702.473667,-9474.636058,-766.095498
459.543622,-1332.370696,-8290.306550,-459.657299
459.543946,296.082377,-8364.327145,0.000000
459.544270,1850.514855,-8956.491898,383.047749
459.544594,2368.659014,-9770.718434,842.705048
459.544919,1776.494261,-10955.047942,689.485948
459.545243,296.082377,-10658.965565,-536.266849
459.545567,-740.205942,-9844.739029,-1072.533697
459.545891,-1036.288319,-10658.965565,-842.705048
459.546215,-814.226536,-12139.377449,-842.705048
459.546539,-592.164754,-12583.501014,-919.314598
459.546863,-1184.329507,-11843.295072,-1608.800546
459.547187,-1702.473667,-9770.718434,-1532.190996
459.547511,-1258.350101,-8068.244768,-2374.896044
459.547836,296.082377,-8068.244768,-1685.410096
459.548160,1924.535449,-9252.574275,-842.705048
459.548484,2886.803174,-10436.903782,0.000000
459.548808,2368.659014,-10362.883188,0.000000
459.549132,0.000000,-9696.697840,-229.828649
459.549456,-1554.432478,-8734.430116,-842.705048
459.549780,-1184.329507,-8882.471304,-1302.362347
459.550104,-148.041188,-10214.842000,-1225.752797
459.550428,0.000000,-11103.089130,-842.705048
459.550753,-962.267725,-10584.944971,-1149.143247
459.551077,-1406.391290,-9178.553681,-2068.457845
459.551401,-1702.473667,-7994.224174,-2298.286494
459.551725,-1110.308913,-7402.059420,-1991.848295
459.552049,148.041188,-8438.347739,-1685.410096
459.552373,1184.329507,-10066.800811,-995.924147
459.552697,740.205942,-9918.759623,-766.095498
459.553021,-370.102971,-10066.800811,-1072.533697
459.553345,-1406.391290,-9622.677246,-1225.752797
459.553669,-1776.494261,-10140.821405,0.000000
459.553994,-814.226536,-10584.944971,-919.314598
459.554318,-666.185348,-11325.150913,-536.266849
459.554642,-1332.370696,-10807.006753,-1149.143247
459.554966,-1776.494261,-9770.718434,-1455.581446
459.555290,-1406.391290,-8438.347739,-1608.800546
459.555614,-148.041188,-7772.162391,-1072.533697
459.555938,1776.494261,-8586.388927,-536.266849
459.556262,2664.741391,-9696.697840,-306.438199
459.556586,2442.679609,-10436.903782,-229.828649
459.556911,814.226536,-10214.842000,306.438199
459.557235,-888.247130,-9622.677246,76.609550
459.557559,-1110.308913,-9474.636058,0.000000
459.557883,0.000000,-9918.759623,76.609550
459.558207,666.185348,-10510.924376,766.095498
459.558531,1406.391290,-10807.006753,689.485948
459.558855,1480.411884,-9548.656652,919.314598
459.559179,1332.370696,-8142.265362,1225.752797
459.559503,1036.288319,-8142.265362,689.485948
459.559828,1924.535449,-9030.512492,1378.971896
459.560152,2368.659014,-10214.842000,2068.457845
459.560476,2220.617826,-11029.068536,1685.410096
459.560800,666.185348,-10955.047942,1455.581446
459.561124,-962.267725,-10584.944971,1378.971896
459.561448,-1924.535449,-9474.636058,1608.800546
459.561772,-1924.535449,-9844.739029,1532.190996
459.562096,-1702.473667,-11177.109724,1455.581446
459.562420,-1850.514855,-11251.130318,1225.752797
459.562745,-2442.679609,-9770.718434,766.095498
459.563069,-2516.700203,-7994.224174,919.314598
459.563393,-1406.391290,-6957.935855,995.924147
459.563717,296.082377,-7179.997637,1378.971896
459.564041,1110.308913,-8290.306550,1991.848295
459.564365,888.247130,-9844.739029,2145.067394
459.564689,-296.082377,-9696.697840,1532.190996
459.565013,-1776.494261,-8882.471304,1455.581446
459.565337,-1924.535449,-8808.450710,919.314598
459.565662,-666.185348,-9400.615463,1225.752797
459.565986,592.164754,-10362.883188,1838.629195
459.566310,888.247130,-10732.986159,919.314598
459.566634,-370.102971,-9252.574275,536.266849
459.566958,-1554.432478,-8216.285956,0.000000
459.567282,-1258.350101,-7698.141797,-153.219100
459.567606,74.020594,-8216.285956,0.000000
459.567930,1924.535449,-9252.574275,229.828649
459.568254,2220.617826,-9992.780217,766.095498
459.568579,1036.288319,-10436.903782,229.828649
459.568903,0.000000,-10140.821405,-306.438199
459.569227,-888.247130,-9770.718434,-842.705048
459.569551,-740.205942,-10288.862594,-919.314598
459.569875,0.000000,-11325.150913,-689.485948
459.570199,148.041188,-11843.295072,-766.095498
459.570523,-518.144159,-10658.965565,-766.095498
459.570847,-592.164754,-8734.430116,-1455.581446
459.571171,74.020594,-7846.182985,-1685.410096
459.571495,1554.432478,-8142.265362,-842.705048
459.571820,2886.803174,-9622.677246,-995.924147
459.572144,2368.659014,-10288.862594,-612.876398
459.572468,888.247130,-10288.862594,-995.924147
459.572792,-814.226536,-9548.656652,-1685.410096
459.573116,-1036.288319,-9548.656652,-1455.581446
459.573440,-518.144159,-9770.718434,-1072.533697
459.573764,962.267725,-10436.903782,-1149.143247
459.574088,1554.432478,-11177.109724,-766.095498
459.574412,814.226536,-11325.150913,-1455.581446
459.574737,-666.185348,-9622.677246,-1608.800546
459.575061,-888.247130,-8438.347739,-1378.971896
459.575385,370.102971,-8512.368333,-1302.362347
459.575709,1850.514855,-9548.656652,-612.876398
459.576033,2146.597232,-10732.986159,229.828649
459.576357,1332.370696,-11103.089130,0.000000
459.576681,296.082377,-10362.883188,-153.219100
459.577005,-592.164754,-9992.780217,-383.047749
459.577329,-518.144159,-9918.759623,-153.219100
459.577654,0.000000,-10510.924376,0.000000
459.577978,148.041188,-11029.068536,0.000000
459.578302,-518.144159,-10658.965565,76.609550
459.578626,-2072.576638,-8734.430116,-383.047749
459.578950,-1554.432478,-7550.100608,0.000000
459.579274,-148.041188,-7476.080014,153.219100
459.579598,1184.329507,-8364.327145,459.657299
459.579922,1036.288319,-9104.533087,995.924147
459.580246,-296.082377,-9548.656652,612.876398
459.580571,-2294.638420,-8882.471304,459.657299
459.580895,-2960.823768,-8438.347739,0.000000
459.581219,-2812.782580,-8438.347739,0.000000
459.581543,-1628.453072,-9548.656652,306.438199
459.581867,-592.164754,-10436.903782,612.876398
459.582191,-962.267725,-10362.883188,76.609550
459.582515,-1628.453072,-9770.718434,76.609550
459.582839,-2368.659014,-8364.327145,-459.657299
459.583163,-1332.370696,-8142.265362,-229.828649
459.583488,0.000000,-9474.636058,306.438199
459.583812,1924.535449,-11399.171507,612.876398
459.584136,2072.576638,-12065.356855,766.095498
459.584460,1036.288319,-11473.192101,536.266849
459.584784,74.020594,-10288.862594,0.000000
459.585108,0.000000,-9992.780217,383.047749
459.585432,370.102971,-11325.150913,459.657299
459.585756,592.164754,-11843.295072,1072.533697
459.586080,0.000000,-11029.068536,153.219100
459.586404,-962.267725,-9844.739029,-229.828649
459.586729,-1036.288319,-8290.306550,-612.876398
459.587053,296.082377,-7698.141797,-459.657299
459.587377,1924.535449,-8068.244768,0.000000
459.587701,2220.617826,-9622.677246,76.609550
459.588025,1628.453072,-10658.965565,-612.876398
459.588349,-444.123565,-9844.739029,0.000000
459.588673,-1480.411884,-9326.594869,-306.438199
459.588997,-1406.391290,-8882.471304,0.000000
459.589321,-592.164754,-9918.759623,0.000000
459.589646,296.082377,-10881.027347,0.000000
459.589970,814.226536,-11325.150913,0.000000
459.590294,0.000000,-10140.821405,-536.266849
459.590618,-814.226536,-8734.430116,-306.438199
459.590942,-740.205942,-8068.244768,-1455.581446
459.591266,888.247130,-8438.347739,306.438199
459.591590,2590.720797,-10362.883188,1072.533697
459.591914,2960.823768,-10881.027347,459.657299
459.592238,1702.473667,-10288.862594,0.000000
459.592563,-148.041188,-9474.636058,0.000000
459.592887,-666.185348,-9178.553681,-536.266849
459.593211,296.082377,-9400.615463,229.828649
459.593535,444.123565,-10436.903782,459.657299
459.593859,-370.102971,-10066.800811,76.609550
459.594183,-444.123565,-9326.594869,-612.876398
459.594507,-518.144159,-7846.182985,-766.095498
459.594831,592.164754,-7254.018232,306.438199
459.595155,1554.432478,-7772.162391,229.828649
459.595480,2220.617826,-8956.491898,536.266849
459.595804,814.226536,-9474.636058,306.438199
459.596128,-1036.288319,-9400.615463,-306.438199
459.596452,-2368.659014,-9030.512492,-612.876398
459.596776,-2072.576638,-8956.491898,-766.095498
459.597100,-666.185348,-9548.656652,383.047749
459.597424,814.226536,-10658.965565,383.047749
459.597748,1110.308913,-11177.109724,306.438199
459.598072,-148.041188,-10584.944971,0.000000
459.598397,-1258.350101,-9104.533087,-383.047749
459.598721,-1406.391290,-8512.368333,-459.657299
459.599045,0.000000,-9474.636058,0.000000
459.599369,1184.329507,-10955.047942,536.266849
459.599693,1924.535449,-11251.130318,842.705048
459.600017,1406.391290,-11029.068536,0.000000
459.600341,0.000000,-10066.800811,-459.657299
459.600665,-1258.350101,-9548.656652,-766.095498
459.600989,-1184.329507,-10140.821405,-229.828649
459.601313,-444.123565,-11177.109724,0.000000
459.601638,-592.164754,-11399.171507,-153.219100
459.601962,-888.247130,-10214.842000,-842.705048
459.602286,-1036.288319,-8586.388927,-383.047749
459.602610,-814.226536,-7920.203579,-459.657299
459.602934,444.123565,-8586.388927,0.000000
459.603258,1406.391290,-9474.636058,0.000000
459.603582,740.205942,-10584.944971,459.657299
459.603906,-666.185348,-10658.965565,0.000000
459.604230,-2146.597232,-9696.697840,-459.657299
459.604555,-2664.741391,-8660.409521,-383.047749
459.604879,-1702.473667,-9548.656652,-919.314598
459.605203,-740.205942,-10066.800811,0.000000
459.605527,-444.123565,-10510.924376,-689.485948
459.605851,-888.247130,-10288.862594,-689.485948
459.606175,-1258.350101,-9252.574275,-1072.533697
459.606499,-1406.391290,-8216.285956,-919.314598
459.606823,-222.061783,-8364.327145,-612.876398
459.607147,888.247130,-9178.553681,76.609550
459.607472,1776.494261,-10436.903782,383.047749
459.607796,1628.453072,-10510.924376,-153.219100
459.608120,0.000000,-9548.656652,-689.485948
459.608444,-592.164754,-9178.553681,-612.876398
459.608768,-370.102971,-9548.656652,-766.095498
459.609092,740.205942,-10436.903782,-229.828649
459.609416,1258.350101,-11029.068536,383.047749
459.609740,1480.411884,-10214.842000,0.000000
459.610064,444.123565,-8956.491898,-1455.581446
459.610389,888.247130,-7846.182985,-612.876398
459.610713,1924.535449,-8142.265362,-306.438199
459.611037,2960.823768,-9622.677246,536.266849
459.611361,2664.741391,-11029.068536,842.705048
459.611685,740.205942,-11177.109724,0.000000
459.612009,-296.082377,-9844.739029,0.000000
459.612333,-1554.432478,-8808.450710,-689.485948
459.612657,-814.226536,-9474.636058,153.219100
459.612981,666.185348,-10436.903782,306.438199
459.613306,1332.370696,-10881.027347,612.876398
459.613630,740.205942,-10510.924376,536.266849
459.613954,-666.185348,-9030.512492,0.000000
459.614278,-1480.411884,-7772.162391,-459.657299
459.614602,-888.247130,-8142.265362,-229.828649
459.614926,740.205942,-9178.553681,153.219100
459.615250,1998.556043,-10362.883188,1532.190996
459.615574,1924.535449,-11103.089130,1302.362347
459.615898,666.185348,-10436.903782,842.705048
459.616223,-518.144159,-9474.636058,459.657299
459.616547,-888.247130,-9474.636058,536.266849
459.616871,-370.102971,-10436.903782,383.047749
459.617195,74.020594,-10732.986159,842.705048
459.617519,0.000000,-10955.047942,1225.752797
459.617843,-740.205942,-9400.615463,1149.143247
459.618167,-1332.370696,-8142.265362,383.047749
459.618491,-592.164754,-7698.141797,306.438199
459.618815,444.123565,-8438.347739,689.485948
459.619139,740.205942,-9474.636058,1149.143247
459.619464,0.000000,-10066.800811,1072.533697
459.619788,-2146.597232,-9104.533087,689.485948
459.620112,-3701.029710,-8438.347739,153.219100
459.620436,-3478.967927,-8364.327145,0.000000
459.620760,-2220.617826,-9104.533087,0.000000
459.621084,-1110.308913,-10066.800811,536.266849
459.621408,-740.205942,-10584.944971,306.438199
459.621732,-1628.453072,-8956.491898,-306.438199
459.622056,-1924.535449,-8068.244768,-306.438199
459.622381,-1628.453072,-8142.265362,-153.219100
459.622705,296.082377,-9178.553681,0.000000
459.623029,1258.350101,-10732.986159,229.828649
459.623353,1628.453072,-11547.212695,153.219100
459.623677,666.185348,-11177.109724,0.000000
459.624001,-296.082377,-10436.903782,-842.705048
459.624325,-592.164754,-9918.759623,-1225.752797
459.624650,0.000000,-11177.109724,-459.657299
459.624974,666.185348,-11695.253884,0.000000
459.625298,444.123565,-11695.253884,-459.657299
459.625622,0.000000,-10436.903782,-919.314598
459.625946,-148.041188,-9252.574275,-1455.581446
459.626271,444.123565,-8364.327145,-1149.143247
459.626595,1924.535449,-9326.594869,0.000000
459.626919,2220.617826,-10140.821405,995.924147
459.627243,1184.329507,-10288.862594,-459.657299
459.627567,-518.144159,-9918.759623,-383.047749
459.627892,-2072.576638,-9030.512492,-1532.190996
459.628216,-1554.432478,-9178.553681,-1149.143247
459.628540,0.000000,-9622.677246,-995.924147
459.628864,814.226536,-10140.821405,-536.266849
459.629188,962.267725,-10140.821405,0.000000
459.629512,518.144159,-9252.574275,-459.657299
459.629837,0.000000,-7772.162391,-612.876398
459.630161,148.041188,-7550.100608,-842.705048
459.630485,1184.329507,-8586.388927,-383.047749
459.630809,2220.617826,-9770.718434,0.000000
459.631133,2442.679609,-10881.027347,229.828649
459.631458,1628.453072,-10658.965565,536.266849
459.631782,0.000000,-9326.594869,-689.485948
459.632106,-962.267725,-8808.450710,-612.876398
459.632430,-666.185348,-9474.636058,-306.438199
459.632754,0.000000,-10584.944971,-306.438199
459.633079,0.000000,-10881.027347,0.000000
459.633403,-666.185348,-9844.739029,-689.485948
459.633727,-1332.370696,-8216.285956,-842.705048
459.634051,-666.185348,-7402.059420,-995.924147
459.634375,1184.329507,-8364.327145,-229.828649
459.634700,1850.514855,-9918.759623,229.828649
459.635024,1332.370696,-10807.006753,919.314598
459.635348,-370.102971,-11103.089130,612.876398
459.635672,-1776.494261,-9918.759623,76.609550
459.635996,-2294.638420,-9696.697840,229.828649
459.636321,-1628.453072,-9992.780217,689.485948
459.636645,74.020594,-10807.006753,459.657299
459.636969,0.000000,-10807.006753,383.047749
459.637293,0.000000,-10436.903782,612.876398
459.637617,-1702.473667,-8956.491898,-229.828649
459.637942,-1480.411884,-8216.285956,0.000000
459.638266,-592.164754,-8216.285956,0.000000
459.638590,592.164754,-9474.636058,536.266849
459.638914,1480.411884,-10288.862594,459.657299
459.639238,592.164754,-10510.924376,1072.533697
459.639562,-222.061783,-9474.636058,1225.752797
459.639887,-592.164754,-9030.512492,766.095498
459.640211,-666.185348,-9474.636058,612.876398
459.640535,-296.082377,-10658.965565,919.314598
459.640859,0.000000,-11473.192101,1302.362347
459.641183,222.061783,-11029.068536,689.485948
459.641508,-222.061783,-9474.636058,536.266849
459.641832,-222.061783,-8290.306550,536.266849
459.642156,740.205942,-8882.471304,76.609550
459.642480,1480.411884,-9474.636058,306.438199
459.642804,1628.453072,-10955.047942,612.876398
459.643129,222.061783,-10807.006753,153.219100
459.643453,-1924.535449,-9548.656652,-306.438199
459.643777,-2516.700203,-8660.409521,-459.657299
459.644101,-1776.494261,-9030.512492,0.000000
459.644425,-222.061783,-10140.821405,0.000000
459.644750,666.185348,-10881.027347,229.828649
459.645074,0.000000,-9696.697840,0.000000
459.645398,-962.267725,-8364.327145,-229.828649
459.645722,-1110.308913,-7402.059420,-536.266849
459.646046,-148.041188,-7476.080014,0.000000
459.646371,1184.329507,-8808.450710,459.657299
459.646695,2516.700203,-9622.677246,383.047749
459.647019,2146.597232,-10362.883188,229.828649
459.647343,666.185348,-10066.800811,-306.438199
459.647667,0.000000,-9326.594869,-766.095498
459.647992,-296.082377,-9696.697840,-766.095498
459.648316,296.082377,-10955.047942,0.000000
459.648640,1258.350101,-11843.295072,0.000000
459.648964,1406.391290,-11843.295072,-153.219100
459.649288,814.226536,-9696.697840,-1225.752797
459.649612,518.144159,-9030.512492,-995.924147
459.649937,518.144159,-8512.368333,-919.314598
459.650261,1628.453072,-9548.656652,-842.705048
459.650585,1776.494261,-10510.924376,-306.438199
459.650909,666.185348,-10955.047942,0.000000
459.651233,-1036.288319,-9548.656652,-689.485948
459.651558,-1554.432478,-9326.594869,-995.924147
459.651882,-1406.391290,-9400.615463,-459.657299
459.652206,0.000000,-9992.780217,-459.657299
459.652530,888.247130,-10436.903782,-153.219100
459.652854,666.185348,-10362.883188,0.000000
459.653179,0.000000,-9252.574275,-383.047749
459.653503,-296.082377,-8068.244768,-229.828649
459.653827,74.020594,-7846.182985,0.000000
459.654151,592.164754,-8882.471304,-383.047749
459.654475,1110.308913,-10066.800811,76.609550
459.654800,888.247130,-11103.089130,-153.219100
459.655124,0.000000,-10288.862594,0.000000
459.655448,-1036.288319,-9548.656652,-689.485948
459.655772,-1332.370696,-9548.656652,-766.095498
459.656096,-592.164754,-10362.883188,0.000000
459.656421,148.041188,-11177.109724,76.609550
459.656745,74.020594,-10807.006753,612.876398
459.657069,-222.061783,-9622.677246,0.000000
459.657393,-814.226536,-8438.347739,0.000000
459.657717,0.000000,-8068.244768,229.828649
459.658042,962.267725,-8882.471304,536.266849
459.658366,1036.288319,-10288.862594,1225.752797
459.658690,444.123565,-11177.109724,766.095498
459.659014,-1258.350101,-10066.800811,536.266849
459.659338,-2738.761985,-9104.533087,-306.438199
459.659662,-3182.885551,-8438.347739,-536.266849
459.659987,-2220.617826,-9178.553681,0.000000
459.660311,-1036.288319,-9918.759623,76.609550
459.660635,-592.164754,-9844.739029,-153.219100
459.660959,-1332.370696,-8586.388927,229.828649
459.661283,-2368.659014,-7402.059420,-229.828649
459.661608,-1480.411884,-7328.038826,0.000000
459.661932,-296.082377,-8142.265362,-153.219100
459.662256,740.205942,-9918.759623,383.047749
459.662580,962.267725,-11029.068536,383.047749
459.662904,0.000000,-10881.027347,0.000000
459.663229,-888.247130,-10436.903782,-153.219100
459.663553,-1110.308913,-9844.739029,-612.876398
459.663877,-518.144159,-10807.006753,0.000000
459.664201,0.000000,-11177.109724,-229.828649
459.664525,370.102971,-11917.315666,153.219100
459.664850,370.102971,-11029.068536,-153.219100
459.665174,0.000000,-9548.656652,-536.266849
459.665498,222.061783,-8956.491898,-383.047749
459.665822,1776.494261,-9326.594869,-689.485948
459.666146,2960.823768,-10584.944971,0.000000
459.666471,2294.638420,-11029.068536,76.609550
459.666795,592.164754,-10955.047942,0.000000
459.667119,-1036.288319,-9770.718434,-306.438199
459.667443,-1258.350101,-9104.533087,-842.705048
459.667767,0.000000,-9400.615463,-153.219100
459.668092,1554.432478,-10214.842000,306.438199
459.668416,1776.494261,-10510.924376,383.047749
459.668740,370.102971,-9030.512492,0.000000
459.669064,-888.247130,-7476.080014,-229.828649
459.669388,-666.185348,-7179.997637,-229.828649
459.669712,592.164754,-7846.182985,0.000000
459.670037,1702.473667,-8882.471304,383.047749
459.670361,2738.761985,-10288.862594,995.924147
459.670685,1554.432478,-10214.842000,-153.219100
459.671009,-518.144159,-8956.491898,-229.828649
459.671333,-1702.473667,-8364.327145,-229.828649
459.671658,-1850.514855,-9178.553681,-689.485948
459.671982,-1036.288319,-10066.800811,0.000000
459.672306,-444.123565,-10658.965565,0.000000
459.672630,-444.123565,-9696.697840,-229.828649
459.672954,-370.102971,-8734.430116,-766.095498
459.673279,0.000000,-7402.059420,-536.266849
459.673603,1554.432478,-7846.182985,-229.828649
459.673927,2368.659014,-9400.615463,766.095498
459.674251,2220.617826,-10584.944971,842.705048
459.674575,666.185348,-10955.047942,459.657299
459.674900,-888.247130,-9918.759623,76.609550
459.675224,-1702.473667,-9104.533087,0.000000
459.675548,-518.144159,-9252.574275,76.609550
459.675872,814.226536,-9844.739029,919.314598
459.676196,814.226536,-10881.027347,306.438199
459.676521,-444.123565,-10436.903782,0.000000
459.676845,-1554.432478,-9252.574275,-612.876398
459.677169,-1998.556043,-8216.285956,-766.095498
459.677493,-1036.288319,-8290.306550,-229.828649
459.677817,0.000000,-9474.636058,229.828649
459.678142,962.267725,-10584.944971,612.876398
459.678466,444.123565,-10436.903782,0.000000
459.678790,-592.164754,-10066.800811,-306.438199
459.679114,-1998.556043,-9696.697840,-536.266849
459.679438,-2072.576638,-10066.800811,-229.828649
459.679762,-1036.288319,-11103.089130,0.000000
459.680087,0.000000,-11991.336260,536.266849
459.680411,-148.041188,-11769.274478,229.828649
459.680735,-666.185348,-10066.800811,153.219100
459.681059,-592.164754,-8290.306550,-153.219100
459.681383,0.000000,-8364.327145,-383.047749
459.681708,1110.308913,-9326.594869,-153.219100
459.682032,1258.350101,-10807.006753,0.000000
459.682356,296.082377,-11251.130318,0.000000
459.682680,-1332.370696,-9918.759623,-536.266849
459.683004,-1406.391290,-9030.512492,-689.485948
459.683329,-1702.473667,-8512.368333,0.000000
459.683653,74.020594,-9548.656652,383.047749
459.683977,1406.391290,-9992.780217,536.266849
459.684301,888.247130,-9474.636058,153.219100
459.684625,-888.247130,-8660.409521,-229.828649
459.684950,-2072.576638,-7476.080014,-383.047749
459.685274,-1406.391290,-7254.018232,-919.314598
459.685598,-444.123565,-8290.306550,0.000000
459.685922,740.205942,-10066.800811,-612.876398
459.686246,740.205942,-10362.883188,0.000000
459.686571,-148.041188,-9400.615463,-766.095498
459.686895,-1110.308913,-8512.368333,-1072.533697
459.687219,-740.205942,-9104.533087,-766.095498
459.687543,74.020594,-10436.903782,0.000000
459.687867,888.247130,-10807.006753,383.047749
459.688192,1406.391290,-11103.089130,0.000000
459.688516,1110.308913,-9548.656652,-383.047749
459.688840,962.267725,-8512.368333,-995.924147
459.689164,1628.453072,-8438.347739,-766.095498
459.689488,3108.864956,-9622.677246,-229.828649
459.689812,3552.988522,-11029.068536,536.266849
459.690137,2442.679609,-11399.171507,229.828649
459.690461,370.102971,-10807.006753,383.047749
459.690785,-888.247130,-9992.780217,-1302.362347
459.691109,-1406.391290,-9622.677246,-1072.533697
459.691433,-666.185348,-10510.924376,-612.876398
459.691758,296.082377,-11325.150913,0.000000
459.692082,148.041188,-10955.047942,0.000000
459.692406,-592.164754,-9770.718434,-229.828649
459.692730,-1480.411884,-9326.594869,-689.485948
459.693054,-1480.411884,-8660.409521,-612.876398
459.693379,-740.205942,-8882.471304,0.000000
459.693703,592.164754,-10288.862594,306.438199
459.694027,1110.308913,-10658.965565,689.485948
459.694351,592.164754,-10732.986159,842.705048
459.694675,-518.144159,-9918.759623,766.095498
459.695000,-1036.288319,-9474.636058,1072.533697
459.695324,-592.164754,-9992.780217,536.266849
459.695648,-592.164754,-10658.965565,76.609550
459.695972,-296.082377,-11251.130318,842.705048
459.696296,-888.247130,-9770.718434,459.657299
459.696621,-1332.370696,-8068.244768,153.219100
459.696945,-518.144159,-7179.997637,459.657299
459.697269,740.205942,-8364.327145,766.095498
459.697593,1258.350101,-9178.553681,1378.971896
459.697917,814.226536,-9992.780217,1072.533697
459.698241,-962.267725,-9400.615463,536.266849
459.698566,-2368.659014,-8734.430116,612.876398
459.698890,-2368.659014,-8882.471304,383.047749
459.699214,-962.267725,-9326.594869,842.705048
459.699538,296.082377,-10288.862594,1149.143247
459.699862,444.123565,-10288.862594,1455.581446
459.700187,-370.102971,-9622.677246,842.705048
459.700511,-1332.370696,-7920.203579,0.000000
459.700835,-1628.453072,-7402.059420,-153.219100
459.701159,-666.185348,-8216.285956,-153.219100
459.701483,296.082377,-9622.677246,306.438199
459.701808,888.247130,-10288.862594,153.219100
459.702132,518.144159,-9992.780217,0.000000
459.702456,-444.123565,-9474.636058,76.609550
459.702780,-1480.411884,-9252.574275,-766.095498
459.703104,-1480.411884,-9992.780217,-612.876398
459.703429,-444.123565,-10807.006753,-766.095498
459.703753,296.082377,-11399.171507,-383.047749
459.704077,0.000000,-11029.068536,-995.924147
459.704401,0.000000,-9474.636058,-1378.971896
459.704725,296.082377,-8290.306550,-995.924147
459.705050,1998.556043,-9104.533087,-612.876398
459.705374,2072.576638,-10807.006753,-459.657299
459.705698,1924.535449,-11917.315666,0.000000
459.706022,740.205942,-11547.212695,-842.705048
459.706346,-592.164754,-10510.924376,-1149.143247
459.706671,-1406.391290,-9918.759623,-1149.143247
459.706995,-370.102971,-10288.862594,-842.705048
459.707319,962.267725,-11029.068536,-153.219100
459.707643,2072.576638,-11251.130318,0.000000
459.707967,1332.370696,-10288.862594,-459.657299
459.708291,-296.082377,-9030.512492,-995.924147
459.708616,-740.205942,-8364.327145,-1225.752797
459.708940,370.102971,-8438.347739,-995.924147
459.709264,1184.329507,-8808.450710,-383.047749
459.709588,1776.494261,-9548.656652,612.876398
459.709912,1628.453072,-9696.697840,153.219100
459.710237,814.226536,-8882.471304,383.047749
459.710561,0.000000,-7920.203579,-306.438199
459.710885,0.000000,-8808.450710,-153.219100
459.711209,370.102971,-9770.718434,0.000000
459.711533,518.144159,-10214.842000,153.219100
459.711858,74.020594,-9474.636058,-536.266849
459.712182,-814.226536,-8216.285956,-612.876398
459.712506,-814.226536,-7254.018232,-459.657299
459.712830,148.041188,-8142.265362,-229.828649
459.713154,1110.308913,-9178.553681,153.219100
459.713479,1258.350101,-10510.924376,459.657299
459.713803,-296.082377,-11103.089130,459.657299
459.714127,-2146.597232,-10214.842000,0.000000
459.714451,-2738.761985,-10140.821405,-153.219100
459.714775,-2294.638420,-9844.739029,-383.047749
459.715100,-666.185348,-10436.903782,0.000000
459.715424,296.082377,-11399.171507,766.095498
459.715748,814.226536,-11473.192101,689.485948
459.716072,0.000000,-10066.800811,306.438199
459.716396,-962.267725,-8882.471304,306.438199
459.716721,-370.102971,-8586.388927,153.219100
459.717045,518.144159,-9178.553681,-306.438199
459.717369,1480.411884,-10066.800811,459.657299
459.717693,666.185348,-9992.780217,0.000000
459.718017,-592.164754,-9696.697840,76.609550
459.718341,-1850.514855,-9030.512492,76.609550
459.718666,-2220.617826,-8808.450710,-306.438199
459.718990,-1406.391290,-9326.594869,0.000000
459.719314,-1036.288319,-9770.718434,153.219100
459.719638,-518.144159,-10214.842000,459.657299
459.719962,-370.102971,-9474.636058,-76.609550
459.720287,-592.164754,-8290.306550,229.828649
459.720611,74.020594,-8142.265362,0.000000
459.720935,1036.288319,-9474.636058,153.219100
459.721259,1406.391290,-11325.150913,459.657299
459.721583,814.226536,-11769.274478,459.657299
459.721908,-740.205942,-11177.109724,-306.438199
459.722232,-2220.617826,-10214.842000,0.000000
459.722556,-1554.432478,-10066.800811,153.219100
459.722880,222.061783,-10807.006753,0.000000
459.723204,1776.494261,-11621.233289,612.876398
459.723529,1258.350101,-11103.089130,306.438199
459.723853,-222.061783,-9474.636058,-76.609550
459.724177,-1258.350101,-8142.265362,-612.876398
459.724501,-962.267725,-7624.121203,-383.047749
459.724825,222.061783,-8290.306550,-536.266849
459.725150,1554.432478,-9326.594869,536.266849
459.725474,1628.453072,-9918.759623,76.609550
459.725798,962.267725,-9326.594869,0.000000
459.726122,0.000000,-8216.285956,-536.266849
459.726447,-518.144159,-8364.327145,-612.876398
459.726771,-222.061783,-9400.615463,-459.657299
459.727095,0.000000,-10066.800811,-383.047749
459.727419,0.000000,-9992.780217,-153.219100
459.727744,74.020594,-9770.718434,-383.047749
459.728068,666.185348,-7920.203579,-306.438199
459.728392,1924.535449,-8216.285956,-306.438199
459.728716,2960.823768,-9178.553681,-229.828649
459.729040,2960.823768,-10807.006753,229.828649
459.729365,1480.411884,-11325.150913,76.609550
459.729689,-518.144159,-10362.883188,-153.219100
459.730013,-1554.432478,-9992.780217,-1378.971896
459.730337,-1924.535449,-9252.574275,-1072.533697
459.730662,-148.041188,-10140.821405,-995.924147
459.730986,888.247130,-11325.150913,0.000000
459.731310,1184.329507,-10807.006753,0.000000
459.731634,222.061783,-9770.718434,-766.095498
459.731959,-1036.288319,-8068.244768,-995.924147
459.732283,-888.247130,-7920.203579,-1302.362347
459.732607,518.144159,-8660.409521,-536.266849
459.732931,1628.453072,-9770.718434,229.828649
459.733255,1702.473667,-10807.006753,383.047749
459.733580,1184.329507,-10807.006753,0.000000
459.733904,74.020594,-10214.842000,-153.219100
459.734228,-1036.288319,-9992.780217,-383.047749
459.734552,-1480.411884,-10140.821405,-229.828649
459.734877,-1480.411884,-11029.068536,-306.438199
459.735201,-962.267725,-11769.274478,76.609550
459.735525,-962.267725,-10584.944971,-459.657299
459.735849,-1332.370696,-9696.697840,-536.266849
459.736173,-1036.288319,-8142.265362,-612.876398
459.736498,0.000000,-8808.450710,-536.266849
459.736822,518.144159,-9992.780217,459.657299
459.737146,518.144159,-11325.150913,306.438199
459.737470,-888.247130,-11029.068536,383.047749
459.737795,-2368.659014,-9622.677246,-306.438199
459.738119,-2516.700203,-9030.512492,-153.219100
459.738443,-1258.350101,-9622.677246,0.000000
459.738767,0.000000,-10510.924376,842.705048
459.739092,370.102971,-10658.965565,995.924147
459.739416,148.041188,-9474.636058,536.266849
459.739740,-1406.391290,-8142.265362,76.609550
459.740064,-1406.391290,-7402.059420,-229.828649
459.740388,-592.164754,-7476.080014,-153.219100
459.740713,1110.308913,-9104.533087,612.876398
459.741037,1702.473667,-9770.718434,766.095498
459.741361,1554.432478,-10288.862594,459.657299
459.741685,222.061783,-9400.615463,766.095498
459.742010,-370.102971,-8364.327145,0.000000
459.742334,-888.247130,-9252.574275,383.047749
459.742658,-592.164754,-9918.759623,76.609550
459.742982,0.000000,-10510.924376,229.828649
459.743307,-444.123565,-10214.842000,153.219100
459.743631,-296.082377,-8734.430116,0.000000
459.743955,0.000000,-7624.121203,0.000000
459.744279,814.226536,-7772.162391,-153.219100
459.744603,1850.514855,-8956.491898,0.000000
459.744928,2072.576638,-10658.965565,383.047749
459.745252,370.102971,-10807.006753,612.876398
459.745576,-1258.350101,-10066.800811,-306.438199
459.745900,-2146.597232,-9474.636058,-612.876398
459.746225,-1406.391290,-9770.718434,-689.485948
459.746549,444.123565,-10732.986159,0.000000
459.746873,2368.659014,-11177.109724,76.609550
459.747197,1998.556043,-10288.862594,-153.219100
459.747522,444.123565,-9400.615463,-383.047749
459.747846,0.000000,-8586.388927,-689.485948
459.748170,296.082377,-8808.450710,-536.266849
459.748494,1480.411884,-9548.656652,-229.828649
459.748818,2960.823768,-10732.986159,153.219100
459.749143,3404.947333,-11399.171507,919.314598
459.749467,2442.679609,-9992.780217,229.828649
459.749791,1110.308913,-9696.697840,383.047749
459.750115,0.000000,-9548.656652,76.609550
459.750440,-814.226536,-10436.903782,0.000000
459.750764,-1184.329507,-11177.109724,153.219100
459.751088,-1332.370696,-10955.047942,-229.828649
459.751412,-1332.370696,-9548.656652,-306.438199
459.751737,-1332.370696,-7476.080014,-383.047749
459.752061,-444.123565,-8068.244768,-229.828649
459.752385,296.082377,-9252.574275,-383.047749
459.752709,592.164754,-9992.780217,0.000000
459.753033,-444.123565,-10436.903782,153.219100
459.753358,-2146.597232,-9992.780217,229.828649
459.753682,-2590.720797,-8956.491898,76.609550
459.754006,-1776.494261,-8290.306550,76.609550
459.754330,-814.226536,-9474.636058,383.047749
459.754655,518.144159,-10362.883188,459.657299
459.754979,592.164754,-10288.862594,689.485948
459.755303,-296.082377,-9252.574275,76.609550
459.755627,-888.247130,-7624.121203,0.000000
459.755952,-592.164754,-7328.038826,-306.438199
459.756276,296.082377,-8438.347739,229.828649
459.756600,1480.411884,-9844.739029,612.876398
459.756924,2442.679609,-10584.944971,612.876398
459.757248,1554.432478,-9918.759623,459.657299
459.757573,-592.164754,-9104.533087,153.219100
459.757897,-1480.411884,-9178.553681,-689.485948
459.758221,-2072.576638,-9918.759623,-459.657299
459.758545,-1850.514855,-10955.047942,-153.219100
459.758870,-1628.453072,-11473.192101,-76.609550
459.759194,-1554.432478,-10066.800811,-612.876398
459.759518,-666.185348,-8142.265362,-766.095498
459.759842,296.082377,-7476.080014,-612.876398
459.760167,1110.308913,-8956.491898,-306.438199
459.760491,1406.391290,-10436.903782,-153.219100
459.760815,148.041188,-11399.171507,0.000000
459.761139,-1184.329507,-10807.006753,-612.876398
459.761463,-2368.659014,-9548.656652,-919.314598
459.761788,-1924.535449,-9918.759623,-995.924147
459.762112,0.000000,-10214.842000,-459.657299
459.762436,1332.370696,-11621.233289,-459.657299
459.762760,1184.329507,-11325.150913,-229.828649
459.763085,296.082377,-10362.883188,-459.657299
459.763409,-666.185348,-8956.491898,-919.314598
459.763733,-592.164754,-7772.162391,-995.924147
459.764057,370.102971,-8808.450710,-612.876398
459.764382,1480.411884,-10066.800811,0.000000
459.764706,2442.679609,-11547.212695,76.609550
459.765030,1628.453072,-10732.986159,-306.438199
459.765354,444.123565,-9326.594869,-612.876398
459.765678,-444.123565,-8956.491898,-919.314598
459.766003,-962.267725,-9622.677246,-766.095498
459.766327,-592.164754,-11695.253884,-536.266849
459.766651,-666.185348,-11621.233289,0.000000
459.766975,-888.247130,-10140.821405,-383.047749
459.767300,-592.164754,-8808.450710,-689.485948
459.767624,444.123565,-7698.141797,-612.876398
459.767948,1702.473667,-8438.347739,-229.828649
459.768272,1998.556043,-9622.677246,689.485948
459.768597,1036.288319,-10214.842000,536.266849
459.768921,-814.226536,-9770.718434,-536.266849
459.769245,-1332.370696,-9178.553681,229.828649
459.769569,-740.205942,-8808.450710,0.000000
459.769893,222.061783,-8956.491898,-306.438199
459.770218,1554.432478,-9696.697840,459.657299
459.770542,1998.556043,-10732.986159,612.876398
459.770866,1258.350101,-9918.759623,229.828649
459.771190,-296.082377,-8364.327145,459.657299
459.771515,-666.185348,-7402.059420,-766.095498
459.771839,592.164754,-8438.347739,-229.828649
459.772163,1850.514855,-9770.718434,383.047749
459.772487,2368.659014,-10288.862594,1225.752797
459.772812,1628.453072,-10214.842000,1149.143247
459.773136,148.041188,-9770.718434,995.924147
459.773460,-740.205942,-9474.636058,689.485948
459.773784,-1554.432478,-10140.821405,689.485948
459.774108,-962.267725,-11029.068536,612.876398
459.774433,-888.247130,-11103.089130,919.314598
459.774757,-1184.329507,-10658.965565,306.438199
459.775081,-1332.370696,-9548.656652,76.609550
459.775405,-1184.329507,-8216.285956,153.219100
459.775730,0.000000,-8068.244768,76.609550
459.776054,740.205942,-8956.491898,689.485948
459.776378,518.144159,-9918.759623,995.924147
459.776702,-740.205942,-9918.759623,1149.143247
459.777027,-2220.617826,-9696.697840,459.657299
459.777351,-2886.803174,-9104.533087,306.438199
459.777675,-2368.659014,-8956.491898,153.219100
459.777999,-888.247130,-9844.739029,459.657299
459.778323,0.000000,-10362.883188,766.095498
459.778648,-222.061783,-10066.800811,0.000000
459.778972,-740.205942,-9178.553681,0.000000
459.779296,-1184.329507,-8068.244768,-383.047749
459.779620,-814.226536,-8142.265362,-153.219100
459.779945,1184.329507,-9474.636058,0.000000
459.780269,2368.659014,-11103.089130,306.438199
459.780593,1850.514855,-11251.130318,0.000000
459.780917,740.205942,-10584.944971,0.000000
459.781242,-518.144159,-9400.615463,-76.609550
459.781566,-666.185348,-10288.862594,-1072.533697
459.781890,-1184.329507,-11029.068536,-229.828649
459.782214,-666.185348,-11843.295072,-536.266849
459.782538,-888.247130,-11325.150913,-612.876398
459.782863,-1258.350101,-9992.780217,-995.924147
459.783187,-740.205942,-8364.327145,-842.705048
459.783511,222.061783,-7772.162391,-383.047749
459.783835,1924.535449,-9252.574275,-459.657299
459.784160,1480.411884,-9918.759623,0.000000
459.784484,592.164754,-10584.944971,-689.485948
459.784808,-1036.288319,-9696.697840,-919.314598
459.785132,-1850.514855,-8882.471304,-1072.533697
459.785457,-740.205942,-8808.450710,-842.705048
459.785781,888.247130,-10066.800811,-536.266849
459.786105,1776.494261,-10436.903782,76.609550
459.786429,2072.576638,-10214.842000,-536.266849
459.786753,518.144159,-9326.594869,-919.314598
459.787078,-370.102971,-8068.244768,-766.095498
459.787402,0.000000,-7994.224174,-766.095498
459.787726,1332.370696,-9030.512492,-459.657299
459.788050,2368.659014,-10510.924376,-153.219100
459.788375,2072.576638,-11325.150913,0.000000
459.788699,962.267725,-10436.903782,-229.828649
459.789023,0.000000,-9326.594869,-459.657299
459.789347,-296.082377,-9622.677246,-383.047749
459.789672,-222.061783,-10288.862594,0.000000
459.789996,-370.102971,-11251.130318,0.000000
459.790320,-444.123565,-11177.109724,0.000000
459.790644,-814.226536,-9474.636058,-383.047749
459.790968,-1036.288319,-8290.306550,-536.266849
459.791293,-148.041188,-7254.018232,0.000000
459.791617,1184.329507,-8734.430116,306.438199
459.791941,1184.329507,-9770.718434,383.047749
459.792265,0.000000,-10362.883188,306.438199
459.792590,-1480.411884,-10140.821405,76.609550
459.792914,-2294.638420,-8808.450710,459.657299
459.793238,-2072.576638,-8438.347739,76.609550
459.793562,-370.102971,-9326.594869,306.438199
459.793887,296.082377,-10066.800811,459.657299
459.794211,74.020594,-10658.965565,76.609550
459.794535,-444.123565,-10066.800811,76.609550
459.794859,-1332.370696,-8586.388927,0.000000
459.795183,-1036.288319,-7994.224174,0.000000
459.795508,148.041188,-8882.471304,153.219100
459.795832,1406.391290,-10140.821405,0.000000
459.796156,1554.432478,-11399.171507,306.438199
459.796480,518.144159,-11621.233289,689.485948
459.796805,-592.164754,-10881.027347,383.047749
459.797129,-1110.308913,-9696.697840,153.219100
459.797453,-740.205942,-10288.862594,383.047749
459.797777,74.020594,-11769.274478,459.657299
459.798102,222.061783,-11769.274478,612.876398
459.798426,-370.102971,-10658.965565,306.438199
459.798750,-740.205942,-8660.409521,-383.047749
459.799074,-444.123565,-7624.121203,-306.438199
459.799398,222.061783,-7994.224174,-459.657299
459.799723,666.185348,-9622.677246,0.000000
459.800047,518.144159,-10436.903782,995.924147
459.800371,-444.123565,-10436.903782,459.657299
459.800695,-1332.370696,-9178.553681,689.485948
459.801020,-1776.494261,-8364.327145,0.000000
459.801344,-592.164754,-8956.491898,229.828649
459.801668,592.164754,-10066.800811,306.438199
459.801992,740.205942,-10584.944971,0.000000
459.802317,-222.061783,-10066.800811,0.000000
459.802641,-1184.329507,-8586.388927,-153.219100
459.802965,-814.226536,-7846.182985,-459.657299
459.803289,370.102971,-8586.388927,-612.876398
459.803613,1406.391290,-9918.759623,0.000000
459.803938,2368.659014,-10955.047942,0.000000
459.804262,1480.411884,-11103.089130,153.219100
459.804586,222.061783,-10288.862594,0.000000
459.804910,-814.226536,-9548.656652,-689.485948
459.805235,-962.267725,-9844.739029,-689.485948
459.805559,0.000000,-10881.027347,-383.047749
459.805883,296.082377,-10807.006753,0.000000
459.806207,370.102971,-10362.883188,-536.266849
459.806532,148.041188,-8734.430116,-229.828649
459.806856,148.041188,-7328.038826,-536.266849
459.807180,1036.288319,-7994.224174,-383.047749
459.807504,1702.473667,-9548.656652,76.609550
459.807828,1184.329507,-10436.903782,76.609550
459.808153,222.061783,-10436.903782,153.219100
459.808477,-1036.288319,-9030.512492,-383.047749
459.808801,-1036.288319,-8364.327145,-383.047749
459.809125,-518.144159,-8956.491898,-383.047749
459.809450,1184.329507,-10436.903782,-229.828649
459.809774,1554.432478,-10214.842000,0.000000
459.810098,296.082377,-9844.739029,0.000000
459.810422,-888.247130,-8586.388927,-536.266849
459.810746,-1110.308913,-7846.182985,-919.314598
459.811071,-148.041188,-7920.203579,-459.657299
459.811395,1480.411884,-9622.677246,383.047749
459.811719,2368.659014,-11029.068536,229.828649
459.812043,1480.411884,-10881.027347,0.000000
459.812368,0.000000,-10658.965565,0.000000
459.812692,-1628.453072,-9474.636058,-306.438199
459.813016,-2146.597232,-9696.697840,-842.705048
459.813340,-1406.391290,-10955.047942,-306.438199
459.813665,-592.164754,-11177.109724,0.000000
459.813989,370.102971,-10807.006753,-229.828649
459.814313,148.041188,-9252.574275,-153.219100
459.814637,0.000000,-7846.182985,-306.438199
459.814961,444.123565,-8364.327145,0.000000
459.815286,1110.308913,-9474.636058,0.000000
459.815610,814.226536,-10807.006753,0.000000
459.815934,-296.082377,-10881.027347,306.438199
459.816258,-1480.411884,-10436.903782,0.000000
459.816583,-2220.617826,-9326.594869,0.000000
459.816907,-1924.535449,-9474.636058,0.000000
459.817231,-1110.308913,-9918.759623,306.438199
459.817555,-444.123565,-11029.068536,76.609550
459.817880,-962.267725,-10807.006753,0.000000
459.818204,-1850.514855,-9474.636058,0.000000
459.818528,-2294.638420,-7846.182985,-383.047749
459.818852,-1332.370696,-7994.224174,-306.438199
459.819176,-148.041188,-8956.491898,-306.438199
459.819501,962.267725,-9918.759623,459.657299
459.819825,1332.370696,-11029.068536,229.828649
459.820149,148.041188,-10584.944971,76.609550
459.820473,-592.164754,-9770.718434,-383.047749
459.820798,-888.247130,-9696.697840,-153.219100
459.821122,0.000000,-10362.883188,153.219100
459.821446,518.144159,-10955.047942,306.438199
459.821770,888.247130,-11103.089130,459.657299
459.822095,296.082377,-9844.739029,0.000000
459.822419,74.020594,-8438.347739,0.000000
459.822743,518.144159,-7920.203579,76.609550
459.823067,1554.432478,-8882.471304,306.438199
459.823391,1702.473667,-9844.739029,536.266849
459.823716,592.164754,-10658.965565,153.219100
459.824040,-1110.308913,-9770.718434,0.000000
459.824364,-2368.659014,-8438.347739,-383.047749
459.824688,-2516.700203,-8216.285956,-689.485948
459.825013,-1258.350101,-9030.512492,-383.047749
459.825337,-148.041188,-9696.697840,-306.438199
459.825661,370.102971,-9622.677246,-153.219100
459.825985,0.000000,-8808.450710,153.219100
459.826309,-592.164754,-7254.018232,-383.047749
459.826633,74.020594,-7328.038826,-383.047749
459.826957,1110.308913,-8364.327145,0.000000
459.827282,2368.659014,-10066.800811,536.266849
459.827606,2738.761985,-11177.109724,766.095498
459.827930,2146.597232,-11103.089130,459.657299
459.828254,888.247130,-9918.759623,0.000000
459.828578,370.102971,-9474.636058,689.485948
459.828902,592.164754,-10658.965565,306.438199
459.829226,814.226536,-11399.171507,459.657299
459.829550,962.267725,-11251.130318,0.000000
459.829875,666.185348,-10140.821405,-153.219100
459.830199,148.041188,-8364.327145,-459.657299
459.830523,370.102971,-7920.203579,-459.657299
459.830847,1110.308913,-8660.409521,153.219100
459.831171,1110.308913,-9178.553681,536.266849
459.831495,148.041188,-10066.800811,229.828649
459.831819,-1480.411884,-10214.842000,76.609550
459.832144,-2886.803174,-9474.636058,0.000000
459.832468,-2960.823768,-9104.533087,153.219100
459.832792,-2072.576638,-9548.656652,153.219100
459.833116,-1036.288319,-10214.842000,383.047749
459.833440,-370.102971,-10732.986159,0.000000
459.833764,-1258.350101,-10140.821405,-383.047749
459.834088,-2072.576638,-8216.285956,-383.047749
459.834413,-1406.391290,-8068.244768,-842.705048
459.834737,296.082377,-8956.491898,-383.047749
459.835061,2220.617826,-10362.883188,306.438199
459.835385,2886.803174,-10955.047942,459.657299
459.835709,2368.659014,-11399.171507,689.485948
459.836033,222.061783,-10732.986159,766.095498
459.836357,-962.267725,-9992.780217,0.000000
459.836681,-962.267725,-10066.800811,-76.609550
459.837006,-592.164754,-10584.944971,536.266849
459.837330,-296.082377,-11251.130318,536.266849
459.837654,-666.185348,-10214.842000,0.000000
459.837978,-1406.391290,-8808.450710,-689.485948
459.838302,-1184.329507,-7402.059420,-383.047749
459.838626,-222.061783,-7624.121203,-995.924147
459.838950,148.041188,-9178.553681,-459.657299
459.839275,0.000000,-10436.903782,-229.828649
459.839599,-814.226536,-10214.842000,-229.828649
459.839923,-1702.473667,-9770.718434,-689.485948
459.840247,-2368.659014,-9326.594869,-842.705048
459.840571,-888.247130,-9474.636058,-459.657299
459.840895,666.185348,-10362.883188,0.000000
459.841219,1110.308913,-10510.924376,76.609550
459.841544,518.144159,-10288.862594,0.000000
459.841868,-888.247130,-8956.491898,-383.047749
459.842192,-814.226536,-8068.244768,-459.657299
459.842516,74.020594,-7920.203579,-459.657299
459.842840,1776.494261,-9030.512492,229.828649
459.843164,2368.659014,-10436.903782,306.438199
459.843488,2146.597232,-10436.903782,0.000000
459.843812,74.020594,-9474.636058,-536.266849
459.844137,-1184.329507,-8660.409521,-612.876398
459.844461,-1628.453072,-9104.533087,-919.314598
459.844785,-666.185348,-10510.924376,-612.876398
459.845109,296.082377,-11325.150913,0.000000
459.845433,740.205942,-10214.842000,0.000000
459.845757,0.000000,-9400.615463,0.000000
459.846081,222.061783,-8216.285956,-229.828649
459.846406,814.226536,-8216.285956,383.047749
459.846730,2368.659014,-9326.594869,383.047749
459.847054,2516.700203,-10510.924376,612.876398
459.847378,1554.432478,-10732.986159,383.047749
459.847702,74.020594,-10140.821405,0.000000
459.848026,-740.205942,-9178.553681,-306.438199
459.848350,-296.082377,-9474.636058,0.000000
459.848675,592.164754,-9770.718434,153.219100
459.848999,666.185348,-10584.944971,0.000000
459.849323,222.061783,-10732.986159,0.000000
459.849647,-814.226536,-9548.656652,0.000000
459.849971,-1184.329507,-8290.306550,0.000000
459.850295,-666.185348,-8216.285956,0.000000
459.850619,592.164754,-9474.636058,689.485948
459.850943,1110.308913,-10436.903782,766.095498
459.851268,888.247130,-10510.924376,153.219100
459.851592,-370.102971,-10362.883188,153.219100
459.851916,-1184.329507,-9622.677246,-153.219100
459.852240,-1480.411884,-9474.636058,0.000000
459.852564,-814.226536,-10362.883188,153.219100
459.852888,0.000000,-11029.068536,306.438199
459.853212,222.061783,-10955.047942,306.438199
459.853537,74.020594,-10066.800811,229.828649
459.853861,-222.061783,-8364.327145,-229.828649
459.854185,74.020594,-7550.100608,-229.828649
459.854509,592.164754,-8734.430116,459.657299
459.854833,1406.391290,-10436.903782,842.705048
459.855157,740.205942,-11251.130318,766.095498
459.855481,-666.185348,-9992.780217,689.485948
459.855806,-1850.514855,-8660.409521,229.828649
459.856130,-1702.473667,-8512.368333,0.000000
459.856454,-740.205942,-8586.388927,383.047749
459.856778,-148.041188,-9696.697840,153.219100
459.857102,-666.185348,-9548.656652,76.609550
459.857426,-1924.535449,-8882.471304,-383.047749
459.857750,-2220.617826,-7550.100608,-536.266849
459.858075,-1480.411884,-7105.977043,-229.828649
459.858399,0.000000,-8142.265362,0.000000
459.858723,888.247130,-8808.450710,0.000000
459.859047,1332.370696,-10214.842000,0.000000
459.859371,370.102971,-10584.944971,-153.219100
459.859695,-666.185348,-9992.780217,229.828649
459.860019,-1036.288319,-9844.739029,153.219100
459.860343,-444.123565,-10658.965565,76.609550
459.860668,74.020594,-11769.274478,229.828649
459.860992,518.144159,-11991.336260,229.828649
459.861316,444.123565,-11843.295072,-229.828649
459.861640,518.144159,-9918.759623,-383.047749
459.861964,962.267725,-8512.368333,-76.609550
459.862288,1776.494261,-9474.636058,76.609550
459.862612,2294.638420,-10658.965565,306.438199
459.862937,1776.494261,-11177.109724,76.609550
459.863261,148.041188,-10510.924376,0.000000
459.863585,-1184.329507,-9696.697840,-306.438199
459.863909,-1924.535449,-8882.471304,-995.924147
459.864233,-740.205942,-9252.574275,0.000000
459.864557,592.164754,-10362.883188,306.438199
459.864881,814.226536,-10510.924376,0.000000
459.865206,0.000000,-9770.718434,-153.219100
459.865530,-1036.288319,-8364.327145,0.000000
459.865854,-888.247130,-7476.080014,-383.047749
459.866178,222.061783,-8290.306550,-306.438199
459.866502,1258.350101,-9622.677246,153.219100
459.866826,1702.473667,-10436.903782,76.609550
459.867150,740.205942,-9992.780217,0.000000
459.867474,-222.061783,-9474.636058,-306.438199
459.867799,-888.247130,-9326.594869,-612.876398
459.868123,-370.102971,-9548.656652,-306.438199
459.868447,444.123565,-10658.965565,-229.828649
459.868771,518.144159,-10288.862594,76.609550
459.869095,296.082377,-10214.842000,-153.219100
459.869419,0.000000,-8660.409521,-689.485948
459.869743,148.041188,-7698.141797,-612.876398
459.870068,888.247130,-8364.327145,-383.047749
459.870392,1480.411884,-10066.800811,0.000000
459.870716,1480.411884,-10955.047942,0.000000
459.871040,222.061783,-10510.924376,229.828649
459.871364,-1406.391290,-9770.718434,-459.657299
459.871688,-2072.576638,-8956.491898,-689.485948
459.872012,-1258.350101,-9474.636058,-689.485948
459.872337,-74.020594,-10510.924376,-229.828649
459.872661,444.123565,-10732.986159,-229.828649
459.872985,-592.164754,-9992.780217,-766.095498
459.873309,-1554.432478,-8660.409521,-766.095498
459.873633,-2072.576638,-7698.141797,-1225.752797
459.873957,-296.082377,-8364.327145,-919.314598
459.874281,518.144159,-9326.594869,-383.047749
459.874605,1036.288319,-10510.924376,76.609550
459.874930,888.247130,-10732.986159,153.219100
459.875254,0.000000,-10288.862594,306.438199
459.875578,-1258.350101,-9252.574275,76.609550
459.875902,-1554.432478,-9844.739029,306.438199
459.876226,-1036.288319,-10881.027347,612.876398
459.876550,-148.041188,-11843.295072,153.219100
459.876874,-74.020594,-11547.212695,76.609550
459.877199,-370.102971,-9992.780217,0.000000
459.877523,-592.164754,-8956.491898,0.000000
459.877847,148.041188,-8438.347739,0.000000
459.878171,1628.453072,-9474.636058,153.219100
459.878495,1776.494261,-10214.842000,383.047749
459.878819,592.164754,-10584.944971,229.828649
459.879143,-1036.288319,-9622.677246,-153.219100
459.879468,-1702.473667,-9030.512492,-306.438199
459.879792,-1258.350101,-8808.450710,0.000000
459.880116,-370.102971,-9326.594869,383.047749
459.880440,0.000000,-9992.780217,153.219100
459.880764,-888.247130,-9104.533087,459.657299
459.881088,-1628.453072,-8290.306550,-229.828649
459.881412,-2146.597232,-7254.018232,-536.266849
459.881736,-1406.391290,-7698.141797,-306.438199
459.882061,518.144159,-8734.430116,229.828649
459.882385,1554.432478,-9918.759623,383.047749
459.882709,1332.370696,-10584.944971,0.000000
459.883033,444.123565,-9844.739029,76.609550
459.883357,-518.144159,-9400.615463,0.000000
459.883681,-666.185348,-9844.739029,-459.657299
459.884005,518.144159,-10658.965565,-536.266849
459.884330,1110.308913,-11621.233289,-306.438199
459.884654,1184.329507,-11399.171507,0.000000
459.884978,740.205942,-10288.862594,-383.047749
459.885302,592.164754,-8956.491898,-536.266849
459.885626,1036.288319,-8216.285956,-1302.362347
459.885950,1924.535449,-9400.615463,229.828649
459.886274,2664.741391,-10807.006753,536.266849
459.886599,1628.453072,-11547.212695,306.438199
459.886923,0.000000,-10510.924376,0.000000
459.887247,-1110.308913,-9622.677246,-229.828649
459.887571,-1332.370696,-9252.574275,-229.828649
459.887895,0.000000,-9770.718434,-229.828649
459.888219,666.185348,-10140.821405,459.657299
459.888543,1406.391290,-10658.965565,-306.438199
459.888868,74.020594,-9548.656652,76.609550
459.889192,148.041188,-8364.327145,0.000000
459.889516,296.082377,-7698.141797,-536.266849
459.889840,962.267725,-8290.306550,-383.047749
459.890164,1850.514855,-9474.636058,766.095498
459.890488,1480.411884,-10066.800811,536.266849
459.890812,296.082377,-10214.842000,153.219100
459.891136,-1184.329507,-8956.491898,383.047749
459.891461,-1776.494261,-8586.388927,383.047749
459.891785,-1554.432478,-9400.615463,306.438199
459.892109,-1406.391290,-10288.862594,306.438199
459.892433,-1628.453072,-10436.903782,383.047749
459.892757,-1702.473667,-9474.636058,306.438199
459.893081,-1554.432478,-7994.224174,229.828649
459.893405,-962.267725,-7550.100608,0.000000
459.893730,148.041188,-7920.203579,153.219100
459.894054,1036.288319,-9548.656652,306.438199
459.894378,1036.288319,-11103.089130,383.047749
459.894702,-592.164754,-10732.986159,306.438199
459.895026,-1702.473667,-10140.821405,0.000000
459.895350,-1702.473667,-9474.636058,76.609550
459.895674,-1332.370696,-10066.800811,383.047749
459.895999,0.000000,-10881.027347,229.828649
459.896323,296.082377,-11251.130318,612.876398
459.896647,-370.102971,-10436.903782,229.828649
459.896971,-1480.411884,-8882.471304,0.000000
459.897295,-1554.432478,-8068.244768,0.000000
459.897619,-814.226536,-8512.368333,-306.438199
459.897943,296.082377,-9918.759623,0.000000
459.898267,1110.308913,-11029.068536,76.609550
459.898592,148.041188,-10881.027347,-459.657299
459.898916,-666.185348,-10214.842000,-383.047749
459.899240,-962.267725,-10066.800811,-536.266849
459.899564,-518.144159,-10436.903782,-612.876398
459.899888,148.041188,-11473.192101,-229.828649
459.900212,74.020594,-11621.233289,-153.219100
459.900536,0.000000,-10732.986159,-919.314598
459.900861,0.000000,-9622.677246,-842.705048
459.901185,148.041188,-8586.388927,-766.095498
459.901509,1406.391290,-9030.512492,-689.485948
459.901833,2220.617826,-10362.883188,-153.219100
459.902157,2368.659014,-11103.089130,-306.438199
459.902481,740.205942,-10732.986159,-153.219100
459.902805,-1184.329507,-9474.636058,-459.657299
459.903130,-1258.350101,-9030.512492,-536.266849
459.903454,-740.205942,-9178.553681,-536.266849
459.903778,814.226536,-10362.883188,76.609550
459.904102,1184.329507,-10658.965565,-229.828649
459.904426,296.082377,-9400.615463,-689.485948
459.904750,-962.267725,-7920.203579,-612.876398
459.905074,-148.041188,-8142.265362,-1608.800546
459.905398,370.102971,-8068.244768,-536.266849
459.905723,1258.350101,-9474.636058,459.657299
459.906047,1184.329507,-10288.862594,383.047749
459.906371,592.164754,-10066.800811,76.609550
459.906695,0.000000,-9400.615463,0.000000
459.907019,-1036.288319,-8882.471304,0.000000
459.907343,-222.061783,-8364.327145,-459.657299
459.907667,-518.144159,-9400.615463,-153.219100
459.907992,-444.123565,-10140.821405,0.000000
459.908316,-1036.288319,-9844.739029,-153.219100
459.908640,-1258.350101,-8734.430116,-689.485948
459.908964,-1406.391290,-7624.121203,-766.095498
459.909288,0.000000,-7624.121203,-229.828649
459.909612,1480.411884,-8956.491898,306.438199
459.909936,2072.576638,-10510.924376,459.657299
459.910261,962.267725,-10955.047942,459.657299
459.910585,-740.205942,-10066.800811,-229.828649
459.910909,-1850.514855,-9252.574275,-153.219100
459.911233,-1258.350101,-9548.656652,0.000000
459.911557,296.082377,-10584.944971,306.438199
459.911881,1628.453072,-10955.047942,766.095498
459.912205,1628.453072,-10881.027347,153.219100
459.912529,518.144159,-9696.697840,76.609550
459.912854,-666.185348,-8586.388927,-536.266849
459.913178,-888.247130,-8438.347739,-229.828649
459.913502,0.000000,-9770.718434,0.000000
459.913826,888.247130,-11473.192101,229.828649
459.914150,666.185348,-11547.212695,536.266849
459.914474,-148.041188,-10807.006753,459.657299
459.914798,-962.267725,-10140.821405,0.000000
459.915123,-1628.453072,-9474.636058,229.828649
459.915447,-1702.473667,-10288.862594,-229.828649
459.915771,-1184.329507,-10955.047942,153.219100
459.916095,-962.267725,-10732.986159,0.000000
459.916419,-1036.288319,-9622.677246,-153.219100
459.916743,-592.164754,-8290.306550,0.000000
459.917067,296.082377,-7550.100608,-306.438199
459.917392,1776.494261,-8808.450710,306.438199
459.917716,2220.617826,-10436.903782,612.876398
459.918040,1702.473667,-11325.150913,229.828649
459.918364,-444.123565,-10658.965565,0.000000
459.918688,-1850.514855,-9548.656652,-383.047749
459.919012,-1998.556043,-9178.553681,-229.828649
459.919336,-814.226536,-10066.800811,536.266849
459.919661,0.000000,-10436.903782,612.876398
459.919985,148.041188,-10436.903782,689.485948
459.920309,-444.123565,-9178.553681,-612.876398
459.920633,-1628.453072,-7624.121203,-459.657299
459.920957,-962.267725,-7328.038826,-689.485948
459.921281,0.000000,-8068.244768,-459.657299
459.921605,1184.329507,-9178.553681,689.485948
459.921929,1554.432478,-9622.677246,842.705048
459.922254,888.247130,-9178.553681,0.000000
459.922578,-296.082377,-8364.327145,0.000000
459.922902,-962.267725,-8660.409521,-383.047749
459.923226,0.000000,-9696.697840,-306.438199
459.923550,740.205942,-10510.924376,76.609550
459.923874,592.164754,-10807.006753,612.876398
459.924198,74.020594,-9992.780217,0.000000
459.924523,-222.061783,-8956.491898,-153.219100
459.924847,222.061783,-8290.306550,-459.657299
459.925171,1480.411884,-8586.388927,0.000000
459.925495,2738.761985,-10362.883188,0.000000
459.925819,2072.576638,-11251.130318,459.657299
459.926143,888.247130,-11103.089130,-153.219100
459.926468,-296.082377,-10362.883188,-612.876398
459.926792,-888.247130,-9918.759623,-842.705048
459.927116,0.000000,-10881.027347,-612.876398
459.927440,1480.411884,-11843.295072,-536.266849
459.927764,1258.350101,-11547.212695,-842.705048
459.928088,814.226536,-10732.986159,0.000000
459.928413,-740.205942,-9326.594869,-153.219100
459.928737,-370.102971,-8586.388927,0.000000
459.929061,222.061783,-8734.430116,0.000000
459.929385,592.164754,-9918.759623,76.609550
459.929709,740.205942,-10732.986159,612.876398
459.930034,-74.020594,-10510.924376,459.657299
459.930358,-592.164754,-9770.718434,-153.219100
459.930682,-1850.514855,-8586.388927,-612.876398
459.931006,-740.205942,-9474.636058,459.657299
459.931330,148.041188,-10584.944971,383.047749
459.931654,0.000000,-11177.109724,459.657299
459.931979,-592.164754,-10214.842000,459.657299
459.932303,-814.226536,-8586.388927,0.000000
459.932627,0.000000,-7550.100608,0.000000
459.932951,370.102971,-8216.285956,306.438199
459.933275,1184.329507,-9696.697840,0.000000
459.933600,814.226536,-10288.862594,995.924147
459.933924,-666.185348,-10510.924376,766.095498
459.934248,-2442.679609,-9770.718434,306.438199
459.934572,-3108.864956,-8734.430116,76.609550
459.934896,-2220.617826,-8364.327145,229.828649
459.935220,-518.144159,-9474.636058,689.485948
459.935545,0.000000,-9844.739029,0.000000
459.935869,0.000000,-9400.615463,383.047749
459.936193,-962.267725,-8290.306550,0.000000
459.936517,-1332.370696,-7402.059420,-306.438199
459.936841,-666.185348,-7698.141797,-306.438199
459.937166,666.185348,-9178.553681,-153.219100
459.937490,1628.453072,-10436.903782,-229.828649
459.937814,962.267725,-10584.944971,229.828649
459.938138,0.000000,-10214.842000,153.219100
459.938462,-888.247130,-9622.677246,0.000000
459.938786,-1332.370696,-9992.780217,-306.438199
459.939111,-666.185348,-10807.006753,-306.438199
459.939435,-518.144159,-11473.192101,0.000000
459.939759,-518.144159,-11251.130318,-229.828649
459.940083,-740.205942,-9474.636058,-612.876398
459.940407,-444.123565,-7772.162391,-919.314598
459.940731,888.247130,-8216.285956,-612.876398
459.941056,1480.411884,-9548.656652,-459.657299
459.941380,1628.453072,-11177.109724,-306.438199
459.941704,666.185348,-11621.233289,-383.047749
459.942028,-1036.288319,-10584.944971,-919.314598
459.942352,-1554.432478,-9770.718434,-766.095498
459.942677,-1036.288319,-9474.636058,-536.266849
459.943001,296.082377,-10436.903782,-536.266849
459.943325,1036.288319,-10732.986159,0.000000
459.943649,888.247130,-10584.944971,0.000000
459.943973,0.000000,-9252.574275,-612.876398
459.944297,-370.102971,-7846.182985,-612.876398
459.944622,518.144159,-7772.162391,0.000000
459.944946,1554.432478,-9030.512492,-229.828649
459.945270,2294.638420,-10066.800811,0.000000
459.945594,1554.432478,-10288.862594,0.000000
459.945918,518.144159,-9474.636058,-459.657299
459.946243,-148.041188,-8956.491898,0.000000
459.946567,-592.164754,-9030.512492,-919.314598
459.946891,74.020594,-10214.842000,0.000000
459.947215,296.082377,-10732.986159,383.047749
459.947539,518.144159,-10140.821405,306.438199
459.947863,0.000000,-9178.553681,306.438199
459.948188,-370.102971,-7846.182985,76.609550
459.948512,370.102971,-7550.100608,0.000000
459.948836,888.247130,-8438.347739,306.438199
459.949160,888.247130,-10214.842000,306.438199
459.949484,592.164754,-11325.150913,306.438199
459.949809,-666.185348,-10362.883188,76.609550
459.950133,-1850.514855,-9326.594869,0.000000
459.950457,-1258.350101,-9252.574275,0.000000
459.950781,0.000000,-10658.965565,0.000000
459.951105,1406.391290,-10955.047942,459.657299
459.951429,518.144159,-10510.924376,153.219100
459.951754,-296.082377,-9474.636058,0.000000
459.952078,-1036.288319,-8364.327145,-459.657299
459.952402,-592.164754,-8290.306550,-612.876398
459.952726,518.144159,-9030.512492,229.828649
459.953050,1332.370696,-10214.842000,0.000000
459.953375,1258.350101,-10955.047942,0.000000
459.953699,444.123565,-11103.089130,0.000000
459.954023,-740.205942,-9992.780217,0.000000
459.954347,-1258.350101,-9696.697840,0.000000
459.954671,-1332.370696,-10584.944971,153.219100
459.954995,-888.247130,-11251.130318,229.828649
459.955320,-962.267725,-11029.068536,306.438199
459.955644,-1110.308913,-9696.697840,-153.219100
459.955968,-1258.350101,-7846.182985,0.000000
459.956292,-296.082377,-7476.080014,0.000000
459.956616,814.226536,-9030.512492,-153.219100
459.956941,962.267725,-10066.800811,229.828649
459.957265,0.000000,-10732.986159,383.047749
459.957589,-1554.432478,-10066.800811,229.828649
459.957913,-2516.700203,-9326.594869,-536.266849
459.958237,-2516.700203,-9178.553681,-459.657299
459.958561,-1332.370696,-9770.718434,-153.219100
459.958886,222.061783,-10140.821405,229.828649
459.959210,888.247130,-10510.924376,153.219100
459.959534,518.144159,-9992.780217,0.000000
459.959858,-444.123565,-8512.368333,-229.828649
459.960182,-518.144159,-7698.141797,-306.438199
459.960507,444.123565,-9104.533087,0.000000
459.960831,2294.638420,-10214.842000,0.000000
459.961155,2368.659014,-10955.047942,306.438199
459.961479,1332.370696,-10807.006753,76.609550
459.961803,0.000000,-9770.718434,-153.219100
459.962127,-740.205942,-8956.491898,-383.047749
459.962452,-592.164754,-9770.718434,153.219100
459.962776,74.020594,-10362.883188,459.657299
459.963100,0.000000,-10288.862594,-229.828649
459.963424,-740.205942,-9252.574275,-76.609550
459.963748,-592.164754,-8068.244768,-229.828649
459.964072,444.123565,-7846.182985,-306.438199
459.964397,1554.432478,-8290.306550,0.000000
459.964721,2220.617826,-9474.636058,383.047749
459.965045,2072.576638,-10732.986159,689.485948
459.965369,888.247130,-10362.883188,612.876398
459.965693,-444.123565,-9326.594869,0.000000
459.966018,-888.247130,-9326.594869,-383.047749
459.966342,148.041188,-9770.718434,-153.219100
459.966666,1776.494261,-10436.903782,0.000000
459.966990,2220.617826,-10807.006753,153.219100
459.967314,1110.308913,-10214.842000,-383.047749
459.967638,-518.144159,-9030.512492,-1149.143247
459.967963,-962.267725,-8364.327145,-995.924147
459.968287,-222.061783,-8808.450710,-995.924147
459.968611,888.247130,-9992.780217,0.000000
459.968935,1406.391290,-11399.171507,153.219100
459.969259,666.185348,-11547.212695,0.000000
459.969584,-740.205942,-10510.924376,459.657299
459.969908,-1628.453072,-9548.656652,0.000000
459.970232,-1406.391290,-9844.739029,76.609550
459.970556,-592.164754,-10732.986159,76.609550
459.970880,-370.102971,-11177.109724,0.000000
459.971204,-592.164754,-10288.862594,0.000000
459.971529,-888.247130,-8734.430116,-459.657299
459.971853,-740.205942,-7624.121203,-459.657299
459.972177,0.000000,-7402.059420,0.000000
459.972501,1480.411884,-8734.430116,383.047749
459.972825,1332.370696,-9400.615463,229.828649
459.973150,148.041188,-9474.636058,0.000000
459.973474,-1776.494261,-9474.636058,0.000000
459.973798,-2738.761985,-9252.574275,-459.657299
459.974122,-2220.617826,-9400.615463,0.000000
459.974446,-222.061783,-9548.656652,229.828649
459.974770,666.185348,-10362.883188,995.924147
459.975095,74.020594,-10436.903782,229.828649
459.975419,-1036.288319,-9474.636058,306.438199
459.975743,-1480.411884,-8882.471304,0.000000
459.976067,-592.164754,-8882.471304,0.000000
459.976391,666.185348,-9992.780217,0.000000
459.976716,1332.370696,-11177.109724,612.876398
459.977040,1258.350101,-11399.171507,459.657299
459.977364,0.000000,-10732.986159,689.485948
459.977688,-888.247130,-9696.697840,229.828649
459.978012,-1480.411884,-9696.697840,-689.485948
459.978336,-1110.308913,-10214.842000,-153.219100
459.978661,-296.082377,-10807.006753,229.828649
459.978985,-666.185348,-10214.842000,0.000000
459.979309,-1110.308913,-8808.450710,153.219100
459.979633,-1184.329507,-7105.977043,76.609550
459.979957,148.041188,-6513.812290,-459.657299
459.980282,1776.494261,-8068.244768,689.485948
459.980606,1776.494261,-9770.718434,689.485948
459.980930,962.267725,-10214.842000,536.266849
459.981254,-666.185348,-9770.718434,0.000000
459.981578,-1554.432478,-8808.450710,-536.266849
459.981902,-1110.308913,-8734.430116,-459.657299
459.982227,444.123565,-9844.739029,0.000000
459.982551,1776.494261,-11399.171507,229.828649
459.982875,1110.308913,-10955.047942,0.000000
459.983199,-222.061783,-9622.677246,-153.219100
459.983523,-814.226536,-8290.306550,-536.266849
459.983848,-666.185348,-7920.203579,-612.876398
459.984172,592.164754,-8734.430116,-153.219100
459.984496,1702.473667,-10436.903782,0.000000
459.984820,1628.453072,-11547.212695,0.000000
459.985144,518.144159,-11325.150913,0.000000
459.985468,-518.144159,-9992.780217,-536.266849
459.985793,-1036.288319,-9770.718434,-536.266849
459.986117,-444.123565,-10436.903782,-383.047749
459.986441,222.061783,-11399.171507,-766.095498
459.986765,1036.288319,-11029.068536,-842.705048
459.987089,666.185348,-10066.800811,-689.485948
459.987413,1110.308913,-8290.306550,-689.485948
459.987738,1850.514855,-8142.265362,-689.485948
459.988062,2516.700203,-9104.533087,-383.047749
459.988386,2368.659014,-10140.821405,-306.438199
459.988710,1184.329507,-10881.027347,0.000000
459.989034,-518.144159,-10288.862594,-689.485948
459.989359,-1850.514855,-9104.533087,-459.657299
459.989683,-1776.494261,-8956.491898,-1072.533697
459.990007,-592.164754,-9400.615463,0.000000
459.990331,444.123565,-10362.883188,0.000000
459.990655,444.123565,-10807.006753,153.219100
459.990979,-888.247130,-9548.656652,0.000000
459.991304,-2220.617826,-7994.224174,0.000000
459.991628,-2220.617826,-7550.100608,-383.047749
459.991952,-1110.308913,-8142.265362,-76.609550
459.992276,1110.308913,-10362.883188,536.266849
459.992600,1258.350101,-11029.068536,536.266849
459.992925,444.123565,-11103.089130,459.657299
459.993249,-666.185348,-9622.677246,459.657299
459.993573,-962.267725,-8882.471304,0.000000
459.993897,-296.082377,-9474.636058,0.000000
459.994221,296.082377,-10362.883188,459.657299
459.994545,296.082377,-10436.903782,536.266849
459.994870,-444.123565,-9104.533087,229.828649
459.995194,-1036.288319,-7624.121203,0.000000
459.995518,-962.267725,-6661.853478,-153.219100
459.995842,-296.082377,-7402.059420,0.000000
459.996166,0.000000,-9104.533087,153.219100
459.996491,-740.205942,-9622.677246,536.266849
459.996815,-1998.556043,-9548.656652,0.000000
459.997139,-2664.741391,-9326.594869,0.000000
459.997463,-2812.782580,-9178.553681,0.000000
459.997787,-1628.453072,-9400.615463,153.219100
459.998111,-222.061783,-10510.924376,306.438199
459.998436,222.061783,-11103.089130,0.000000
459.998760,74.020594,-10807.006753,-153.219100
459.999084,-814.226536,-9400.615463,-536.266849
459.999408,0.000000,-8660.409521,-1072.533697
459.999732,1184.329507,-9474.636058,-383.047749
460.000057,1998.556043,-11177.109724,-383.047749
460.000381,2590.720797,-11917.315666,0.000000
460.000705,2072.576638,-11843.295072,-153.219100
460.001029,1036.288319,-10732.986159,0.000000
460.001353,0.000000,-10214.842000,-306.438199
460.001677,444.123565,-10510.924376,-383.047749
460.002002,444.123565,-10881.027347,-306.438199
460.002326,1184.329507,-11843.295072,76.609550
460.002650,888.247130,-10807.006753,-612.876398
460.002974,148.041188,-9400.615463,-689.485948
460.003298,0.000000,-7846.182985,-689.485948
460.003623,1406.391290,-8142.265362,-612.876398
460.003947,2368.659014,-9548.656652,76.609550
460.004271,2368.659014,-10658.965565,0.000000
460.004595,1184.329507,-10214.842000,76.609550
460.004919,-518.144159,-9474.636058,-459.657299
460.005243,-1480.411884,-8882.471304,-612.876398
460.005568,-518.144159,-9030.512492,0.000000
460.005892,444.123565,-9548.656652,153.219100
460.006216,1110.308913,-9770.718434,459.657299
460.006540,222.061783,-9252.574275,536.266849
460.006864,-814.226536,-8290.306550,76.609550
460.007189,-1628.453072,-7254.018232,-229.828649
460.007513,-1036.288319,-7550.100608,0.000000
460.007837,296.082377,-8808.450710,306.438199
460.008161,1554.432478,-10214.842000,459.657299
460.008485,1554.432478,-10066.800811,612.876398
460.008809,370.102971,-9474.636058,383.047749
460.009134,-814.226536,-8438.347739,0.000000
460.009458,-888.247130,-8808.450710,76.609550
460.009782,0.000000,-10214.842000,689.485948
460.010106,666.185348,-11029.068536,919.314598
460.010430,740.205942,-10066.800811,766.095498
460.010754,148.041188,-8882.471304,306.438199
460.011079,-518.144159,-7846.182985,229.828649
460.011403,-296.082377,-8734.430116,153.219100
460.011727,148.041188,-9030.512492,689.485948
460.012051,-148.041188,-10214.842000,383.047749
460.012375,-1628.453072,-10584.944971,306.438199
460.012700,-2960.823768,-10288.862594,0.000000
460.013024,-3627.009116,-9474.636058,-306.438199
460.013348,-2886.803174,-9252.574275,-306.438199
460.013672,-1332.370696,-10214.842000,0.000000
460.013996,-222.061783,-10881.027347,-229.828649
460.014320,-148.041188,-10510.924376,0.000000
460.014645,-592.164754,-9548.656652,-229.828649
460.014969,-666.185348,-8364.327145,0.000000
460.015293,-296.082377,-8290.306550,-383.047749
460.015617,740.205942,-9326.594869,-229.828649
460.015941,1924.535449,-10732.986159,0.000000
460.016266,1998.556043,-11621.233289,0.000000
460.016590,0.000000,-11029.068536,-612.876398
460.016914,-2072.576638,-9918.759623,-995.924147
460.017238,-2146.597232,-9548.656652,-1532.190996
460.017562,-1480.411884,-10584.944971,-1302.362347
460.017886,-592.164754,-11769.274478,-766.095498
460.018211,-148.041188,-11843.295072,-842.705048
460.018535,-296.082377,-10362.883188,-766.095498
460.018859,74.020594,-8956.491898,-1149.143247
460.019183,1110.308913,-8586.388927,-919.314598
460.019507,1998.556043,-9548.656652,-536.266849
460.019832,2072.576638,-10955.047942,229.828649
460.020156,962.267725,-11843.295072,-536.266849
460.020480,-592.164754,-10362.883188,-842.705048
460.020804,-1924.535449,-9030.512492,-1149.143247
460.021128,-1480.411884,-8882.471304,-1149.143247
460.021452,0.000000,-9400.615463,-766.095498
460.021777,592.164754,-9918.759623,-383.047749
460.022101,370.102971,-9770.718434,-306.438199
460.022425,-666.185348,-8660.409521,-306.438199
460.022749,-814.226536,-7476.080014,-689.485948
460.023073,-296.082377,-7179.997637,-536.266849
460.023398,666.185348,-8216.285956,-306.438199
460.023722,2146.597232,-10066.800811,0.000000
460.024046,1776.494261,-10510.924376,536.266849
460.024370,1184.329507,-10288.862594,0.000000
460.024694,592.164754,-9622.677246,-153.219100
460.025018,296.082377,-9474.636058,-229.828649
460.025343,814.226536,-10140.821405,-383.047749
460.025667,1184.329507,-10955.047942,0.000000
460.025991,888.247130,-11251.130318,229.828649
460.026315,888.247130,-9696.697840,0.000000
460.026639,0.000000,-8216.285956,-536.266849
460.026963,-222.061783,-7476.080014,-229.828649
460.027287,518.144159,-8290.306550,0.000000
460.027612,1036.288319,-9992.780217,306.438199
460.027936,296.082377,-10584.944971,689.485948
460.028260,-1036.288319,-10214.842000,459.657299
460.028584,-2220.617826,-9178.553681,306.438199
460.028908,-2368.659014,-8660.409521,229.828649
460.029232,-1110.308913,-9918.759623,383.047749
460.029556,74.020594,-10066.800811,1072.533697
460.029880,962.267725,-10510.924376,995.924147
460.030205,518.144159,-9770.718434,689.485948
460.030529,0.000000,-8216.285956,383.047749
460.030853,0.000000,-7772.162391,383.047749
460.031177,444.123565,-8734.430116,0.000000
460.031501,1406.391290,-10510.924376,1149.143247
460.031825,1332.370696,-11177.109724,995.924147
460.032149,74.020594,-11029.068536,995.924147
460.032473,-1258.350101,-10362.883188,383.047749
460.032798,-2146.597232,-9918.759623,153.219100
460.033122,-1924.535449,-10066.800811,383.047749
460.033446,-1332.370696,-10881.027347,1455.581446
460.033770,-814.226536,-11103.089130,1149.143247
460.034094,-666.185348,-9622.677246,536.266849
460.034418,-814.226536,-8364.327145,0.000000
460.034742,-444.123565,-7772.162391,-229.828649
460.035067,148.041188,-8512.368333,229.828649
460.035391,1184.329507,-9696.697840,0.000000
460.035715,1258.350101,-10807.006753,306.438199
460.036039,222.061783,-10732.986159,0.000000
460.036363,-814.226536,-9696.697840,-153.219100
460.036687,-1554.432478,-9252.574275,-459.657299
460.037011,-1036.288319,-9030.512492,-689.485948
460.037335,222.061783,-9992.780217,-153.219100
460.037660,888.247130,-10658.965565,76.609550
460.037984,592.164754,-9992.780217,-153.219100
460.038308,-444.123565,-8364.327145,-306.438199
460.038632,-592.164754,-7402.059420,-612.876398
460.038956,0.000000,-7624.121203,-1302.362347
460.039280,1332.370696,-9400.615463,-383.047749
460.039604,1776.494261,-10658.965565,-229.828649
460.039928,1480.411884,-10881.027347,-536.266849
460.040253,518.144159,-10362.883188,-842.705048
460.040577,-592.164754,-9622.677246,-919.314598
460.040901,-444.123565,-9992.780217,-766.095498
460.041225,0.000000,-10732.986159,-766.095498
460.041549,740.205942,-11399.171507,-766.095498
460.041873,888.247130,-11251.130318,-536.266849
460.042197,370.102971,-9622.677246,-919.314598
460.042521,0.000000,-8290.306550,-1072.533697
460.042846,666.185348,-8586.388927,-919.314598
460.043170,1628.453072,-9844.739029,-995.924147
460.043494,1554.432478,-11177.109724,-536.266849
460.043818,444.123565,-11177.109724,-612.876398
460.044142,-888.247130,-9992.780217,0.000000
460.044466,-1776.494261,-8882.471304,-766.095498
460.044790,-1258.350101,-9400.615463,-306.438199
460.045114,-148.041188,-10214.842000,0.000000
460.045439,444.123565,-10436.903782,-229.828649
460.045763,222.061783,-9474.636058,-689.485948
460.046087,-814.226536,-8882.471304,-919.314598
460.046411,-1036.288319,-7698.141797,-229.828649
460.046735,-222.061783,-7550.100608,-383.047749
460.047059,370.102971,-9030.512492,-229.828649
460.047383,1258.350101,-10362.883188,153.219100
460.047707,1110.308913,-11103.089130,306.438199
460.048032,74.020594,-10658.965565,0.000000
460.048356,-444.123565,-9696.697840,536.266849
460.048680,-814.226536,-9770.718434,459.657299
460.049004,-518.144159,-10214.842000,536.266849
460.049328,296.082377,-11029.068536,842.705048
460.049652,370.102971,-10658.965565,612.876398
460.049976,0.000000,-9178.553681,459.657299
460.050301,0.000000,-8068.244768,0.000000
460.050625,1110.308913,-7920.203579,153.219100
460.050949,1628.453072,-9474.636058,306.438199
460.051273,1258.350101,-10584.944971,995.924147
460.051597,222.061783,-10732.986159,1072.533697
460.051921,-1850.514855,-9918.759623,383.047749
460.052245,-2886.803174,-8956.491898,-306.438199
460.052569,-2886.803174,-8956.491898,0.000000
460.052894,-1332.370696,-9770.718434,459.657299
460.053218,0.000000,-9622.677246,919.314598
460.053542,-296.082377,-9474.636058,536.266849
460.053866,-1184.329507,-8068.244768,153.219100
460.054190,-1998.556043,-7476.080014,229.828649
460.054514,-1406.391290,-7772.162391,-153.219100
460.054838,-370.102971,-8734.430116,153.219100
460.055162,518.144159,-9918.759623,612.876398
460.055487,814.226536,-10955.047942,536.266849
460.055811,0.000000,-10807.006753,383.047749
460.056135,-888.247130,-10584.944971,76.609550
460.056459,-1184.329507,-9844.739029,306.438199
460.056783,-962.267725,-10510.924376,0.000000
460.057107,-148.041188,-11769.274478,229.828649
460.057431,148.041188,-11695.253884,229.828649
460.057755,0.000000,-10658.965565,76.609550
460.058080,-148.041188,-8290.306550,0.000000
460.058404,518.144159,-8068.244768,-306.438199
460.058728,1628.453072,-8438.347739,-306.438199
460.059052,2368.659014,-9844.739029,76.609550
460.059376,1924.535449,-10955.047942,76.609550
460.059700,370.102971,-10732.986159,153.219100
460.060024,-1036.288319,-9696.697840,-459.657299
460.060348,-1628.453072,-9326.594869,-766.095498
460.060673,-444.123565,-9474.636058,153.219100
460.060997,296.082377,-10214.842000,689.485948
460.061321,1924.535449,-10436.903782,612.876398
460.061645,888.247130,-9696.697840,0.000000
460.061969,0.000000,-8216.285956,-306.438199
460.062293,-222.061783,-7550.100608,-459.657299
460.062617,370.102971,-8068.244768,-612.876398
460.062941,1406.391290,-9548.656652,-383.047749
460.063266,1850.514855,-10510.924376,-459.657299
460.063590,962.267725,-10510.924376,76.609550
460.063914,592.164754,-10214.842000,0.000000
460.064238,0.000000,-9326.594869,-383.047749
460.064562,-222.061783,-9918.759623,-459.657299
460.064886,0.000000,-10658.965565,-459.657299
460.065210,518.144159,-10881.027347,0.000000
460.065535,222.061783,-9992.780217,76.609550
460.065859,0.000000,-8216.285956,229.828649
460.066183,-740.205942,-7179.997637,-536.266849
460.066507,962.267725,-8290.306550,0.000000
460.066831,1924.535449,-9992.780217,0.000000
460.067155,1554.432478,-10584.944971,153.219100
460.067479,0.000000,-10214.842000,-229.828649
460.067803,-1702.473667,-9326.594869,-612.876398
460.068128,-2368.659014,-8586.388927,-919.314598
460.068452,-1406.391290,-9474.636058,-766.095498
460.068776,0.000000,-9844.739029,-229.828649
460.069100,666.185348,-10881.027347,229.828649
460.069424,0.000000,-9992.780217,0.000000
460.069748,-1332.370696,-8734.430116,-919.314598
460.070072,-1924.535449,-7920.203579,-1225.752797
460.070396,-1258.350101,-8216.285956,-995.924147
460.070721,0.000000,-9992.780217,-919.314598
460.071045,518.144159,-10955.047942,0.000000
460.071369,370.102971,-11399.171507,-536.266849
460.071693,-592.164754,-10732.986159,-612.876398
460.072017,-1702.473667,-9992.780217,-689.485948
460.072341,-1776.494261,-10140.821405,-995.924147
460.072665,-1258.350101,-11399.171507,-612.876398
460.072989,-444.123565,-11621.233289,0.000000
460.073314,0.000000,-10807.006753,383.047749
460.073638,592.164754,-9696.697840,-383.047749
460.073962,222.061783,-8438.347739,-612.876398
460.074286,1036.288319,-8660.409521,-383.047749
460.074610,2072.576638,-9844.739029,76.609550
460.074934,1850.514855,-11103.089130,0.000000
460.075258,592.164754,-11177.109724,76.609550
460.075582,-740.205942,-10362.883188,-306.438199
460.075907,-1850.514855,-9178.553681,-459.657299
460.076231,-1110.308913,-9622.677246,0.000000
460.076555,-148.041188,-9918.759623,76.609550
460.076879,740.205942,-10732.986159,306.438199
460.077203,148.041188,-9770.718434,536.266849
460.077527,-888.247130,-8438.347739,153.219100
460.077851,-1258.350101,-7254.018232,306.438199
460.078175,-1184.329507,-7402.059420,76.609550
460.078500,296.082377,-8512.368333,536.266849
460.078824,1258.350101,-9918.759623,842.705048
460.079148,1258.350101,-10584.944971,995.924147
460.079472,518.144159,-9918.759623,689.485948
460.079796,-592.164754,-9178.553681,383.047749
460.080120,-962.267725,-8734.430116,229.828649
460.080444,-222.061783,-9844.739029,153.219100
460.080769,518.144159,-10807.006753,536.266849
460.081093,814.226536,-10436.903782,1225.752797
460.081417,814.226536,-9104.533087,766.095498
460.081741,148.041188,-7550.100608,153.219100
460.082065,666.185348,-7254.018232,76.609550
460.082389,1480.411884,-8364.327145,383.047749
460.082713,1776.494261,-9548.656652,612.876398
460.083037,1406.391290,-10807.006753,1302.362347
460.083362,0.000000,-10362.883188,76.609550
460.083686,-1036.288319,-9474.636058,459.657299
460.084010,-888.247130,-9326.594869,229.828649
460.084334,148.041188,-10362.883188,459.657299
460.084658,1258.350101,-11177.109724,766.095498
460.084982,1406.391290,-10510.924376,229.828649
460.085306,444.123565,-9252.574275,0.000000
460.085630,-518.144159,-8216.285956,-689.485948
460.085955,-740.205942,-8068.244768,-459.657299
460.086279,592.164754,-9252.574275,0.000000
460.086603,1480.411884,-10584.944971,383.047749
460.086927,1554.432478,-11103.089130,459.657299
460.087251,444.123565,-10510.924376,0.000000
460.087575,-518.144159,-9622.677246,229.828649
460.087899,-888.247130,-9770.718434,0.000000
460.088223,-888.247130,-10362.883188,0.000000
460.088548,0.000000,-11547.212695,995.924147
460.088872,518.144159,-11473.192101,153.219100
460.089196,74.020594,-10066.800811,153.219100
460.089520,-444.123565,-8364.327145,-229.828649
460.089844,-148.041188,-7994.224174,-536.266849
460.090168,444.123565,-8660.409521,0.000000
460.090492,1036.288319,-9770.718434,-229.828649
460.090816,666.185348,-10881.027347,459.657299
460.091141,-444.123565,-10214.842000,229.828649
460.091465,-1924.535449,-9474.636058,-153.219100
460.091789,-2442.679609,-9178.553681,-459.657299
460.092113,-1702.473667,-9548.656652,-306.438199
460.092437,-370.102971,-10214.842000,229.828649
460.092761,0.000000,-10214.842000,459.657299
460.093085,-1258.350101,-9178.553681,0.000000
460.093410,-1554.432478,-8142.265362,-383.047749
460.093734,-1850.514855,-7179.997637,-459.657299
460.094058,-888.247130,-7476.080014,-995.924147
460.094382,0.000000,-9474.636058,-612.876398
460.094706,148.041188,-10362.883188,229.828649
460.095030,-148.041188,-10214.842000,76.609550
460.095354,-1554.432478,-9326.594869,-612.876398
460.095678,-2294.638420,-8956.491898,-766.095498
460.096003,-2442.679609,-9548.656652,-536.266849
460.096327,-1850.514855,-10362.883188,-459.657299
460.096651,-1036.288319,-11399.171507,0.000000
460.096975,-666.185348,-10436.903782,-536.266849
460.097299,-740.205942,-8808.450710,-919.314598
460.097623,296.082377,-8068.244768,-612.876398
460.097947,1702.473667,-8290.306550,-689.485948
460.098271,2442.679609,-9770.718434,-842.705048
460.098596,1850.514855,-11103.089130,76.609550
460.098920,444.123565,-10955.047942,76.609550
460.099244,-1036.288319,-9918.759623,-919.314598
460.099568,-1406.391290,-9474.636058,-1225.752797
460.099892,-592.164754,-9992.780217,-1072.533697
460.100216,444.123565,-11473.192101,-995.924147
460.100540,1184.329507,-11843.295072,-536.266849
460.100864,592.164754,-10658.965565,-612.876398
460.101189,222.061783,-8438.347739,-689.485948
460.101513,-740.205942,-7476.080014,-1149.143247
460.101837,74.020594,-8142.265362,-1225.752797
460.102161,1554.432478,-9992.780217,-766.095498
460.102485,1850.514855,-10955.047942,-153.219100
460.102809,1480.411884,-10732.986159,-536.266849
460.103133,592.164754,-9770.718434,153.219100
460.103457,370.102971,-9474.636058,536.266849
460.103782,0.000000,-9992.780217,-842.705048
460.104106,0.000000,-10881.027347,0.000000
460.104430,-222.061783,-11769.274478,306.438199
460.104754,-370.102971,-11029.068536,-306.438199
460.105078,-592.164754,-9326.594869,-383.047749
460.105402,-666.185348,-7550.100608,0.000000
460.105726,888.247130,-7994.224174,-536.266849
460.106050,2516.700203,-9474.636058,766.095498
460.106375,2664.741391,-10658.965565,536.266849
460.106699,1406.391290,-10288.862594,995.924147
460.107023,-296.082377,-9622.677246,306.438199
460.107347,-1332.370696,-8956.491898,383.047749
460.107671,-814.226536,-9252.574275,612.876398
460.107995,518.144159,-10066.800811,995.924147
460.108319,962.267725,-10362.883188,1302.362347
460.108644,1184.329507,-10214.842000,1532.190996
460.108968,0.000000,-8438.347739,919.314598
460.109292,-814.226536,-7698.141797,689.485948
460.109616,-814.226536,-7402.059420,842.705048
460.109940,-296.082377,-8438.347739,842.705048
460.110264,222.061783,-9326.594869,1149.143247
460.110588,222.061783,-9400.615463,1455.581446
460.110912,-518.144159,-9474.636058,1532.190996
460.111237,-1628.453072,-8586.388927,842.705048
460.111561,-2442.679609,-8586.388927,995.924147
460.111885,-2072.576638,-9400.615463,919.314598
460.112209,-1554.432478,-9992.780217,459.657299
460.112533,-1628.453072,-10288.862594,306.438199
460.112857,-1554.432478,-9400.615463,229.828649
460.113181,-888.247130,-8142.265362,306.438199
460.113505,-222.061783,-7254.018232,0.000000
460.113830,1036.288319,-8290.306550,536.266849
460.114154,1480.411884,-10362.883188,919.314598
460.114478,1258.350101,-11399.171507,766.095498
460.114802,0.000000,-10807.006753,766.095498
460.115126,-1332.370696,-9992.780217,612.876398
460.115450,-888.247130,-9474.636058,76.609550
460.115774,222.061783,-10732.986159,0.000000
460.116098,1110.308913,-10955.047942,229.828649
460.116423,740.205942,-10658.965565,0.000000
460.116747,-518.144159,-9548.656652,-612.876398
460.117071,-1776.494261,-8142.265362,-842.705048
460.117395,-1480.411884,-8290.306550,-1225.752797
460.117719,-148.041188,-8956.491898,-1378.971896
460.118043,740.205942,-9992.780217,-1149.143247
460.118367,1036.288319,-10955.047942,-766.095498
460.118691,888.247130,-10658.965565,-689.485948
460.119016,0.000000,-9770.718434,-1225.752797
460.119340,-518.144159,-9474.636058,-995.924147
460.119664,0.000000,-10584.944971,-842.705048
460.119988,1036.288319,-11399.171507,-612.876398
460.120312,1776.494261,-11251.130318,0.000000
460.120636,74.020594,-9844.739029,-689.485948
460.120960,222.061783,-9030.512492,-919.314598
460.121284,370.102971,-8364.327145,-1838.629195
460.121609,1332.370696,-9696.697840,-1225.752797
460.121933,1776.494261,-10955.047942,-995.924147
460.122257,1258.350101,-11547.212695,-919.314598
460.122581,0.000000,-10955.047942,-459.657299
460.122905,-1332.370696,-9622.677246,-1455.581446
460.123229,-1332.370696,-9770.718434,-1225.752797
460.123553,-444.123565,-10288.862594,-612.876398
460.123878,888.247130,-11399.171507,-383.047749
460.124202,1184.329507,-11103.089130,0.000000
460.124526,222.061783,-9992.780217,-459.657299
460.124850,-1036.288319,-8216.285956,-1225.752797
460.125174,-962.267725,-7846.182985,-1302.362347
460.125498,-296.082377,-8068.244768,-459.657299
460.125822,1332.370696,-9844.739029,0.000000
460.126146,1628.453072,-10436.903782,0.000000
460.126471,592.164754,-9696.697840,76.609550
460.126795,-666.185348,-8956.491898,0.000000
460.127119,-1628.453072,-8660.409521,0.000000
460.127443,-1480.411884,-8956.491898,-229.828649
460.127767,-888.247130,-9474.636058,459.657299
460.128092,-888.247130,-9474.636058,612.876398
460.128416,-814.226536,-9030.512492,1225.752797
460.128740,-370.102971,-7772.162391,689.485948
460.129064,222.061783,-7105.977043,383.047749
460.129389,1184.329507,-7476.080014,689.485948
460.129713,1702.473667,-9030.512492,1149.143247
460.130037,888.247130,-10214.842000,689.485948
460.130361,-296.082377,-9918.759623,766.095498
460.130685,-1850.514855,-9770.718434,383.047749
460.131010,-2368.659014,-9030.512492,536.266849
460.131334,-2072.576638,-9548.656652,76.609550
460.131658,-888.247130,-10140.821405,612.876398
460.131982,-370.102971,-10436.903782,612.876398
460.132307,-444.123565,-10140.821405,459.657299
460.132631,-1406.391290,-8808.450710,153.219100
460.132955,-2072.576638,-8068.244768,612.876398
460.133279,-1258.350101,-8512.368333,0.000000
460.133603,-370.102971,-9400.615463,459.657299
460.133928,666.185348,-10955.047942,689.485948
460.134252,814.226536,-11769.274478,689.485948
460.134576,592.164754,-10955.047942,459.657299
460.134900,-296.082377,-10214.842000,689.485948
460.135224,0.000000,-10066.800811,842.705048
460.135549,814.226536,-10881.027347,536.266849
460.135873,666.185348,-11547.212695,153.219100
460.136197,370.102971,-10881.027347,0.000000
460.136521,74.020594,-9326.594869,-153.219100
460.136846,0.000000,-8216.285956,-459.657299
460.137170,518.144159,-7920.203579,-766.095498
460.137494,1406.391290,-9326.594869,-153.219100
460.137818,888.247130,-10955.047942,306.438199
460.138142,222.061783,-11769.274478,0.000000
460.138467,-1850.514855,-10584.944971,0.000000
460.138791,-2146.597232,-9474.636058,0.000000
460.139115,-1036.288319,-9474.636058,-153.219100
460.139439,740.205942,-10584.944971,0.000000
460.139764,1258.350101,-11325.150913,612.876398
460.140088,1036.288319,-10436.903782,0.000000
460.140412,296.082377,-9400.615463,-995.924147
460.140736,-518.144159,-7698.141797,-1149.143247
460.141060,-148.041188,-7698.141797,-995.924147
460.141385,1036.288319,-8882.471304,-766.095498
460.141709,1998.556043,-10510.924376,-229.828649
460.142033,2146.597232,-11029.068536,536.266849
460.142357,1480.411884,-10510.924376,612.876398
460.142681,148.041188,-8956.491898,306.438199
460.143006,-296.082377,-8808.450710,383.047749
460.143330,-666.185348,-9474.636058,383.047749
460.143654,-148.041188,-10658.965565,383.047749
460.143978,370.102971,-10807.006753,536.266849
460.144303,592.164754,-9400.615463,536.266849
460.144627,962.267725,-7550.100608,153.219100
460.144951,1332.370696,-6735.874072,153.219100
460.145275,1332.370696,-8438.347739,383.047749
460.145599,814.226536,-10140.821405,-153.219100
460.145924,222.061783,-10732.986159,0.000000
460.146248,-1258.350101,-10066.800811,0.000000
460.146572,-1924.535449,-8956.491898,76.609550
460.146896,-1184.329507,-9252.574275,229.828649
460.147221,962.267725,-10140.821405,766.095498
460.147545,1332.370696,-10066.800811,1072.533697
460.147869,592.164754,-10214.842000,995.924147
460.148193,-888.247130,-9252.574275,919.314598
460.148517,-1332.370696,-8364.327145,612.876398
460.148842,-1184.329507,-7550.100608,306.438199
460.149166,0.000000,-8438.347739,229.828649
460.149490,888.247130,-10658.965565,306.438199
460.149814,1184.329507,-11399.171507,766.095498
460.150138,222.061783,-10658.965565,689.485948
460.150463,-444.123565,-9548.656652,0.000000
460.150787,-1850.514855,-9844.739029,-153.219100
460.151111,-1924.535449,-10510.924376,-536.266849
460.151435,-1702.473667,-11103.089130,0.000000
460.151760,-814.226536,-11547.212695,459.657299
460.152084,-592.164754,-10140.821405,0.000000
460.152408,-222.061783,-8364.327145,383.047749
460.152732,74.020594,-7550.100608,153.219100
460.153056,444.123565,-9030.512492,0.000000
460.153381,370.102971,-10362.883188,0.000000
460.153705,-296.082377,-10955.047942,76.609550
460.154029,-1776.494261,-10584.944971,306.438199
460.154353,-2368.659014,-9474.636058,-612.876398
460.154678,-2294.638420,-8956.491898,-689.485948
460.155002,-1184.329507,-9474.636058,-536.266849
460.155326,296.082377,-10436.903782,-229.828649
460.155650,1036.288319,-10732.986159,-383.047749
460.155974,370.102971,-9622.677246,-612.876398
460.156299,-370.102971,-8290.306550,-919.314598
460.156623,-296.082377,-7994.224174,-842.705048
460.156947,888.247130,-8808.450710,-689.485948
460.157271,2146.597232,-10362.883188,-536.266849
460.157595,2368.659014,-11399.171507,229.828649
460.157920,1924.535449,-11029.068536,0.000000
460.158244,666.185348,-9474.636058,-536.266849
460.158568,-444.123565,-8956.491898,-612.876398
460.158892,-592.164754,-9548.656652,-689.485948
460.159217,-148.041188,-10510.924376,-689.485948
460.159541,-148.041188,-10436.903782,-919.314598
460.159865,0.000000,-9400.615463,-1072.533697
460.160189,222.061783,-8512.368333,-1378.971896
460.160513,148.041188,-7624.121203,-1149.143247
460.160838,888.247130,-8068.244768,-995.924147
460.161162,1332.370696,-9622.677246,-612.876398
460.161486,1036.288319,-10881.027347,0.000000
460.161810,74.020594,-11029.068536,306.438199
460.162135,-666.185348,-9992.780217,0.000000
460.162459,-740.205942,-9474.636058,-383.047749
460.162783,74.020594,-9918.759623,0.000000
460.163107,1480.411884,-10881.027347,0.000000
460.163431,1702.473667,-11177.109724,76.609550
460.163756,1110.308913,-10214.842000,306.438199
460.164080,74.020594,-8586.388927,-76.609550
460.164404,-296.082377,-8068.244768,-766.095498
460.164728,0.000000,-8364.327145,-612.876398
460.165053,1184.329507,-9992.780217,-76.609550
460.165377,1184.329507,-11029.068536,0.000000
460.165701,740.205942,-11103.089130,229.828649
460.166025,-296.082377,-10436.903782,459.657299
460.166349,-1184.329507,-9252.574275,229.828649
460.166674,-1554.432478,-9844.739029,689.485948
460.166998,-1184.329507,-10584.944971,919.314598
460.167322,-1036.288319,-10584.944971,612.876398
460.167646,-740.205942,-10066.800811,689.485948
460.167970,-592.164754,-8586.388927,689.485948
460.168295,-666.185348,-7550.100608,459.657299
460.168619,-74.020594,-7920.203579,383.047749
460.168943,0.000000,-8734.430116,306.438199
460.169267,-296.082377,-9992.780217,689.485948
460.169592,-1184.329507,-10436.903782,306.438199
460.169916,-2146.597232,-9770.718434,383.047749
460.170240,-2442.679609,-9104.533087,536.266849
460.170564,-1628.453072,-9252.574275,689.485948
460.170888,0.000000,-10066.800811,995.924147
460.171213,740.205942,-10362.883188,1302.362347
460.171537,222.061783,-9696.697840,766.095498
460.171861,-666.185348,-8068.244768,229.828649
460.172185,-1036.288319,-7624.121203,459.657299
460.172510,-296.082377,-7846.182985,0.000000
460.172834,740.205942,-8882.471304,76.609550
460.173158,1406.391290,-10584.944971,536.266849
460.173482,1628.453072,-11177.109724,383.047749
460.173806,666.185348,-10955.047942,-383.047749
460.174131,-1036.288319,-9770.718434,0.000000
460.174455,-1110.308913,-9548.656652,-459.657299
460.174779,-888.247130,-10584.944971,76.609550
460.175103,0.000000,-10881.027347,153.219100
460.175427,666.185348,-10955.047942,689.485948
460.175752,296.082377,-9252.574275,153.219100
460.176076,370.102971,-8438.347739,-306.438199
460.176400,1184.329507,-8216.285956,0.000000
460.176724,1702.473667,-9326.594869,0.000000
460.177049,1628.453072,-10807.006753,536.266849
460.177373,74.020594,-11103.089130,0.000000
460.177697,-1628.453072,-10288.862594,-766.095498
460.178021,-2146.597232,-9178.553681,-306.438199
460.178345,-1258.350101,-9474.636058,-766.095498
460.178670,74.020594,-10140.821405,-689.485948
460.178994,1110.308913,-10881.027347,-383.047749
460.179318,814.226536,-10140.821405,-306.438199
460.179642,0.000000,-8882.471304,-689.485948
460.179967,-518.144159,-7772.162391,-689.485948
460.180291,0.000000,-7698.141797,-306.438199
460.180615,1110.308913,-9178.553681,-229.828649
460.180939,2220.617826,-11177.109724,0.000000
460.181263,2294.638420,-11621.233289,229.828649
460.181588,888.247130,-10732.986159,0.000000
460.181912,-444.123565,-9918.759623,-919.314598
460.182236,-666.185348,-9622.677246,76.609550
460.182560,-296.082377,-10140.821405,-459.657299
460.182884,148.041188,-11325.150913,-229.828649
460.183209,444.123565,-11177.109724,-536.266849
460.183533,296.082377,-9918.759623,-689.485948
460.183857,0.000000,-7920.203579,-766.095498
460.184181,518.144159,-7624.121203,-459.657299
460.184506,1110.308913,-9104.533087,-306.438199
460.184830,1036.288319,-10140.821405,-153.219100
460.185154,-222.061783,-10584.944971,-229.828649
460.185478,-1998.556043,-10066.800811,-306.438199
460.185802,-2664.741391,-8956.491898,-842.705048
460.186127,-2146.597232,-8660.409521,-689.485948
460.186451,-666.185348,-9030.512492,-612.876398
460.186775,592.164754,-10066.800811,306.438199
460.187099,148.041188,-9992.780217,-383.047749
460.187424,-296.082377,-9400.615463,-842.705048
460.187748,-1480.411884,-7550.100608,-1072.533697
460.188072,-962.267725,-7920.203579,-689.485948
460.188396,296.082377,-9030.512492,-459.657299
460.188720,1776.494261,-10658.965565,0.000000
460.189045,1924.535449,-11251.130318,76.609550
460.189369,1480.411884,-11325.150913,766.095498
460.189693,148.041188,-10436.903782,919.314598
460.190017,-962.267725,-9474.636058,459.657299
460.190341,-814.226536,-10214.842000,229.828649
460.190666,-518.144159,-11399.171507,0.000000
460.190990,-222.061783,-11251.130318,76.609550
460.191314,-592.164754,-10066.800811,153.219100
460.191638,-814.226536,-8512.368333,-536.266849
460.191963,-296.082377,-7994.224174,0.000000
460.192287,-148.041188,-8586.388927,536.266849
460.192611,222.061783,-9548.656652,459.657299
460.192935,0.000000,-11029.068536,76.609550
460.193259,-1332.370696,-10584.944971,0.000000
460.193584,-2146.597232,-9474.636058,-229.828649
460.193908,-1924.535449,-9326.594869,459.657299
460.194232,-370.102971,-9104.533087,0.000000
460.194556,666.185348,-10140.821405,995.924147
460.194881,740.205942,-10658.965565,0.000000
460.195205,0.000000,-9696.697840,0.000000
460.195529,-888.247130,-8512.368333,-306.438199
460.195853,-592.164754,-7994.224174,-536.266849
460.196177,444.123565,-8512.368333,-536.266849
460.196502,1998.556043,-9992.780217,229.828649
460.196826,2368.659014,-11251.130318,0.000000
460.197150,1480.411884,-11621.233289,0.000000
460.197474,-296.082377,-10288.862594,0.000000
460.197798,-1036.288319,-9770.718434,-153.219100
460.198123,-814.226536,-10362.883188,153.219100
460.198447,-148.041188,-11325.150913,229.828649
460.198771,444.123565,-11547.212695,229.828649
460.199095,740.205942,-10436.903782,153.219100
460.199420,666.185348,-8512.368333,229.828649
460.199744,740.205942,-7179.997637,-153.219100
460.200068,1110.308913,-8216.285956,-459.657299
460.200392,1406.391290,-9104.533087,0.000000
460.200716,1406.391290,-9992.780217,229.828649
460.201041,370.102971,-10436.903782,0.000000
460.201365,-888.247130,-9622.677246,-459.657299
460.201689,-1406.391290,-8364.327145,0.000000
460.202013,-222.061783,-8734.430116,-76.609550
460.202338,1036.288319,-9622.677246,153.219100
460.202662,1110.308913,-10140.821405,689.485948
460.202986,740.205942,-9474.636058,459.657299
460.203310,-296.082377,-8216.285956,0.000000
460.203634,-1036.288319,-7402.059420,0.000000
460.203959,-296.082377,-7254.018232,-306.438199
460.204283,888.247130,-9326.594869,459.657299
460.204607,2146.597232,-10510.924376,766.095498
460.204931,1332.370696,-10955.047942,306.438199
460.205255,74.020594,-10214.842000,0.000000
460.205580,-1554.432478,-9474.636058,-459.657299
460.205904,-1702.473667,-10066.800811,0.000000
460.206228,-296.082377,-11547.212695,459.657299
460.206552,148.041188,-11473.192101,459.657299
460.206877,666.185348,-11029.068536,536.266849
460.207201,-444.123565,-9252.574275,-306.438199
460.207525,-296.082377,-8586.388927,-153.219100
460.207849,0.000000,-8586.388927,76.609550
460.208173,444.123565,-9326.594869,229.828649
460.208498,962.267725,-10584.944971,229.828649
460.208822,-222.061783,-10510.924376,459.657299
460.209146,-1480.411884,-10436.903782,842.705048
460.209470,-1850.514855,-9622.677246,0.000000
460.209795,-1776.494261,-9622.677246,-153.219100
460.210119,-740.205942,-9474.636058,459.657299
460.210443,74.020594,-10362.883188,306.438199
460.210767,0.000000,-10436.903782,306.438199
460.211091,-592.164754,-9400.615463,0.000000
460.211416,-1702.473667,-7920.203579,-612.876398
460.211740,-1628.453072,-7476.080014,-229.828649
460.212064,0.000000,-8660.409521,-153.219100
460.212388,370.102971,-10362.883188,0.000000
460.212712,444.123565,-11325.150913,-153.219100
460.213037,0.000000,-10955.047942,0.000000
460.213361,-1406.391290,-9844.739029,-153.219100
460.213685,-1850.514855,-9622.677246,153.219100
460.214009,-666.185348,-10436.903782,459.657299
460.214334,222.061783,-11621.233289,-153.219100
460.214658,518.144159,-11177.109724,229.828649
460.214982,296.082377,-9696.697840,0.000000
460.215306,296.082377,-8364.327145,-459.657299
460.215630,592.164754,-7994.224174,-459.657299
460.215955,1036.288319,-8956.491898,-919.314598
460.216279,1406.391290,-10362.883188,-766.095498
460.216603,592.164754,-11103.089130,-383.047749
460.216927,-1332.370696,-9992.780217,-459.657299
460.217252,-2072.576638,-8660.409521,-1149.143247
460.217576,-1776.494261,-8068.244768,-1072.533697
460.217900,-518.144159,-9030.512492,-995.924147
460.218224,296.082377,-9844.739029,-153.219100
460.218548,1036.288319,-10066.800811,-229.828649
460.218873,222.061783,-9030.512492,-612.876398
460.219197,-370.102971,-8142.265362,-153.219100
460.219521,296.082377,-8438.347739,-612.876398
460.219845,1406.391290,-9474.636058,-383.047749
460.220169,2368.659014,-11251.130318,383.047749
460.220494,2368.659014,-12139.377449,0.000000
460.220818,1554.432478,-11547.212695,-229.828649
460.221142,0.000000,-10658.965565,459.657299
460.221466,-518.144159,-10140.821405,-153.219100
460.221791,-518.144159,-10510.924376,-383.047749
460.222115,-148.041188,-11029.068536,0.000000
460.222439,74.020594,-10807.006753,0.000000
460.222763,0.000000,-9696.697840,-536.266849
460.223087,-148.041188,-8216.285956,-766.095498
460.223412,296.082377,-7698.141797,-459.657299
460.223736,888.247130,-8142.265362,0.000000
460.224060,1184.329507,-9548.656652,459.657299
460.224384,666.185348,-10436.903782,383.047749
460.224709,-666.185348,-9844.739029,229.828649
460.225033,-1332.370696,-8660.409521,-229.828649
460.225357,-1258.350101,-8364.327145,153.219100
460.225681,-444.123565,-8956.491898,383.047749
460.226005,370.102971,-9474.636058,459.657299
460.226330,444.123565,-9622.677246,306.438199
460.226654,-592.164754,-8808.450710,0.000000
460.226978,-1480.411884,-7476.080014,0.000000
460.227302,-962.267725,-7254.018232,-383.047749
460.227626,296.082377,-8290.306550,-153.219100
460.227951,1332.370696,-9844.739029,383.047749
460.228275,1258.350101,-11251.130318,383.047749
460.228599,518.144159,-11473.192101,459.657299
460.228923,-592.164754,-10955.047942,536.266849
460.229247,-1110.308913,-10362.883188,842.705048
460.229571,-666.185348,-10510.924376,689.485948
460.229896,-148.041188,-11473.192101,459.657299
460.230220,0.000000,-11473.192101,229.828649
460.230544,-296.082377,-10732.986159,-153.219100
460.230868,-666.185348,-8882.471304,-383.047749
460.231192,-444.123565,-7846.182985,-536.266849
460.231517,296.082377,-8660.409521,-612.876398
460.231841,814.226536,-9474.636058,-459.657299
460.232165,1036.288319,-11103.089130,76.609550
460.232489,-592.164754,-10881.027347,-153.219100
460.232813,-1776.494261,-10140.821405,-383.047749
460.233137,-2368.659014,-8956.491898,-612.876398
460.233462,-1628.453072,-9252.574275,-229.828649
460.233786,0.000000,-10066.800811,229.828649
460.234110,814.226536,-10658.965565,76.609550
460.234434,74.020594,-10066.800811,-153.219100
460.234758,-740.205942,-8142.265362,-383.047749
460.235083,-666.185348,-7105.977043,-766.095498
460.235407,370.102971,-8068.244768,-229.828649
460.235731,1554.432478,-9770.718434,0.000000
460.236055,1702.473667,-10955.047942,459.657299
460.236379,1110.308913,-10732.986159,-383.047749
460.236703,-296.082377,-10436.903782,-995.924147
460.237028,-1332.370696,-9474.636058,-229.828649
460.237352,-962.267725,-10140.821405,-689.485948
460.237676,0.000000,-11029.068536,76.609550
460.238000,888.247130,-11325.150913,0.000000
460.238324,740.205942,-10288.862594,0.000000
460.238648,296.082377,-8586.388927,0.000000
460.238973,444.123565,-7698.141797,-536.266849
460.239297,1628.453072,-8142.265362,153.219100
460.239621,1702.473667,-9474.636058,76.609550
460.239945,1554.432478,-10807.006753,229.828649
460.240269,666.185348,-10955.047942,0.000000
460.240594,-592.164754,-9918.759623,-306.438199
460.240918,-1184.329507,-9030.512492,-229.828649
460.241242,-1184.329507,-8882.471304,-383.047749
460.241566,0.000000,-9474.636058,-229.828649
460.241890,1258.350101,-10140.821405,229.828649
460.242214,518.144159,-9844.739029,0.000000
460.242539,-296.082377,-8882.471304,-153.219100
460.242863,-740.205942,-7698.141797,-612.876398
460.243187,-296.082377,-7920.203579,0.000000
460.243511,740.205942,-9178.553681,0.000000
460.243835,1332.370696,-10510.924376,766.095498
460.244160,1036.288319,-11177.109724,306.438199
460.244484,296.082377,-10732.986159,229.828649
460.244808,-962.267725,-9400.615463,0.000000
460.245132,-962.267725,-9474.636058,0.000000
460.245456,-370.102971,-10436.903782,0.000000
460.245780,222.061783,-10510.924376,842.705048
460.246105,740.205942,-10584.944971,306.438199
460.246429,444.123565,-9326.594869,229.828649
460.246753,148.041188,-8142.265362,-229.828649
460.247077,296.082377,-7920.203579,0.000000
460.247401,740.205942,-8882.471304,76.609550
460.247726,592.164754,-10584.944971,0.000000
460.248050,-222.061783,-11399.171507,919.314598
460.248374,-1258.350101,-10584.944971,306.438199
460.248698,-1776.494261,-9696.697840,0.000000
460.249022,-1924.535449,-9030.512492,76.609550
460.249346,-1110.308913,-9918.759623,0.000000
460.249671,-592.164754,-11029.068536,459.657299
460.249995,-296.082377,-11103.089130,153.219100
460.250319,-1110.308913,-9548.656652,-153.219100
460.250643,-1998.556043,-8068.244768,0.000000
460.250967,-1554.432478,-7846.182985,-536.266849
460.251292,0.000000,-8882.471304,76.609550
460.251616,666.185348,-10140.821405,0.000000
460.251940,222.061783,-10807.006753,0.000000
460.252264,-666.185348,-10807.006753,-306.438199
460.252588,-1924.535449,-9992.780217,-229.828649
460.252912,-1924.535449,-9474.636058,-153.219100
460.253237,-1036.288319,-10066.800811,76.609550
460.253561,0.000000,-10510.924376,459.657299
460.253885,148.041188,-10807.006753,-153.219100
460.254209,148.041188,-9474.636058,229.828649
460.254533,518.144159,-8142.265362,229.828649
460.254858,1184.329507,-7624.121203,0.000000
460.255182,1998.556043,-8290.306550,153.219100
460.255506,2368.659014,-9770.718434,153.219100
460.255830,1850.514855,-10584.944971,0.000000
460.256154,-148.041188,-9622.677246,-612.876398
460.256478,-1110.308913,-9474.636058,-459.657299
460.256803,-1184.329507,-9474.636058,-306.438199
460.257127,0.000000,-10140.821405,-383.047749
460.257451,370.102971,-10436.903782,229.828649
460.257775,148.041188,-10066.800811,689.485948
460.258099,-518.144159,-9548.656652,-612.876398
460.258423,-1406.391290,-7994.224174,-1072.533697
460.258748,-592.164754,-7698.141797,-1149.143247
460.259072,518.144159,-8512.368333,229.828649
460.259396,1406.391290,-9918.759623,153.219100
460.259720,1406.391290,-10807.006753,153.219100
460.260044,592.164754,-10732.986159,76.609550
460.260369,0.000000,-9844.739029,-383.047749
460.260693,-444.123565,-9474.636058,-306.438199
460.261017,222.061783,-10140.821405,-383.047749
460.261341,592.164754,-10658.965565,536.266849
460.261665,962.267725,-11103.089130,153.219100
460.261989,740.205942,-10658.965565,0.000000
460.262314,592.164754,-8808.450710,-383.047749
460.262638,740.205942,-7772.162391,-612.876398
460.262962,1554.432478,-8438.347739,-229.828649
460.263286,2220.617826,-9918.759623,153.219100
460.263610,1924.535449,-11473.192101,229.828649
460.263935,296.082377,-10807.006753,536.266849
460.264259,-1184.329507,-10066.800811,-383.047749
460.264583,-1702.473667,-9474.636058,-383.047749
460.264907,-1110.308913,-9474.636058,-459.657299
460.265231,-296.082377,-10066.800811,-306.438199
460.265555,444.123565,-10807.006753,229.828649
460.265880,-962.267725,-9918.759623,0.000000
460.266204,-1258.350101,-8438.347739,76.609550
460.266528,-1332.370696,-7328.038826,-536.266849
460.266852,-666.185348,-7846.182985,-306.438199
460.267176,444.123565,-9474.636058,0.000000
460.267501,666.185348,-10362.883188,229.828649
460.267825,-296.082377,-10436.903782,689.485948
460.268149,-1110.308913,-10140.821405,-842.705048
460.268473,-1776.494261,-9474.636058,76.609550
460.268797,-1480.411884,-9622.677246,153.219100
460.269121,-666.185348,-10658.965565,-153.219100
460.269446,-370.102971,-10732.986159,-229.828649
460.269770,-666.185348,-10214.842000,0.000000
460.270094,-666.185348,-8734.430116,-689.485948
460.270418,-444.123565,-7994.224174,-842.705048
460.270742,444.123565,-8068.244768,0.000000
460.271067,1406.391290,-9252.574275,76.609550
460.271391,814.226536,-10658.965565,153.219100
460.271715,-370.102971,-10881.027347,-459.657299
460.272039,-2146.597232,-9770.718434,-536.266849
460.272363,-2368.659014,-9400.615463,-612.876398
460.272687,-1628.453072,-9622.677246,-459.657299
460.273012,-444.123565,-10214.842000,-459.657299
460.273336,-370.102971,-10214.842000,-689.485948
460.273660,-592.164754,-9326.594869,-689.485948
460.273984,-1184.329507,-8956.491898,-1149.143247
460.274308,-592.164754,-8734.430116,-842.705048
460.274633,148.041188,-8512.368333,-459.657299
460.274957,1406.391290,-9474.636058,-383.047749
460.275281,1924.535449,-10288.862594,-689.485948
460.275605,1258.350101,-10732.986159,-1149.143247
460.275929,296.082377,-11103.089130,-1302.362347
460.276253,-592.164754,-10362.883188,-919.314598
460.276578,74.020594,-9992.780217,-612.876398
460.276902,296.082377,-10140.821405,-459.657299
460.277226,888.247130,-11103.089130,-995.924147
460.277550,592.164754,-11029.068536,-1302.362347
460.277874,518.144159,-10140.821405,-1225.752797
460.278199,814.226536,-8808.450710,-612.876398
460.278523,2294.638420,-8956.491898,306.438199
460.278847,3034.844362,-9844.739029,0.000000
460.279171,2886.803174,-10510.924376,306.438199
460.279495,1776.494261,-11399.171507,0.000000
460.279819,0.000000,-11177.109724,-459.657299
460.280144,-1554.432478,-10066.800811,-689.485948
460.280468,-1406.391290,-9474.636058,-153.219100
460.280792,222.061783,-9844.739029,536.266849
460.281116,592.164754,-9844.739029,383.047749
460.281440,444.123565,-9696.697840,0.000000
460.281764,-370.102971,-9252.574275,76.609550
460.282089,-1184.329507,-8068.244768,0.000000
460.282413,-740.205942,-7402.059420,153.219100
460.282737,296.082377,-8142.265362,842.705048
460.283061,1110.308913,-9178.553681,1608.800546
460.283385,1258.350101,-10658.965565,1838.629195
460.283710,74.020594,-10214.842000,1685.410096
460.284034,-1924.535449,-8660.409521,919.314598
460.284358,-1480.411884,-8586.388927,1378.971896
460.284682,-1258.350101,-9252.574275,1455.581446
460.285006,-370.102971,-9992.780217,1915.238745
460.285330,-296.082377,-9918.759623,1455.581446
460.285655,-370.102971,-8734.430116,919.314598
460.285979,-1184.329507,-7105.977043,1072.533697
460.286303,-1036.288319,-6809.894666,842.705048
460.286627,370.102971,-7994.224174,1455.581446
460.286951,1036.288319,-9696.697840,1685.410096
460.287276,370.102971,-10214.842000,1378.971896
460.287600,-962.267725,-9844.739029,1302.362347
460.287924,-1702.473667,-8956.491898,766.095498
460.288248,-1554.432478,-8956.491898,995.924147
460.288572,0.000000,-9844.739029,1838.629195
460.288896,444.123565,-10214.842000,1838.629195
460.289221,962.267725,-10288.862594,1455.581446
460.289545,222.061783,-9770.718434,612.876398
460.289869,-888.247130,-8586.388927,-306.438199
460.290193,-1332.370696,-7994.224174,0.000000
460.290517,-222.061783,-8882.471304,0.000000
460.290842,740.205942,-10214.842000,0.000000
460.291166,1332.370696,-11399.171507,689.485948
460.291490,370.102971,-11769.274478,76.609550
460.291814,-1332.370696,-11029.068536,-689.485948
460.292138,-1776.494261,-10881.027347,-766.095498
460.292462,-1406.391290,-11103.089130,-612.876398
460.292787,-592.164754,-11177.109724,-459.657299
460.293111,-222.061783,-11399.171507,-689.485948
460.293435,-296.082377,-10732.986159,-766.095498
460.293759,-444.123565,-8956.491898,-766.095498
460.294083,370.102971,-9030.512492,-1149.143247
460.294408,1258.350101,-9030.512492,-919.314598
460.294732,1998.556043,-9844.739029,-766.095498
460.295056,1702.473667,-11103.089130,-689.485948
460.295380,222.061783,-10584.944971,-1225.752797
460.295704,-962.267725,-9770.718434,-1685.410096
460.296028,-1258.350101,-9030.512492,-1838.629195
460.296353,-518.144159,-9252.574275,-1532.190996
460.296677,888.247130,-9992.780217,-1149.143247
460.297001,1480.411884,-10214.842000,-1149.143247
460.297325,962.267725,-9622.677246,-1378.971896
460.297649,-222.061783,-8364.327145,-1302.362347
460.297974,-370.102971,-7550.100608,-1685.410096
460.298298,370.102971,-7772.162391,-766.095498
460.298622,1480.411884,-9178.553681,-612.876398
460.298946,1554.432478,-10807.006753,-919.314598
460.299270,740.205942,-10881.027347,-1149.143247
460.299594,-222.061783,-9844.739029,-1149.143247
460.299919,-814.226536,-9252.574275,-1302.362347
460.300243,-518.144159,-9474.636058,-1225.752797
460.300567,-518.144159,-9770.718434,-1072.533697
460.300891,-222.061783,-10881.027347,-1455.581446
460.301215,-740.205942,-9992.780217,-1149.143247
460.301539,-518.144159,-9030.512492,-1378.971896
460.301864,0.000000,-8216.285956,-689.485948
460.302188,1702.473667,-8808.450710,0.000000
460.302512,2812.782580,-9918.759623,536.266849
460.302836,2738.761985,-11325.150913,689.485948
460.303160,888.247130,-11769.274478,612.876398
460.303485,-1258.350101,-10881.027347,306.438199
460.303809,-1480.411884,-9918.759623,76.609550
460.304133,-814.226536,-9770.718434,536.266849
460.304457,444.123565,-10362.883188,1149.143247
460.304781,1258.350101,-11029.068536,1072.533697
460.305105,518.144159,-9992.780217,612.876398
460.305430,-296.082377,-8882.471304,536.266849
460.305754,-888.247130,-7994.224174,459.657299
460.306078,-814.226536,-8512.368333,766.095498
460.306402,222.061783,-9548.656652,1455.581446
460.306726,370.102971,-10658.965565,2068.457845
460.307051,74.020594,-10881.027347,2145.067394
460.307375,-740.205942,-10658.965565,2221.676944
460.307699,-1924.535449,-9326.594869,1838.629195
460.308023,-1850.514855,-9474.636058,2987.772442
460.308347,-1628.453072,-9474.636058,1915.238745
460.308671,-1258.350101,-10214.842000,2451.505594
460.308996,-1554.432478,-9622.677246,1838.629195
460.309320,-1628.453072,-8438.347739,1532.190996
460.309644,-1554.432478,-7105.977043,1378.971896
460.309968,-296.082377,-6513.812290,1685.410096
460.310292,666.185348,-7624.121203,1608.800546
460.310617,1036.288319,-8956.491898,1532.190996
460.310941,-148.041188,-9622.677246,1378.971896
460.311265,-1850.514855,-9030.512492,766.095498
460.311589,-2294.638420,-8290.306550,383.047749
460.311913,-1480.411884,-7846.182985,766.095498
460.312237,592.164754,-8808.450710,1608.800546
460.312562,1850.514855,-9770.718434,1685.410096
460.312886,1702.473667,-9252.574275,1072.533697
460.313210,888.247130,-8734.430116,919.314598
460.313534,444.123565,-7920.203579,76.609550
460.313858,518.144159,-7920.203579,-229.828649
460.314183,1628.453072,-8808.450710,0.000000
460.314507,2220.617826,-10288.862594,-306.438199
460.314831,1776.494261,-11473.192101,-1378.971896
460.315155,740.205942,-10807.006753,-1302.362347
460.315479,-444.123565,-10140.821405,-1608.800546
460.315803,-444.123565,-10288.862594,-1991.848295
460.316128,222.061783,-10658.965565,-1991.848295
460.316452,666.185348,-11547.212695,-2145.067394
460.316776,444.123565,-11917.315666,-2221.676944
460.317100,370.102971,-11177.109724,-2757.943793
460.317424,1036.288319,-9622.677246,-1838.629195
460.317749,1702.473667,-8438.347739,-2221.676944
