#time,accel_x,accel_y,accel_z
630.182213,-370.102971,-9178.553681,76.609550
630.182537,0.000000,-9474.636058,0.000000
630.182861,-148.041188,-9622.677246,-536.266849
630.183185,-222.061783,-9548.656652,0.000000
630.183509,0.000000,-9622.677246,0.000000
630.183833,0.000000,-9770.718434,0.000000
630.184157,-148.041188,-9770.718434,153.219100
630.184481,0.000000,-9770.718434,-306.438199
630.184805,370.102971,-9622.677246,0.000000
630.185129,370.102971,-9770.718434,0.000000
630.185453,222.061783,-9622.677246,0.000000
630.185777,0.000000,-9622.677246,76.609550
630.186101,148.041188,-9622.677246,-229.828649
630.186425,0.000000,-9696.697840,-153.219100
630.186749,148.041188,-9548.656652,-306.438199
630.187073,222.061783,-9474.636058,229.828649
630.187397,222.061783,-9252.574275,-383.047749
630.187721,0.000000,-9400.615463,-383.047749
630.188045,0.000000,-9548.656652,0.000000
630.188369,74.020594,-9844.739029,0.000000
630.188693,0.000000,-9548.656652,0.000000
630.189017,296.082377,-9252.574275,689.485948
630.189341,444.123565,-9474.636058,536.266849
630.189665,518.144159,-9770.718434,536.266849
630.189989,592.164754,-9992.780217,766.095498
630.190313,0.000000,-9918.759623,306.438199
630.190637,-592.164754,-9770.718434,0.000000
630.190961,-1036.288319,-9474.636058,-306.438199
630.191285,-666.185348,-9400.615463,229.828649
630.191609,0.000000,-9918.759623,0.000000
630.191933,370.102971,-9918.759623,229.828649
630.192257,888.247130,-9622.677246,459.657299
630.192581,814.226536,-9548.656652,459.657299
630.192905,518.144159,-9696.697840,229.828649
630.193229,740.205942,-9770.718434,153.219100
630.193553,592.164754,-9918.759623,-229.828649
630.193877,222.061783,-9918.759623,-306.438199
630.194201,-148.041188,-10362.883188,-459.657299
630.194525,-740.205942,-9918.759623,-306.438199
630.194849,-814.226536,-9548.656652,383.047749
630.195173,148.041188,-9770.718434,459.657299
630.195497,1110.308913,-9770.718434,1225.752797
630.195821,2146.597232,-9770.718434,1149.143247
630.196145,2368.659014,-9622.677246,1608.800546
630.196468,2368.659014,-9474.636058,1608.800546
630.196792,2220.617826,-8882.471304,766.095498
630.197116,1924.535449,-9252.574275,766.095498
630.197440,296.082377,-9326.594869,76.609550
630.197764,-148.041188,-9992.780217,-383.047749
630.198088,-518.144159,-10066.800811,-459.657299
630.198412,-296.082377,-9696.697840,0.000000
630.198736,814.226536,-9770.718434,1225.752797
630.199060,2368.659014,-9696.697840,1685.410096
630.199384,4145.153275,-9548.656652,2528.115143
630.199708,4737.318029,-9474.636058,2987.772442
630.200032,5181.441594,-10066.800811,3217.601092
630.200356,4959.379811,-10214.842000,2681.334243
630.200680,4219.173869,-10066.800811,2145.067394
630.201004,3404.947333,-9844.739029,2068.457845
630.201328,2368.659014,-10066.800811,1302.362347
630.201652,1258.350101,-10732.986159,919.314598
630.201976,592.164754,-10066.800811,536.266849
630.202300,1036.288319,-9844.739029,1378.971896
630.202624,2516.700203,-9622.677246,2451.505594
630.202948,4145.153275,-9400.615463,3064.381992
630.203272,4959.379811,-9548.656652,3907.087040
630.203596,5699.585753,-9770.718434,4596.572988
630.203920,4885.359217,-9918.759623,4519.963438
630.204244,3552.988522,-9844.739029,4366.744339
630.204568,2072.576638,-9178.553681,4290.134789
630.204892,74.020594,-9030.512492,2987.772442
630.205216,-1258.350101,-8808.450710,2374.896044
630.205540,-1702.473667,-8290.306550,1838.629195
630.205864,-1258.350101,-7698.141797,1915.238745
630.206188,-370.102971,-6957.935855,2298.286494
630.206512,444.123565,-6809.894666,1991.848295
630.206836,1924.535449,-6365.771101,2757.943793
630.207160,3108.864956,-6735.874072,3447.429741
630.207484,4071.132681,-8364.327145,4213.525239
630.207808,4737.318029,-9622.677246,4519.963438
630.208132,4811.338623,-10436.903782,4290.134789
630.208456,4367.215058,-10955.047942,4290.134789
630.208780,2146.597232,-11917.315666,3524.039291
630.209104,444.123565,-12509.480420,2911.162892
630.209428,-1628.453072,-11843.295072,2068.457845
630.209752,-2368.659014,-10955.047942,1149.143247
630.210076,-2072.576638,-9474.636058,1072.533697
630.210400,-444.123565,-8438.347739,995.924147
630.210724,1406.391290,-7920.203579,995.924147
630.211048,2516.700203,-7550.100608,1072.533697
630.211372,3108.864956,-7105.977043,1225.752797
630.211696,3849.070898,-8364.327145,2221.676944
630.212020,3552.988522,-9992.780217,2298.286494
630.212344,2368.659014,-11769.274478,2374.896044
630.212668,1184.329507,-12213.398043,2221.676944
630.212992,0.000000,-11991.336260,1991.848295
630.213315,296.082377,-11991.336260,1072.533697
630.213639,1184.329507,-11399.171507,1302.362347
630.213963,1998.556043,-10881.027347,1072.533697
630.214287,2368.659014,-9400.615463,919.314598
630.214611,2960.823768,-8734.430116,1149.143247
630.214935,2368.659014,-8882.471304,0.000000
630.215259,1480.411884,-9030.512492,-153.219100
630.215583,1406.391290,-8660.409521,-383.047749
630.215907,1776.494261,-8438.347739,-153.219100
630.216231,3775.050304,-9548.656652,689.485948
630.216555,5551.544565,-10807.006753,1762.019645
630.216879,6957.935855,-12139.377449,2987.772442
630.217203,6217.729913,-12361.439231,2911.162892
630.217527,3997.112087,-12583.501014,2298.286494
630.217851,888.247130,-11547.212695,1072.533697
630.218175,-1258.350101,-10436.903782,459.657299
630.218499,-1184.329507,-9548.656652,612.876398
630.218823,296.082377,-8660.409521,919.314598
630.219147,2072.576638,-7698.141797,1072.533697
630.219471,1776.494261,-6957.935855,536.266849
630.219795,1480.411884,-6143.709319,306.438199
630.220119,1184.329507,-5625.565159,-229.828649
630.220443,1702.473667,-6143.709319,-153.219100
630.220767,2886.803174,-7179.997637,612.876398
630.221091,4367.215058,-9252.574275,1685.410096
630.221415,4293.194464,-10658.965565,2834.553343
630.221739,3552.988522,-11843.295072,2145.067394
630.222063,1998.556043,-10510.924376,2068.457845
630.222387,1480.411884,-10510.924376,2374.896044
630.222711,2220.617826,-11325.150913,2298.286494
630.223035,1924.535449,-11621.233289,2145.067394
630.223359,888.247130,-11029.068536,1608.800546
630.223683,0.000000,-9548.656652,1149.143247
630.224007,0.000000,-8660.409521,536.266849
630.224331,1924.535449,-7920.203579,919.314598
630.224655,2664.741391,-8734.430116,1378.971896
630.224979,2516.700203,-9548.656652,1378.971896
630.225303,592.164754,-8882.471304,306.438199
630.225627,-962.267725,-9474.636058,229.828649
630.225951,-444.123565,-10510.924376,1532.190996
630.226275,1628.453072,-11473.192101,2528.115143
630.226599,3701.029710,-11769.274478,3677.258390
630.226923,4071.132681,-10807.006753,4060.306139
630.227247,3552.988522,-10140.821405,3370.820191
630.227571,3552.988522,-9992.780217,3907.087040
630.227895,3108.864956,-10658.965565,3830.477490
630.228219,1850.514855,-10436.903782,2911.162892
630.228543,0.000000,-9030.512492,2145.067394
630.228867,-518.144159,-8364.327145,1532.190996
630.229191,518.144159,-8438.347739,995.924147
630.229515,1998.556043,-8882.471304,1225.752797
630.229839,2146.597232,-8882.471304,919.314598
630.230162,2442.679609,-8142.265362,1532.190996
630.230486,2960.823768,-8364.327145,2451.505594
630.230810,3775.050304,-9548.656652,3677.258390
630.231134,4219.173869,-10955.047942,3753.867940
630.231458,3552.988522,-11251.130318,4443.353888
630.231782,3552.988522,-10955.047942,5209.449386
630.232106,3552.988522,-11325.150913,6128.763984
630.232430,3849.070898,-10955.047942,5669.106685
630.232754,3256.906145,-10214.842000,4443.353888
630.233078,2738.761985,-9030.512492,3140.991542
630.233402,1628.453072,-7994.224174,1915.238745
630.233726,-666.185348,-8068.244768,1302.362347
630.234050,-1850.514855,-8512.368333,766.095498
630.234374,-814.226536,-7772.162391,1762.019645
630.234698,1480.411884,-6143.709319,1915.238745
630.235022,3627.009116,-6661.853478,1149.143247
630.235346,4515.256246,-7846.182985,2298.286494
630.235670,5995.668130,-9252.574275,3830.477490
630.235994,7105.977043,-9474.636058,4443.353888
630.236318,5995.668130,-9326.594869,4749.792088
630.236642,4515.256246,-10510.924376,5132.839837
630.236966,3108.864956,-12065.356855,4903.011187
630.237290,2812.782580,-11251.130318,3753.867940
630.237614,2072.576638,-9030.512492,2681.334243
630.237938,148.041188,-9622.677246,1378.971896
630.238262,-1480.411884,-10881.027347,842.705048
630.238586,-1776.494261,-9770.718434,536.266849
630.238910,-2220.617826,-7624.121203,0.000000
630.239234,-2886.803174,-7179.997637,-612.876398
630.239558,-2738.761985,-8216.285956,-995.924147
630.239882,370.102971,-8734.430116,-229.828649
630.240206,3701.029710,-9030.512492,1072.533697
630.240530,6439.791695,-9104.533087,2604.724693
630.240854,7994.224174,-10658.965565,2911.162892
630.241178,6587.832884,-11843.295072,3447.429741
630.241502,5329.482782,-11251.130318,3447.429741
630.241826,4515.256246,-10807.006753,3447.429741
630.242150,2072.576638,-12879.583391,1991.848295
630.242474,-518.144159,-14359.995275,995.924147
630.242798,-1776.494261,-11917.315666,536.266849
630.243122,-1332.370696,-10140.821405,-459.657299
630.243446,-1554.432478,-10362.883188,-1532.190996
630.243770,-1258.350101,-9104.533087,-2451.505594
630.244094,-296.082377,-7920.203579,-1608.800546
630.244418,0.000000,-8068.244768,-1455.581446
630.244742,814.226536,-9548.656652,-612.876398
630.245066,2294.638420,-9252.574275,536.266849
630.245390,3849.070898,-9770.718434,1991.848295
630.245714,5551.544565,-10288.862594,2911.162892
630.246038,7476.080014,-9770.718434,3064.381992
630.246361,6365.771101,-9992.780217,3983.696590
630.246685,3775.050304,-11843.295072,4290.134789
630.247009,1258.350101,-12213.398043,2987.772442
630.247333,-370.102971,-10436.903782,1532.190996
630.247657,-2072.576638,-8956.491898,1225.752797
630.247981,-2146.597232,-10140.821405,-229.828649
630.248305,-888.247130,-9474.636058,-1378.971896
630.248629,592.164754,-6809.894666,-1532.190996
630.248953,888.247130,-5699.585753,-1149.143247
630.249277,1110.308913,-7105.977043,-995.924147
630.249601,3108.864956,-7624.121203,0.000000
630.249925,4737.318029,-7550.100608,2451.505594
630.250249,6661.853478,-8512.368333,2987.772442
630.250573,6513.812290,-9844.739029,2757.943793
630.250897,4737.318029,-9770.718434,3370.820191
630.251221,4515.256246,-9104.533087,3983.696590
630.251545,4441.235652,-10510.924376,4749.792088
630.251869,2738.761985,-11843.295072,4596.572988
630.252193,888.247130,-11177.109724,3524.039291
630.252517,-2072.576638,-10658.965565,2221.676944
630.252841,-3404.947333,-9178.553681,76.609550
630.253165,-2960.823768,-8660.409521,-1072.533697
630.253489,-2738.761985,-9548.656652,-1302.362347
630.253813,-2516.700203,-9622.677246,-1378.971896
630.254137,-1702.473667,-8956.491898,-1225.752797
630.254461,-74.020594,-8808.450710,306.438199
630.254785,1702.473667,-8438.347739,1149.143247
630.255109,3404.947333,-9918.759623,842.705048
630.255433,3775.050304,-9474.636058,2604.724693
630.255757,5181.441594,-9696.697840,4213.525239
630.256081,6661.853478,-11177.109724,4749.792088
630.256405,7254.018232,-11695.253884,5669.106685
630.256729,6587.832884,-11251.130318,6894.859482
630.257053,3997.112087,-11029.068536,4903.011187
630.257377,-444.123565,-10140.821405,2681.334243
630.257701,-4293.194464,-9844.739029,1225.752797
630.258025,-5107.421000,-9992.780217,0.000000
630.258349,-4885.359217,-9770.718434,-1378.971896
630.258673,-5255.462188,-8290.306550,-2221.676944
630.258997,-4959.379811,-7698.141797,-1225.752797
630.259321,-2960.823768,-8290.306550,-1762.019645
630.259645,0.000000,-8438.347739,-995.924147
630.259969,1924.535449,-8734.430116,919.314598
630.260293,3923.091493,-8364.327145,1991.848295
630.260617,5329.482782,-9474.636058,3294.210641
630.260941,5995.668130,-10658.965565,4290.134789
630.261264,5847.626942,-10140.821405,4290.134789
630.261588,5181.441594,-10881.027347,4213.525239
630.261912,3108.864956,-11695.253884,3677.258390
630.262236,518.144159,-11325.150913,2145.067394
630.262560,-1554.432478,-9622.677246,1455.581446
630.262884,-3404.947333,-9104.533087,76.609550
630.263208,-5551.544565,-10066.800811,-1838.629195
630.263532,-6439.791695,-9178.553681,-3064.381992
630.263856,-4737.318029,-7698.141797,-2221.676944
630.264180,-1184.329507,-7624.121203,-1378.971896
630.264504,814.226536,-7846.182985,-1532.190996
630.264828,2516.700203,-7254.018232,-459.657299
630.265152,2886.803174,-7402.059420,76.609550
630.265476,3478.967927,-8364.327145,229.828649
630.265800,4367.215058,-9400.615463,689.485948
630.266124,4145.153275,-9400.615463,536.266849
630.266448,3034.844362,-10214.842000,995.924147
630.266772,592.164754,-11029.068536,76.609550
630.267096,-1184.329507,-10807.006753,-383.047749
630.267420,-2516.700203,-10658.965565,0.000000
630.267744,-2442.679609,-11843.295072,-153.219100
630.268068,-2220.617826,-11621.233289,-1378.971896
630.268392,-1924.535449,-9474.636058,-1455.581446
630.268716,-1406.391290,-9178.553681,-1762.019645
630.269040,-888.247130,-9992.780217,-2528.115143
630.269364,0.000000,-10658.965565,-3600.648841
630.269688,-518.144159,-9622.677246,-2987.772442
630.270012,-1184.329507,-9770.718434,-2374.896044
630.270336,-814.226536,-10510.924376,-2834.553343
630.270660,-518.144159,-10436.903782,-2221.676944
630.270984,0.000000,-10881.027347,-842.705048
630.271308,814.226536,-11399.171507,-689.485948
630.271632,444.123565,-11251.130318,-612.876398
630.271956,-296.082377,-10214.842000,919.314598
630.272280,-296.082377,-10214.842000,1608.800546
630.272604,-222.061783,-11621.233289,1072.533697
630.272928,-1110.308913,-10658.965565,536.266849
630.273252,-1184.329507,-9178.553681,0.000000
630.273576,-2220.617826,-8808.450710,-1455.581446
630.273900,-3701.029710,-8512.368333,-2757.943793
630.274224,-3256.906145,-8290.306550,-4673.182538
630.274548,-1628.453072,-8290.306550,-2451.505594
630.274872,1110.308913,-9104.533087,-1225.752797
630.275196,2516.700203,-9474.636058,-383.047749
630.275520,2886.803174,-9400.615463,842.705048
630.275843,2886.803174,-10066.800811,536.266849
630.276167,2442.679609,-10584.944971,306.438199
630.276491,1776.494261,-10510.924376,1532.190996
630.276815,1554.432478,-11177.109724,2757.943793
630.277139,1628.453072,-11399.171507,2834.553343
630.277463,74.020594,-10807.006753,2451.505594
630.277787,-1480.411884,-9252.574275,1072.533697
630.278111,-2664.741391,-8512.368333,-766.095498
630.278435,-3923.091493,-9326.594869,-1378.971896
630.278759,-3627.009116,-9252.574275,-766.095498
630.279083,-3034.844362,-8290.306550,-995.924147
630.279407,-2738.761985,-7772.162391,-995.924147
630.279731,-1850.514855,-7698.141797,-1072.533697
630.280055,-592.164754,-8364.327145,-612.876398
630.280379,1850.514855,-8808.450710,0.000000
630.280703,3627.009116,-8734.430116,1532.190996
630.281027,4737.318029,-8512.368333,2298.286494
630.281351,4737.318029,-8586.388927,1991.848295
630.281675,3552.988522,-9770.718434,2528.115143
630.281999,1924.535449,-10807.006753,2068.457845
630.282323,518.144159,-10658.965565,2068.457845
630.282647,-444.123565,-9770.718434,306.438199
630.282971,-1628.453072,-9178.553681,-459.657299
630.283295,-2072.576638,-9696.697840,-919.314598
630.283619,-1332.370696,-10510.924376,-306.438199
630.283943,-1184.329507,-10436.903782,0.000000
630.284267,-1628.453072,-9474.636058,-1608.800546
630.284591,-1628.453072,-9252.574275,-1072.533697
630.284915,-370.102971,-10066.800811,-766.095498
630.285239,1258.350101,-10955.047942,306.438199
630.285563,1850.514855,-10658.965565,842.705048
630.285887,1406.391290,-9178.553681,766.095498
630.286211,1258.350101,-9400.615463,1302.362347
630.286535,148.041188,-10658.965565,1532.190996
630.286859,222.061783,-10732.986159,2145.067394
630.287183,370.102971,-10510.924376,2221.676944
630.287507,148.041188,-9696.697840,1685.410096
630.287831,0.000000,-8956.491898,1762.019645
630.288155,-148.041188,-8512.368333,383.047749
630.288479,-296.082377,-8364.327145,76.609550
630.288803,-296.082377,-8142.265362,-383.047749
630.289127,-148.041188,-9474.636058,0.000000
630.289451,0.000000,-9770.718434,-459.657299
630.289775,-592.164754,-9178.553681,-229.828649
630.290099,-1406.391290,-9030.512492,-229.828649
630.290422,-592.164754,-9326.594869,-153.219100
630.290746,1110.308913,-9992.780217,-153.219100
630.291070,1776.494261,-10362.883188,1225.752797
630.291394,1924.535449,-10214.842000,1915.238745
630.291718,1628.453072,-9548.656652,1225.752797
630.292042,444.123565,-9474.636058,766.095498
630.292366,-1110.308913,-10955.047942,842.705048
630.292690,-1628.453072,-11621.233289,-1302.362347
630.293014,-2738.761985,-10658.965565,-1225.752797
630.293338,-2590.720797,-9252.574275,-153.219100
630.293662,-1480.411884,-8808.450710,-766.095498
630.293986,-296.082377,-9992.780217,-536.266849
630.294310,-740.205942,-9622.677246,-766.095498
630.294634,-1258.350101,-8882.471304,-1378.971896
630.294958,-1776.494261,-9030.512492,-1302.362347
630.295282,-592.164754,-9178.553681,-153.219100
630.295606,1406.391290,-10436.903782,1608.800546
630.295930,1702.473667,-10436.903782,1685.410096
630.296254,1110.308913,-8734.430116,612.876398
630.296578,740.205942,-7846.182985,-842.705048
630.296902,444.123565,-8882.471304,-995.924147
630.297226,740.205942,-9622.677246,-1455.581446
630.297550,592.164754,-9326.594869,-1072.533697
630.297874,0.000000,-8882.471304,0.000000
630.298198,888.247130,-9252.574275,-459.657299
630.298522,888.247130,-9844.739029,-1149.143247
630.298846,-148.041188,-9918.759623,-2068.457845
630.299170,-592.164754,-10066.800811,-1685.410096
630.299494,444.123565,-11251.130318,-1915.238745
630.299818,1628.453072,-11547.212695,-842.705048
630.300142,1110.308913,-11103.089130,383.047749
630.300466,0.000000,-11103.089130,-306.438199
630.300790,-1554.432478,-10807.006753,-1532.190996
630.301114,-1702.473667,-10732.986159,-2604.724693
630.301438,-962.267725,-10807.006753,-766.095498
630.301762,370.102971,-11843.295072,-459.657299
630.302086,296.082377,-10584.944971,-842.705048
630.302410,0.000000,-9104.533087,0.000000
630.302734,-444.123565,-8586.388927,0.000000
630.303058,0.000000,-10140.821405,-383.047749
630.303382,-296.082377,-9474.636058,-995.924147
630.303706,0.000000,-8216.285956,-153.219100
630.304030,666.185348,-7994.224174,0.000000
630.304354,1480.411884,-8734.430116,766.095498
630.304678,1554.432478,-9918.759623,1685.410096
630.305002,222.061783,-9474.636058,306.438199
630.305325,-1110.308913,-6957.935855,-612.876398
630.305649,-1332.370696,-7254.018232,-153.219100
630.305973,-1110.308913,-9992.780217,1149.143247
630.306297,0.000000,-11103.089130,1685.410096
630.306621,148.041188,-10584.944971,1762.019645
630.306945,-518.144159,-9474.636058,1762.019645
630.307269,444.123565,-8882.471304,536.266849
630.307593,0.000000,-9030.512492,1608.800546
630.307917,0.000000,-10510.924376,2145.067394
630.308241,-296.082377,-9548.656652,1072.533697
630.308565,-1036.288319,-8956.491898,1149.143247
630.308889,-1998.556043,-9844.739029,919.314598
630.309213,-2220.617826,-9696.697840,153.219100
630.309537,-2294.638420,-8290.306550,306.438199
630.309861,-1702.473667,-8364.327145,1378.971896
630.310185,-666.185348,-9474.636058,1685.410096
630.310509,-222.061783,-9474.636058,995.924147
630.310833,-444.123565,-8364.327145,1225.752797
630.311157,222.061783,-7772.162391,-229.828649
630.311481,592.164754,-8068.244768,-612.876398
630.311805,666.185348,-9844.739029,842.705048
630.312129,814.226536,-10584.944971,1685.410096
630.312453,888.247130,-10732.986159,689.485948
630.312777,0.000000,-10807.006753,0.000000
630.313101,-666.185348,-9548.656652,-842.705048
630.313425,740.205942,-10807.006753,-612.876398
630.313749,2590.720797,-11843.295072,-153.219100
630.314073,2960.823768,-11251.130318,-306.438199
630.314397,2220.617826,-10362.883188,459.657299
630.314721,1628.453072,-11029.068536,536.266849
630.315045,1110.308913,-11843.295072,-919.314598
630.315369,0.000000,-11399.171507,-1378.971896
630.315693,-1184.329507,-10584.944971,-995.924147
630.316017,-1258.350101,-11325.150913,-1532.190996
630.316341,-888.247130,-10362.883188,-2068.457845
630.316665,0.000000,-8512.368333,-995.924147
630.316989,888.247130,-9770.718434,995.924147
630.317313,592.164754,-10436.903782,-919.314598
630.317637,74.020594,-9622.677246,-306.438199
630.317961,-1184.329507,-9030.512492,612.876398
630.318285,-518.144159,-9104.533087,-459.657299
630.318609,-370.102971,-9252.574275,0.000000
630.318933,-444.123565,-8660.409521,0.000000
630.319257,148.041188,-7550.100608,1302.362347
630.319581,1332.370696,-7920.203579,459.657299
630.319904,1554.432478,-9104.533087,306.438199
630.320228,1332.370696,-8586.388927,306.438199
630.320552,888.247130,-7920.203579,-459.657299
630.320876,-592.164754,-8216.285956,-995.924147
630.321200,-2368.659014,-9400.615463,-1302.362347
630.321524,-2664.741391,-9770.718434,-383.047749
630.321848,-1702.473667,-10584.944971,0.000000
630.322172,-1628.453072,-10658.965565,306.438199
630.322496,-1184.329507,-9474.636058,0.000000
630.322820,-666.185348,-8956.491898,-766.095498
630.323144,222.061783,-9918.759623,0.000000
630.323468,962.267725,-10288.862594,153.219100
630.323792,1406.391290,-9400.615463,842.705048
630.324116,1406.391290,-9030.512492,1072.533697
630.324440,592.164754,-9548.656652,689.485948
630.324764,-222.061783,-10362.883188,-229.828649
630.325088,-222.061783,-9696.697840,-383.047749
630.325412,-814.226536,-10214.842000,-842.705048
630.325736,-1480.411884,-10288.862594,-995.924147
630.326060,-2220.617826,-9844.739029,-689.485948
630.326384,-1628.453072,-10214.842000,-766.095498
630.326708,-296.082377,-9992.780217,-995.924147
630.327032,0.000000,-9474.636058,-766.095498
630.327356,1332.370696,-10510.924376,0.000000
630.327680,1480.411884,-11103.089130,536.266849
630.328004,740.205942,-10214.842000,-306.438199
630.328328,-1480.411884,-9178.553681,-612.876398
630.328652,-2146.597232,-8808.450710,-1685.410096
630.328976,-518.144159,-9992.780217,-1455.581446
630.329300,1258.350101,-11473.192101,76.609550
630.329624,2294.638420,-11547.212695,1072.533697
630.329948,2960.823768,-10140.821405,995.924147
630.330272,2442.679609,-9622.677246,153.219100
630.330596,1406.391290,-10140.821405,0.000000
630.330920,666.185348,-11399.171507,-459.657299
630.331244,-740.205942,-10955.047942,-689.485948
630.331568,-1406.391290,-10066.800811,0.000000
630.331892,-222.061783,-9844.739029,-383.047749
630.332216,518.144159,-9770.718434,0.000000
630.332540,222.061783,-9474.636058,153.219100
630.332864,0.000000,-9252.574275,153.219100
630.333188,370.102971,-9030.512492,0.000000
630.333512,0.000000,-8734.430116,306.438199
630.333836,-740.205942,-8808.450710,1532.190996
630.334160,0.000000,-9400.615463,995.924147
630.334484,-1332.370696,-8586.388927,153.219100
630.334807,-1406.391290,-8438.347739,536.266849
630.335131,-1258.350101,-8808.450710,383.047749
630.335455,0.000000,-9548.656652,536.266849
630.335779,370.102971,-8956.491898,1149.143247
630.336103,814.226536,-7994.224174,1608.800546
630.336427,1628.453072,-8216.285956,995.924147
630.336751,666.185348,-9252.574275,766.095498
630.337075,740.205942,-9770.718434,1455.581446
630.337399,518.144159,-9844.739029,459.657299
630.337723,-296.082377,-8882.471304,536.266849
630.338047,-1036.288319,-8068.244768,995.924147
630.338371,-1036.288319,-9474.636058,1072.533697
630.338695,-148.041188,-10510.924376,306.438199
630.339019,0.000000,-9252.574275,306.438199
630.339343,-370.102971,-8438.347739,689.485948
630.339667,-148.041188,-9252.574275,-153.219100
630.339991,-222.061783,-10436.903782,766.095498
630.340315,-296.082377,-9918.759623,612.876398
630.340639,-1258.350101,-8734.430116,-766.095498
630.340963,-2442.679609,-9326.594869,-383.047749
630.341287,-2072.576638,-10362.883188,-383.047749
630.341611,74.020594,-10288.862594,459.657299
630.341935,1258.350101,-9622.677246,919.314598
630.342259,2146.597232,-8882.471304,0.000000
630.342583,2220.617826,-9252.574275,-919.314598
630.342907,1110.308913,-10214.842000,-689.485948
630.343231,444.123565,-10955.047942,-689.485948
630.343555,0.000000,-10584.944971,-919.314598
630.343879,-666.185348,-9770.718434,-842.705048
630.344203,-444.123565,-11177.109724,-306.438199
630.344527,222.061783,-12213.398043,-229.828649
630.344851,592.164754,-11769.274478,-1302.362347
630.345175,0.000000,-10732.986159,-995.924147
630.345499,0.000000,-9252.574275,-1225.752797
630.345823,1110.308913,-9622.677246,-1762.019645
630.346148,296.082377,-10807.006753,-842.705048
630.346472,0.000000,-10807.006753,-1455.581446
630.346796,-370.102971,-9844.739029,-1838.629195
630.347120,-814.226536,-9770.718434,-1532.190996
630.347444,-296.082377,-10066.800811,-1072.533697
630.347768,666.185348,-9696.697840,-1455.581446
630.348092,0.000000,-9030.512492,-612.876398
630.348416,-740.205942,-9104.533087,-995.924147
630.348740,-444.123565,-10066.800811,-919.314598
630.349064,0.000000,-9992.780217,76.609550
630.349388,0.000000,-9548.656652,1149.143247
630.349712,-592.164754,-9696.697840,689.485948
630.350036,-2072.576638,-8068.244768,0.000000
630.350360,-2294.638420,-7772.162391,-766.095498
630.350684,-2442.679609,-8956.491898,-995.924147
630.351008,-1776.494261,-9474.636058,-842.705048
630.351332,-888.247130,-8734.430116,-689.485948
630.351656,-222.061783,-7994.224174,-612.876398
630.351980,888.247130,-7994.224174,-1149.143247
630.352304,1776.494261,-9770.718434,-612.876398
630.352628,2072.576638,-9622.677246,-229.828649
630.352952,1406.391290,-9622.677246,0.000000
630.353276,666.185348,-9474.636058,842.705048
630.353601,592.164754,-9696.697840,229.828649
630.353925,-962.267725,-12361.439231,2451.505594
630.354249,-666.185348,-10288.862594,1225.752797
630.354573,962.267725,-8438.347739,1225.752797
630.354897,888.247130,-9030.512492,1608.800546
630.355221,1332.370696,-9400.615463,-306.438199
630.355545,-666.185348,-9622.677246,-383.047749
630.355869,-2738.761985,-9770.718434,-536.266849
630.356193,-2442.679609,-8290.306550,-1455.581446
630.356517,-3182.885551,-9252.574275,-1532.190996
630.356841,-3923.091493,-9252.574275,-1532.190996
630.357165,-2368.659014,-9326.594869,-536.266849
630.357489,740.205942,-9918.759623,-612.876398
630.357813,2886.803174,-9252.574275,0.000000
630.358137,3182.885551,-9844.739029,1072.533697
630.358461,2146.597232,-10510.924376,383.047749
630.358785,1702.473667,-10140.821405,459.657299
630.359109,666.185348,-10584.944971,1762.019645
630.359433,740.205942,-10658.965565,383.047749
630.359757,0.000000,-10214.842000,-306.438199
630.360081,444.123565,-10362.883188,0.000000
630.360405,1554.432478,-9992.780217,-306.438199
630.360729,2368.659014,-10066.800811,0.000000
630.361054,2072.576638,-10732.986159,0.000000
630.361378,888.247130,-10362.883188,-229.828649
630.361702,-296.082377,-10214.842000,-459.657299
630.362026,-1332.370696,-8808.450710,-1072.533697
630.362350,-2368.659014,-8808.450710,-842.705048
630.362674,-2442.679609,-9548.656652,-1225.752797
630.362998,-1480.411884,-9918.759623,-689.485948
630.363322,0.000000,-10510.924376,689.485948
630.363646,222.061783,-9548.656652,612.876398
630.363970,666.185348,-8956.491898,1225.752797
630.364294,-444.123565,-8808.450710,153.219100
630.364618,-962.267725,-8956.491898,459.657299
630.364942,0.000000,-9548.656652,689.485948
630.365266,1480.411884,-9696.697840,1838.629195
630.365590,2368.659014,-9696.697840,2911.162892
630.365914,1776.494261,-9326.594869,1685.410096
630.366238,74.020594,-7550.100608,612.876398
630.366562,-1776.494261,-7105.977043,-995.924147
630.366886,-3182.885551,-8216.285956,-919.314598
630.367210,-2738.761985,-9622.677246,-306.438199
630.367534,-666.185348,-9696.697840,459.657299
630.367858,74.020594,-8808.450710,1149.143247
630.368183,296.082377,-8068.244768,0.000000
630.368507,370.102971,-8882.471304,229.828649
630.368831,1036.288319,-9918.759623,383.047749
630.369155,444.123565,-10362.883188,612.876398
630.369479,0.000000,-9844.739029,1608.800546
630.369803,-592.164754,-9474.636058,919.314598
630.370127,0.000000,-9844.739029,612.876398
630.370451,296.082377,-9992.780217,536.266849
630.370775,0.000000,-10584.944971,0.000000
630.371099,-1184.329507,-10584.944971,-536.266849
630.371423,-1702.473667,-8956.491898,0.000000
630.371747,-962.267725,-9104.533087,0.000000
630.372071,-1628.453072,-9548.656652,-459.657299
630.372395,-2072.576638,-10510.924376,-612.876398
630.372719,-2072.576638,-10214.842000,-1149.143247
630.373043,-1110.308913,-9104.533087,-1149.143247
630.373367,592.164754,-9178.553681,0.000000
630.373691,1776.494261,-9622.677246,842.705048
630.374015,2664.741391,-10732.986159,229.828649
630.374339,962.267725,-9474.636058,-1072.533697
630.374663,592.164754,-9696.697840,-995.924147
630.374987,740.205942,-10732.986159,-612.876398
630.375311,2146.597232,-11473.192101,-459.657299
630.375636,2590.720797,-10732.986159,306.438199
630.375960,2368.659014,-9992.780217,0.000000
630.376284,1480.411884,-9770.718434,-1685.410096
630.376608,0.000000,-10658.965565,-1302.362347
630.376932,-1406.391290,-10362.883188,-1072.533697
630.377256,-1998.556043,-9770.718434,-2681.334243
630.377580,-2812.782580,-8586.388927,-2834.553343
630.377904,-2590.720797,-8364.327145,-2451.505594
630.378228,-444.123565,-9548.656652,-2068.457845
630.378552,1110.308913,-10510.924376,-1225.752797
630.378876,0.000000,-9918.759623,-842.705048
630.379200,-962.267725,-9326.594869,-306.438199
630.379524,-518.144159,-9844.739029,-1378.971896
630.379848,-370.102971,-10214.842000,-612.876398
630.380172,74.020594,-10140.821405,0.000000
630.380496,518.144159,-10436.903782,76.609550
630.380820,1332.370696,-10510.924376,766.095498
630.381144,1628.453072,-9622.677246,76.609550
630.381468,1628.453072,-10066.800811,306.438199
630.381792,592.164754,-9622.677246,0.000000
630.382116,-666.185348,-9030.512492,-995.924147
630.382440,-1628.453072,-9104.533087,-842.705048
630.382765,-1998.556043,-9622.677246,-1072.533697
630.383089,-1184.329507,-9548.656652,-459.657299
630.383413,-296.082377,-9178.553681,-306.438199
630.383737,0.000000,-8734.430116,-383.047749
630.384061,814.226536,-9252.574275,153.219100
630.384385,814.226536,-10807.006753,1532.190996
630.384709,1628.453072,-10658.965565,1608.800546
630.385033,1406.391290,-9104.533087,1378.971896
630.385357,296.082377,-9104.533087,1838.629195
630.385681,-222.061783,-9178.553681,1149.143247
630.386005,-222.061783,-8660.409521,1149.143247
630.386329,-666.185348,-9178.553681,383.047749
630.386653,-1628.453072,-8438.347739,459.657299
630.386977,-2072.576638,-8364.327145,1378.971896
630.387301,-2368.659014,-7994.224174,0.000000
630.387625,-1554.432478,-7846.182985,0.000000
630.387949,-1110.308913,-9104.533087,459.657299
630.388273,222.061783,-9844.739029,766.095498
630.388597,1406.391290,-10214.842000,689.485948
630.388921,1702.473667,-9030.512492,1302.362347
630.389245,1554.432478,-8808.450710,1608.800546
630.389569,1110.308913,-9918.759623,995.924147
630.389893,0.000000,-10807.006753,919.314598
630.390218,-222.061783,-10140.821405,919.314598
630.390542,666.185348,-10066.800811,536.266849
630.390866,1036.288319,-10066.800811,306.438199
630.391190,296.082377,-9622.677246,1149.143247
630.391514,222.061783,-9178.553681,306.438199
630.391838,222.061783,-9844.739029,-766.095498
630.392162,-962.267725,-10066.800811,-1302.362347
630.392486,-1554.432478,-10066.800811,-766.095498
630.392810,-2072.576638,-10214.842000,-1149.143247
630.393134,-1258.350101,-9770.718434,-536.266849
630.393458,0.000000,-9992.780217,-153.219100
630.393782,518.144159,-10584.944971,76.609550
630.394106,666.185348,-11251.130318,0.000000
630.394430,814.226536,-10436.903782,-919.314598
630.394754,740.205942,-9104.533087,-229.828649
630.395078,370.102971,-10214.842000,-306.438199
630.395402,-444.123565,-11843.295072,459.657299
630.395726,-148.041188,-10362.883188,0.000000
630.396050,0.000000,-8734.430116,459.657299
630.396374,962.267725,-9030.512492,-306.438199
630.396698,1258.350101,-9696.697840,-612.876398
630.397022,1776.494261,-9992.780217,-229.828649
630.397346,1480.411884,-9770.718434,766.095498
630.397671,592.164754,-9770.718434,689.485948
630.397995,-370.102971,-9474.636058,0.000000
630.398319,-1628.453072,-8586.388927,-1072.533697
630.398643,-1110.308913,-8438.347739,-1838.629195
630.398967,-666.185348,-9400.615463,-842.705048
630.399291,-296.082377,-9918.759623,536.266849
630.399615,962.267725,-9474.636058,536.266849
630.399939,1406.391290,-9400.615463,766.095498
630.400263,1036.288319,-8512.368333,383.047749
630.400587,370.102971,-8364.327145,-459.657299
630.400911,-518.144159,-8882.471304,-153.219100
630.401235,-1036.288319,-9696.697840,459.657299
630.401559,-518.144159,-10288.862594,612.876398
630.401883,-888.247130,-10436.903782,-153.219100
630.402207,-1554.432478,-8956.491898,0.000000
630.402531,-1554.432478,-8734.430116,-842.705048
630.402855,-2220.617826,-9474.636058,-1608.800546
630.403179,-2220.617826,-9696.697840,-766.095498
630.403503,-1110.308913,-8586.388927,-612.876398
630.403827,592.164754,-8290.306550,-536.266849
630.404151,1924.535449,-8808.450710,-536.266849
630.404475,2072.576638,-9326.594869,153.219100
630.404800,1480.411884,-10732.986159,0.000000
630.405124,0.000000,-11029.068536,153.219100
630.405448,-592.164754,-10288.862594,-689.485948
630.405772,-444.123565,-9474.636058,0.000000
630.406096,740.205942,-10807.006753,229.828649
630.406420,1776.494261,-11843.295072,76.609550
630.406744,2294.638420,-10658.965565,-229.828649
630.407068,1110.308913,-9770.718434,-612.876398
630.407392,-444.123565,-9992.780217,-306.438199
630.407716,-888.247130,-10658.965565,-995.924147
630.408040,-1998.556043,-11547.212695,-1225.752797
630.408364,-3552.988522,-10288.862594,-1225.752797
630.408688,-3256.906145,-9252.574275,-1762.019645
630.409012,-1628.453072,-9918.759623,-2068.457845
630.409336,0.000000,-10955.047942,-1532.190996
630.409660,1258.350101,-10140.821405,-383.047749
630.409984,1110.308913,-9474.636058,0.000000
630.410308,592.164754,-10140.821405,-919.314598
630.410632,-296.082377,-10510.924376,-689.485948
630.410956,-888.247130,-11103.089130,-766.095498
630.411280,-1110.308913,-10584.944971,-536.266849
630.411604,-370.102971,-9844.739029,0.000000
630.411928,1702.473667,-9770.718434,1302.362347
630.412253,2664.741391,-10066.800811,842.705048
630.412577,1184.329507,-9474.636058,153.219100
630.412901,222.061783,-8438.347739,-306.438199
630.413225,74.020594,-9104.533087,-766.095498
630.413549,518.144159,-9474.636058,-1225.752797
630.413873,-296.082377,-10066.800811,-459.657299
630.414197,-1480.411884,-9992.780217,0.000000
630.414521,-1184.329507,-9622.677246,-383.047749
630.414845,-666.185348,-9474.636058,-383.047749
630.415169,-444.123565,-9030.512492,153.219100
630.415493,-296.082377,-9252.574275,306.438199
630.415817,-148.041188,-8734.430116,689.485948
630.416141,666.185348,-8438.347739,1225.752797
630.416465,962.267725,-9252.574275,2374.896044
630.416789,1036.288319,-9474.636058,2528.115143
630.417113,814.226536,-8364.327145,919.314598
630.417437,-148.041188,-7328.038826,919.314598
630.417761,-814.226536,-7254.018232,383.047749
630.418085,-1184.329507,-8438.347739,153.219100
630.418409,-888.247130,-9326.594869,612.876398
630.418733,0.000000,-8808.450710,689.485948
630.419057,1628.453072,-7994.224174,842.705048
630.419382,2220.617826,-7624.121203,459.657299
630.419706,1406.391290,-8142.265362,306.438199
630.420030,0.000000,-9252.574275,383.047749
630.420354,-592.164754,-9918.759623,-459.657299
630.420678,-1258.350101,-10066.800811,306.438199
630.421002,-1110.308913,-10881.027347,842.705048
630.421326,-740.205942,-10288.862594,0.000000
630.421650,0.000000,-11029.068536,229.828649
630.421974,148.041188,-10955.047942,0.000000
630.422298,666.185348,-10955.047942,-459.657299
630.422622,1924.535449,-11473.192101,-306.438199
630.422946,1776.494261,-11547.212695,842.705048
630.423270,1554.432478,-12065.356855,76.609550
630.423594,666.185348,-11325.150913,-229.828649
630.423918,-592.164754,-10214.842000,-306.438199
630.424242,-1258.350101,-11325.150913,306.438199
630.424566,-222.061783,-11399.171507,-919.314598
630.424890,370.102971,-10362.883188,0.000000
630.425214,296.082377,-8734.430116,459.657299
630.425538,0.000000,-7994.224174,-459.657299
630.425862,-592.164754,-8956.491898,-306.438199
630.426186,-1184.329507,-10140.821405,0.000000
630.426510,-1702.473667,-9030.512492,-383.047749
630.426835,-2072.576638,-8142.265362,0.000000
630.427159,-1036.288319,-7846.182985,0.000000
630.427483,-444.123565,-9030.512492,-383.047749
630.427807,-592.164754,-10066.800811,-229.828649
630.428131,-148.041188,-9400.615463,-536.266849
630.428455,370.102971,-8512.368333,-689.485948
630.428779,666.185348,-8956.491898,0.000000
630.429103,740.205942,-10140.821405,1302.362347
630.429427,1036.288319,-10807.006753,766.095498
630.429751,296.082377,-11029.068536,153.219100
630.430075,-962.267725,-10140.821405,-153.219100
630.430399,-1184.329507,-8512.368333,-919.314598
630.430723,-666.185348,-9252.574275,-459.657299
630.431047,148.041188,-10214.842000,-153.219100
630.431371,-370.102971,-9622.677246,76.609550
630.431695,-814.226536,-8512.368333,-766.095498
630.432019,-740.205942,-8290.306550,-842.705048
630.432343,0.000000,-8808.450710,-1149.143247
630.432667,740.205942,-7846.182985,-536.266849
630.432991,0.000000,-8290.306550,76.609550
630.433315,-666.185348,-9178.553681,0.000000
630.433639,-1110.308913,-9326.594869,-459.657299
630.433963,-962.267725,-9252.574275,-842.705048
630.434288,-666.185348,-8882.471304,-612.876398
630.434612,444.123565,-9474.636058,76.609550
630.434936,1036.288319,-9696.697840,-383.047749
630.435260,1776.494261,-10362.883188,383.047749
630.435584,1480.411884,-10732.986159,919.314598
630.435908,1184.329507,-11177.109724,612.876398
630.436232,592.164754,-10807.006753,-383.047749
630.436556,-444.123565,-9548.656652,-1302.362347
630.436880,-666.185348,-9400.615463,-1302.362347
630.437204,0.000000,-10510.924376,-1685.410096
630.437528,962.267725,-11177.109724,-689.485948
630.437852,1480.411884,-10362.883188,0.000000
630.438176,1184.329507,-10436.903782,612.876398
630.438500,296.082377,-11177.109724,-229.828649
630.438824,222.061783,-10140.821405,-766.095498
630.439148,-296.082377,-9696.697840,76.609550
630.439472,-296.082377,-10362.883188,-383.047749
630.439796,-666.185348,-10066.800811,-153.219100
630.440120,-1480.411884,-9844.739029,-153.219100
630.440444,-740.205942,-9622.677246,229.828649
630.440768,-444.123565,-9918.759623,-612.876398
630.441092,-296.082377,-10214.842000,-689.485948
630.441417,-444.123565,-9992.780217,-842.705048
630.441741,-370.102971,-9770.718434,-1685.410096
630.442065,-888.247130,-9326.594869,-1378.971896
630.442389,-518.144159,-9474.636058,-383.047749
630.442713,592.164754,-10066.800811,-153.219100
630.443040,666.185348,-10881.027347,459.657299
630.443364,-222.061783,-11843.295072,76.609550
630.443688,-1628.453072,-9844.739029,0.000000
630.444012,-1924.535449,-8956.491898,0.000000
630.444337,-2294.638420,-9622.677246,766.095498
630.444661,-1406.391290,-10214.842000,229.828649
630.444985,-148.041188,-9622.677246,229.828649
630.445309,370.102971,-8586.388927,459.657299
630.445634,1480.411884,-8364.327145,612.876398
630.445958,1480.411884,-9030.512492,766.095498
630.446282,814.226536,-9326.594869,612.876398
630.446607,-222.061783,-7772.162391,-459.657299
630.446931,-1184.329507,-6365.771101,-1302.362347
630.447255,-1184.329507,-7105.977043,-842.705048
630.447579,592.164754,-9696.697840,842.705048
630.447904,1776.494261,-10066.800811,1072.533697
630.448228,1850.514855,-7846.182985,995.924147
630.448552,740.205942,-6661.853478,689.485948
630.448876,-814.226536,-8512.368333,153.219100
630.449201,-2146.597232,-9770.718434,536.266849
630.449525,-1258.350101,-9326.594869,612.876398
630.449849,0.000000,-8142.265362,1302.362347
630.450174,1184.329507,-8956.491898,1225.752797
630.450498,1406.391290,-9622.677246,229.828649
630.450822,740.205942,-10066.800811,0.000000
630.451146,296.082377,-9992.780217,-1378.971896
630.451471,0.000000,-10362.883188,-1455.581446
630.451795,370.102971,-11177.109724,153.219100
630.452119,1184.329507,-11399.171507,-459.657299
630.452443,1628.453072,-11251.130318,-459.657299
630.452768,592.164754,-11325.150913,-383.047749
630.453092,74.020594,-11991.336260,-383.047749
630.453416,370.102971,-12583.501014,-919.314598
630.453740,222.061783,-12065.356855,689.485948
630.454065,1036.288319,-9918.759623,76.609550
630.454389,148.041188,-8956.491898,-383.047749
630.454713,-148.041188,-9918.759623,612.876398
630.455038,-370.102971,-10436.903782,-689.485948
630.455362,296.082377,-10510.924376,-689.485948
630.455686,444.123565,-9548.656652,-153.219100
630.456010,0.000000,-8512.368333,-153.219100
630.456335,-740.205942,-9400.615463,-1072.533697
630.456659,-1776.494261,-9770.718434,-1378.971896
630.456983,-1850.514855,-10140.821405,-1149.143247
630.457307,-962.267725,-10584.944971,-766.095498
630.457632,444.123565,-9400.615463,-306.438199
630.457956,1480.411884,-8956.491898,919.314598
630.458280,1184.329507,-9918.759623,1072.533697
630.458605,518.144159,-9326.594869,612.876398
630.458929,-370.102971,-7994.224174,0.000000
630.459253,-1480.411884,-7772.162391,-76.609550
630.459577,-1332.370696,-8142.265362,-229.828649
630.459902,-740.205942,-9548.656652,383.047749
630.460226,0.000000,-9918.759623,1302.362347
630.460550,148.041188,-8956.491898,842.705048
630.460874,-370.102971,-7476.080014,-612.876398
630.461199,-1332.370696,-7476.080014,-689.485948
630.461523,-1480.411884,-9474.636058,-919.314598
630.461847,-592.164754,-9770.718434,-1532.190996
630.462172,0.000000,-8734.430116,-459.657299
630.462496,-222.061783,-9104.533087,-459.657299
630.462820,-592.164754,-10510.924376,-383.047749
630.463144,-148.041188,-10362.883188,-612.876398
630.463469,148.041188,-9548.656652,-536.266849
630.463793,444.123565,-9326.594869,459.657299
630.464117,1406.391290,-10362.883188,536.266849
630.464441,1480.411884,-11843.295072,1455.581446
630.464766,1258.350101,-10955.047942,1072.533697
630.465090,1184.329507,-9252.574275,383.047749
630.465414,296.082377,-8956.491898,-306.438199
630.465738,-1258.350101,-10362.883188,-1149.143247
630.466063,-1702.473667,-10362.883188,-842.705048
630.466387,-2146.597232,-9548.656652,-459.657299
630.466711,-1776.494261,-9770.718434,-766.095498
630.467036,-1110.308913,-9696.697840,-1149.143247
630.467360,-370.102971,-10140.821405,-1225.752797
630.467684,222.061783,-10658.965565,-536.266849
630.468008,888.247130,-10732.986159,-612.876398
630.468333,1628.453072,-9918.759623,536.266849
630.468657,2664.741391,-10066.800811,1532.190996
630.468981,2146.597232,-11177.109724,1149.143247
630.469305,1480.411884,-10436.903782,306.438199
630.469630,592.164754,-9696.697840,0.000000
630.469954,148.041188,-10362.883188,459.657299
630.470278,666.185348,-11399.171507,536.266849
630.470603,518.144159,-10807.006753,612.876398
630.470927,0.000000,-8660.409521,383.047749
630.471251,-888.247130,-7772.162391,-306.438199
630.471575,-1480.411884,-8956.491898,-1302.362347
630.471900,-1850.514855,-9844.739029,-536.266849
630.472224,-2442.679609,-9992.780217,306.438199
630.472548,-2442.679609,-8660.409521,76.609550
630.472872,-2368.659014,-7550.100608,76.609550
630.473197,-1480.411884,-7254.018232,76.609550
630.473521,74.020594,-8290.306550,229.828649
630.473845,1554.432478,-8808.450710,689.485948
630.474170,2294.638420,-9178.553681,536.266849
630.474494,2146.597232,-8586.388927,1532.190996
630.474818,1702.473667,-9030.512492,995.924147
630.475142,74.020594,-10584.944971,689.485948
630.475467,-444.123565,-11177.109724,612.876398
630.475791,-444.123565,-10066.800811,919.314598
630.476115,-814.226536,-9178.553681,-229.828649
630.476439,-592.164754,-9400.615463,0.000000
630.476764,296.082377,-9474.636058,-766.095498
630.477088,1036.288319,-9548.656652,-995.924147
630.477412,518.144159,-9326.594869,-612.876398
630.477736,0.000000,-9104.533087,-689.485948
630.478061,-1036.288319,-9178.553681,-919.314598
630.478385,-1924.535449,-9252.574275,-689.485948
630.478709,-1110.308913,-9622.677246,-306.438199
630.479034,-148.041188,-10288.862594,76.609550
630.479358,740.205942,-11325.150913,919.314598
630.479682,592.164754,-11103.089130,383.047749
630.480006,0.000000,-9918.759623,-229.828649
630.480331,-1036.288319,-9474.636058,-689.485948
630.480655,-592.164754,-9474.636058,-1378.971896
630.480979,0.000000,-9992.780217,-919.314598
630.481303,1036.288319,-9400.615463,-229.828649
630.481628,1628.453072,-9696.697840,-536.266849
630.481952,0.000000,-10140.821405,-1378.971896
630.482276,-962.267725,-10140.821405,-1072.533697
630.482601,0.000000,-10288.862594,-1149.143247
630.482925,666.185348,-11177.109724,-153.219100
630.483249,1628.453072,-9622.677246,0.000000
630.483573,1480.411884,-9622.677246,306.438199
630.483898,666.185348,-10362.883188,-229.828649
630.484222,592.164754,-11325.150913,-536.266849
630.484546,-518.144159,-11029.068536,153.219100
630.484870,-1406.391290,-9844.739029,-459.657299
630.485195,-2368.659014,-9030.512492,-689.485948
630.485519,-1480.411884,-8956.491898,-612.876398
630.485843,-444.123565,-9622.677246,0.000000
630.486168,666.185348,-11177.109724,153.219100
630.486492,1036.288319,-9622.677246,76.609550
630.486816,1406.391290,-8586.388927,383.047749
630.487140,1406.391290,-8882.471304,76.609550
630.487465,1110.308913,-9474.636058,229.828649
630.487789,0.000000,-10140.821405,612.876398
630.488113,-1184.329507,-9844.739029,0.000000
630.488437,-1036.288319,-8660.409521,229.828649
630.488762,-1924.535449,-7772.162391,0.000000
630.489086,-1480.411884,-8142.265362,-536.266849
630.489410,-518.144159,-8956.491898,459.657299
630.489734,222.061783,-8586.388927,612.876398
630.490059,444.123565,-8290.306550,306.438199
630.490383,-370.102971,-8216.285956,919.314598
630.490707,-370.102971,-9104.533087,229.828649
630.491032,-518.144159,-10140.821405,0.000000
630.491356,-740.205942,-10436.903782,-1225.752797
630.491680,-592.164754,-9548.656652,-383.047749
630.492004,0.000000,-10510.924376,0.000000
630.492329,148.041188,-11399.171507,229.828649
630.492653,296.082377,-11029.068536,995.924147
630.492977,592.164754,-9992.780217,-383.047749
630.493301,-148.041188,-9696.697840,-612.876398
630.493626,-1036.288319,-10362.883188,-459.657299
630.493950,-666.185348,-10658.965565,0.000000
630.494274,-1406.391290,-10510.924376,536.266849
630.494599,-1258.350101,-9770.718434,0.000000
630.494923,-1258.350101,-9474.636058,-612.876398
630.495247,-1406.391290,-9844.739029,-536.266849
630.495571,0.000000,-9548.656652,-612.876398
630.495896,1776.494261,-8956.491898,-229.828649
630.496220,2886.803174,-8808.450710,-766.095498
630.496544,3256.906145,-8290.306550,0.000000
630.496868,2960.823768,-9844.739029,76.609550
630.497193,2072.576638,-10510.924376,-306.438199
630.497517,296.082377,-10140.821405,0.000000
630.497841,-666.185348,-10066.800811,0.000000
630.498165,0.000000,-10214.842000,76.609550
630.498490,1036.288319,-11473.192101,1532.190996
630.498814,1110.308913,-10807.006753,919.314598
630.499138,1258.350101,-9326.594869,1072.533697
630.499463,0.000000,-9548.656652,153.219100
630.499787,-666.185348,-10584.944971,842.705048
630.500111,-148.041188,-11029.068536,919.314598
630.500435,0.000000,-9178.553681,0.000000
630.500760,-962.267725,-7994.224174,536.266849
630.501084,-1776.494261,-8290.306550,-612.876398
630.501408,-1554.432478,-9474.636058,-842.705048
630.501732,-1258.350101,-8512.368333,459.657299
630.502057,0.000000,-8438.347739,459.657299
630.502381,592.164754,-8290.306550,995.924147
630.502705,592.164754,-8364.327145,919.314598
630.503030,518.144159,-9252.574275,1302.362347
630.503354,518.144159,-9474.636058,689.485948
630.503678,74.020594,-8660.409521,689.485948
630.504002,74.020594,-8956.491898,1455.581446
630.504327,0.000000,-9474.636058,459.657299
630.504651,0.000000,-9622.677246,612.876398
630.504975,-370.102971,-9030.512492,76.609550
630.505299,-592.164754,-9326.594869,-306.438199
630.505624,-666.185348,-10066.800811,-383.047749
630.505948,-74.020594,-11251.130318,536.266849
630.506272,222.061783,-11251.130318,-383.047749
630.506597,-74.020594,-9696.697840,-919.314598
630.506921,-962.267725,-10066.800811,-995.924147
630.507245,-1480.411884,-11843.295072,-995.924147
630.507569,-962.267725,-13027.624579,-1149.143247
630.507894,-592.164754,-11917.315666,0.000000
630.508218,592.164754,-9622.677246,76.609550
630.508542,814.226536,-9622.677246,-536.266849
630.508866,518.144159,-10140.821405,-1149.143247
630.509191,0.000000,-10066.800811,-459.657299
630.509515,518.144159,-9622.677246,0.000000
630.509839,370.102971,-9326.594869,306.438199
630.510163,-296.082377,-8512.368333,-306.438199
630.510488,-370.102971,-8364.327145,-919.314598
630.510812,0.000000,-8808.450710,-995.924147
630.511136,-148.041188,-9252.574275,-1762.019645
630.511461,0.000000,-9548.656652,-995.924147
630.511785,0.000000,-9622.677246,-766.095498
630.512109,592.164754,-9252.574275,-306.438199
630.512433,1628.453072,-9474.636058,-383.047749
630.512758,1036.288319,-9770.718434,-1532.190996
630.513082,-592.164754,-10140.821405,-1378.971896
630.513406,-814.226536,-10658.965565,-1838.629195
630.513730,222.061783,-11621.233289,0.000000
630.514055,814.226536,-10510.924376,0.000000
630.514379,518.144159,-8808.450710,-306.438199
630.514703,148.041188,-9474.636058,-153.219100
630.515028,444.123565,-11029.068536,-536.266849
630.515352,296.082377,-11695.253884,0.000000
630.515676,0.000000,-10214.842000,-383.047749
630.516000,-740.205942,-8660.409521,0.000000
630.516325,-296.082377,-9178.553681,-229.828649
630.516649,148.041188,-9622.677246,-229.828649
630.516973,444.123565,-10955.047942,153.219100
630.517297,1184.329507,-10732.986159,1149.143247
630.517622,888.247130,-9030.512492,459.657299
630.517946,-148.041188,-7772.162391,153.219100
630.518270,-1776.494261,-8216.285956,459.657299
630.518595,-1406.391290,-9400.615463,229.828649
630.518919,-592.164754,-8882.471304,383.047749
630.519243,148.041188,-8438.347739,1608.800546
630.519567,518.144159,-8068.244768,995.924147
630.519892,888.247130,-8290.306550,612.876398
630.520216,222.061783,-9474.636058,536.266849
630.520540,-740.205942,-9474.636058,612.876398
630.520864,-1406.391290,-9770.718434,76.609550
630.521189,-1998.556043,-10658.965565,919.314598
630.521513,-666.185348,-10510.924376,1378.971896
630.521837,962.267725,-10066.800811,383.047749
630.522161,1184.329507,-9844.739029,536.266849
630.522486,518.144159,-10214.842000,-229.828649
630.522810,-518.144159,-10807.006753,-459.657299
630.523134,-222.061783,-10658.965565,-612.876398
630.523459,-518.144159,-10214.842000,76.609550
630.523783,222.061783,-9548.656652,0.000000
630.524107,444.123565,-9992.780217,-306.438199
630.524431,-518.144159,-10732.986159,-383.047749
630.524756,-1184.329507,-10362.883188,-995.924147
630.525080,-666.185348,-9622.677246,-689.485948
630.525404,-222.061783,-9474.636058,76.609550
630.525728,74.020594,-9770.718434,153.219100
630.526053,-814.226536,-9844.739029,306.438199
630.526377,-2442.679609,-9400.615463,0.000000
630.526701,-2220.617826,-9030.512492,-1072.533697
630.527026,-1702.473667,-9992.780217,-1072.533697
630.527350,0.000000,-9696.697840,-842.705048
630.527674,1702.473667,-9918.759623,-229.828649
630.527998,2590.720797,-9400.615463,0.000000
630.528323,2960.823768,-8956.491898,306.438199
630.528647,2220.617826,-9770.718434,76.609550
630.528971,1480.411884,-10066.800811,-612.876398
630.529295,1332.370696,-9696.697840,-842.705048
630.529620,1406.391290,-8586.388927,-842.705048
630.529944,962.267725,-8586.388927,-766.095498
630.530268,-666.185348,-9992.780217,-153.219100
630.530593,-1776.494261,-10584.944971,0.000000
630.530917,-1554.432478,-9252.574275,-383.047749
630.531241,-1554.432478,-7994.224174,-612.876398
630.531565,-962.267725,-8882.471304,383.047749
630.531890,-296.082377,-9548.656652,0.000000
630.532214,666.185348,-10362.883188,229.828649
630.532538,74.020594,-9770.718434,536.266849
630.532862,74.020594,-9326.594869,383.047749
630.533187,592.164754,-8438.347739,-229.828649
630.533511,148.041188,-8882.471304,-689.485948
630.533835,-592.164754,-9696.697840,153.219100
630.534159,296.082377,-10732.986159,76.609550
630.534484,518.144159,-11029.068536,76.609550
630.534808,666.185348,-9770.718434,766.095498
630.535132,370.102971,-9030.512492,842.705048
630.535457,74.020594,-9844.739029,76.609550
630.535781,-1110.308913,-10214.842000,383.047749
630.536105,-1554.432478,-9474.636058,0.000000
630.536429,-814.226536,-9622.677246,612.876398
630.536754,-444.123565,-10436.903782,1225.752797
630.537078,-222.061783,-10584.944971,612.876398
630.537402,370.102971,-9622.677246,536.266849
630.537726,962.267725,-9696.697840,383.047749
630.538051,1184.329507,-9844.739029,-536.266849
630.538375,666.185348,-9252.574275,0.000000
630.538699,370.102971,-9400.615463,459.657299
630.539024,1184.329507,-9992.780217,459.657299
630.539348,740.205942,-10288.862594,689.485948
630.539672,-370.102971,-10066.800811,842.705048
630.539996,-1480.411884,-9474.636058,459.657299
630.540321,-1628.453072,-9474.636058,153.219100
630.540645,-962.267725,-8290.306550,0.000000
630.540969,-296.082377,-8364.327145,1378.971896
630.541293,0.000000,-9474.636058,612.876398
630.541618,444.123565,-8586.388927,306.438199
630.541942,592.164754,-7476.080014,0.000000
630.542266,518.144159,-7994.224174,0.000000
630.542591,444.123565,-9326.594869,-1302.362347
630.542915,-444.123565,-9252.574275,-919.314598
630.543239,0.000000,-9178.553681,0.000000
630.543563,962.267725,-9400.615463,-306.438199
630.543887,740.205942,-9844.739029,-766.095498
630.544211,0.000000,-9622.677246,-919.314598
630.544536,444.123565,-10658.965565,-153.219100
630.544860,1036.288319,-11325.150913,-459.657299
630.545184,370.102971,-10955.047942,-229.828649
630.545508,-962.267725,-10584.944971,-229.828649
630.545832,-1480.411884,-9992.780217,-995.924147
630.546156,-1258.350101,-10584.944971,-1302.362347
630.546480,-1332.370696,-10955.047942,-766.095498
630.546805,-1184.329507,-10510.924376,-153.219100
630.547129,-370.102971,-10362.883188,-383.047749
630.547453,0.000000,-9770.718434,-766.095498
630.547777,0.000000,-9992.780217,-919.314598
630.548101,-222.061783,-9622.677246,-919.314598
630.548425,222.061783,-9622.677246,-1072.533697
630.548749,370.102971,-10214.842000,229.828649
630.549073,296.082377,-9844.739029,0.000000
630.549398,-814.226536,-8808.450710,-536.266849
630.549722,-1924.535449,-8438.347739,-459.657299
630.550046,-814.226536,-8734.430116,-383.047749
630.550370,1036.288319,-8956.491898,-306.438199
630.550694,1036.288319,-9030.512492,536.266849
630.551018,296.082377,-7846.182985,689.485948
630.551342,592.164754,-8068.244768,612.876398
630.551667,222.061783,-9548.656652,153.219100
630.551991,-814.226536,-9474.636058,153.219100
630.552315,-1554.432478,-10214.842000,0.000000
630.552639,-1776.494261,-10732.986159,0.000000
630.552963,-666.185348,-10362.883188,0.000000
630.553287,222.061783,-9770.718434,76.609550
630.553611,666.185348,-9992.780217,0.000000
630.553936,1184.329507,-10658.965565,229.828649
630.554260,592.164754,-9918.759623,229.828649
630.554584,444.123565,-9696.697840,0.000000
630.554908,0.000000,-9992.780217,0.000000
630.555232,0.000000,-9844.739029,-229.828649
630.555556,0.000000,-10066.800811,306.438199
630.555880,-592.164754,-9770.718434,-383.047749
630.556204,-1184.329507,-9474.636058,-689.485948
630.556529,-1332.370696,-10214.842000,0.000000
630.556853,0.000000,-10881.027347,0.000000
630.557177,1258.350101,-9844.739029,0.000000
630.557501,1480.411884,-9030.512492,0.000000
630.557825,1850.514855,-8438.347739,306.438199
630.558149,1850.514855,-9178.553681,76.609550
630.558473,1184.329507,-10140.821405,383.047749
630.558798,296.082377,-9474.636058,0.000000
630.559122,0.000000,-8660.409521,0.000000
630.559446,-962.267725,-9474.636058,76.609550
630.559770,-888.247130,-10510.924376,-383.047749
630.560094,-666.185348,-10362.883188,-612.876398
630.560418,444.123565,-9252.574275,-153.219100
630.560742,888.247130,-9030.512492,-383.047749
630.561067,148.041188,-9474.636058,-153.219100
630.561391,74.020594,-9622.677246,383.047749
630.561715,0.000000,-10214.842000,229.828649
630.562039,0.000000,-10288.862594,306.438199
630.562363,-740.205942,-8290.306550,-919.314598
630.562687,-1406.391290,-7328.038826,-1455.581446
630.563011,-1184.329507,-8734.430116,-229.828649
630.563335,1184.329507,-9622.677246,306.438199
630.563660,1776.494261,-9548.656652,383.047749
630.563984,148.041188,-9030.512492,383.047749
630.564308,-1332.370696,-8438.347739,-459.657299
630.564632,-1554.432478,-9918.759623,-383.047749
630.564956,-2072.576638,-9918.759623,-383.047749
630.565280,-2294.638420,-9104.533087,0.000000
630.565604,-1480.411884,-9770.718434,919.314598
630.565929,-444.123565,-10362.883188,-459.657299
630.566253,0.000000,-10584.944971,842.705048
630.566577,0.000000,-9844.739029,536.266849
630.566901,222.061783,-9770.718434,459.657299
630.567225,-296.082377,-10955.047942,306.438199
630.567549,-1110.308913,-10584.944971,153.219100
630.567873,-666.185348,-10140.821405,1149.143247
630.568198,74.020594,-11103.089130,1072.533697
630.568522,518.144159,-10658.965565,919.314598
630.568846,-444.123565,-10732.986159,383.047749
630.569170,-592.164754,-10436.903782,689.485948
630.569494,0.000000,-9474.636058,153.219100
630.569818,666.185348,-8808.450710,689.485948
630.570142,962.267725,-7994.224174,0.000000
630.570466,1110.308913,-8438.347739,0.000000
630.570791,740.205942,-9252.574275,919.314598
630.571115,74.020594,-8882.471304,1072.533697
630.571439,74.020594,-7550.100608,919.314598
630.571763,-814.226536,-8438.347739,383.047749
630.572087,-1036.288319,-9178.553681,766.095498
630.572411,-296.082377,-9622.677246,383.047749
630.572735,962.267725,-8216.285956,459.657299
630.573060,1332.370696,-7772.162391,0.000000
630.573384,1110.308913,-9548.656652,612.876398
630.573708,1998.556043,-10658.965565,0.000000
630.574032,2146.597232,-9844.739029,229.828649
630.574356,1110.308913,-9400.615463,76.609550
630.574680,74.020594,-9918.759623,-536.266849
630.575004,-814.226536,-10658.965565,-919.314598
630.575329,148.041188,-11695.253884,76.609550
630.575653,740.205942,-12139.377449,306.438199
630.575977,1998.556043,-11843.295072,-766.095498
630.576301,1406.391290,-10214.842000,-995.924147
630.576625,222.061783,-9992.780217,-383.047749
630.576949,370.102971,-10510.924376,-1378.971896
630.577273,-444.123565,-10214.842000,-459.657299
630.577597,-2072.576638,-9400.615463,-536.266849
630.577922,-2072.576638,-9030.512492,-1991.848295
630.578246,-2072.576638,-8586.388927,-1225.752797
630.578570,0.000000,-9548.656652,-766.095498
630.578894,814.226536,-9696.697840,-536.266849
630.579218,1258.350101,-9178.553681,-689.485948
630.579542,1036.288319,-9178.553681,-153.219100
630.579866,518.144159,-9844.739029,-689.485948
630.580191,518.144159,-9178.553681,-842.705048
630.580515,0.000000,-8586.388927,-459.657299
630.580839,-222.061783,-10140.821405,0.000000
630.581163,-1036.288319,-11177.109724,-612.876398
630.581487,-1924.535449,-10362.883188,-459.657299
630.581811,-2738.761985,-9178.553681,-306.438199
630.582135,-2072.576638,-7920.203579,-842.705048
630.582460,-222.061783,-9622.677246,0.000000
630.582784,-222.061783,-10288.862594,383.047749
630.583108,-814.226536,-10214.842000,-153.219100
630.583432,-1480.411884,-8956.491898,-229.828649
630.583756,-1850.514855,-9178.553681,76.609550
630.584080,-1628.453072,-10732.986159,689.485948
630.584404,-1406.391290,-11103.089130,306.438199
630.584728,-962.267725,-9252.574275,536.266849
630.585053,666.185348,-8956.491898,766.095498
630.585377,1110.308913,-9326.594869,76.609550
630.585701,296.082377,-9622.677246,306.438199
630.586025,-296.082377,-9474.636058,536.266849
630.586349,-592.164754,-8586.388927,76.609550
630.586673,-1110.308913,-7920.203579,76.609550
630.586997,-1776.494261,-8142.265362,-153.219100
630.587322,-1628.453072,-8438.347739,-536.266849
630.587646,-518.144159,-9326.594869,76.609550
630.587970,666.185348,-8808.450710,459.657299
630.588294,1628.453072,-8956.491898,689.485948
630.588618,1332.370696,-9474.636058,612.876398
630.588942,666.185348,-9474.636058,383.047749
630.589266,814.226536,-9992.780217,229.828649
630.589591,1332.370696,-11177.109724,689.485948
630.589915,2294.638420,-11325.150913,229.828649
630.590239,1332.370696,-10955.047942,0.000000
630.590563,1036.288319,-10288.862594,-536.266849
630.590887,1110.308913,-10658.965565,-995.924147
630.591211,740.205942,-11473.192101,-689.485948
630.591535,1332.370696,-11399.171507,-1762.019645
630.591859,740.205942,-9696.697840,-612.876398
630.592184,592.164754,-9104.533087,-1455.581446
630.592508,74.020594,-10362.883188,-842.705048
630.592832,-518.144159,-10732.986159,-766.095498
630.593156,0.000000,-11029.068536,0.000000
630.593480,740.205942,-10881.027347,306.438199
630.593804,888.247130,-10066.800811,0.000000
630.594128,740.205942,-9548.656652,229.828649
630.594453,1110.308913,-9696.697840,459.657299
630.594777,1628.453072,-9992.780217,-1072.533697
630.595101,222.061783,-9178.553681,-459.657299
630.595425,-740.205942,-8142.265362,-919.314598
630.595749,296.082377,-7994.224174,-536.266849
630.596073,1406.391290,-8586.388927,306.438199
630.596397,1628.453072,-8808.450710,306.438199
630.596722,-370.102971,-9400.615463,459.657299
630.597046,-2220.617826,-10510.924376,-383.047749
630.597370,-2590.720797,-9696.697840,-153.219100
630.597694,-2146.597232,-10140.821405,153.219100
630.598018,-1184.329507,-10066.800811,306.438199
630.598342,-1036.288319,-10214.842000,536.266849
630.598666,-888.247130,-10732.986159,459.657299
630.598990,74.020594,-9770.718434,1455.581446
630.599315,666.185348,-10362.883188,1455.581446
630.599639,814.226536,-9844.739029,1378.971896
630.599963,518.144159,-9622.677246,1455.581446
630.600287,-592.164754,-9104.533087,383.047749
630.600611,-592.164754,-8512.368333,383.047749
630.600935,-592.164754,-9770.718434,1378.971896
630.601259,-592.164754,-9992.780217,1532.190996
630.601584,0.000000,-8808.450710,306.438199
630.601908,-2294.638420,-7105.977043,995.924147
630.602232,-1998.556043,-6217.729913,-153.219100
630.602556,-2146.597232,-6957.935855,-842.705048
630.602880,-2368.659014,-8364.327145,459.657299
630.603204,-1036.288319,-8660.409521,1455.581446
630.603528,740.205942,-7698.141797,1302.362347
630.603853,2294.638420,-6957.935855,1302.362347
630.604177,2442.679609,-7476.080014,1225.752797
630.604501,2072.576638,-9770.718434,842.705048
630.604825,1184.329507,-9844.739029,-153.219100
630.605149,296.082377,-9474.636058,459.657299
630.605473,592.164754,-10732.986159,1072.533697
630.605797,1110.308913,-11917.315666,153.219100
630.606121,592.164754,-11843.295072,-612.876398
630.606446,-814.226536,-10955.047942,-689.485948
630.606770,-370.102971,-11547.212695,-1149.143247
630.607094,-444.123565,-12435.459826,-1838.629195
630.607418,-1332.370696,-11991.336260,-536.266849
630.607742,-962.267725,-11325.150913,-689.485948
630.608066,-222.061783,-11399.171507,-919.314598
630.608390,814.226536,-11621.233289,-766.095498
630.608715,1332.370696,-11547.212695,-689.485948
630.609039,1184.329507,-10732.986159,-612.876398
630.609363,1036.288319,-10288.862594,-612.876398
630.609687,518.144159,-10214.842000,-536.266849
630.610011,740.205942,-9992.780217,0.000000
630.610335,444.123565,-9696.697840,-1225.752797
630.610659,-888.247130,-8882.471304,-1378.971896
630.610984,-518.144159,-8142.265362,-1455.581446
630.611308,592.164754,-8364.327145,-459.657299
630.611632,1480.411884,-9326.594869,-842.705048
630.611956,592.164754,-8364.327145,-1225.752797
630.612280,296.082377,-8438.347739,-842.705048
630.612604,296.082377,-9474.636058,-919.314598
630.612928,148.041188,-10362.883188,-459.657299
630.613252,-666.185348,-10140.821405,-842.705048
630.613577,-2368.659014,-9696.697840,-612.876398
630.613901,-2294.638420,-9474.636058,-766.095498
630.614225,-1110.308913,-10288.862594,-612.876398
630.614549,1332.370696,-10066.800811,612.876398
630.614873,1406.391290,-9030.512492,-536.266849
630.615197,592.164754,-9104.533087,0.000000
630.615521,0.000000,-9992.780217,612.876398
630.615846,74.020594,-10362.883188,0.000000
630.616170,-740.205942,-9252.574275,0.000000
630.616494,-2368.659014,-7920.203579,-306.438199
630.616818,-3478.967927,-8586.388927,-1072.533697
630.617142,-2590.720797,-8808.450710,-919.314598
630.617466,-962.267725,-7402.059420,-306.438199
630.617790,0.000000,-7105.977043,383.047749
630.618115,444.123565,-8142.265362,536.266849
630.618439,148.041188,-8956.491898,459.657299
630.618763,518.144159,-8734.430116,459.657299
630.619087,1480.411884,-7698.141797,0.000000
630.619411,1554.432478,-8882.471304,383.047749
630.619735,1184.329507,-10658.965565,689.485948
630.620059,1258.350101,-11843.295072,1378.971896
630.620383,1924.535449,-11325.150913,995.924147
630.620708,2368.659014,-10955.047942,459.657299
630.621032,1554.432478,-11177.109724,0.000000
630.621356,518.144159,-11621.233289,229.828649
630.621680,-148.041188,-11917.315666,-842.705048
630.622004,-1110.308913,-10584.944971,-689.485948
630.622328,-1924.535449,-10732.986159,-229.828649
630.622652,-2368.659014,-11769.274478,-229.828649
630.622977,-2664.741391,-11621.233289,-612.876398
630.623301,-2368.659014,-9992.780217,0.000000
630.623625,-1702.473667,-9030.512492,0.000000
630.623949,-1110.308913,-9696.697840,-383.047749
630.624273,-1110.308913,-10807.006753,766.095498
630.624597,518.144159,-10066.800811,1378.971896
630.624921,2146.597232,-8142.265362,459.657299
630.625246,1998.556043,-7476.080014,689.485948
630.625570,1258.350101,-9474.636058,153.219100
630.625894,-222.061783,-9770.718434,-383.047749
630.626218,-518.144159,-9474.636058,-153.219100
630.626542,-296.082377,-8216.285956,0.000000
630.626866,0.000000,-7624.121203,0.000000
630.627190,444.123565,-8364.327145,0.000000
630.627514,1258.350101,-9400.615463,766.095498
630.627839,1850.514855,-10362.883188,612.876398
630.628163,1184.329507,-9622.677246,-306.438199
630.628487,74.020594,-8290.306550,0.000000
630.628811,-370.102971,-8586.388927,-153.219100
630.629135,0.000000,-9918.759623,0.000000
630.629459,-666.185348,-10436.903782,153.219100
630.629783,-1184.329507,-11325.150913,612.876398
630.630108,-740.205942,-11251.130318,383.047749
630.630432,0.000000,-10584.944971,-536.266849
630.630756,370.102971,-9030.512492,153.219100
630.631080,888.247130,-9474.636058,0.000000
630.631404,740.205942,-10807.006753,-229.828649
630.631728,0.000000,-11029.068536,76.609550
630.632052,-740.205942,-9696.697840,76.609550
630.632377,-148.041188,-8734.430116,689.485948
630.632701,222.061783,-9918.759623,1302.362347
630.633025,74.020594,-9844.739029,459.657299
630.633349,-296.082377,-7920.203579,0.000000
630.633673,-666.185348,-7402.059420,153.219100
630.633997,-740.205942,-7698.141797,-995.924147
630.634321,-296.082377,-7105.977043,-1225.752797
630.634645,148.041188,-7179.997637,153.219100
630.634970,1702.473667,-8512.368333,689.485948
630.635294,1776.494261,-9844.739029,229.828649
630.635618,-518.144159,-9474.636058,0.000000
630.635942,-1332.370696,-8364.327145,-766.095498
630.636266,-1258.350101,-9252.574275,-229.828649
630.636590,148.041188,-11621.233289,229.828649
630.636914,592.164754,-11843.295072,536.266849
630.637239,518.144159,-10732.986159,689.485948
630.637563,1184.329507,-10881.027347,306.438199
630.637887,1036.288319,-12139.377449,153.219100
630.638211,74.020594,-11695.253884,-306.438199
630.638535,-1628.453072,-10584.944971,-536.266849
630.638859,-2368.659014,-10881.027347,-766.095498
630.639183,-1850.514855,-11029.068536,-1378.971896
630.639508,-888.247130,-10140.821405,-1072.533697
630.639832,-444.123565,-10732.986159,-766.095498
630.640156,-444.123565,-10658.965565,-919.314598
630.640480,0.000000,-8808.450710,-536.266849
630.640804,592.164754,-8512.368333,-459.657299
630.641128,-592.164754,-8438.347739,-1072.533697
630.641452,-1036.288319,-8808.450710,-1378.971896
630.641776,-962.267725,-9326.594869,-612.876398
630.642101,592.164754,-8956.491898,-306.438199
630.642425,1702.473667,-9104.533087,0.000000
630.642749,888.247130,-9252.574275,383.047749
630.643073,1036.288319,-8956.491898,383.047749
630.643397,1184.329507,-8734.430116,536.266849
630.643721,1184.329507,-9326.594869,-689.485948
630.644045,814.226536,-8956.491898,-995.924147
630.644370,740.205942,-9400.615463,-383.047749
630.644694,0.000000,-10807.006753,-612.876398
630.645018,-1184.329507,-10214.842000,-1608.800546
630.645342,-1998.556043,-9400.615463,-1532.190996
630.645666,-2146.597232,-10362.883188,-1149.143247
630.645991,-1184.329507,-11399.171507,-1302.362347
630.646315,370.102971,-11029.068536,-306.438199
630.646639,0.000000,-9400.615463,459.657299
630.646963,0.000000,-9400.615463,153.219100
630.647287,-296.082377,-9696.697840,-536.266849
630.647612,-370.102971,-9252.574275,-383.047749
630.647936,-962.267725,-8364.327145,-459.657299
630.648260,-1036.288319,-8216.285956,-306.438199
630.648584,-518.144159,-9326.594869,229.828649
630.648908,370.102971,-8882.471304,229.828649
630.649233,962.267725,-8438.347739,76.609550
630.649557,962.267725,-7698.141797,306.438199
630.649881,2146.597232,-8956.491898,0.000000
630.650205,2960.823768,-9474.636058,459.657299
630.650529,2368.659014,-9770.718434,1455.581446
630.650854,1702.473667,-9474.636058,1072.533697
630.651178,0.000000,-9622.677246,0.000000
630.651502,-2220.617826,-9696.697840,-536.266849
630.651826,-2664.741391,-10214.842000,-229.828649
630.652150,-1110.308913,-11103.089130,-153.219100
630.652475,1184.329507,-10732.986159,766.095498
630.652799,2072.576638,-9844.739029,1378.971896
630.653123,1628.453072,-9030.512492,383.047749
630.653447,-370.102971,-10140.821405,383.047749
630.653771,-1036.288319,-11695.253884,76.609550
630.654096,-518.144159,-11547.212695,0.000000
630.654420,-740.205942,-11103.089130,459.657299
630.654744,-444.123565,-10436.903782,0.000000
630.655068,0.000000,-10510.924376,612.876398
630.655392,1184.329507,-11029.068536,229.828649
630.655717,962.267725,-10436.903782,459.657299
630.656041,0.000000,-9770.718434,612.876398
630.656365,148.041188,-8882.471304,842.705048
630.656689,0.000000,-7920.203579,919.314598
630.657013,-1184.329507,-7920.203579,689.485948
630.657338,-2368.659014,-7550.100608,229.828649
630.657662,-2442.679609,-7772.162391,0.000000
630.657986,-2368.659014,-8586.388927,-153.219100
630.658310,-1332.370696,-8142.265362,0.000000
630.658634,-888.247130,-8216.285956,0.000000
630.658959,-740.205942,-8808.450710,-153.219100
630.659283,-296.082377,-9474.636058,-842.705048
630.659607,74.020594,-10288.862594,-766.095498
630.659931,1184.329507,-11029.068536,-153.219100
630.660255,1998.556043,-10288.862594,-229.828649
630.660580,2368.659014,-10584.944971,919.314598
630.660904,2442.679609,-10658.965565,842.705048
630.661228,1110.308913,-10807.006753,-229.828649
630.661552,-1036.288319,-10584.944971,-766.095498
630.661876,-2516.700203,-9844.739029,-536.266849
630.662201,-1554.432478,-10288.862594,-842.705048
630.662525,-1258.350101,-10288.862594,-689.485948
630.662849,-1184.329507,-9252.574275,383.047749
630.663173,-666.185348,-8290.306550,-459.657299
630.663497,-962.267725,-7994.224174,-919.314598
630.663822,-1702.473667,-8142.265362,-1762.019645
630.664146,-3034.844362,-8068.244768,-1991.848295
630.664470,-2220.617826,-8586.388927,-1685.410096
630.664794,74.020594,-8734.430116,-612.876398
630.665118,2146.597232,-8586.388927,229.828649
630.665443,3627.009116,-8882.471304,383.047749
630.665767,3478.967927,-9474.636058,229.828649
630.666091,2738.761985,-10658.965565,0.000000
630.666415,2516.700203,-10436.903782,0.000000
630.666739,2294.638420,-9844.739029,0.000000
630.667064,1628.453072,-10510.924376,153.219100
630.667388,1110.308913,-11251.130318,459.657299
630.667712,888.247130,-11769.274478,-153.219100
630.668036,1036.288319,-10807.006753,-919.314598
630.668360,370.102971,-10140.821405,-1072.533697
630.668685,-222.061783,-10436.903782,-1378.971896
630.669009,0.000000,-11177.109724,-766.095498
630.669333,666.185348,-10955.047942,-612.876398
630.669657,370.102971,-10436.903782,0.000000
630.669981,-592.164754,-9918.759623,76.609550
630.670306,-1036.288319,-9770.718434,-1149.143247
630.670630,-666.185348,-9622.677246,-306.438199
630.670954,-814.226536,-9918.759623,536.266849
630.671278,0.000000,-9844.739029,153.219100
630.671602,148.041188,-9326.594869,536.266849
630.671927,-444.123565,-8808.450710,1072.533697
630.672251,-1480.411884,-8438.347739,229.828649
630.672575,-1702.473667,-8142.265362,306.438199
630.672899,-592.164754,-7550.100608,919.314598
630.673223,148.041188,-8438.347739,1072.533697
630.673548,222.061783,-8882.471304,0.000000
630.673872,-814.226536,-8586.388927,0.000000
630.674196,-1702.473667,-8512.368333,459.657299
630.674520,-1184.329507,-9548.656652,-383.047749
630.674844,-444.123565,-10807.006753,-459.657299
630.675169,-296.082377,-10955.047942,306.438199
630.675493,74.020594,-10584.944971,536.266849
630.675817,740.205942,-10732.986159,153.219100
630.676141,740.205942,-11251.130318,612.876398
630.676465,0.000000,-11769.274478,919.314598
630.676790,-296.082377,-12139.377449,536.266849
630.677114,-740.205942,-10436.903782,995.924147
630.677438,-888.247130,-9474.636058,689.485948
630.677762,-1110.308913,-9030.512492,76.609550
630.678086,-1480.411884,-8956.491898,-383.047749
630.678411,-1554.432478,-9252.574275,-612.876398
630.678735,-888.247130,-8142.265362,-689.485948
630.679059,-518.144159,-6291.750507,-995.924147
630.679383,0.000000,-6513.812290,0.000000
630.679707,370.102971,-8068.244768,229.828649
630.680032,518.144159,-9474.636058,-919.314598
630.680356,0.000000,-7994.224174,153.219100
630.680680,814.226536,-7846.182985,383.047749
630.681004,2516.700203,-9474.636058,0.000000
630.681328,3775.050304,-9918.759623,1072.533697
630.681653,4663.297435,-10584.944971,1608.800546
630.681977,3552.988522,-10584.944971,689.485948
630.682301,1480.411884,-10140.821405,-459.657299
630.682625,-1036.288319,-10288.862594,-76.609550
630.682949,-962.267725,-11621.233289,-995.924147
630.683274,0.000000,-11251.130318,-1455.581446
630.683598,-222.061783,-10510.924376,-842.705048
630.683922,-888.247130,-10658.965565,-842.705048
630.684246,-1628.453072,-11769.274478,-1302.362347
630.684570,-1480.411884,-11991.336260,-1149.143247
630.684895,-1850.514855,-10732.986159,-766.095498
630.685219,-1702.473667,-9918.759623,-1378.971896
630.685543,-1776.494261,-10066.800811,-1072.533697
630.685867,-1184.329507,-10732.986159,-536.266849
630.686191,0.000000,-10214.842000,-153.219100
630.686516,1110.308913,-9178.553681,536.266849
630.686840,1480.411884,-7920.203579,995.924147
630.687164,1406.391290,-7846.182985,612.876398
630.687488,1850.514855,-8586.388927,766.095498
630.687812,1628.453072,-8512.368333,76.609550
630.688137,1184.329507,-8290.306550,459.657299
630.688461,1110.308913,-8808.450710,459.657299
630.688785,1258.350101,-8438.347739,76.609550
630.689109,666.185348,-8216.285956,153.219100
630.689433,296.082377,-9104.533087,459.657299
630.689758,-1036.288319,-9252.574275,-153.219100
630.690082,-1110.308913,-10436.903782,-153.219100
630.690406,-1332.370696,-10288.862594,153.219100
630.690730,-1110.308913,-9918.759623,536.266849
630.691054,-1332.370696,-9844.739029,-306.438199
630.691379,-1110.308913,-10066.800811,842.705048
630.691703,0.000000,-11103.089130,689.485948
630.692027,666.185348,-11695.253884,383.047749
630.692351,0.000000,-10510.924376,229.828649
630.692675,-740.205942,-9548.656652,-153.219100
630.693000,-1184.329507,-8956.491898,-1072.533697
630.693324,-1702.473667,-10066.800811,-306.438199
630.693648,-1628.453072,-11399.171507,536.266849
630.693972,-962.267725,-10288.862594,-536.266849
630.694296,-1258.350101,-7994.224174,-229.828649
630.694621,-444.123565,-7031.956449,0.000000
630.694945,666.185348,-8216.285956,-459.657299
630.695269,148.041188,-9400.615463,153.219100
630.695593,-740.205942,-8660.409521,-383.047749
630.695917,-666.185348,-7846.182985,-383.047749
630.696242,1110.308913,-8364.327145,0.000000
630.696566,1258.350101,-9104.533087,-229.828649
630.696890,74.020594,-9770.718434,-842.705048
630.697214,-1406.391290,-9770.718434,-612.876398
630.697538,-592.164754,-10288.862594,76.609550
630.697863,962.267725,-11695.253884,766.095498
630.698187,1776.494261,-11917.315666,1072.533697
630.698511,1036.288319,-10288.862594,995.924147
630.698835,222.061783,-9474.636058,-306.438199
630.699159,-296.082377,-9622.677246,-995.924147
630.699484,-1850.514855,-10436.903782,-995.924147
630.699808,-2442.679609,-11177.109724,-766.095498
630.700132,-2072.576638,-10362.883188,-1072.533697
630.700456,-1924.535449,-9030.512492,-306.438199
630.700780,-962.267725,-9104.533087,-459.657299
630.701105,-296.082377,-9770.718434,-995.924147
630.701429,-296.082377,-9548.656652,-229.828649
630.701753,1480.411884,-9696.697840,689.485948
630.702077,2960.823768,-9326.594869,459.657299
630.702401,3256.906145,-9474.636058,919.314598
630.702726,2072.576638,-10066.800811,919.314598
630.703050,1110.308913,-10584.944971,0.000000
630.703374,370.102971,-10066.800811,-459.657299
630.703698,296.082377,-9548.656652,0.000000
630.704022,962.267725,-9474.636058,0.000000
630.704347,1554.432478,-9770.718434,76.609550
630.704671,1702.473667,-10288.862594,-153.219100
630.704995,-148.041188,-10066.800811,-459.657299
630.705319,-962.267725,-10140.821405,-842.705048
630.705643,-1850.514855,-10955.047942,-689.485948
630.705967,-1776.494261,-10510.924376,-842.705048
630.706292,-2220.617826,-9400.615463,-383.047749
630.706616,-1628.453072,-9844.739029,842.705048
630.706940,-1036.288319,-10140.821405,-153.219100
630.707264,-370.102971,-10140.821405,0.000000
630.707588,222.061783,-9548.656652,1149.143247
630.707913,1998.556043,-9252.574275,919.314598
630.708237,2220.617826,-8216.285956,766.095498
630.708561,1406.391290,-7994.224174,0.000000
630.708885,-740.205942,-7994.224174,383.047749
630.709209,-1332.370696,-9474.636058,0.000000
630.709534,-1184.329507,-8956.491898,-919.314598
630.709858,-1184.329507,-7994.224174,229.828649
630.710182,-888.247130,-7772.162391,0.000000
630.710506,-444.123565,-8216.285956,-612.876398
630.710830,-740.205942,-8216.285956,-459.657299
630.711155,-148.041188,-8068.244768,-689.485948
630.711479,222.061783,-8142.265362,-153.219100
630.711803,1036.288319,-9474.636058,76.609550
630.712127,1110.308913,-9918.759623,459.657299
630.712451,740.205942,-10066.800811,0.000000
630.712776,-814.226536,-10584.944971,-383.047749
630.713100,-1184.329507,-11325.150913,-536.266849
630.713424,0.000000,-11325.150913,-689.485948
630.713748,518.144159,-10807.006753,-995.924147
630.714072,0.000000,-10066.800811,229.828649
630.714397,74.020594,-11843.295072,0.000000
630.714721,222.061783,-12805.562797,-842.705048
630.715045,-888.247130,-11843.295072,-919.314598
630.715369,-1924.535449,-10066.800811,-1149.143247
630.715693,-1702.473667,-9474.636058,-1302.362347
630.716018,-740.205942,-10140.821405,-459.657299
630.716342,148.041188,-10584.944971,-689.485948
630.716666,222.061783,-9992.780217,153.219100
630.716990,296.082377,-10066.800811,-536.266849
630.717314,1332.370696,-9400.615463,-229.828649
630.717639,1850.514855,-9326.594869,229.828649
630.717963,1924.535449,-9770.718434,0.000000
630.718287,666.185348,-9548.656652,-689.485948
630.718611,-1036.288319,-8660.409521,-919.314598
630.718935,-1332.370696,-8216.285956,-1378.971896
630.719260,-148.041188,-9104.533087,-919.314598
630.719584,444.123565,-9622.677246,0.000000
630.719908,666.185348,-9770.718434,459.657299
630.720232,0.000000,-9474.636058,-306.438199
630.720556,0.000000,-8438.347739,383.047749
630.720881,666.185348,-9474.636058,536.266849
630.721205,-518.144159,-10214.842000,0.000000
630.721529,-814.226536,-9474.636058,0.000000
630.721853,-1036.288319,-9178.553681,459.657299
630.722177,0.000000,-9622.677246,536.266849
630.722502,444.123565,-9622.677246,0.000000
630.722826,0.000000,-8956.491898,842.705048
630.723150,222.061783,-9326.594869,1225.752797
630.723474,814.226536,-9696.697840,689.485948
630.723798,888.247130,-8882.471304,536.266849
630.724123,-296.082377,-8882.471304,689.485948
630.724447,-1184.329507,-9252.574275,0.000000
630.724771,-1850.514855,-9326.594869,-766.095498
630.725095,-1998.556043,-9178.553681,306.438199
630.725419,-666.185348,-9178.553681,0.000000
630.725744,518.144159,-9548.656652,383.047749
630.726068,518.144159,-9992.780217,1072.533697
630.726392,1406.391290,-9252.574275,459.657299
630.726716,2368.659014,-8660.409521,-229.828649
630.727040,2886.803174,-8734.430116,-383.047749
630.727365,2590.720797,-9252.574275,0.000000
630.727689,2368.659014,-10288.862594,76.609550
630.728013,666.185348,-10436.903782,766.095498
630.728337,-148.041188,-11103.089130,612.876398
630.728661,0.000000,-10807.006753,76.609550
630.728986,-370.102971,-11621.233289,0.000000
630.729310,-814.226536,-11991.336260,0.000000
630.729634,-814.226536,-11325.150913,153.219100
630.729958,-518.144159,-10510.924376,306.438199
630.730282,-518.144159,-10510.924376,1149.143247
630.730607,-222.061783,-11769.274478,536.266849
630.730931,-296.082377,-11103.089130,0.000000
630.731255,-148.041188,-8586.388927,229.828649
630.731579,-370.102971,-8142.265362,-1225.752797
630.731903,-1776.494261,-9400.615463,-1149.143247
630.732228,-1702.473667,-10288.862594,-612.876398
630.732552,-296.082377,-9178.553681,153.219100
630.732876,740.205942,-8290.306550,995.924147
630.733200,814.226536,-9400.615463,766.095498
630.733524,666.185348,-9622.677246,1455.581446
630.733849,666.185348,-8956.491898,612.876398
630.734173,296.082377,-8364.327145,76.609550
630.734497,-296.082377,-7846.182985,153.219100
630.734821,-1258.350101,-8216.285956,-229.828649
630.735145,-2442.679609,-9326.594869,0.000000
630.735470,-2738.761985,-8882.471304,-995.924147
630.735794,-2368.659014,-8290.306550,-1149.143247
630.736118,-1554.432478,-8586.388927,-919.314598
630.736442,-1702.473667,-9030.512492,-1302.362347
630.736766,-2590.720797,-9474.636058,-1149.143247
630.737091,-2960.823768,-9696.697840,-1532.190996
630.737415,-2368.659014,-9696.697840,-689.485948
630.737739,-1110.308913,-10362.883188,-306.438199
630.738063,-148.041188,-10362.883188,-153.219100
630.738387,370.102971,-9548.656652,-153.219100
630.738712,-666.185348,-9918.759623,-383.047749
630.739036,-1554.432478,-10807.006753,-1149.143247
630.739360,-2368.659014,-10362.883188,-2374.896044
630.739684,-3256.906145,-10066.800811,-2374.896044
630.740008,-2664.741391,-9548.656652,-2681.334243
630.740333,-1702.473667,-8808.450710,-2298.286494
630.740657,-666.185348,-9178.553681,-2451.505594
630.740981,0.000000,-8808.450710,-2374.896044
630.741305,296.082377,-8734.430116,-2221.676944
630.741629,666.185348,-9178.553681,-2451.505594
630.741954,814.226536,-8586.388927,-2068.457845
630.742278,888.247130,-8586.388927,-2068.457845
630.742602,592.164754,-9474.636058,-2451.505594
630.742926,-740.205942,-10584.944971,-2604.724693
630.743250,-2146.597232,-11695.253884,-3753.867940
630.743575,-2664.741391,-11399.171507,-3370.820191
630.743899,-3923.091493,-11843.295072,-3447.429741
630.744223,-4441.235652,-11251.130318,-4290.134789
630.744547,-3849.070898,-11325.150913,-2987.772442
630.744871,-1850.514855,-12361.439231,-2451.505594
630.745195,-518.144159,-12805.562797,-1225.752797
630.745520,0.000000,-11325.150913,-1149.143247
630.745844,370.102971,-9918.759623,-2221.676944
630.746168,888.247130,-9918.759623,-1915.238745
630.746492,222.061783,-11177.109724,-2451.505594
630.746816,-1110.308913,-9992.780217,-2757.943793
630.747140,-2664.741391,-9548.656652,-2068.457845
630.747465,-3775.050304,-10732.986159,-2911.162892
630.747789,-4811.338623,-9844.739029,-3294.210641
630.748113,-5033.400406,-8808.450710,-2911.162892
630.748437,-5699.585753,-8734.430116,-2451.505594
630.748761,-5477.523971,-8956.491898,-2451.505594
630.749085,-5403.503377,-8882.471304,-3064.381992
630.749409,-4589.276840,-7105.977043,-1532.190996
630.749734,-2294.638420,-7994.224174,-459.657299
630.750058,-148.041188,-9030.512492,-1608.800546
630.750382,148.041188,-7994.224174,-1072.533697
630.750706,-666.185348,-8586.388927,-76.609550
630.751030,-888.247130,-9548.656652,-1225.752797
630.751354,0.000000,-8586.388927,-1302.362347
630.751679,148.041188,-7846.182985,-1149.143247
630.752003,-592.164754,-8956.491898,-1072.533697
630.752327,-2812.782580,-10881.027347,-2221.676944
630.752651,-4737.318029,-12065.356855,-2451.505594
630.752975,-5921.647536,-10066.800811,-2604.724693
630.753299,-5329.482782,-9252.574275,-2451.505594
630.753624,-5477.523971,-9844.739029,-2374.896044
630.753948,-5107.421000,-9844.739029,-2681.334243
630.754272,-4293.194464,-9474.636058,-2374.896044
630.754596,-2738.761985,-9252.574275,-1378.971896
630.754920,-592.164754,-9918.759623,-766.095498
630.755244,592.164754,-9548.656652,-689.485948
630.755568,1332.370696,-7846.182985,-1225.752797
630.755893,1702.473667,-9104.533087,-1302.362347
630.756217,1036.288319,-11029.068536,-2298.286494
630.756541,74.020594,-12213.398043,-2221.676944
630.756865,-518.144159,-11843.295072,-1991.848295
630.757189,-740.205942,-11177.109724,-1225.752797
630.757513,-592.164754,-10066.800811,-2221.676944
630.757838,-2220.617826,-9474.636058,-2298.286494
630.758162,-3552.988522,-10214.842000,-2451.505594
630.758486,-4515.256246,-9918.759623,-2604.724693
630.758810,-3923.091493,-8438.347739,-2757.943793
630.759134,-3330.926739,-7476.080014,-2145.067394
630.759458,-3478.967927,-7254.018232,-1762.019645
630.759783,-2738.761985,-8438.347739,-1991.848295
630.760107,-2368.659014,-9474.636058,-1072.533697
630.760431,-2368.659014,-10214.842000,-1225.752797
630.760755,-1924.535449,-9622.677246,-1608.800546
630.761079,-1850.514855,-9104.533087,-1302.362347
630.761403,-1258.350101,-9918.759623,-842.705048
630.761727,-296.082377,-9992.780217,-1378.971896
630.762052,148.041188,-10436.903782,-1762.019645
630.762376,-814.226536,-10807.006753,-1915.238745
630.762700,-1776.494261,-11473.192101,-2604.724693
630.763024,-2368.659014,-11325.150913,-3294.210641
630.763348,-2368.659014,-10288.862594,-2834.553343
630.763672,-2220.617826,-10362.883188,-2604.724693
630.763997,-1924.535449,-10362.883188,-2834.553343
630.764321,-1184.329507,-8882.471304,-2451.505594
630.764645,-1036.288319,-7772.162391,-2451.505594
630.764969,814.226536,-8734.430116,-1532.190996
630.765293,1776.494261,-9400.615463,-1378.971896
630.765617,148.041188,-9030.512492,-1532.190996
630.765942,-1924.535449,-9178.553681,-1915.238745
630.766266,-2960.823768,-9474.636058,-1915.238745
630.766590,-2220.617826,-10066.800811,-2604.724693
630.766914,-3256.906145,-9844.739029,-1915.238745
630.767238,-3775.050304,-9770.718434,-2221.676944
630.767562,-2664.741391,-9918.759623,-2374.896044
630.767886,-2220.617826,-10362.883188,-3064.381992
630.768211,-3182.885551,-9474.636058,-3370.820191
630.768535,-5403.503377,-8808.450710,-3370.820191
630.768859,-6365.771101,-9918.759623,-3983.696590
630.769183,-4663.297435,-10807.006753,-3217.601092
630.769507,-2664.741391,-9844.739029,-1532.190996
630.769831,-2368.659014,-10140.821405,-919.314598
630.770156,-1776.494261,-11399.171507,-1991.848295
630.770480,-962.267725,-10955.047942,-2145.067394
630.770804,0.000000,-9770.718434,-1455.581446
630.771128,-1332.370696,-10214.842000,-1532.190996
630.771452,-3478.967927,-11917.315666,-2451.505594
630.771776,-3997.112087,-11325.150913,-1685.410096
630.772100,-3330.926739,-9474.636058,-1915.238745
630.772425,-3256.906145,-7994.224174,-2987.772442
630.772749,-4589.276840,-8290.306550,-3140.991542
630.773073,-4737.318029,-8734.430116,-3064.381992
630.773397,-3404.947333,-7698.141797,-2528.115143
630.773721,-1850.514855,-6883.915261,-2374.896044
630.774045,-1776.494261,-7402.059420,-1149.143247
630.774370,-2368.659014,-9326.594869,-1608.800546
630.774694,-3552.988522,-9844.739029,-1685.410096
630.775018,-4145.153275,-9326.594869,-1915.238745
630.775342,-3923.091493,-9326.594869,-2451.505594
630.775666,-3404.947333,-10140.821405,-1225.752797
630.775990,-1554.432478,-11103.089130,-689.485948
630.776315,-296.082377,-10658.965565,-919.314598
630.776639,0.000000,-10288.862594,-1149.143247
630.776963,-1184.329507,-10732.986159,-536.266849
630.777287,-1850.514855,-11251.130318,-1378.971896
630.777611,-222.061783,-10140.821405,-1072.533697
630.777935,518.144159,-8660.409521,-1378.971896
630.778259,-740.205942,-9326.594869,-3140.991542
630.778584,-3849.070898,-12657.521608,-2604.724693
630.778908,-4663.297435,-13397.727550,-3064.381992
630.779232,-2368.659014,-10807.006753,-3753.867940
630.779556,-1332.370696,-9030.512492,-2221.676944
630.779880,-592.164754,-8808.450710,-1762.019645
630.780204,148.041188,-9622.677246,-2145.067394
630.780529,74.020594,-9178.553681,-1608.800546
630.780853,-370.102971,-7698.141797,-1838.629195
630.781177,-592.164754,-7698.141797,-1072.533697
630.781501,0.000000,-8438.347739,-995.924147
630.781825,962.267725,-8364.327145,306.438199
630.782149,888.247130,-8068.244768,-612.876398
630.782474,-518.144159,-10288.862594,-1991.848295
630.782798,-3256.906145,-13027.624579,-2374.896044
630.783122,-3923.091493,-13027.624579,-2604.724693
630.783446,-3701.029710,-10658.965565,-3140.991542
630.783770,-3849.070898,-8956.491898,-2681.334243
630.784094,-3256.906145,-9474.636058,-2221.676944
630.784418,-1480.411884,-9474.636058,-1991.848295
630.784743,518.144159,-9326.594869,-1991.848295
630.785067,370.102971,-7994.224174,-1991.848295
630.785391,-296.082377,-7994.224174,-2145.067394
630.785715,-1332.370696,-9326.594869,-1838.629195
630.786039,-3034.844362,-9918.759623,-1915.238745
630.786363,-4737.318029,-10288.862594,-1608.800546
630.786688,-5625.565159,-10584.944971,-2451.505594
630.787012,-5625.565159,-9622.677246,-2145.067394
630.787336,-3330.926739,-9918.759623,-1608.800546
630.787660,-1036.288319,-9252.574275,-1532.190996
630.787984,-222.061783,-8734.430116,-2068.457845
630.788308,-666.185348,-9400.615463,-1838.629195
630.788633,-1628.453072,-9918.759623,-1838.629195
630.788957,-2664.741391,-9992.780217,-2221.676944
630.789281,-4071.132681,-9548.656652,-2068.457845
630.789605,-4959.379811,-9548.656652,-2221.676944
630.789929,-3775.050304,-9770.718434,-2298.286494
630.790253,-2664.741391,-9696.697840,-2451.505594
630.790577,-2294.638420,-9326.594869,-2604.724693
630.790902,-2220.617826,-8586.388927,-2298.286494
630.791226,-2590.720797,-9400.615463,-2374.896044
630.791550,-3330.926739,-9474.636058,-1991.848295
630.791874,-3775.050304,-9474.636058,-2221.676944
630.792198,-3997.112087,-9770.718434,-1915.238745
630.792522,-3997.112087,-9844.739029,-2068.457845
630.792847,-3182.885551,-10362.883188,-1608.800546
630.793171,-2368.659014,-10584.944971,-1225.752797
630.793495,-1924.535449,-11103.089130,-1149.143247
630.793819,-2220.617826,-11103.089130,-1991.848295
630.794143,-2516.700203,-11843.295072,-2451.505594
630.794467,-962.267725,-12213.398043,-2374.896044
630.794791,148.041188,-10732.986159,-2451.505594
630.795116,592.164754,-8512.368333,-1991.848295
630.795440,518.144159,-7254.018232,-2451.505594
630.795764,444.123565,-7254.018232,-2757.943793
630.796088,-370.102971,-7772.162391,-3217.601092
630.796412,-962.267725,-8068.244768,-2068.457845
630.796736,-2590.720797,-8290.306550,-2911.162892
630.797061,-4515.256246,-9178.553681,-3294.210641
630.797385,-5847.626942,-9622.677246,-3217.601092
630.797709,-6069.688724,-10584.944971,-3294.210641
630.798033,-4811.338623,-11621.233289,-2987.772442
630.798357,-2590.720797,-11621.233289,-2451.505594
630.798681,-740.205942,-11621.233289,-995.924147
630.799006,1776.494261,-10732.986159,-842.705048
630.799330,3627.009116,-10140.821405,-919.314598
630.799654,2738.761985,-9178.553681,-1762.019645
630.799978,2368.659014,-9918.759623,-1532.190996
630.800302,3108.864956,-11177.109724,-1072.533697
630.800626,3478.967927,-11177.109724,-459.657299
630.800950,1924.535449,-10510.924376,-306.438199
630.801275,-518.144159,-9696.697840,-1149.143247
630.801599,-3552.988522,-10807.006753,-2604.724693
630.801923,-6661.853478,-11325.150913,-3217.601092
630.802247,-7920.203579,-11177.109724,-3140.991542
630.802571,-7846.182985,-9696.697840,-2681.334243
630.802895,-6883.915261,-8364.327145,-2298.286494
630.803220,-5107.421000,-7624.121203,-1608.800546
630.803544,-2368.659014,-7846.182985,-842.705048
630.803868,0.000000,-8364.327145,-229.828649
630.804192,1406.391290,-8734.430116,612.876398
630.804516,1924.535449,-8660.409521,995.924147
630.804840,2368.659014,-8956.491898,1302.362347
630.805165,2368.659014,-8734.430116,689.485948
630.805489,1110.308913,-8734.430116,76.609550
630.805813,-1110.308913,-9474.636058,-1225.752797
630.806137,-3182.885551,-10288.862594,-2145.067394
630.806461,-5107.421000,-10066.800811,-1762.019645
630.806785,-6587.832884,-8956.491898,-2221.676944
630.807109,-7994.224174,-8290.306550,-2911.162892
630.807434,-9178.553681,-8068.244768,-3447.429741
630.807758,-9030.512492,-8216.285956,-3447.429741
630.808082,-7031.956449,-8216.285956,-1838.629195
630.808406,-4293.194464,-8882.471304,-1532.190996
630.808730,-1480.411884,-9104.533087,-842.705048
630.809054,444.123565,-9844.739029,-153.219100
630.809379,1480.411884,-9992.780217,-153.219100
630.809703,1702.473667,-10881.027347,-229.828649
630.810027,1258.350101,-11325.150913,-766.095498
630.810351,1332.370696,-11399.171507,-1608.800546
630.810675,888.247130,-10881.027347,-1608.800546
630.810999,-1332.370696,-10807.006753,-2528.115143
630.811324,-3034.844362,-10732.986159,-3294.210641
630.811648,-5625.565159,-10140.821405,-4443.353888
630.811972,-7476.080014,-9770.718434,-5362.668486
630.812296,-7994.224174,-8808.450710,-5822.325785
630.812620,-7179.997637,-7846.182985,-5362.668486
630.812944,-4885.359217,-7105.977043,-4673.182538
630.813268,-2220.617826,-7846.182985,-3600.648841
630.813593,0.000000,-9030.512492,-3140.991542
630.813917,1184.329507,-10066.800811,-2451.505594
630.814241,1332.370696,-10881.027347,-2221.676944
630.814565,888.247130,-11251.130318,-2834.553343
630.814889,370.102971,-11991.336260,-3600.648841
630.815213,-1332.370696,-14952.160028,-2451.505594
630.815538,-592.164754,-17098.757260,-2451.505594
630.815862,0.000000,-15396.283594,-3830.477490
630.816186,-518.144159,-11769.274478,-2374.896044
630.816510,-1184.329507,-8734.430116,-3217.601092
630.816834,-1258.350101,-7772.162391,-4903.011187
630.817158,-1554.432478,-7105.977043,-4979.620737
630.817482,-2368.659014,-6587.832884,-4749.792088
630.817807,-3330.926739,-7698.141797,-3983.696590
630.818131,-4219.173869,-8438.347739,-3677.258390
630.818455,-5625.565159,-7624.121203,-3753.867940
630.818779,-6365.771101,-6513.812290,-3447.429741
630.819103,-5699.585753,-7550.100608,-3140.991542
630.819427,-3849.070898,-10436.903782,-3217.601092
630.819752,-1406.391290,-10881.027347,-1762.019645
630.820076,1628.453072,-11029.068536,76.609550
630.820400,3108.864956,-12065.356855,383.047749
630.820724,1110.308913,-12139.377449,-306.438199
630.821048,-592.164754,-11843.295072,-536.266849
630.821372,-1332.370696,-10658.965565,-1762.019645
630.821697,-814.226536,-9696.697840,-1991.848295
630.822021,148.041188,-8586.388927,-2298.286494
630.822345,1184.329507,-7698.141797,-2068.457845
630.822669,518.144159,-8438.347739,-1991.848295
630.822993,-2220.617826,-9400.615463,-2374.896044
630.823317,-6661.853478,-8290.306550,-3753.867940
630.823641,-9548.656652,-6957.935855,-3753.867940
630.823966,-8956.491898,-6957.935855,-3677.258390
630.824290,-6957.935855,-8068.244768,-2604.724693
630.824614,-4663.297435,-9548.656652,-1225.752797
630.824938,-2960.823768,-10881.027347,383.047749
630.825262,-2072.576638,-11695.253884,842.705048
630.825586,-1480.411884,-11547.212695,536.266849
630.825911,-592.164754,-10362.883188,383.047749
630.826235,962.267725,-9178.553681,459.657299
630.826559,3034.844362,-10510.924376,383.047749
630.826883,3627.009116,-11029.068536,-153.219100
630.827207,2738.761985,-10362.883188,-536.266849
630.827531,1628.453072,-8956.491898,-1225.752797
630.827856,888.247130,-8216.285956,-1225.752797
630.828180,-1258.350101,-7846.182985,-2451.505594
630.828504,-4737.318029,-9104.533087,-2604.724693
630.828828,-9030.512492,-10732.986159,-2987.772442
630.829152,-11177.109724,-11399.171507,-3753.867940
630.829476,-9992.780217,-9696.697840,-3753.867940
630.829800,-7254.018232,-8068.244768,-3064.381992
630.830125,-4959.379811,-8808.450710,-1838.629195
630.830449,-3923.091493,-10436.903782,-1378.971896
630.830773,-2516.700203,-11547.212695,-153.219100
630.831097,-370.102971,-11547.212695,229.828649
630.831421,2960.823768,-11473.192101,995.924147
630.831745,6069.688724,-11177.109724,689.485948
630.832070,7105.977043,-9770.718434,612.876398
630.832394,6217.729913,-9326.594869,536.266849
630.832718,3923.091493,-10066.800811,-995.924147
630.833042,1480.411884,-10807.006753,-1685.410096
630.833366,-2220.617826,-9474.636058,-2068.457845
630.833690,-5995.668130,-8290.306550,-2987.772442
630.834015,-8734.430116,-7328.038826,-4366.744339
630.834339,-10288.862594,-7476.080014,-4903.011187
630.834663,-10955.047942,-7846.182985,-5439.278036
630.834987,-10066.800811,-7698.141797,-4826.401637
630.835311,-7994.224174,-6883.915261,-3830.477490
630.835635,-3997.112087,-7846.182985,-2374.896044
630.835959,-666.185348,-8142.265362,-1072.533697
630.836284,1850.514855,-8734.430116,-919.314598
630.836608,2072.576638,-10881.027347,76.609550
630.836932,3478.967927,-12805.562797,459.657299
630.837256,6883.915261,-12805.562797,383.047749
630.837580,7550.100608,-11843.295072,1378.971896
630.837904,6439.791695,-11695.253884,536.266849
630.838229,3404.947333,-13101.645173,-612.876398
630.838553,74.020594,-14137.933492,-1915.238745
630.838877,-3849.070898,-11251.130318,-4060.306139
630.839201,-8808.450710,-8660.409521,-4903.011187
630.839525,-12361.439231,-8364.327145,-5898.935335
630.839849,-12657.521608,-8734.430116,-7124.688131
630.840173,-11695.253884,-7105.977043,-6818.249932
630.840498,-9178.553681,-6143.709319,-5669.106685
630.840822,-6957.935855,-7254.018232,-4903.011187
630.841146,-4515.256246,-8512.368333,-4136.915689
630.841470,-1036.288319,-7179.997637,-2757.943793
630.841794,1702.473667,-7550.100608,-995.924147
630.842118,3108.864956,-11399.171507,-536.266849
630.842443,3256.906145,-14211.954086,-383.047749
630.842767,4219.173869,-12805.562797,-459.657299
630.843091,5329.482782,-11177.109724,766.095498
630.843415,4737.318029,-12213.398043,-229.828649
630.843739,2368.659014,-12805.562797,-919.314598
630.844063,-1184.329507,-11177.109724,-2068.457845
630.844388,-3701.029710,-10140.821405,-3064.381992
630.844712,-5181.441594,-9918.759623,-4673.182538
630.845036,-5995.668130,-8438.347739,-4443.353888
630.845360,-7328.038826,-6883.915261,-4443.353888
630.845684,-6809.894666,-5773.606348,-4596.572988
630.846008,-5921.647536,-6291.750507,-5132.839837
630.846332,-4885.359217,-8216.285956,-4060.306139
630.846656,-3849.070898,-9030.512492,-2681.334243
630.846980,-2368.659014,-9918.759623,-1378.971896
630.847304,-370.102971,-11177.109724,-766.095498
630.847628,-148.041188,-11251.130318,-919.314598
630.847952,0.000000,-11029.068536,-1072.533697
630.848276,-74.020594,-11843.295072,-459.657299
630.848601,814.226536,-13175.665768,-766.095498
630.848925,1776.494261,-13101.645173,-842.705048
630.849249,1554.432478,-11251.130318,-919.314598
630.849573,370.102971,-9770.718434,-1532.190996
630.849897,-740.205942,-8512.368333,-2604.724693
630.850221,-1110.308913,-7105.977043,-2987.772442
630.850545,-2590.720797,-7179.997637,-3064.381992
630.850869,-4737.318029,-8068.244768,-4290.134789
630.851193,-6735.874072,-8364.327145,-4290.134789
630.851517,-7402.059420,-8068.244768,-3677.258390
630.851841,-6809.894666,-8142.265362,-3830.477490
630.852165,-5995.668130,-10362.883188,-2834.553343
630.852489,-5995.668130,-11251.130318,-2757.943793
630.852814,-4737.318029,-10510.924376,-1991.848295
630.853138,-3404.947333,-11103.089130,-1762.019645
630.853462,-2146.597232,-11325.150913,-2221.676944
630.853786,0.000000,-10362.883188,-1378.971896
630.854110,1702.473667,-10510.924376,0.000000
630.854434,2812.782580,-11103.089130,-306.438199
630.854758,3108.864956,-11695.253884,229.828649
630.855082,2220.617826,-11177.109724,-153.219100
630.855406,2294.638420,-9696.697840,-919.314598
630.855730,1184.329507,-9326.594869,-995.924147
630.856054,-592.164754,-10066.800811,-1532.190996
630.856378,-2072.576638,-9474.636058,-2298.286494
630.856702,-4145.153275,-9252.574275,-1838.629195
630.857026,-6069.688724,-9474.636058,-1838.629195
630.857351,-6217.729913,-8438.347739,-2374.896044
630.857675,-5181.441594,-6957.935855,-3983.696590
630.857999,-5773.606348,-5699.585753,-4596.572988
630.858323,-6957.935855,-8956.491898,-2604.724693
630.858647,-5403.503377,-11325.150913,-2145.067394
630.858971,-1702.473667,-9918.759623,-1225.752797
630.859295,1332.370696,-9252.574275,1225.752797
630.859619,3997.112087,-10066.800811,1608.800546
630.859943,5551.544565,-10288.862594,1532.190996
630.860267,4145.153275,-10362.883188,1072.533697
630.860591,2516.700203,-9992.780217,1302.362347
630.860915,1850.514855,-10362.883188,1149.143247
630.861239,370.102971,-11251.130318,76.609550
630.861563,-2516.700203,-9474.636058,-689.485948
630.861888,-5403.503377,-8512.368333,-459.657299
630.862212,-6143.709319,-9178.553681,-1302.362347
630.862536,-5847.626942,-9178.553681,-2298.286494
630.862860,-5921.647536,-8438.347739,-2221.676944
630.863184,-4885.359217,-6809.894666,-2221.676944
630.863508,-3330.926739,-7031.956449,-1072.533697
630.863832,-1184.329507,-8808.450710,-766.095498
630.864156,666.185348,-9104.533087,-842.705048
630.864480,1110.308913,-10066.800811,-153.219100
630.864804,2516.700203,-10140.821405,0.000000
630.865128,3997.112087,-10881.027347,229.828649
630.865452,5551.544565,-11769.274478,0.000000
630.865776,5551.544565,-11843.295072,0.000000
630.866100,3552.988522,-11991.336260,229.828649
630.866425,1924.535449,-12435.459826,-612.876398
630.866749,1258.350101,-10658.965565,-536.266849
630.867073,1332.370696,-9326.594869,-459.657299
630.867397,370.102971,-8808.450710,-1915.238745
630.867721,-370.102971,-7920.203579,-2604.724693
630.868045,0.000000,-7179.997637,-1838.629195
630.868369,370.102971,-7772.162391,-919.314598
630.868693,-888.247130,-8956.491898,-1149.143247
630.869017,-3330.926739,-8956.491898,-1302.362347
630.869341,-4811.338623,-9844.739029,-2528.115143
630.869665,-5477.523971,-11029.068536,-3064.381992
630.869989,-4219.173869,-11547.212695,-1991.848295
630.870313,-1406.391290,-12731.542202,-1072.533697
630.870637,1184.329507,-13767.830521,1072.533697
630.870962,3923.091493,-13545.768739,1838.629195
630.871286,5477.523971,-12657.521608,3524.039291
630.871610,4885.359217,-12213.398043,2757.943793
630.871934,3552.988522,-11103.089130,766.095498
630.872258,444.123565,-9918.759623,-919.314598
630.872582,-2072.576638,-9030.512492,-2298.286494
630.872906,-2442.679609,-8290.306550,-2145.067394
630.873230,-2664.741391,-8364.327145,-995.924147
630.873554,-2738.761985,-8068.244768,-1685.410096
630.873878,-3701.029710,-7254.018232,-1149.143247
630.874202,-4737.318029,-7476.080014,-1455.581446
630.874526,-5033.400406,-7920.203579,-1302.362347
630.874850,-4367.215058,-8068.244768,-919.314598
630.875174,-2146.597232,-7772.162391,1072.533697
630.875499,1258.350101,-8364.327145,2221.676944
630.875823,4885.359217,-8586.388927,2298.286494
630.876147,6143.709319,-8660.409521,3294.210641
630.876471,6661.853478,-8586.388927,3140.991542
630.876795,4959.379811,-8216.285956,2145.067394
630.877119,2072.576638,-7920.203579,1685.410096
630.877443,370.102971,-7994.224174,1608.800546
630.877767,-962.267725,-8512.368333,766.095498
630.878091,-2516.700203,-7624.121203,-1149.143247
630.878415,-4367.215058,-7476.080014,-3140.991542
630.878739,-6587.832884,-11177.109724,-2221.676944
630.879063,-4885.359217,-12435.459826,-1149.143247
630.879387,-2368.659014,-11029.068536,-1149.143247
630.879712,-2738.761985,-10362.883188,1838.629195
630.880036,-1554.432478,-10510.924376,1225.752797
630.880360,1184.329507,-10658.965565,76.609550
630.880684,3330.926739,-9992.780217,76.609550
630.881008,5329.482782,-9326.594869,2374.896044
630.881332,6809.894666,-10881.027347,2451.505594
630.881656,6661.853478,-11621.233289,1302.362347
630.881980,4219.173869,-10362.883188,1915.238745
630.882304,2146.597232,-9844.739029,229.828649
630.882628,518.144159,-9844.739029,-2374.896044
630.882952,-1480.411884,-11251.130318,-1608.800546
630.883276,-1332.370696,-11547.212695,-612.876398
630.883600,-444.123565,-9844.739029,-919.314598
630.883924,-1628.453072,-8142.265362,-1532.190996
630.884249,-2664.741391,-8068.244768,536.266849
630.884573,-2220.617826,-9474.636058,153.219100
630.884897,-1258.350101,-10066.800811,-1455.581446
630.885221,-2664.741391,-8438.347739,-383.047749
630.885545,-2886.803174,-8660.409521,459.657299
630.885869,-370.102971,-10288.862594,0.000000
630.886193,1406.391290,-11177.109724,842.705048
630.886517,2146.597232,-10584.944971,612.876398
630.886841,2664.741391,-9696.697840,536.266849
630.887165,3108.864956,-10658.965565,-153.219100
630.887489,2368.659014,-11177.109724,0.000000
630.887813,1850.514855,-10955.047942,689.485948
630.888137,1924.535449,-10436.903782,-153.219100
630.888461,518.144159,-9326.594869,-995.924147
630.888786,-666.185348,-9326.594869,-459.657299
630.889110,-740.205942,-9104.533087,-459.657299
630.889434,-1110.308913,-9474.636058,-536.266849
630.889758,-2294.638420,-8290.306550,-766.095498
630.890082,-2960.823768,-6661.853478,-689.485948
630.890406,-2516.700203,-6291.750507,-919.314598
630.890730,-1998.556043,-7328.038826,0.000000
630.891054,-888.247130,-8512.368333,-842.705048
630.891378,296.082377,-8586.388927,76.609550
630.891702,1480.411884,-8808.450710,612.876398
630.892026,962.267725,-9770.718434,612.876398
630.892350,518.144159,-10214.842000,-306.438199
630.892674,0.000000,-10658.965565,-306.438199
630.892998,-592.164754,-11991.336260,-842.705048
630.893323,-1184.329507,-11473.192101,-689.485948
630.893647,-1406.391290,-10955.047942,-689.485948
630.893971,-1332.370696,-9992.780217,-689.485948
630.894295,-592.164754,-10510.924376,-612.876398
630.894619,-518.144159,-11251.130318,-536.266849
630.894943,-962.267725,-10214.842000,-689.485948
630.895267,-1554.432478,-9104.533087,-689.485948
630.895591,-1998.556043,-9474.636058,-1072.533697
630.895915,-962.267725,-9326.594869,459.657299
630.896239,518.144159,-9548.656652,229.828649
630.896563,1776.494261,-9622.677246,-459.657299
630.896887,1924.535449,-10510.924376,383.047749
630.897211,1628.453072,-10807.006753,-383.047749
630.897535,1110.308913,-9030.512492,-1302.362347
630.897860,148.041188,-8290.306550,-995.924147
630.898184,74.020594,-9400.615463,0.000000
630.898508,1628.453072,-11177.109724,229.828649
630.898832,1776.494261,-10955.047942,536.266849
630.899156,740.205942,-8808.450710,0.000000
630.899480,-370.102971,-7476.080014,-919.314598
630.899804,-1258.350101,-8290.306550,-1608.800546
630.900128,-518.144159,-9696.697840,-229.828649
630.900452,296.082377,-10584.944971,766.095498
630.900776,148.041188,-9548.656652,76.609550
630.901100,-1184.329507,-7476.080014,-766.095498
630.901424,-1924.535449,-8216.285956,-1149.143247
630.901748,-1998.556043,-10362.883188,-1532.190996
630.902073,-1036.288319,-10881.027347,-1608.800546
630.902397,74.020594,-9918.759623,-1149.143247
630.902721,370.102971,-9918.759623,0.000000
630.903045,1554.432478,-10807.006753,-459.657299
630.903369,2220.617826,-10436.903782,-1225.752797
630.903693,2220.617826,-9992.780217,-383.047749
630.904017,2072.576638,-12583.501014,612.876398
630.904341,2220.617826,-13767.830521,612.876398
630.904665,1184.329507,-11695.253884,306.438199
630.904989,-74.020594,-9622.677246,842.705048
630.905313,-1036.288319,-10732.986159,-612.876398
630.905637,-1924.535449,-10807.006753,-1991.848295
630.905961,-2442.679609,-9474.636058,-919.314598
630.906285,-1702.473667,-9844.739029,76.609550
630.906610,-222.061783,-9400.615463,76.609550
630.906934,222.061783,-8216.285956,-459.657299
630.907258,-1850.514855,-7105.977043,-153.219100
630.907582,-2960.823768,-8068.244768,-1225.752797
630.907906,-3330.926739,-9474.636058,-995.924147
630.908230,-2960.823768,-9696.697840,76.609550
630.908554,-1332.370696,-8734.430116,766.095498
630.908878,444.123565,-7994.224174,766.095498
630.909202,1850.514855,-8512.368333,766.095498
630.909526,2146.597232,-9474.636058,1608.800546
630.909850,2368.659014,-9252.574275,1455.581446
630.910174,2072.576638,-8438.347739,1225.752797
630.910498,1406.391290,-7994.224174,919.314598
630.910822,888.247130,-8512.368333,766.095498
630.911147,1110.308913,-9178.553681,612.876398
630.911471,1332.370696,-9844.739029,612.876398
630.911795,0.000000,-9474.636058,1225.752797
630.912119,-888.247130,-9992.780217,536.266849
630.912443,-1554.432478,-10732.986159,229.828649
630.912767,-1702.473667,-9844.739029,536.266849
630.913091,-814.226536,-9104.533087,306.438199
630.913415,-518.144159,-8808.450710,0.000000
630.913739,-518.144159,-8142.265362,-536.266849
630.914063,-1184.329507,-9548.656652,995.924147
630.914387,-592.164754,-9548.656652,689.485948
630.914711,-370.102971,-8364.327145,153.219100
630.915035,-592.164754,-8142.265362,689.485948
630.915359,370.102971,-9474.636058,306.438199
630.915684,1850.514855,-9918.759623,76.609550
630.916008,2442.679609,-9622.677246,842.705048
630.916332,2368.659014,-9770.718434,995.924147
630.916656,1480.411884,-10140.821405,459.657299
630.916980,1332.370696,-10436.903782,0.000000
630.917304,-370.102971,-10732.986159,536.266849
630.917628,-1258.350101,-10881.027347,-612.876398
630.917952,-1850.514855,-10807.006753,0.000000
630.918276,-1850.514855,-10584.944971,0.000000
630.918600,-1554.432478,-9992.780217,-536.266849
630.918924,-444.123565,-9548.656652,-689.485948
630.919248,518.144159,-9844.739029,-689.485948
630.919572,1110.308913,-10881.027347,0.000000
630.919896,1184.329507,-11769.274478,-612.876398
630.920221,0.000000,-10732.986159,-766.095498
630.920545,-1258.350101,-9326.594869,-689.485948
630.920869,-1628.453072,-10066.800811,-766.095498
630.921193,-740.205942,-10140.821405,-919.314598
630.921517,0.000000,-11325.150913,-383.047749
630.921841,-518.144159,-10288.862594,-689.485948
630.922165,-740.205942,-8882.471304,-1149.143247
630.922489,-444.123565,-7476.080014,-1225.752797
630.922813,0.000000,-7920.203579,-536.266849
630.923137,0.000000,-9474.636058,-612.876398
630.923461,-1036.288319,-9548.656652,-1149.143247
630.923785,-1110.308913,-9770.718434,-612.876398
630.924109,-1850.514855,-8808.450710,-1532.190996
630.924434,-1628.453072,-8956.491898,-2145.067394
630.924758,-296.082377,-9918.759623,-1685.410096
630.925082,666.185348,-10807.006753,-459.657299
630.925406,2220.617826,-10807.006753,383.047749
630.925730,2220.617826,-9918.759623,-919.314598
630.926054,1554.432478,-9474.636058,-153.219100
630.926378,1332.370696,-9474.636058,-919.314598
630.926702,1554.432478,-10510.924376,-153.219100
630.927026,1628.453072,-11621.233289,306.438199
630.927350,74.020594,-10807.006753,-153.219100
630.927674,-1332.370696,-9474.636058,0.000000
630.927998,-2072.576638,-8586.388927,-229.828649
630.928322,-1036.288319,-8290.306550,-1455.581446
630.928646,296.082377,-8068.244768,-612.876398
630.928971,888.247130,-7846.182985,0.000000
630.929295,1184.329507,-9104.533087,0.000000
630.929619,740.205942,-8808.450710,76.609550
630.929943,222.061783,-7254.018232,-842.705048
630.930267,-1036.288319,-7031.956449,-536.266849
630.930591,-1332.370696,-8216.285956,-919.314598
630.930915,-148.041188,-10807.006753,0.000000
630.931239,814.226536,-10881.027347,1302.362347
630.931563,2146.597232,-9696.697840,1762.019645
630.931887,1924.535449,-9844.739029,1762.019645
630.932211,1110.308913,-10732.986159,1225.752797
630.932535,666.185348,-11547.212695,1302.362347
630.932859,-370.102971,-11843.295072,1149.143247
630.933183,-1480.411884,-11029.068536,153.219100
630.933508,-2442.679609,-9622.677246,-842.705048
630.933832,-2886.803174,-9326.594869,-383.047749
630.934156,-1480.411884,-10362.883188,153.219100
630.934480,-666.185348,-10807.006753,919.314598
630.934804,-222.061783,-10436.903782,842.705048
630.935128,0.000000,-9400.615463,1072.533697
630.935452,148.041188,-9770.718434,0.000000
630.935776,-592.164754,-10066.800811,153.219100
630.936100,-518.144159,-9844.739029,76.609550
630.936424,-1258.350101,-9844.739029,689.485948
630.936748,74.020594,-11029.068536,1072.533697
630.937072,666.185348,-11843.295072,1225.752797
630.937396,444.123565,-9400.615463,1378.971896
630.937720,296.082377,-7994.224174,766.095498
630.938045,-518.144159,-7920.203579,-612.876398
630.938369,-222.061783,-8956.491898,-306.438199
630.938693,666.185348,-10066.800811,1532.190996
630.939017,1184.329507,-10510.924376,1302.362347
630.939341,1110.308913,-9030.512492,536.266849
630.939665,74.020594,-8216.285956,383.047749
630.939989,-814.226536,-8660.409521,-536.266849
630.940313,-1036.288319,-9844.739029,-1608.800546
630.940637,-888.247130,-9474.636058,0.000000
630.940961,0.000000,-9696.697840,1149.143247
630.941285,1480.411884,-9474.636058,0.000000
630.941609,1924.535449,-9326.594869,612.876398
630.941933,2072.576638,-9622.677246,1225.752797
630.942257,3256.906145,-10066.800811,0.000000
630.942582,2516.700203,-10436.903782,306.438199
630.942906,962.267725,-10288.862594,2221.676944
630.943230,814.226536,-10066.800811,1072.533697
630.943554,222.061783,-8882.471304,229.828649
630.943878,-370.102971,-7328.038826,0.000000
630.944202,-814.226536,-7772.162391,-229.828649
630.944526,-222.061783,-8734.430116,-1302.362347
630.944850,0.000000,-8808.450710,-919.314598
630.945174,-444.123565,-7772.162391,-383.047749
630.945498,0.000000,-6809.894666,0.000000
630.945822,-1184.329507,-7772.162391,0.000000
630.946146,-2294.638420,-9844.739029,-383.047749
630.946470,-962.267725,-10066.800811,-766.095498
630.946794,222.061783,-9326.594869,-76.609550
630.947118,740.205942,-10510.924376,689.485948
630.947442,1110.308913,-11399.171507,1225.752797
630.947767,1554.432478,-11473.192101,383.047749
630.948091,740.205942,-10436.903782,612.876398
630.948415,0.000000,-9844.739029,-766.095498
630.948739,-1332.370696,-10362.883188,-1225.752797
630.949063,-1776.494261,-10436.903782,-1685.410096
630.949387,-1776.494261,-10288.862594,-766.095498
630.949711,-666.185348,-9474.636058,-1149.143247
630.950035,-592.164754,-9770.718434,-1455.581446
630.950359,-1258.350101,-10732.986159,-1225.752797
630.950683,-1702.473667,-10807.006753,-1455.581446
630.951007,-1776.494261,-10214.842000,-766.095498
630.951331,-962.267725,-10066.800811,-383.047749
630.951655,-444.123565,-9844.739029,0.000000
630.951979,74.020594,-9622.677246,0.000000
630.952303,740.205942,-10955.047942,612.876398
630.952627,0.000000,-10658.965565,76.609550
630.952951,-222.061783,-9252.574275,-229.828649
630.953275,-888.247130,-8586.388927,229.828649
630.953599,-1258.350101,-9474.636058,-1225.752797
630.953923,-1332.370696,-9178.553681,-2451.505594
630.954248,-1924.535449,-9400.615463,-1608.800546
630.954572,-962.267725,-10584.944971,-1072.533697
630.954896,74.020594,-10362.883188,-1685.410096
630.955220,148.041188,-9622.677246,-1149.143247
630.955544,-148.041188,-8512.368333,-995.924147
630.955868,-296.082377,-10214.842000,-383.047749
630.956192,370.102971,-11843.295072,-1072.533697
630.956516,962.267725,-10732.986159,153.219100
630.956840,1406.391290,-9252.574275,842.705048
630.957164,2812.782580,-9548.656652,306.438199
630.957488,3404.947333,-9696.697840,0.000000
630.957812,2294.638420,-10732.986159,919.314598
630.958136,1258.350101,-9992.780217,383.047749
630.958460,740.205942,-9622.677246,-229.828649
630.958784,0.000000,-8734.430116,-153.219100
630.959108,-370.102971,-8068.244768,-842.705048
630.959432,0.000000,-8660.409521,-459.657299
630.959756,518.144159,-8956.491898,-153.219100
630.960080,222.061783,-8808.450710,153.219100
630.960405,-518.144159,-8068.244768,-153.219100
630.960729,-666.185348,-7031.956449,-536.266849
630.961053,-888.247130,-7476.080014,-459.657299
630.961377,-222.061783,-8734.430116,0.000000
630.961701,148.041188,-9400.615463,153.219100
630.962025,0.000000,-9548.656652,1072.533697
630.962349,518.144159,-10066.800811,1991.848295
630.962673,814.226536,-10140.821405,1685.410096
630.962997,888.247130,-10214.842000,919.314598
630.963321,74.020594,-10214.842000,995.924147
630.963645,148.041188,-10362.883188,306.438199
630.963969,518.144159,-10436.903782,383.047749
630.964293,148.041188,-9918.759623,995.924147
630.964617,0.000000,-10288.862594,842.705048
630.964941,-444.123565,-9844.739029,0.000000
630.965265,-1258.350101,-9992.780217,-536.266849
630.965589,-1924.535449,-9992.780217,-995.924147
630.965913,-2294.638420,-10955.047942,-306.438199
630.966237,-2146.597232,-11473.192101,0.000000
630.966561,-962.267725,-10510.924376,459.657299
630.966886,-740.205942,-9770.718434,1378.971896
630.967210,74.020594,-9844.739029,306.438199
630.967534,1258.350101,-9474.636058,1302.362347
630.967858,1036.288319,-10214.842000,1302.362347
630.968182,222.061783,-9918.759623,459.657299
630.968506,-444.123565,-8586.388927,459.657299
630.968830,0.000000,-9326.594869,1378.971896
630.969154,888.247130,-11103.089130,1685.410096
630.969478,592.164754,-10807.006753,383.047749
630.969802,0.000000,-9030.512492,76.609550
630.970126,-1110.308913,-8142.265362,-153.219100
630.970450,-1554.432478,-9400.615463,-1378.971896
630.970774,-1332.370696,-9474.636058,-766.095498
630.971098,-370.102971,-8882.471304,229.828649
630.971422,1110.308913,-10214.842000,1072.533697
630.971746,1110.308913,-10807.006753,612.876398
630.972070,-148.041188,-8808.450710,689.485948
630.972394,-296.082377,-8734.430116,995.924147
630.972718,888.247130,-9992.780217,842.705048
630.973042,2664.741391,-10362.883188,1072.533697
630.973367,2516.700203,-9548.656652,1762.019645
630.973691,2220.617826,-8734.430116,842.705048
630.974015,1184.329507,-8660.409521,612.876398
630.974339,1036.288319,-9400.615463,0.000000
630.974663,0.000000,-8808.450710,-229.828649
630.974987,-962.267725,-7920.203579,-306.438199
630.975311,-1628.453072,-8586.388927,-689.485948
630.975635,-1628.453072,-9104.533087,-766.095498
630.975959,-1850.514855,-8438.347739,-1302.362347
630.976283,-1776.494261,-8068.244768,-612.876398
630.976607,-888.247130,-8956.491898,-459.657299
630.976931,-592.164754,-9178.553681,-1072.533697
630.977255,-444.123565,-9252.574275,-229.828649
630.977579,74.020594,-9400.615463,-459.657299
630.977903,592.164754,-9992.780217,-383.047749
630.978227,740.205942,-10436.903782,-229.828649
630.978551,74.020594,-10658.965565,-459.657299
630.978875,-814.226536,-10658.965565,-842.705048
630.979199,-1110.308913,-10955.047942,-1455.581446
630.979523,-814.226536,-10658.965565,-919.314598
630.979848,-592.164754,-11695.253884,-995.924147
630.980172,740.205942,-11473.192101,-1302.362347
630.980496,962.267725,-10066.800811,-1302.362347
630.980820,740.205942,-10066.800811,-1225.752797
630.981144,148.041188,-11547.212695,-1378.971896
630.981468,-666.185348,-13175.665768,-1608.800546
630.981792,-2294.638420,-11325.150913,-1915.238745
630.982116,-1702.473667,-10658.965565,-1072.533697
630.982440,296.082377,-10140.821405,-1302.362347
630.982764,1924.535449,-10584.944971,0.000000
630.983088,1924.535449,-11621.233289,842.705048
630.983412,0.000000,-10658.965565,0.000000
630.983736,-1110.308913,-8142.265362,-842.705048
630.984060,-1924.535449,-7550.100608,-383.047749
630.984384,-2294.638420,-8068.244768,-689.485948
630.984708,-1036.288319,-8808.450710,-919.314598
630.985032,-444.123565,-8734.430116,0.000000
630.985356,-444.123565,-8068.244768,0.000000
630.985680,-444.123565,-7920.203579,-1149.143247
630.986004,-148.041188,-8216.285956,-1225.752797
630.986329,444.123565,-9030.512492,153.219100
630.986653,1776.494261,-9992.780217,842.705048
630.986977,2590.720797,-9918.759623,1762.019645
630.987301,1554.432478,-8586.388927,1302.362347
630.987625,1258.350101,-9252.574275,842.705048
630.987949,1554.432478,-9696.697840,689.485948
630.988273,1702.473667,-9770.718434,919.314598
630.988597,962.267725,-9918.759623,1685.410096
630.988921,148.041188,-10214.842000,1838.629195
630.989245,-592.164754,-10214.842000,1225.752797
630.989569,-740.205942,-9326.594869,1149.143247
630.989893,0.000000,-8364.327145,459.657299
630.990217,74.020594,-8438.347739,306.438199
630.990541,444.123565,-9178.553681,-383.047749
630.990865,0.000000,-10140.821405,383.047749
630.991189,-1332.370696,-9326.594869,383.047749
630.991513,-2516.700203,-8512.368333,536.266849
630.991837,-2368.659014,-8882.471304,306.438199
630.992161,-1406.391290,-8808.450710,612.876398
630.992485,0.000000,-9326.594869,1072.533697
630.992810,1110.308913,-9696.697840,1378.971896
630.993134,2072.576638,-8808.450710,1302.362347
630.993458,2368.659014,-9400.615463,1378.971896
630.993782,1184.329507,-10510.924376,1225.752797
630.994106,222.061783,-10214.842000,459.657299
630.994430,0.000000,-9844.739029,0.000000
