#time,accel_x,accel_y,accel_z
820.597112,-3478.967927,-9622.677246,1072.533697
820.597436,-4737.318029,-9918.759623,0.000000
820.597760,-5995.668130,-10140.821405,-459.657299
820.598084,-6809.894666,-8364.327145,-1149.143247
820.598408,-6513.812290,-6069.688724,-1302.362347
820.598732,-8438.347739,-7920.203579,-2298.286494
820.599056,-10214.842000,-10658.965565,-612.876398
820.599380,-7920.203579,-11843.295072,0.000000
820.599704,-3182.885551,-9770.718434,-306.438199
820.600028,-1036.288319,-5699.585753,1762.019645
820.600352,814.226536,-6513.812290,1302.362347
820.600676,3034.844362,-9252.574275,1455.581446
820.601000,3923.091493,-11695.253884,1072.533697
820.601324,3404.947333,-11695.253884,1225.752797
820.601648,3256.906145,-10288.862594,1532.190996
820.601972,2516.700203,-11177.109724,2221.676944
820.602296,1258.350101,-12361.439231,2528.115143
820.602620,148.041188,-11843.295072,2068.457845
820.602944,-1776.494261,-11251.130318,459.657299
820.603268,-4293.194464,-10732.986159,229.828649
820.603592,-4441.235652,-8586.388927,383.047749
820.603916,-2442.679609,-7105.977043,995.924147
820.604240,-2294.638420,-7328.038826,2145.067394
820.604564,-2960.823768,-8512.368333,919.314598
820.604888,-4293.194464,-9178.553681,383.047749
820.605212,-4959.379811,-7920.203579,-153.219100
820.605536,-5181.441594,-8142.265362,-1072.533697
820.605860,-4219.173869,-10732.986159,919.314598
820.606184,-1850.514855,-13101.645173,842.705048
820.606508,0.000000,-13027.624579,1455.581446
820.606832,296.082377,-11547.212695,2757.943793
820.607155,370.102971,-11621.233289,3370.820191
820.607479,370.102971,-12657.521608,3983.696590
820.607803,-518.144159,-11547.212695,3753.867940
820.608127,-1924.535449,-10510.924376,3600.648841
820.608451,-2738.761985,-10881.027347,3677.258390
820.608775,-3923.091493,-11325.150913,3370.820191
820.609099,-5033.400406,-9918.759623,3447.429741
820.609423,-5477.523971,-8142.265362,3753.867940
820.609747,-5329.482782,-7846.182985,2987.772442
820.610071,-4737.318029,-7846.182985,2528.115143
820.610395,-3478.967927,-7105.977043,2374.896044
820.610719,-3182.885551,-6513.812290,2987.772442
820.611043,-2664.741391,-7031.956449,3140.991542
820.611367,-2368.659014,-8142.265362,2757.943793
820.611691,-1702.473667,-8808.450710,3217.601092
820.612015,-1702.473667,-8068.244768,3600.648841
820.612339,-1850.514855,-9030.512492,4136.915689
820.612663,-2516.700203,-10436.903782,4519.963438
820.612987,-2812.782580,-10955.047942,4596.572988
820.613311,-2590.720797,-10807.006753,4979.620737
820.613635,-2146.597232,-10584.944971,4903.011187
820.613959,-444.123565,-10510.924376,5286.058936
820.614283,962.267725,-9844.739029,5132.839837
820.614607,666.185348,-9104.533087,4826.401637
820.614931,-1258.350101,-7846.182985,4443.353888
820.615255,-2812.782580,-7254.018232,2834.553343
820.615579,-4441.235652,-6291.750507,1838.629195
820.615903,-5551.544565,-5255.462188,-1685.410096
820.616227,-7031.956449,-7550.100608,-1072.533697
820.616551,-5181.441594,-10436.903782,0.000000
820.616875,-814.226536,-10066.800811,-612.876398
820.617199,888.247130,-9104.533087,2528.115143
820.617523,1036.288319,-7846.182985,3140.991542
820.617847,1332.370696,-9104.533087,2068.457845
820.618171,592.164754,-10658.965565,2374.896044
820.618495,0.000000,-10140.821405,2681.334243
820.618819,222.061783,-10955.047942,3294.210641
820.619143,1184.329507,-12509.480420,2987.772442
820.619467,1850.514855,-12213.398043,3600.648841
820.619791,2590.720797,-9918.759623,2911.162892
820.620115,1406.391290,-7402.059420,-1378.971896
820.620439,-2294.638420,-9252.574275,-3447.429741
820.620763,-4811.338623,-12509.480420,-3907.087040
820.621087,-3034.844362,-12139.377449,-5515.887586
820.621410,-2368.659014,-10288.862594,-3677.258390
820.621734,-2072.576638,-9696.697840,-2068.457845
820.622058,0.000000,-10584.944971,-1608.800546
820.622382,2368.659014,-11843.295072,-2374.896044
820.622706,3404.947333,-10510.924376,-689.485948
820.623030,3404.947333,-10362.883188,1378.971896
820.623354,2220.617826,-11399.171507,612.876398
820.623678,0.000000,-10584.944971,689.485948
820.624002,-1480.411884,-10140.821405,2145.067394
820.624326,-222.061783,-10955.047942,919.314598
820.624650,1702.473667,-10658.965565,-306.438199
820.624974,1776.494261,-8068.244768,-3064.381992
820.625301,666.185348,-6217.729913,-4366.744339
820.625625,-814.226536,-8808.450710,-4903.011187
820.625949,-1628.453072,-10362.883188,-7124.688131
820.626273,-3182.885551,-10288.862594,-4903.011187
820.626597,-3775.050304,-10510.924376,-1685.410096
820.626922,-1702.473667,-10510.924376,-2681.334243
820.627246,-1110.308913,-11177.109724,-1532.190996
820.627570,-1184.329507,-9992.780217,-153.219100
820.627894,148.041188,-7994.224174,0.000000
820.628218,0.000000,-9696.697840,-229.828649
820.628542,-1998.556043,-12065.356855,1455.581446
820.628866,0.000000,-11843.295072,2528.115143
820.629190,3182.885551,-10584.944971,2834.553343
820.629515,3256.906145,-8660.409521,2374.896044
820.629839,1406.391290,-7105.977043,1149.143247
820.630163,370.102971,-6291.750507,-1378.971896
820.630487,-444.123565,-3775.050304,-4136.915689
820.630811,-2590.720797,-2812.782580,-6971.469032
820.631135,-5255.462188,-9622.677246,-2221.676944
820.631459,-2812.782580,-16654.633695,-1072.533697
820.631784,-148.041188,-15618.345376,-2834.553343
820.632108,-3923.091493,-11325.150913,1149.143247
820.632432,-4515.256246,-9178.553681,919.314598
820.632756,-1554.432478,-10881.027347,-1225.752797
820.633080,518.144159,-11103.089130,1149.143247
820.633404,4589.276840,-7624.121203,4290.134789
820.633728,9178.553681,-8068.244768,6358.592633
820.634052,9104.533087,-11621.233289,4673.182538
820.634377,4515.256246,-9622.677246,4979.620737
820.634701,148.041188,-5847.626942,612.876398
820.635025,-4663.297435,-6143.709319,-3217.601092
820.635349,-8364.327145,-11621.233289,-3064.381992
820.635673,-6143.709319,-14211.954086,-2145.067394
820.635997,-518.144159,-11473.192101,-1532.190996
820.636321,148.041188,-9326.594869,2298.286494
820.636645,-888.247130,-9770.718434,2298.286494
820.636970,-1924.535449,-10362.883188,536.266849
820.637294,-2368.659014,-9474.636058,919.314598
820.637618,-740.205942,-7179.997637,3447.429741
820.637942,3182.885551,-8660.409521,5209.449386
820.638266,6809.894666,-11177.109724,6128.763984
820.638590,7920.203579,-9548.656652,6358.592633
820.638914,4811.338623,-6217.729913,2834.553343
820.639238,-1110.308913,-7105.977043,0.000000
820.639563,-4737.318029,-10881.027347,-995.924147
820.639887,-4219.173869,-12065.356855,-2604.724693
820.640211,-1924.535449,-9696.697840,-1072.533697
820.640535,-370.102971,-8660.409521,1149.143247
820.640859,1184.329507,-9400.615463,919.314598
820.641183,222.061783,-9178.553681,612.876398
820.641507,-1776.494261,-8290.306550,536.266849
820.641832,-1258.350101,-6809.894666,2068.457845
820.642156,1702.473667,-8068.244768,3064.381992
820.642480,4071.132681,-9326.594869,3524.039291
820.642804,4441.235652,-8882.471304,4903.011187
820.643128,3552.988522,-8586.388927,3140.991542
820.643452,0.000000,-8216.285956,-612.876398
820.643776,-4219.173869,-9696.697840,-2145.067394
820.644100,-4737.318029,-10807.006753,-3064.381992
820.644425,-2368.659014,-9770.718434,-3677.258390
820.644749,-1332.370696,-10436.903782,-2757.943793
820.645073,-740.205942,-10955.047942,-1608.800546
820.645397,0.000000,-11325.150913,-2374.896044
820.645721,-222.061783,-11399.171507,-2374.896044
820.646045,-1184.329507,-10288.862594,-383.047749
820.646369,962.267725,-9548.656652,995.924147
820.646693,4071.132681,-10214.842000,1915.238745
820.647018,4959.379811,-11547.212695,2145.067394
820.647342,4071.132681,-11473.192101,1838.629195
820.647666,2368.659014,-10214.842000,-229.828649
820.647990,-370.102971,-9844.739029,-1915.238745
820.648314,-3034.844362,-10214.842000,-2834.553343
820.648638,-4071.132681,-9252.574275,-4519.963438
820.648962,-3256.906145,-8882.471304,-4903.011187
820.649287,-3182.885551,-9104.533087,-4366.744339
820.649611,-2368.659014,-10214.842000,-4519.963438
820.649935,-1554.432478,-10066.800811,-3983.696590
820.650259,-1480.411884,-9326.594869,-2604.724693
820.650583,-888.247130,-8808.450710,-1149.143247
820.650907,740.205942,-9326.594869,229.828649
820.651231,3627.009116,-9770.718434,1532.190996
820.651555,4515.256246,-11177.109724,1838.629195
820.651880,4145.153275,-11843.295072,1608.800546
820.652204,2442.679609,-10881.027347,612.876398
820.652528,-370.102971,-9770.718434,-536.266849
820.652852,-3182.885551,-9252.574275,-1991.848295
820.653176,-4663.297435,-9252.574275,-3294.210641
820.653500,-3775.050304,-9770.718434,-3830.477490
820.653824,-3034.844362,-9992.780217,-3983.696590
820.654148,-1628.453072,-9770.718434,-2911.162892
820.654473,74.020594,-9178.553681,-2221.676944
820.654797,296.082377,-8364.327145,-1225.752797
820.655121,0.000000,-7846.182985,0.000000
820.655445,814.226536,-7994.224174,1072.533697
820.655769,2812.782580,-9178.553681,1762.019645
820.656093,3701.029710,-9622.677246,2451.505594
820.656417,3923.091493,-9622.677246,2987.772442
820.656742,3108.864956,-9474.636058,1991.848295
820.657066,814.226536,-9474.636058,383.047749
820.657390,-2072.576638,-8956.491898,-536.266849
820.657714,-3256.906145,-8882.471304,-1455.581446
820.658038,-2886.803174,-9474.636058,-1685.410096
820.658362,-1850.514855,-10288.862594,-842.705048
820.658686,-222.061783,-9992.780217,-306.438199
820.659010,888.247130,-9474.636058,0.000000
820.659335,740.205942,-9548.656652,383.047749
820.659659,370.102971,-9326.594869,1378.971896
820.659983,1554.432478,-9622.677246,2298.286494
820.660307,3182.885551,-10584.944971,3064.381992
820.660631,3330.926739,-11103.089130,3294.210641
820.660955,2960.823768,-10881.027347,2528.115143
820.661279,1332.370696,-10436.903782,1762.019645
820.661603,-1036.288319,-9622.677246,842.705048
820.661928,-2960.823768,-8808.450710,76.609550
820.662252,-2960.823768,-8660.409521,-689.485948
820.662576,-1924.535449,-9474.636058,-459.657299
820.662900,-518.144159,-9696.697840,-689.485948
820.663224,0.000000,-8882.471304,306.438199
820.663548,0.000000,-8882.471304,766.095498
820.663872,-814.226536,-9030.512492,766.095498
820.664196,-592.164754,-9252.574275,1532.190996
820.664521,1332.370696,-9474.636058,2145.067394
820.664845,3182.885551,-10362.883188,2681.334243
820.665169,3923.091493,-10881.027347,2911.162892
820.665493,2738.761985,-10066.800811,2374.896044
820.665817,740.205942,-9992.780217,1608.800546
820.666141,-2590.720797,-9178.553681,612.876398
820.666465,-4737.318029,-8438.347739,-1072.533697
820.666790,-4811.338623,-8734.430116,-1149.143247
820.667114,-3034.844362,-9400.615463,-1532.190996
820.667438,-1776.494261,-9178.553681,-1302.362347
820.667762,-1480.411884,-9104.533087,-612.876398
820.668086,-1554.432478,-9104.533087,153.219100
820.668410,-1850.514855,-8734.430116,-306.438199
820.668734,-740.205942,-8956.491898,766.095498
820.669058,518.144159,-9474.636058,1532.190996
820.669383,2294.638420,-10510.924376,1455.581446
820.669707,2960.823768,-10732.986159,1532.190996
820.670031,1924.535449,-9770.718434,1378.971896
820.670355,814.226536,-9622.677246,383.047749
820.670679,-1258.350101,-8956.491898,-919.314598
820.671003,-1998.556043,-8808.450710,-995.924147
820.671327,-2220.617826,-9030.512492,-1991.848295
820.671651,-1702.473667,-9992.780217,-2451.505594
820.671976,-1332.370696,-10066.800811,-1991.848295
820.672300,-1110.308913,-9770.718434,-1455.581446
820.672624,-592.164754,-9622.677246,-1532.190996
820.672948,-370.102971,-9178.553681,-459.657299
820.673272,666.185348,-9474.636058,-153.219100
820.673596,2590.720797,-10140.821405,1072.533697
820.673920,4071.132681,-11399.171507,842.705048
820.674245,3552.988522,-11325.150913,689.485948
820.674569,2072.576638,-10732.986159,153.219100
820.674893,444.123565,-10288.862594,-536.266849
820.675217,-740.205942,-10362.883188,-1455.581446
820.675541,-1036.288319,-9696.697840,-1455.581446
820.675865,-962.267725,-10066.800811,-1915.238745
820.676189,-296.082377,-10436.903782,-2145.067394
820.676513,-888.247130,-10066.800811,-1915.238745
820.676838,-1628.453072,-9548.656652,-1455.581446
820.677162,-1702.473667,-9326.594869,-842.705048
820.677486,-222.061783,-9326.594869,-459.657299
820.677810,1554.432478,-9178.553681,1072.533697
820.678134,2442.679609,-9696.697840,1302.362347
820.678458,2812.782580,-10658.965565,689.485948
820.678782,1702.473667,-10658.965565,842.705048
820.679106,370.102971,-10288.862594,306.438199
820.679431,-1184.329507,-9474.636058,-536.266849
820.679755,-1850.514855,-9104.533087,-766.095498
820.680079,-1258.350101,-9178.553681,-1225.752797
820.680403,-296.082377,-9770.718434,-1072.533697
820.680727,0.000000,-9770.718434,-919.314598
820.681051,-444.123565,-9474.636058,-1072.533697
820.681375,-1258.350101,-8586.388927,-229.828649
820.681700,-1036.288319,-8216.285956,0.000000
820.682024,0.000000,-8142.265362,766.095498
820.682348,1332.370696,-8882.471304,1149.143247
820.682672,2072.576638,-9696.697840,1608.800546
820.682996,2146.597232,-10214.842000,842.705048
820.683320,888.247130,-9400.615463,689.485948
820.683644,-222.061783,-9252.574275,0.000000
820.683968,-1480.411884,-8956.491898,-612.876398
820.684293,-1776.494261,-8956.491898,-766.095498
820.684617,-740.205942,-9400.615463,-766.095498
820.684941,-222.061783,-9992.780217,-995.924147
820.685265,0.000000,-10362.883188,-766.095498
820.685589,-444.123565,-10066.800811,0.000000
820.685913,-1036.288319,-9548.656652,0.000000
820.686237,-370.102971,-9252.574275,153.219100
820.686561,740.205942,-9474.636058,842.705048
820.686886,2072.576638,-10362.883188,1302.362347
820.687210,2442.679609,-11177.109724,1072.533697
820.687534,2072.576638,-11325.150913,1302.362347
820.687858,370.102971,-10288.862594,459.657299
820.688182,-740.205942,-10807.006753,-153.219100
820.688506,-1998.556043,-9844.739029,-1149.143247
820.688830,-1998.556043,-9548.656652,-1455.581446
820.689154,-1184.329507,-9770.718434,-1378.971896
820.689479,-740.205942,-9992.780217,-995.924147
820.689803,-222.061783,-9696.697840,-383.047749
820.690127,-666.185348,-9326.594869,0.000000
820.690451,-592.164754,-8882.471304,0.000000
820.690775,-518.144159,-8660.409521,766.095498
820.691099,888.247130,-9252.574275,1532.190996
820.691423,2590.720797,-9992.780217,1762.019645
820.691748,2886.803174,-10140.821405,1608.800546
820.692072,2072.576638,-9918.759623,1302.362347
820.692396,148.041188,-9696.697840,383.047749
820.692720,-1258.350101,-9252.574275,-153.219100
820.693044,-2516.700203,-8660.409521,-1302.362347
820.693368,-2368.659014,-8734.430116,-1149.143247
820.693692,-1480.411884,-9400.615463,-766.095498
820.694016,-370.102971,-9770.718434,-536.266849
820.694341,-444.123565,-9252.574275,229.828649
820.694665,-888.247130,-9030.512492,229.828649
820.694989,-370.102971,-9326.594869,306.438199
820.695313,-444.123565,-8808.450710,1991.848295
820.695637,1406.391290,-9548.656652,2068.457845
820.695961,2516.700203,-10658.965565,2145.067394
820.696285,1924.535449,-11103.089130,1532.190996
820.696609,148.041188,-10288.862594,536.266849
820.696934,-1184.329507,-9548.656652,0.000000
820.697258,-2294.638420,-9326.594869,-842.705048
820.697582,-2368.659014,-9030.512492,-1302.362347
820.697906,-1184.329507,-9474.636058,-766.095498
820.698230,-148.041188,-10214.842000,-842.705048
820.698554,-74.020594,-9844.739029,-766.095498
820.698878,-592.164754,-9622.677246,-459.657299
820.699203,-1480.411884,-9474.636058,0.000000
820.699527,-888.247130,-9474.636058,383.047749
820.699851,518.144159,-9474.636058,1455.581446
820.700175,2368.659014,-10362.883188,1532.190996
820.700499,2886.803174,-10732.986159,1225.752797
820.700823,2368.659014,-10510.924376,536.266849
820.701147,888.247130,-10288.862594,0.000000
820.701471,-740.205942,-9844.739029,-995.924147
820.701796,-1702.473667,-9474.636058,-1685.410096
820.702120,-1258.350101,-9622.677246,-1762.019645
820.702444,-518.144159,-9474.636058,-1608.800546
820.702768,148.041188,-10362.883188,-1608.800546
820.703092,-370.102971,-10436.903782,-1608.800546
820.703416,-1258.350101,-9770.718434,-1149.143247
820.703740,-1332.370696,-9178.553681,-459.657299
820.704064,-740.205942,-8956.491898,-76.609550
820.704389,1036.288319,-9622.677246,995.924147
820.704713,2368.659014,-10066.800811,1302.362347
820.705037,2220.617826,-10362.883188,842.705048
820.705361,1184.329507,-10140.821405,306.438199
820.705685,222.061783,-9696.697840,-153.219100
820.706009,-740.205942,-8808.450710,-919.314598
820.706333,-1110.308913,-8438.347739,-1149.143247
820.706658,-740.205942,-9104.533087,-1532.190996
820.706982,-740.205942,-10140.821405,-1685.410096
820.707306,-666.185348,-10214.842000,-1762.019645
820.707630,-814.226536,-9770.718434,-1072.533697
820.707954,-1036.288319,-9030.512492,-842.705048
820.708278,-740.205942,-8438.347739,0.000000
820.708602,148.041188,-9104.533087,689.485948
820.708926,2368.659014,-10066.800811,1302.362347
820.709251,3775.050304,-10658.965565,1378.971896
820.709575,2886.803174,-10214.842000,995.924147
820.709899,1184.329507,-9770.718434,536.266849
820.710223,-740.205942,-9622.677246,-536.266849
820.710547,-1924.535449,-9400.615463,-1225.752797
820.710871,-1406.391290,-8956.491898,-1608.800546
820.711195,-1110.308913,-9918.759623,-1608.800546
820.711519,-370.102971,-10214.842000,-1838.629195
820.711844,-444.123565,-10214.842000,-1225.752797
820.712168,-666.185348,-9622.677246,-995.924147
820.712492,-1406.391290,-9030.512492,-459.657299
820.712816,-1480.411884,-9104.533087,76.609550
820.713140,0.000000,-9548.656652,1302.362347
820.713464,1776.494261,-10214.842000,1532.190996
820.713788,2294.638420,-10732.986159,1762.019645
820.714113,1998.556043,-10658.965565,1455.581446
820.714437,888.247130,-10140.821405,1072.533697
820.714761,-148.041188,-9326.594869,76.609550
820.715085,-1258.350101,-8660.409521,-306.438199
820.715409,-1332.370696,-9326.594869,-153.219100
820.715733,-1184.329507,-9844.739029,-1225.752797
820.716057,-1332.370696,-9770.718434,-1149.143247
820.716381,-1850.514855,-9548.656652,-842.705048
820.716706,-2072.576638,-9030.512492,-612.876398
820.717030,-1480.411884,-8290.306550,-229.828649
820.717354,-148.041188,-8512.368333,689.485948
820.717678,1332.370696,-8660.409521,1225.752797
820.718002,2442.679609,-9844.739029,1685.410096
820.718326,2220.617826,-10436.903782,1225.752797
820.718650,1110.308913,-10140.821405,1149.143247
820.718974,-444.123565,-9918.759623,459.657299
820.719299,-1776.494261,-9474.636058,-383.047749
820.719623,-2072.576638,-9104.533087,-459.657299
820.719947,-740.205942,-9696.697840,-536.266849
820.720271,74.020594,-10436.903782,-612.876398
820.720595,0.000000,-10288.862594,-689.485948
820.720919,-740.205942,-9844.739029,-306.438199
820.721243,-1184.329507,-9178.553681,-229.828649
820.721567,-1110.308913,-8956.491898,229.828649
820.721892,0.000000,-9104.533087,919.314598
820.722216,1480.411884,-9770.718434,1149.143247
820.722540,2220.617826,-10362.883188,1072.533697
820.722864,2368.659014,-10732.986159,1378.971896
820.723188,740.205942,-10362.883188,995.924147
820.723512,-814.226536,-9474.636058,0.000000
820.723836,-1776.494261,-9252.574275,0.000000
820.724161,-1258.350101,-9474.636058,-459.657299
820.724485,-370.102971,-9844.739029,-383.047749
820.724809,222.061783,-10066.800811,-1072.533697
820.725133,518.144159,-10362.883188,0.000000
820.725457,-296.082377,-9696.697840,76.609550
820.725781,-444.123565,-9030.512492,306.438199
820.726105,148.041188,-8734.430116,766.095498
820.726429,1628.453072,-9474.636058,1378.971896
820.726753,3108.864956,-9918.759623,1378.971896
820.727077,3404.947333,-10288.862594,1302.362347
820.727401,1850.514855,-10066.800811,842.705048
820.727725,74.020594,-9474.636058,153.219100
820.728049,-1480.411884,-9326.594869,-459.657299
820.728373,-1850.514855,-9104.533087,-842.705048
820.728697,-1702.473667,-9252.574275,-995.924147
820.729021,-962.267725,-9474.636058,-995.924147
820.729345,-222.061783,-9622.677246,0.000000
820.729669,-370.102971,-9252.574275,-229.828649
820.729993,-222.061783,-9030.512492,612.876398
820.730317,-592.164754,-8808.450710,-306.438199
820.730641,0.000000,-9178.553681,1225.752797
820.730965,1332.370696,-9918.759623,1302.362347
820.731289,2442.679609,-10584.944971,1225.752797
820.731613,2072.576638,-10658.965565,919.314598
820.731937,444.123565,-9696.697840,383.047749
820.732261,-518.144159,-9770.718434,-306.438199
820.732585,-1406.391290,-9104.533087,-1532.190996
820.732910,-1554.432478,-9104.533087,-1302.362347
820.733234,-1110.308913,-9178.553681,-1455.581446
820.733558,-444.123565,-9770.718434,-1838.629195
820.733882,-296.082377,-9918.759623,-1072.533697
820.734206,-518.144159,-9252.574275,-766.095498
820.734530,-1776.494261,-9252.574275,-1532.190996
820.734854,-1406.391290,-9104.533087,306.438199
820.735178,222.061783,-9474.636058,0.000000
820.735502,2072.576638,-9918.759623,459.657299
820.735826,2960.823768,-10807.006753,459.657299
820.736150,2220.617826,-11103.089130,0.000000
820.736474,666.185348,-10584.944971,0.000000
820.736798,-666.185348,-9696.697840,-1302.362347
820.737122,-1480.411884,-9918.759623,-1532.190996
820.737446,-962.267725,-9844.739029,-1762.019645
820.737770,-444.123565,-10807.006753,-1991.848295
820.738094,-222.061783,-10807.006753,-1608.800546
820.738418,-222.061783,-10658.965565,-919.314598
820.738742,-444.123565,-10362.883188,-383.047749
820.739066,-148.041188,-10066.800811,0.000000
820.739390,-222.061783,-9918.759623,76.609550
820.739714,1258.350101,-9992.780217,306.438199
820.740038,1924.535449,-10066.800811,842.705048
820.740362,1628.453072,-10584.944971,766.095498
820.740686,814.226536,-10066.800811,0.000000
820.741010,-518.144159,-9474.636058,-229.828649
820.741334,-1776.494261,-8586.388927,-1149.143247
820.741658,-1850.514855,-8068.244768,-1302.362347
820.741982,-888.247130,-8364.327145,-689.485948
820.742306,-296.082377,-9400.615463,-1225.752797
820.742630,-518.144159,-9770.718434,-689.485948
820.742954,-1406.391290,-9400.615463,-306.438199
820.743278,-1776.494261,-8734.430116,0.000000
820.743602,-1554.432478,-8364.327145,153.219100
820.743926,0.000000,-8956.491898,1608.800546
820.744250,1776.494261,-9622.677246,1915.238745
820.744574,2960.823768,-10066.800811,1378.971896
820.744898,2664.741391,-10140.821405,1838.629195
820.745222,1036.288319,-9918.759623,1225.752797
820.745546,-1110.308913,-9474.636058,-229.828649
820.745870,-2294.638420,-9178.553681,-766.095498
820.746194,-1702.473667,-9104.533087,-995.924147
820.746518,-814.226536,-9696.697840,-919.314598
820.746842,0.000000,-9548.656652,0.000000
820.747166,0.000000,-9030.512492,0.000000
820.747490,-222.061783,-9030.512492,76.609550
820.747814,-740.205942,-8734.430116,306.438199
820.748138,-592.164754,-8586.388927,995.924147
820.748463,814.226536,-8956.491898,1532.190996
820.748787,2368.659014,-9622.677246,2068.457845
820.749111,3182.885551,-10584.944971,1455.581446
820.749435,2072.576638,-10436.903782,1302.362347
820.749759,370.102971,-10140.821405,842.705048
820.750083,-740.205942,-9844.739029,0.000000
820.750407,-1406.391290,-9696.697840,-153.219100
820.750731,-666.185348,-9474.636058,-383.047749
820.751055,-222.061783,-9992.780217,-229.828649
820.751379,296.082377,-10955.047942,-995.924147
820.751703,-592.164754,-10584.944971,-459.657299
820.752027,-1184.329507,-10066.800811,-229.828649
820.752351,-1554.432478,-9326.594869,0.000000
820.752675,-518.144159,-9030.512492,842.705048
820.752999,1554.432478,-9548.656652,1455.581446
820.753323,2590.720797,-10807.006753,1302.362347
820.753647,2368.659014,-11103.089130,689.485948
820.753971,592.164754,-10436.903782,76.609550
820.754295,-1258.350101,-9474.636058,-842.705048
820.754619,-2220.617826,-9252.574275,-1378.971896
820.754943,-2368.659014,-8660.409521,-1378.971896
820.755267,-1480.411884,-9400.615463,-1455.581446
820.755591,-148.041188,-10140.821405,-1532.190996
820.755915,296.082377,-10066.800811,-1072.533697
820.756239,222.061783,-9622.677246,-612.876398
820.756563,-518.144159,-9400.615463,-612.876398
820.756887,-962.267725,-9030.512492,459.657299
820.757211,-370.102971,-9548.656652,766.095498
820.757535,1702.473667,-10510.924376,1608.800546
820.757859,2442.679609,-11177.109724,919.314598
820.758183,1628.453072,-10510.924376,306.438199
820.758507,-148.041188,-9770.718434,-153.219100
820.758831,-2072.576638,-9474.636058,-995.924147
820.759155,-2590.720797,-9474.636058,-1762.019645
820.759479,-2590.720797,-9104.533087,-1532.190996
820.759803,-2294.638420,-9252.574275,-1225.752797
820.760127,-1332.370696,-10288.862594,-1378.971896
820.760451,-1036.288319,-10214.842000,-995.924147
820.760775,-1110.308913,-9548.656652,-536.266849
820.761099,-1406.391290,-8956.491898,-306.438199
820.761423,-592.164754,-9178.553681,612.876398
820.761747,1480.411884,-9474.636058,2068.457845
820.762071,3552.988522,-10066.800811,2068.457845
820.762395,3997.112087,-10658.965565,2068.457845
820.762719,2220.617826,-9548.656652,1608.800546
820.763043,370.102971,-9400.615463,153.219100
820.763367,-1480.411884,-8882.471304,-919.314598
820.763691,-2368.659014,-8882.471304,-1378.971896
820.764015,-1776.494261,-9400.615463,-1378.971896
820.764340,-592.164754,-9474.636058,-1532.190996
820.764664,-148.041188,-9696.697840,-1072.533697
820.764988,-296.082377,-9548.656652,-689.485948
820.765312,-888.247130,-9326.594869,-306.438199
820.765636,-592.164754,-9548.656652,459.657299
820.765960,666.185348,-9844.739029,1455.581446
820.766284,2368.659014,-10436.903782,2221.676944
820.766608,3849.070898,-11103.089130,2221.676944
820.766932,3256.906145,-11177.109724,2298.286494
820.767256,1480.411884,-10732.986159,1685.410096
820.767580,-888.247130,-9844.739029,383.047749
820.767904,-2368.659014,-9030.512492,-766.095498
820.768228,-2368.659014,-8660.409521,-919.314598
820.768552,-1702.473667,-9474.636058,-1149.143247
820.768876,-1184.329507,-9474.636058,-1302.362347
820.769200,-1110.308913,-9474.636058,-1072.533697
820.769524,-1776.494261,-9474.636058,0.000000
820.769848,-1628.453072,-8512.368333,76.609550
820.770172,0.000000,-8586.388927,612.876398
820.770496,1258.350101,-9178.553681,1685.410096
820.770820,3256.906145,-9918.759623,2221.676944
820.771144,4219.173869,-10584.944971,2221.676944
820.771468,3627.009116,-10214.842000,1455.581446
820.771792,1702.473667,-9474.636058,689.485948
820.772116,-444.123565,-9104.533087,-306.438199
820.772440,-1850.514855,-8882.471304,-1072.533697
820.772764,-2146.597232,-9252.574275,-1302.362347
820.773088,-1480.411884,-9696.697840,-2068.457845
820.773412,-962.267725,-9844.739029,-1915.238745
820.773736,-740.205942,-9622.677246,-1532.190996
820.774060,-1110.308913,-9400.615463,-995.924147
820.774384,-1036.288319,-8956.491898,-306.438199
820.774708,74.020594,-9178.553681,306.438199
820.775032,1332.370696,-9622.677246,995.924147
820.775356,2812.782580,-10214.842000,1072.533697
820.775680,3256.906145,-10436.903782,1455.581446
820.776004,1998.556043,-9918.759623,919.314598
820.776328,444.123565,-9548.656652,0.000000
820.776652,-962.267725,-9474.636058,-536.266849
820.776976,-1998.556043,-9400.615463,-919.314598
820.777300,-1924.535449,-9104.533087,-1532.190996
820.777624,-1776.494261,-9844.739029,-2068.457845
820.777948,-1628.453072,-9992.780217,-2145.067394
820.778272,-1406.391290,-10140.821405,-1225.752797
820.778596,-1702.473667,-9696.697840,-995.924147
820.778920,-592.164754,-9252.574275,229.828649
820.779244,370.102971,-9400.615463,0.000000
820.779568,2442.679609,-10066.800811,1149.143247
820.779892,3552.988522,-11325.150913,1149.143247
820.780217,3404.947333,-11251.130318,1072.533697
820.780541,1776.494261,-10658.965565,536.266849
820.780865,-296.082377,-10066.800811,-536.266849
820.781189,-1924.535449,-9474.636058,-995.924147
820.781513,-2664.741391,-9252.574275,-1302.362347
820.781837,-2072.576638,-9770.718434,-1685.410096
820.782161,-1258.350101,-10807.006753,-2451.505594
820.782485,-592.164754,-10140.821405,-1455.581446
820.782809,-370.102971,-9400.615463,-689.485948
820.783133,-222.061783,-8956.491898,-383.047749
820.783457,74.020594,-9104.533087,459.657299
820.783781,1258.350101,-9104.533087,919.314598
820.784105,2072.576638,-10066.800811,1915.238745
820.784429,2960.823768,-11029.068536,1915.238745
820.784753,2220.617826,-10584.944971,1455.581446
820.785077,222.061783,-9696.697840,612.876398
820.785401,-1998.556043,-9400.615463,-306.438199
820.785725,-2886.803174,-9400.615463,-1225.752797
820.786049,-2516.700203,-9474.636058,-1762.019645
820.786373,-1850.514855,-9844.739029,-1532.190996
820.786697,-1184.329507,-10214.842000,-842.705048
820.787021,-1036.288319,-9992.780217,-229.828649
820.787345,-1628.453072,-9326.594869,0.000000
820.787669,-1554.432478,-9030.512492,0.000000
820.787993,-592.164754,-9178.553681,919.314598
820.788317,1628.453072,-9400.615463,1991.848295
820.788641,2886.803174,-9992.780217,2451.505594
820.788965,2960.823768,-9918.759623,2451.505594
820.789289,2516.700203,-9474.636058,1225.752797
820.789613,0.000000,-9474.636058,76.609550
820.789937,-2072.576638,-9252.574275,-995.924147
820.790261,-2664.741391,-8586.388927,-1072.533697
820.790585,-1628.453072,-8734.430116,-995.924147
820.790909,74.020594,-9252.574275,-995.924147
820.791233,1036.288319,-9178.553681,-766.095498
820.791557,1184.329507,-9104.533087,-536.266849
820.791881,740.205942,-8808.450710,153.219100
820.792205,222.061783,-8660.409521,612.876398
820.792529,1110.308913,-8956.491898,995.924147
820.792853,2442.679609,-9400.615463,1455.581446
820.793177,3108.864956,-10584.944971,2298.286494
820.793501,2738.761985,-11029.068536,1838.629195
820.793825,1036.288319,-10732.986159,689.485948
820.794149,-1036.288319,-9696.697840,-459.657299
820.794473,-2368.659014,-9474.636058,-1532.190996
820.794797,-2516.700203,-9474.636058,-1378.971896
820.795121,-1554.432478,-10066.800811,-1685.410096
820.795445,-1332.370696,-10732.986159,-1685.410096
820.795770,-962.267725,-10362.883188,-536.266849
820.796094,-1480.411884,-9770.718434,-766.095498
820.796418,-1258.350101,-9252.574275,-919.314598
820.796742,-592.164754,-9474.636058,229.828649
820.797066,888.247130,-9992.780217,919.314598
820.797390,2368.659014,-10881.027347,1149.143247
820.797714,2516.700203,-11177.109724,1072.533697
820.798038,1702.473667,-10658.965565,612.876398
820.798362,0.000000,-9474.636058,0.000000
820.798686,-1184.329507,-9548.656652,-612.876398
820.799010,-2442.679609,-8660.409521,-1378.971896
820.799334,-1776.494261,-8660.409521,-1608.800546
820.799658,-962.267725,-9400.615463,-1608.800546
820.799982,-222.061783,-9622.677246,-1608.800546
820.800306,-222.061783,-9326.594869,-766.095498
820.800630,-296.082377,-9104.533087,-383.047749
820.800954,-814.226536,-8512.368333,-153.219100
820.801278,-370.102971,-8734.430116,536.266849
820.801602,1258.350101,-9622.677246,995.924147
820.801926,2368.659014,-10510.924376,1149.143247
820.802250,2442.679609,-11103.089130,995.924147
820.802574,1332.370696,-10658.965565,459.657299
820.802898,-666.185348,-9918.759623,-153.219100
820.803222,-2220.617826,-9178.553681,-1225.752797
820.803546,-2368.659014,-8808.450710,-1302.362347
820.803870,-2072.576638,-9326.594869,-1455.581446
820.804194,-1258.350101,-10362.883188,-1608.800546
820.804518,-592.164754,-10510.924376,-1302.362347
820.804842,-592.164754,-9622.677246,-766.095498
820.805166,-962.267725,-8882.471304,-306.438199
820.805490,-592.164754,-8882.471304,0.000000
820.805814,962.267725,-9474.636058,76.609550
820.806138,2516.700203,-10362.883188,842.705048
820.806462,3182.885551,-10584.944971,1225.752797
820.806786,2590.720797,-10584.944971,1149.143247
820.807110,1036.288319,-9992.780217,76.609550
820.807434,-1110.308913,-9844.739029,-612.876398
820.807758,-2146.597232,-9326.594869,-919.314598
820.808082,-1850.514855,-9400.615463,-1149.143247
820.808406,-1110.308913,-9622.677246,-1225.752797
820.808730,-370.102971,-9696.697840,-536.266849
820.809054,-222.061783,-9696.697840,-383.047749
820.809378,0.000000,-9696.697840,0.000000
820.809702,-518.144159,-9326.594869,153.219100
820.810026,-814.226536,-8956.491898,919.314598
820.810350,444.123565,-9474.636058,1685.410096
820.810674,1628.453072,-10066.800811,1838.629195
820.810998,1776.494261,-10362.883188,1991.848295
820.811322,1036.288319,-10066.800811,919.314598
820.811647,-148.041188,-9992.780217,459.657299
820.811971,-1924.535449,-9030.512492,-306.438199
820.812295,-2368.659014,-8364.327145,-689.485948
820.812619,-1998.556043,-8364.327145,-383.047749
820.812943,-666.185348,-9400.615463,-459.657299
820.813267,-296.082377,-9474.636058,-842.705048
820.813591,-518.144159,-9252.574275,0.000000
820.813915,-518.144159,-8660.409521,229.828649
820.814239,-518.144159,-8586.388927,842.705048
820.814563,370.102971,-9104.533087,1762.019645
820.814887,2220.617826,-9622.677246,2145.067394
820.815211,3627.009116,-10510.924376,2068.457845
820.815535,2738.761985,-10140.821405,1838.629195
820.815859,1554.432478,-10066.800811,1608.800546
820.816183,-148.041188,-9844.739029,-306.438199
820.816507,-1924.535449,-9252.574275,-689.485948
820.816831,-2072.576638,-8660.409521,-1225.752797
820.817155,-1332.370696,-9252.574275,-1225.752797
820.817479,-148.041188,-9696.697840,-1685.410096
820.817803,0.000000,-9622.677246,-1378.971896
820.818127,-148.041188,-9030.512492,-459.657299
820.818451,-666.185348,-9178.553681,-459.657299
820.818775,-740.205942,-9178.553681,-153.219100
820.819099,666.185348,-9622.677246,612.876398
820.819423,2072.576638,-10881.027347,1072.533697
820.819747,2738.761985,-11547.212695,766.095498
820.820071,2146.597232,-11399.171507,306.438199
820.820395,296.082377,-10881.027347,-612.876398
820.820719,-962.267725,-10288.862594,-689.485948
820.821043,-1480.411884,-9770.718434,-1608.800546
820.821367,-1702.473667,-9548.656652,-1838.629195
820.821691,-1184.329507,-10214.842000,-2221.676944
820.822015,-666.185348,-10732.986159,-2068.457845
820.822339,-518.144159,-10510.924376,-1378.971896
820.822663,-740.205942,-9696.697840,-689.485948
820.822987,-1184.329507,-9030.512492,-229.828649
820.823311,-666.185348,-9696.697840,383.047749
820.823635,444.123565,-9844.739029,536.266849
820.823959,2072.576638,-10584.944971,842.705048
820.824283,2368.659014,-10807.006753,689.485948
820.824607,1776.494261,-10362.883188,842.705048
820.824931,148.041188,-9474.636058,-842.705048
820.825255,-1628.453072,-9030.512492,-1608.800546
820.825579,-2294.638420,-8956.491898,-1378.971896
820.825903,-1554.432478,-8882.471304,-2068.457845
820.826228,-814.226536,-9622.677246,-1378.971896
820.826552,-222.061783,-9622.677246,-1072.533697
820.826876,-148.041188,-9400.615463,-536.266849
820.827200,0.000000,-9030.512492,0.000000
820.827524,0.000000,-9030.512492,229.828649
820.827848,1036.288319,-8438.347739,919.314598
820.828172,2368.659014,-9474.636058,1608.800546
820.828496,2442.679609,-10214.842000,1072.533697
820.828820,1554.432478,-10066.800811,995.924147
820.829145,-148.041188,-9696.697840,383.047749
820.829469,-1406.391290,-9474.636058,-383.047749
820.829793,-2368.659014,-9104.533087,-459.657299
820.830117,-2738.761985,-8068.244768,-919.314598
820.830441,-1332.370696,-8956.491898,0.000000
820.830765,-888.247130,-9992.780217,-995.924147
820.831089,-1332.370696,-9844.739029,-536.266849
820.831413,-1480.411884,-9252.574275,-229.828649
820.831737,-1480.411884,-8882.471304,0.000000
820.832062,-518.144159,-9252.574275,1149.143247
820.832386,740.205942,-9474.636058,1991.848295
820.832710,2220.617826,-9696.697840,1838.629195
820.833034,2516.700203,-10584.944971,1072.533697
820.833358,1776.494261,-10584.944971,842.705048
820.833682,296.082377,-10214.842000,306.438199
820.834006,-1184.329507,-9622.677246,-459.657299
820.834330,-2368.659014,-9400.615463,-536.266849
820.834655,-2072.576638,-9474.636058,-919.314598
820.834979,-962.267725,-9844.739029,-536.266849
820.835303,296.082377,-10436.903782,-612.876398
820.835627,444.123565,-9918.759623,-229.828649
820.835951,296.082377,-9104.533087,76.609550
820.836275,-148.041188,-8438.347739,459.657299
820.836599,148.041188,-8734.430116,842.705048
820.836923,1184.329507,-9474.636058,1072.533697
820.837247,2442.679609,-10584.944971,1378.971896
820.837572,2516.700203,-10955.047942,995.924147
820.837896,1480.411884,-10214.842000,612.876398
820.838220,148.041188,-9474.636058,0.000000
820.838544,-962.267725,-8882.471304,-995.924147
820.838868,-888.247130,-9252.574275,-1302.362347
820.839192,-518.144159,-9696.697840,-1072.533697
820.839516,-148.041188,-10436.903782,-1302.362347
820.839840,-222.061783,-10436.903782,-995.924147
820.840164,-444.123565,-9992.780217,-995.924147
820.840489,-444.123565,-9474.636058,-383.047749
820.840813,-962.267725,-9178.553681,-153.219100
820.841137,222.061783,-10066.800811,689.485948
820.841461,1554.432478,-10955.047942,1072.533697
820.841785,2590.720797,-11177.109724,1302.362347
820.842109,2072.576638,-10658.965565,842.705048
820.842433,370.102971,-10214.842000,0.000000
820.842757,-1850.514855,-9844.739029,-1302.362347
820.843082,-2664.741391,-9400.615463,-1608.800546
820.843406,-2368.659014,-8660.409521,-1455.581446
820.843730,-1258.350101,-8808.450710,-1608.800546
820.844054,-148.041188,-9844.739029,-1685.410096
820.844378,148.041188,-9696.697840,-1149.143247
820.844702,-222.061783,-9178.553681,-1149.143247
820.845026,-1184.329507,-8512.368333,-995.924147
820.845350,-962.267725,-8808.450710,0.000000
820.845674,370.102971,-9178.553681,536.266849
820.845999,1258.350101,-9696.697840,842.705048
820.846323,2590.720797,-10436.903782,1072.533697
820.846647,2146.597232,-10362.883188,1072.533697
820.846971,518.144159,-9696.697840,459.657299
820.847295,-666.185348,-9696.697840,-766.095498
820.847619,-1110.308913,-8586.388927,-919.314598
820.847943,-1110.308913,-8586.388927,-1149.143247
820.848267,-962.267725,-9770.718434,-689.485948
820.848591,-592.164754,-10436.903782,-1225.752797
820.848916,-1258.350101,-9992.780217,-919.314598
820.849240,-1924.535449,-9622.677246,-612.876398
820.849564,-1850.514855,-9548.656652,-306.438199
820.849888,-888.247130,-9104.533087,536.266849
820.850212,592.164754,-9844.739029,995.924147
820.850536,1776.494261,-10066.800811,1685.410096
820.850860,1850.514855,-10584.944971,1762.019645
820.851184,888.247130,-10362.883188,1225.752797
820.851509,-296.082377,-9992.780217,229.828649
820.851833,-1406.391290,-9252.574275,0.000000
820.852157,-1332.370696,-9104.533087,-229.828649
820.852481,-148.041188,-9474.636058,-383.047749
820.852805,444.123565,-9770.718434,-689.485948
820.853129,666.185348,-10140.821405,-383.047749
820.853453,148.041188,-9622.677246,153.219100
820.853777,-518.144159,-9474.636058,0.000000
820.854101,-666.185348,-9104.533087,383.047749
820.854426,222.061783,-8956.491898,1225.752797
820.854750,2220.617826,-9770.718434,1532.190996
820.855074,2590.720797,-10658.965565,1915.238745
820.855398,2072.576638,-10510.924376,842.705048
820.855722,592.164754,-9622.677246,766.095498
820.856046,-962.267725,-9252.574275,0.000000
820.856370,-2220.617826,-8808.450710,-536.266849
820.856694,-1924.535449,-8882.471304,-612.876398
820.857018,-1332.370696,-9622.677246,-995.924147
820.857343,-370.102971,-9548.656652,-842.705048
820.857667,-444.123565,-9326.594869,0.000000
820.857991,-666.185348,-9252.574275,-229.828649
820.858315,-962.267725,-8734.430116,229.828649
820.858639,-444.123565,-8808.450710,459.657299
820.858963,888.247130,-9400.615463,919.314598
820.859287,2368.659014,-10140.821405,995.924147
820.859611,2812.782580,-10362.883188,689.485948
820.859936,1776.494261,-9844.739029,995.924147
820.860260,518.144159,-9252.574275,-459.657299
820.860584,-740.205942,-9326.594869,-536.266849
820.860908,-1332.370696,-9326.594869,-1532.190996
820.861232,-740.205942,-9474.636058,-1608.800546
820.861556,74.020594,-9992.780217,-1608.800546
820.861880,518.144159,-10140.821405,-1532.190996
820.862204,370.102971,-10066.800811,-919.314598
820.862528,-370.102971,-9400.615463,-995.924147
820.862853,-444.123565,-9770.718434,0.000000
820.863177,148.041188,-9696.697840,229.828649
820.863501,1332.370696,-10362.883188,612.876398
820.863825,2294.638420,-10955.047942,766.095498
820.864149,1998.556043,-11399.171507,383.047749
820.864473,666.185348,-10732.986159,-536.266849
820.864797,-1036.288319,-9548.656652,-995.924147
820.865121,-2368.659014,-8364.327145,-2221.676944
820.865445,-1850.514855,-8734.430116,-1915.238745
820.865770,-1258.350101,-9474.636058,-2068.457845
820.866094,-370.102971,-10362.883188,-1762.019645
820.866418,0.000000,-10362.883188,-1378.971896
820.866742,-666.185348,-9474.636058,-919.314598
820.867066,-962.267725,-9104.533087,-612.876398
820.867390,-222.061783,-8956.491898,-153.219100
820.867714,1332.370696,-9696.697840,306.438199
820.868038,2960.823768,-9992.780217,1532.190996
820.868363,3182.885551,-10510.924376,1685.410096
820.868687,2516.700203,-10288.862594,1225.752797
820.869011,518.144159,-9326.594869,306.438199
820.869335,-1480.411884,-8660.409521,-919.314598
820.869659,-3108.864956,-7846.182985,-1225.752797
820.869983,-2960.823768,-8512.368333,-1455.581446
820.870307,-2072.576638,-9030.512492,-1685.410096
820.870631,-1184.329507,-9474.636058,-1302.362347
820.870955,-1332.370696,-8956.491898,-766.095498
820.871280,-1480.411884,-8808.450710,-229.828649
820.871604,-1258.350101,-9030.512492,536.266849
820.871928,0.000000,-9474.636058,1532.190996
820.872252,1480.411884,-9622.677246,2298.286494
820.872576,2664.741391,-10362.883188,2298.286494
820.872900,2960.823768,-11103.089130,2374.896044
820.873224,1628.453072,-9918.759623,1378.971896
820.873548,-296.082377,-9326.594869,459.657299
820.873872,-1924.535449,-9326.594869,-689.485948
820.874197,-2368.659014,-9030.512492,-1225.752797
820.874521,-1776.494261,-9622.677246,-689.485948
820.874845,-814.226536,-10066.800811,-689.485948
820.875169,-518.144159,-9992.780217,-842.705048
820.875493,-1036.288319,-9918.759623,-766.095498
820.875817,-1258.350101,-9844.739029,-689.485948
820.876141,-592.164754,-9918.759623,-153.219100
820.876465,888.247130,-9622.677246,919.314598
820.876790,3182.885551,-10362.883188,1838.629195
820.877114,4293.194464,-10510.924376,1685.410096
820.877438,3923.091493,-11029.068536,1378.971896
820.877762,1628.453072,-10362.883188,995.924147
820.878086,-296.082377,-10140.821405,-383.047749
820.878410,-1776.494261,-9770.718434,-1149.143247
820.878734,-2220.617826,-9622.677246,-995.924147
820.879058,-1628.453072,-10066.800811,-1149.143247
820.879382,-740.205942,-10436.903782,-1149.143247
820.879707,-296.082377,-9770.718434,-689.485948
820.880031,-888.247130,-9178.553681,-459.657299
820.880355,-1332.370696,-8882.471304,-306.438199
820.880679,-814.226536,-8808.450710,306.438199
820.881003,1110.308913,-8882.471304,1072.533697
820.881327,2886.803174,-9326.594869,1762.019645
820.881651,3404.947333,-10066.800811,1608.800546
820.881975,1850.514855,-9918.759623,1072.533697
820.882299,222.061783,-9622.677246,-153.219100
820.882624,-1554.432478,-9030.512492,-1149.143247
820.882948,-2368.659014,-8882.471304,-1455.581446
820.883272,-2146.597232,-9104.533087,-1608.800546
820.883596,-1258.350101,-9696.697840,-1149.143247
820.883920,-296.082377,-9992.780217,-383.047749
820.884244,-296.082377,-9474.636058,-766.095498
820.884568,-666.185348,-8586.388927,0.000000
820.884892,-370.102971,-8882.471304,229.828649
820.885217,148.041188,-8808.450710,919.314598
820.885541,1628.453072,-9252.574275,1762.019645
820.885865,2590.720797,-9918.759623,1762.019645
820.886189,2368.659014,-9844.739029,919.314598
820.886513,962.267725,-9474.636058,0.000000
820.886837,-1332.370696,-9252.574275,-1225.752797
820.887161,-2590.720797,-9474.636058,-2145.067394
820.887485,-2738.761985,-9474.636058,-1991.848295
820.887809,-2368.659014,-9622.677246,-1608.800546
820.888134,-1258.350101,-10362.883188,-1685.410096
820.888458,-370.102971,-10362.883188,-1302.362347
820.888782,-148.041188,-10066.800811,-689.485948
820.889106,0.000000,-9696.697840,306.438199
820.889430,74.020594,-9918.759623,689.485948
820.889754,1406.391290,-9918.759623,1608.800546
820.890078,2368.659014,-10140.821405,1838.629195
820.890402,2886.803174,-11251.130318,1838.629195
820.890726,2220.617826,-11399.171507,1149.143247
820.891051,222.061783,-10436.903782,76.609550
820.891375,-1628.453072,-9622.677246,-995.924147
820.891699,-2664.741391,-9178.553681,-1455.581446
820.892023,-2960.823768,-9252.574275,-1915.238745
820.892347,-1998.556043,-9474.636058,-1608.800546
820.892671,-1628.453072,-10140.821405,-1838.629195
820.892995,-962.267725,-9844.739029,-1455.581446
820.893319,-814.226536,-9474.636058,-383.047749
820.893644,-222.061783,-9622.677246,0.000000
820.893968,888.247130,-9252.574275,1532.190996
820.894292,2294.638420,-9400.615463,2451.505594
820.894616,3108.864956,-10288.862594,2451.505594
820.894940,3256.906145,-10881.027347,2221.676944
820.895264,1924.535449,-10584.944971,1838.629195
820.895588,0.000000,-9992.780217,612.876398
820.895912,-2072.576638,-9252.574275,-383.047749
820.896236,-2886.803174,-8364.327145,-1072.533697
820.896561,-2442.679609,-8438.347739,-1225.752797
820.896885,-1184.329507,-8660.409521,-1838.629195
820.897209,-444.123565,-9326.594869,-995.924147
820.897533,-444.123565,-8956.491898,-766.095498
820.897857,-1036.288319,-8586.388927,-383.047749
820.898181,-1184.329507,-8660.409521,0.000000
820.898505,-370.102971,-8882.471304,842.705048
820.898829,1702.473667,-9474.636058,1149.143247
820.899153,2738.761985,-10214.842000,1762.019645
820.899478,3182.885551,-10584.944971,2374.896044
820.899802,2368.659014,-10584.944971,1378.971896
820.900126,518.144159,-9918.759623,612.876398
820.900450,-1258.350101,-9474.636058,-459.657299
820.900774,-2664.741391,-9030.512492,-1072.533697
820.901098,-2146.597232,-9400.615463,-919.314598
820.901422,-1258.350101,-10140.821405,-1532.190996
820.901746,-518.144159,-10288.862594,-1225.752797
820.902070,-592.164754,-9474.636058,-995.924147
820.902395,-740.205942,-8956.491898,-766.095498
820.902719,-296.082377,-8956.491898,76.609550
820.903043,1036.288319,-9400.615463,612.876398
820.903367,3034.844362,-10288.862594,1302.362347
820.903691,3552.988522,-10955.047942,1532.190996
820.904015,2590.720797,-10066.800811,919.314598
820.904339,1554.432478,-10066.800811,459.657299
820.904663,-592.164754,-9770.718434,-306.438199
820.904988,-1554.432478,-9696.697840,-1072.533697
820.905312,-1554.432478,-9400.615463,-1225.752797
820.905636,-962.267725,-9622.677246,-1378.971896
820.905960,0.000000,-10362.883188,-1762.019645
820.906284,-296.082377,-10066.800811,-842.705048
820.906608,-666.185348,-9252.574275,-842.705048
820.906932,-1184.329507,-8956.491898,-919.314598
820.907256,-814.226536,-8956.491898,-306.438199
820.907580,814.226536,-9696.697840,459.657299
820.907905,2738.761985,-10658.965565,995.924147
820.908229,3034.844362,-10881.027347,1072.533697
820.908553,2220.617826,-10362.883188,612.876398
820.908877,148.041188,-10140.821405,536.266849
820.909201,-1702.473667,-9770.718434,-306.438199
820.909525,-1554.432478,-9252.574275,-919.314598
820.909849,-888.247130,-9252.574275,-995.924147
820.910173,0.000000,-9918.759623,-995.924147
820.910497,148.041188,-10066.800811,-1149.143247
820.910822,0.000000,-9178.553681,-689.485948
820.911146,-814.226536,-8956.491898,-689.485948
820.911470,-1332.370696,-9400.615463,-229.828649
820.911794,-444.123565,-9252.574275,383.047749
820.912118,1702.473667,-9918.759623,919.314598
820.912442,2738.761985,-10362.883188,1225.752797
820.912766,2664.741391,-10436.903782,1072.533697
820.913090,1554.432478,-10140.821405,842.705048
820.913415,-592.164754,-9252.574275,-306.438199
820.913739,-2072.576638,-8956.491898,-612.876398
820.914063,-2368.659014,-8734.430116,-766.095498
820.914387,-1628.453072,-9030.512492,-1149.143247
820.914711,-888.247130,-9918.759623,-1149.143247
820.915035,-444.123565,-9992.780217,-995.924147
820.915359,-740.205942,-9770.718434,-383.047749
820.915683,-1184.329507,-8882.471304,0.000000
820.916007,-1332.370696,-8364.327145,459.657299
820.916332,0.000000,-9252.574275,995.924147
820.916656,1628.453072,-9918.759623,1455.581446
820.916980,2294.638420,-10955.047942,1838.629195
820.917304,1702.473667,-10807.006753,1532.190996
820.917628,444.123565,-9918.759623,1072.533697
820.917952,-1258.350101,-9178.553681,383.047749
820.918276,-2220.617826,-8586.388927,-766.095498
820.918600,-2146.597232,-8734.430116,-689.485948
820.918924,-1258.350101,-9474.636058,0.000000
820.919249,-814.226536,-9844.739029,-306.438199
820.919573,-1406.391290,-9474.636058,-612.876398
820.919897,-1702.473667,-8956.491898,-306.438199
820.920221,-1924.535449,-8956.491898,-229.828649
820.920545,-740.205942,-8956.491898,383.047749
820.920869,1554.432478,-9104.533087,995.924147
820.921193,3034.844362,-10288.862594,1608.800546
820.921517,3478.967927,-10436.903782,1302.362347
820.921842,2368.659014,-10510.924376,995.924147
820.922166,370.102971,-9844.739029,76.609550
820.922490,-1036.288319,-9844.739029,-612.876398
820.922814,-1406.391290,-9622.677246,-766.095498
820.923138,-666.185348,-9696.697840,-1149.143247
820.923462,0.000000,-10288.862594,-1455.581446
820.923786,370.102971,-10584.944971,-995.924147
820.924110,-148.041188,-10140.821405,-459.657299
820.924434,-592.164754,-9844.739029,-689.485948
820.924759,-1258.350101,-8882.471304,0.000000
820.925083,-148.041188,-9030.512492,383.047749
820.925407,1628.453072,-9696.697840,612.876398
820.925731,2738.761985,-10658.965565,612.876398
820.926055,2294.638420,-10807.006753,995.924147
820.926379,1258.350101,-10510.924376,536.266849
820.926703,0.000000,-9548.656652,-459.657299
820.927027,-888.247130,-9030.512492,-766.095498
820.927352,-740.205942,-8956.491898,-306.438199
820.927676,-296.082377,-9474.636058,-1149.143247
820.928000,-296.082377,-9992.780217,-1149.143247
820.928324,-296.082377,-9844.739029,-842.705048
820.928648,-222.061783,-9474.636058,-459.657299
820.928972,-518.144159,-8956.491898,-459.657299
820.929297,-296.082377,-8734.430116,306.438199
820.929621,666.185348,-9178.553681,459.657299
820.929945,2368.659014,-9696.697840,766.095498
820.930269,2516.700203,-10584.944971,612.876398
820.930593,1998.556043,-10436.903782,153.219100
820.930918,296.082377,-9770.718434,-383.047749
820.931242,-1258.350101,-9622.677246,-995.924147
820.931566,-2146.597232,-9622.677246,-1378.971896
820.931890,-1776.494261,-9770.718434,-1225.752797
820.932214,-1036.288319,-10510.924376,-1378.971896
820.932538,-444.123565,-10362.883188,-1149.143247
820.932863,-518.144159,-9696.697840,-383.047749
820.933187,-666.185348,-9474.636058,-306.438199
820.933511,-1480.411884,-9326.594869,0.000000
820.933835,-1036.288319,-9104.533087,766.095498
820.934159,518.144159,-9030.512492,1608.800546
820.934483,2146.597232,-9918.759623,842.705048
820.934808,1924.535449,-9918.759623,1225.752797
820.935132,740.205942,-9770.718434,766.095498
820.935456,-740.205942,-9400.615463,0.000000
820.935780,-2146.597232,-8956.491898,-536.266849
820.936104,-2368.659014,-8586.388927,-842.705048
820.936428,-1628.453072,-9252.574275,-842.705048
820.936753,-518.144159,-10140.821405,-842.705048
820.937077,-222.061783,-10362.883188,229.828649
820.937401,-888.247130,-10288.862594,306.438199
820.937725,-592.164754,-9548.656652,612.876398
820.938049,-592.164754,-9400.615463,842.705048
820.938373,518.144159,-9326.594869,1455.581446
820.938698,2072.576638,-9992.780217,1685.410096
820.939022,3182.885551,-10807.006753,1455.581446
820.939346,2590.720797,-11251.130318,1838.629195
820.939670,222.061783,-10288.862594,1149.143247
820.939994,-1406.391290,-9474.636058,-306.438199
820.940318,-3108.864956,-8956.491898,-766.095498
820.940643,-2812.782580,-9030.512492,-1149.143247
820.940967,-888.247130,-9474.636058,-1072.533697
820.941291,0.000000,-9992.780217,-612.876398
820.941615,0.000000,-9474.636058,-842.705048
820.941939,-222.061783,-8586.388927,536.266849
820.942263,-518.144159,-8660.409521,306.438199
820.942588,-740.205942,-9030.512492,1072.533697
820.942912,222.061783,-9400.615463,1532.190996
820.943236,1850.514855,-9918.759623,1991.848295
820.943560,2442.679609,-10955.047942,2374.896044
820.943884,1850.514855,-10584.944971,1685.410096
820.944208,222.061783,-9400.615463,689.485948
820.944533,-814.226536,-9030.512492,0.000000
820.944857,-1998.556043,-8734.430116,-766.095498
820.945181,-2146.597232,-8586.388927,-842.705048
820.945505,-1036.288319,-9326.594869,-1149.143247
820.945829,-444.123565,-9696.697840,-995.924147
820.946153,-444.123565,-9474.636058,-536.266849
820.946478,-444.123565,-8660.409521,-153.219100
820.946802,0.000000,-8660.409521,-306.438199
820.947126,444.123565,-8512.368333,766.095498
820.947450,2368.659014,-9474.636058,1072.533697
820.947774,3034.844362,-9992.780217,1225.752797
820.948098,2960.823768,-10732.986159,1149.143247
820.948423,2146.597232,-10510.924376,689.485948
820.948747,592.164754,-9696.697840,-229.828649
820.949071,-296.082377,-9178.553681,-1149.143247
820.949395,-740.205942,-9326.594869,-1532.190996
820.949719,0.000000,-9622.677246,-1915.238745
820.950043,0.000000,-9992.780217,-1608.800546
820.950368,0.000000,-10066.800811,-1302.362347
820.950692,-592.164754,-9844.739029,-1225.752797
820.951016,-962.267725,-9696.697840,-995.924147
820.951340,-962.267725,-9696.697840,-919.314598
820.951664,-222.061783,-9696.697840,383.047749
820.951988,1332.370696,-10214.842000,383.047749
820.952313,2072.576638,-11029.068536,536.266849
820.952637,1258.350101,-11251.130318,383.047749
820.952961,-296.082377,-10658.965565,-306.438199
820.953285,-2220.617826,-9548.656652,-1532.190996
820.953609,-2664.741391,-9178.553681,-2145.067394
820.953933,-2220.617826,-9030.512492,-1608.800546
820.954258,-370.102971,-9918.759623,-2298.286494
820.954582,222.061783,-9696.697840,-1838.629195
820.954906,0.000000,-10140.821405,-1455.581446
820.955230,-592.164754,-9770.718434,-1149.143247
820.955554,-962.267725,-9326.594869,-919.314598
820.955879,-666.185348,-9178.553681,-306.438199
820.956203,1036.288319,-9770.718434,383.047749
820.956527,2516.700203,-10807.006753,689.485948
820.956851,2590.720797,-10584.944971,842.705048
820.957175,2590.720797,-10362.883188,842.705048
820.957499,814.226536,-9770.718434,0.000000
820.957824,-962.267725,-9400.615463,-766.095498
820.958148,-1998.556043,-9104.533087,-1225.752797
820.958472,-1850.514855,-9326.594869,-919.314598
820.958796,-666.185348,-10140.821405,-995.924147
820.959120,-518.144159,-9770.718434,-766.095498
820.959444,-444.123565,-9844.739029,-306.438199
820.959769,-814.226536,-9252.574275,-153.219100
820.960093,-962.267725,-9030.512492,536.266849
820.960417,-74.020594,-9400.615463,1378.971896
820.960741,1184.329507,-9696.697840,1838.629195
820.961065,2368.659014,-9770.718434,2374.896044
820.961389,2516.700203,-10584.944971,1991.848295
820.961714,1406.391290,-9696.697840,1378.971896
820.962038,-740.205942,-8364.327145,612.876398
820.962362,-1702.473667,-8438.347739,76.609550
820.962686,-2072.576638,-8438.347739,0.000000
820.963010,-1184.329507,-9030.512492,0.000000
820.963334,-1184.329507,-9548.656652,0.000000
820.963659,-1258.350101,-9622.677246,76.609550
820.963983,-1332.370696,-9104.533087,0.000000
820.964307,-1850.514855,-8660.409521,306.438199
820.964631,-888.247130,-8364.327145,1302.362347
820.964955,296.082377,-9252.574275,1685.410096
820.965279,2442.679609,-10140.821405,2451.505594
820.965604,3404.947333,-10732.986159,2451.505594
820.965928,2812.782580,-10436.903782,1838.629195
820.966252,888.247130,-9844.739029,1378.971896
820.966576,-1036.288319,-9178.553681,-536.266849
820.966900,-1776.494261,-8512.368333,-842.705048
820.967224,-1850.514855,-8956.491898,-383.047749
820.967549,-518.144159,-9548.656652,-612.876398
820.967873,444.123565,-10066.800811,-842.705048
820.968197,518.144159,-9400.615463,-536.266849
820.968521,148.041188,-8512.368333,0.000000
820.968845,-222.061783,-8512.368333,-459.657299
820.969169,74.020594,-8808.450710,689.485948
820.969494,1036.288319,-9326.594869,919.314598
820.969818,2516.700203,-10510.924376,995.924147
820.970142,3404.947333,-11103.089130,1149.143247
820.970466,2294.638420,-11251.130318,842.705048
820.970790,518.144159,-10510.924376,0.000000
820.971114,-962.267725,-10066.800811,-1149.143247
820.971439,-1258.350101,-10066.800811,-1378.971896
820.971763,-1110.308913,-10288.862594,-1378.971896
820.972087,-148.041188,-11621.233289,-1532.190996
820.972411,0.000000,-10881.027347,-1302.362347
820.972735,-444.123565,-10732.986159,-1685.410096
820.973059,-1258.350101,-10362.883188,-1455.581446
820.973384,-1332.370696,-9770.718434,-995.924147
820.973708,-296.082377,-9918.759623,-229.828649
820.974032,1332.370696,-10658.965565,459.657299
820.974356,2368.659014,-10732.986159,459.657299
820.974680,2442.679609,-10881.027347,306.438199
820.975004,740.205942,-9400.615463,459.657299
820.975329,-1332.370696,-9474.636058,-1225.752797
820.975653,-2590.720797,-8586.388927,-1991.848295
820.975977,-2368.659014,-8216.285956,-1762.019645
820.976301,-1332.370696,-8734.430116,-1685.410096
820.976625,-296.082377,-9252.574275,-1608.800546
820.976949,0.000000,-8956.491898,-689.485948
820.977274,-222.061783,-8364.327145,0.000000
820.977598,-148.041188,-8290.306550,-229.828649
820.977922,148.041188,-8734.430116,459.657299
820.978246,1406.391290,-9400.615463,1455.581446
820.978570,2664.741391,-9918.759623,1685.410096
820.978895,2590.720797,-10658.965565,1378.971896
820.979219,1332.370696,-10066.800811,1149.143247
820.979543,-740.205942,-9844.739029,612.876398
820.979867,-2738.761985,-9548.656652,-995.924147
820.980191,-3182.885551,-8438.347739,-1302.362347
820.980515,-2590.720797,-8660.409521,-1149.143247
820.980840,-2072.576638,-9548.656652,-1378.971896
820.981164,-1628.453072,-10362.883188,-995.924147
820.981488,-1850.514855,-9622.677246,-612.876398
820.981812,-1480.411884,-8808.450710,-459.657299
820.982136,-1184.329507,-8586.388927,842.705048
820.982460,0.000000,-9178.553681,842.705048
820.982785,1776.494261,-10140.821405,1762.019645
820.983109,3256.906145,-10881.027347,1838.629195
820.983433,3108.864956,-11547.212695,1762.019645
820.983757,1628.453072,-11103.089130,1225.752797
820.984081,-296.082377,-9918.759623,0.000000
820.984405,-1702.473667,-9474.636058,-766.095498
820.984730,-1924.535449,-9178.553681,-995.924147
820.985054,-1184.329507,-9400.615463,-1072.533697
820.985378,-296.082377,-9844.739029,-1225.752797
820.985702,148.041188,-9770.718434,-1072.533697
820.986026,148.041188,-9622.677246,-689.485948
820.986350,0.000000,-10066.800811,76.609550
820.986675,-888.247130,-9252.574275,383.047749
820.986999,0.000000,-9622.677246,995.924147
820.987323,1850.514855,-10510.924376,1455.581446
820.987647,2738.761985,-11621.233289,2068.457845
820.987971,2516.700203,-11547.212695,1608.800546
820.988295,1184.329507,-10584.944971,1072.533697
820.988620,0.000000,-9696.697840,383.047749
820.988944,-1776.494261,-8586.388927,-229.828649
820.989268,-1998.556043,-8586.388927,-612.876398
820.989592,-1036.288319,-9474.636058,0.000000
820.989916,-592.164754,-9548.656652,-229.828649
820.990240,0.000000,-9178.553681,-383.047749
820.990565,-222.061783,-8364.327145,229.828649
820.990889,-444.123565,-7920.203579,689.485948
820.991213,0.000000,-8364.327145,689.485948
820.991537,1036.288319,-8586.388927,2298.286494
820.991861,2368.659014,-9400.615463,1455.581446
820.992185,2442.679609,-10288.862594,842.705048
820.992510,1924.535449,-10140.821405,919.314598
820.992834,518.144159,-9474.636058,383.047749
820.993158,-1184.329507,-9178.553681,-459.657299
820.993482,-1998.556043,-8586.388927,-766.095498
820.993806,-1184.329507,-8882.471304,0.000000
820.994130,296.082377,-9844.739029,-306.438199
820.994455,666.185348,-10066.800811,-689.485948
820.994779,0.000000,-9770.718434,-536.266849
820.995103,-1184.329507,-9548.656652,-689.485948
820.995427,-1850.514855,-9474.636058,-383.047749
820.995751,-1258.350101,-9326.594869,0.000000
820.996075,222.061783,-9622.677246,536.266849
820.996400,1258.350101,-10436.903782,536.266849
820.996724,1184.329507,-10658.965565,842.705048
820.997048,666.185348,-10214.842000,76.609550
820.997372,-740.205942,-9918.759623,-842.705048
820.997696,-1850.514855,-9474.636058,-1225.752797
820.998020,-1924.535449,-9252.574275,-1302.362347
820.998345,-740.205942,-9548.656652,-1225.752797
820.998669,222.061783,-10362.883188,-1149.143247
820.998993,666.185348,-10955.047942,-612.876398
820.999317,740.205942,-10584.944971,-536.266849
820.999641,0.000000,-10066.800811,-306.438199
820.999965,-148.041188,-9844.739029,306.438199
821.000290,814.226536,-9844.739029,459.657299
821.000614,2220.617826,-10584.944971,766.095498
821.000938,2738.761985,-11103.089130,766.095498
821.001262,2146.597232,-10658.965565,0.000000
821.001586,370.102971,-9622.677246,-689.485948
821.001911,-1480.411884,-9178.553681,-1378.971896
821.002235,-2664.741391,-9030.512492,-2221.676944
821.002559,-2368.659014,-9400.615463,-2068.457845
821.002883,-1406.391290,-9548.656652,-1838.629195
821.003207,-518.144159,-9844.739029,-1149.143247
821.003531,-222.061783,-9474.636058,-689.485948
821.003856,0.000000,-8586.388927,0.000000
821.004180,518.144159,-8660.409521,0.000000
821.004504,888.247130,-9030.512492,1149.143247
821.004828,2072.576638,-9474.636058,1608.800546
821.005152,2960.823768,-9770.718434,1915.238745
821.005476,2960.823768,-10436.903782,1302.362347
821.005801,1480.411884,-9918.759623,536.266849
821.006125,0.000000,-9178.553681,0.000000
821.006449,-1850.514855,-9030.512492,-766.095498
821.006773,-2516.700203,-8586.388927,-1149.143247
821.007097,-2812.782580,-8586.388927,-1532.190996
821.007421,-1924.535449,-9474.636058,-919.314598
821.007746,-1554.432478,-9918.759623,-1072.533697
821.008070,-1332.370696,-9770.718434,-229.828649
821.008394,-1776.494261,-9326.594869,-153.219100
821.008718,-1332.370696,-9030.512492,459.657299
821.009042,0.000000,-9178.553681,1302.362347
821.009366,1998.556043,-10807.006753,1302.362347
821.009691,3034.844362,-10584.944971,2068.457845
821.010015,2294.638420,-10510.924376,1072.533697
821.010339,1258.350101,-10436.903782,153.219100
821.010663,-370.102971,-9992.780217,-842.705048
821.010987,-1850.514855,-9326.594869,-1532.190996
821.011311,-1924.535449,-9400.615463,-1225.752797
821.011636,-1628.453072,-9548.656652,-919.314598
821.011960,0.000000,-10066.800811,-1378.971896
821.012284,148.041188,-9696.697840,-766.095498
821.012608,148.041188,-9696.697840,-229.828649
821.012932,0.000000,-9400.615463,0.000000
821.013256,74.020594,-9178.553681,842.705048
821.013581,1332.370696,-9548.656652,1685.410096
821.013905,2590.720797,-10436.903782,1915.238745
821.014229,2886.803174,-10955.047942,1838.629195
821.014553,2072.576638,-10807.006753,995.924147
821.014877,666.185348,-10140.821405,153.219100
821.015201,-1258.350101,-9918.759623,-842.705048
821.015526,-2294.638420,-9474.636058,-1072.533697
821.015850,-2072.576638,-9474.636058,-1225.752797
821.016174,-962.267725,-10066.800811,-766.095498
821.016498,-592.164754,-9992.780217,-1225.752797
821.016822,-518.144159,-9992.780217,0.000000
821.017146,-1036.288319,-9030.512492,229.828649
821.017471,-962.267725,-8956.491898,689.485948
821.017795,-148.041188,-8882.471304,1455.581446
821.018119,1332.370696,-9252.574275,1915.238745
821.018443,2368.659014,-9474.636058,1608.800546
821.018767,2294.638420,-10066.800811,1225.752797
821.019091,814.226536,-9548.656652,612.876398
821.019416,-1480.411884,-9104.533087,0.000000
821.019740,-2812.782580,-8586.388927,-1072.533697
821.020064,-2516.700203,-8660.409521,-919.314598
821.020388,-1184.329507,-8734.430116,-1225.752797
821.020712,0.000000,-9400.615463,-766.095498
821.021036,518.144159,-9474.636058,-229.828649
821.021361,592.164754,-9474.636058,306.438199
821.021685,-296.082377,-9178.553681,229.828649
821.022009,-888.247130,-9030.512492,536.266849
821.022333,0.000000,-9252.574275,995.924147
821.022657,1184.329507,-10066.800811,1455.581446
821.022981,1776.494261,-10732.986159,1302.362347
821.023306,1110.308913,-10807.006753,766.095498
821.023630,0.000000,-10436.903782,536.266849
821.023954,-1258.350101,-9400.615463,-459.657299
821.024278,-2590.720797,-9030.512492,-1149.143247
821.024602,-2664.741391,-9252.574275,-1378.971896
821.024926,-1628.453072,-9474.636058,-1378.971896
821.025251,-666.185348,-10066.800811,-995.924147
821.025575,-518.144159,-10214.842000,0.000000
821.025899,0.000000,-9474.636058,-306.438199
821.026223,-444.123565,-8364.327145,229.828649
821.026547,444.123565,-9030.512492,229.828649
821.026872,1628.453072,-9622.677246,1149.143247
821.027196,2960.823768,-10584.944971,1225.752797
821.027520,3034.844362,-11251.130318,1072.533697
821.027844,1628.453072,-11103.089130,229.828649
821.028168,-518.144159,-10288.862594,-459.657299
821.028492,-1554.432478,-9992.780217,-1532.190996
821.028817,-2368.659014,-9474.636058,-1149.143247
821.029141,-1998.556043,-8882.471304,-995.924147
821.029465,0.000000,-9770.718434,-1225.752797
821.029789,148.041188,-10288.862594,-919.314598
821.030113,74.020594,-10140.821405,-153.219100
821.030437,-370.102971,-9400.615463,0.000000
821.030762,-592.164754,-9030.512492,76.609550
821.031086,-518.144159,-9104.533087,1378.971896
821.031410,1406.391290,-9992.780217,1072.533697
821.031734,2146.597232,-10140.821405,1608.800546
821.032058,2368.659014,-10362.883188,1149.143247
821.032382,1184.329507,-9770.718434,229.828649
821.032707,0.000000,-9474.636058,-536.266849
821.033031,-2072.576638,-8438.347739,-1149.143247
821.033355,-2368.659014,-7698.141797,-612.876398
821.033679,-1110.308913,-8512.368333,-1378.971896
821.034003,0.000000,-9030.512492,-919.314598
821.034328,0.000000,-9474.636058,-536.266849
821.034652,0.000000,-9178.553681,0.000000
821.034976,0.000000,-8734.430116,459.657299
821.035300,0.000000,-8364.327145,689.485948
821.035624,1036.288319,-8734.430116,1149.143247
821.035948,2072.576638,-9622.677246,1532.190996
821.036273,2368.659014,-10510.924376,1608.800546
821.036597,1184.329507,-10510.924376,536.266849
821.036921,0.000000,-9918.759623,-153.219100
821.037245,-1776.494261,-9548.656652,-995.924147
821.037569,-2442.679609,-9104.533087,-1378.971896
821.037893,-2220.617826,-9104.533087,-1225.752797
821.038218,-740.205942,-9844.739029,-1455.581446
821.038542,-296.082377,-10732.986159,-1378.971896
821.038866,0.000000,-10510.924376,0.000000
821.039190,0.000000,-9696.697840,-383.047749
821.039514,74.020594,-9696.697840,536.266849
821.039839,592.164754,-9770.718434,536.266849
821.040163,1702.473667,-10214.842000,995.924147
821.040487,2812.782580,-10881.027347,1608.800546
821.040811,2516.700203,-11103.089130,919.314598
821.041135,592.164754,-10807.006753,229.828649
821.041459,-444.123565,-10214.842000,-612.876398
821.041784,-2442.679609,-9474.636058,-1455.581446
821.042108,-2960.823768,-9104.533087,-1991.848295
821.042432,-2220.617826,-9474.636058,-1915.238745
821.042756,-1110.308913,-10066.800811,-1685.410096
821.043080,-444.123565,-9918.759623,-842.705048
821.043404,-444.123565,-9548.656652,-536.266849
821.043729,-592.164754,-9252.574275,-459.657299
821.044053,-1036.288319,-9326.594869,383.047749
821.044377,0.000000,-9474.636058,1072.533697
821.044701,1480.411884,-9992.780217,1685.410096
821.045025,2664.741391,-10955.047942,2145.067394
821.045350,2664.741391,-10955.047942,1532.190996
821.045674,1258.350101,-9918.759623,1378.971896
821.045998,-666.185348,-9252.574275,153.219100
821.046322,-2442.679609,-8660.409521,-1149.143247
821.046646,-2812.782580,-8586.388927,-1378.971896
821.046970,-2146.597232,-8586.388927,-1225.752797
821.047295,-814.226536,-9252.574275,-1225.752797
821.047619,74.020594,-9474.636058,-383.047749
821.047943,-666.185348,-8882.471304,76.609550
821.048267,-296.082377,-8808.450710,0.000000
821.048591,0.000000,-8290.306550,536.266849
821.048915,1110.308913,-8956.491898,689.485948
821.049240,2516.700203,-9548.656652,1991.848295
821.049564,2960.823768,-10955.047942,1915.238745
821.049888,2368.659014,-10732.986159,1685.410096
821.050212,518.144159,-9992.780217,1378.971896
821.050536,-888.247130,-9326.594869,306.438199
821.050861,-1850.514855,-8586.388927,-536.266849
821.051185,-2072.576638,-8808.450710,-995.924147
821.051509,-1702.473667,-9104.533087,-842.705048
821.051833,-1036.288319,-9844.739029,-1072.533697
821.052157,-1184.329507,-9622.677246,-842.705048
821.052481,-1554.432478,-9104.533087,-766.095498
821.052806,-1702.473667,-8438.347739,-459.657299
821.053130,-814.226536,-8734.430116,306.438199
821.053454,1036.288319,-9548.656652,1149.143247
821.053778,3182.885551,-11029.068536,1762.019645
821.054102,3404.947333,-11399.171507,1685.410096
821.054426,2368.659014,-10881.027347,1608.800546
821.054751,370.102971,-9844.739029,229.828649
821.055075,-1554.432478,-9770.718434,-766.095498
821.055399,-2072.576638,-9474.636058,-1225.752797
821.055723,-1258.350101,-9844.739029,-1225.752797
821.056047,-222.061783,-10140.821405,-1378.971896
821.056372,370.102971,-10510.924376,-1225.752797
821.056696,444.123565,-9474.636058,-919.314598
821.057020,0.000000,-9326.594869,-919.314598
821.057344,-222.061783,-9548.656652,-536.266849
821.057668,370.102971,-9770.718434,383.047749
821.057992,1998.556043,-10288.862594,995.924147
821.058317,3182.885551,-10955.047942,1149.143247
821.058641,3330.926739,-11251.130318,689.485948
821.058965,1924.535449,-10584.944971,153.219100
821.059289,222.061783,-10140.821405,0.000000
821.059613,-1184.329507,-9252.574275,-612.876398
821.059937,-1924.535449,-8808.450710,-1149.143247
821.060262,-1554.432478,-9252.574275,-1072.533697
821.060586,-1184.329507,-9622.677246,-1455.581446
821.060910,-740.205942,-9770.718434,-1302.362347
821.061234,-1258.350101,-9326.594869,-612.876398
821.061558,-1110.308913,-8438.347739,-229.828649
821.061882,-962.267725,-8586.388927,0.000000
821.062207,148.041188,-8808.450710,153.219100
821.062531,1850.514855,-9622.677246,1149.143247
821.062855,2516.700203,-10807.006753,1378.971896
821.063179,2294.638420,-10658.965565,1149.143247
821.063503,814.226536,-9696.697840,842.705048
821.063828,-740.205942,-9030.512492,-612.876398
821.064152,-1850.514855,-8364.327145,-919.314598
821.064476,-1702.473667,-9030.512492,-995.924147
821.064800,-1036.288319,-9844.739029,-1455.581446
821.065124,-444.123565,-9992.780217,-1225.752797
821.065448,-814.226536,-9844.739029,-919.314598
821.065773,-888.247130,-9326.594869,-919.314598
821.066097,-814.226536,-8956.491898,-306.438199
821.066421,0.000000,-8808.450710,383.047749
821.066745,1406.391290,-9400.615463,995.924147
821.067069,2590.720797,-10436.903782,1302.362347
821.067393,3034.844362,-10732.986159,1455.581446
821.067718,2220.617826,-10214.842000,1225.752797
821.068042,148.041188,-9696.697840,76.609550
821.068366,-1998.556043,-8660.409521,-459.657299
821.068690,-2590.720797,-8808.450710,-842.705048
821.069014,-2368.659014,-8660.409521,-1072.533697
821.069339,-1776.494261,-9548.656652,-1915.238745
821.069663,-1480.411884,-10140.821405,-1225.752797
821.069987,-1702.473667,-9992.780217,-842.705048
821.070311,-1554.432478,-9474.636058,-612.876398
821.070635,-1332.370696,-9178.553681,153.219100
821.070959,0.000000,-9770.718434,1072.533697
821.071284,1850.514855,-10362.883188,1838.629195
821.071608,2960.823768,-11029.068536,2221.676944
821.071932,2516.700203,-11325.150913,1455.581446
821.072256,1554.432478,-11251.130318,995.924147
821.072580,-518.144159,-10362.883188,0.000000
821.072904,-2072.576638,-9622.677246,-536.266849
821.073229,-1924.535449,-9548.656652,-842.705048
821.073553,-1406.391290,-9770.718434,-919.314598
821.073877,-962.267725,-9770.718434,-536.266849
821.074201,-962.267725,-9548.656652,-612.876398
821.074525,-1184.329507,-8808.450710,-536.266849
821.074850,-1554.432478,-8290.306550,-383.047749
821.075174,-1110.308913,-8290.306550,459.657299
821.075498,222.061783,-8586.388927,1378.971896
821.075822,2368.659014,-9844.739029,1532.190996
821.076146,3256.906145,-10066.800811,2068.457845
821.076470,2664.741391,-9992.780217,1532.190996
821.076795,1184.329507,-9770.718434,842.705048
821.077119,-592.164754,-9400.615463,0.000000
821.077443,-1258.350101,-9030.512492,-306.438199
821.077767,-1258.350101,-9104.533087,-842.705048
821.078091,-740.205942,-9844.739029,-766.095498
821.078415,148.041188,-9844.739029,-919.314598
821.078740,-148.041188,-9474.636058,-383.047749
821.079064,-370.102971,-9030.512492,-153.219100
821.079388,-740.205942,-9030.512492,153.219100
821.079712,-222.061783,-9030.512492,536.266849
821.080036,1406.391290,-9474.636058,1225.752797
821.080361,2960.823768,-10362.883188,1225.752797
821.080685,2812.782580,-10955.047942,842.705048
821.081009,1406.391290,-10362.883188,536.266849
821.081333,-296.082377,-10214.842000,0.000000
821.081657,-1184.329507,-9622.677246,-842.705048
821.081981,-1554.432478,-9474.636058,-1225.752797
821.082306,-1036.288319,-9622.677246,-1302.362347
821.082630,-370.102971,-10214.842000,-1532.190996
821.082954,-222.061783,-9992.780217,-995.924147
821.083278,222.061783,-10214.842000,-919.314598
821.083602,-148.041188,-9030.512492,-1072.533697
821.083926,-666.185348,-8882.471304,-383.047749
821.084251,0.000000,-9178.553681,306.438199
821.084575,1776.494261,-10140.821405,919.314598
821.084899,2590.720797,-10955.047942,612.876398
821.085223,1850.514855,-11251.130318,306.438199
821.085547,74.020594,-10066.800811,306.438199
821.085872,-1998.556043,-9844.739029,-1302.362347
821.086196,-2960.823768,-9030.512492,-1608.800546
821.086520,-2812.782580,-9104.533087,-1685.410096
821.086844,-1628.453072,-9622.677246,-1532.190996
821.087168,-592.164754,-9992.780217,-1608.800546
821.087492,0.000000,-9622.677246,-842.705048
821.087817,-296.082377,-8734.430116,0.000000
821.088141,-148.041188,-8586.388927,0.000000
821.088465,-518.144159,-9030.512492,383.047749
821.088789,1554.432478,-9400.615463,1072.533697
821.089113,2812.782580,-10140.821405,1149.143247
821.089437,3256.906145,-11103.089130,1149.143247
821.089762,2146.597232,-10732.986159,536.266849
821.090086,222.061783,-9918.759623,-153.219100
821.090410,-1850.514855,-9252.574275,-1915.238745
821.090734,-2442.679609,-8660.409521,-1378.971896
821.091058,-2146.597232,-9474.636058,-1378.971896
821.091382,-962.267725,-9918.759623,-1455.581446
821.091707,-518.144159,-10140.821405,-766.095498
821.092031,-518.144159,-9844.739029,-459.657299
821.092355,-370.102971,-9252.574275,0.000000
821.092679,296.082377,-9030.512492,842.705048
821.093003,518.144159,-9030.512492,1149.143247
821.093328,1924.535449,-9770.718434,1762.019645
821.093652,3034.844362,-10881.027347,1762.019645
821.093976,2368.659014,-11251.130318,1302.362347
821.094300,518.144159,-10658.965565,306.438199
821.094624,-1776.494261,-9548.656652,-842.705048
821.094948,-3108.864956,-8734.430116,-1608.800546
821.095273,-2368.659014,-9474.636058,-1225.752797
821.095597,-1628.453072,-9918.759623,-1225.752797
821.095921,-370.102971,-10362.883188,-766.095498
821.096245,0.000000,-9992.780217,-383.047749
821.096569,0.000000,-9474.636058,0.000000
821.096893,-888.247130,-9326.594869,536.266849
821.097218,-666.185348,-9622.677246,919.314598
821.097542,148.041188,-9400.615463,1685.410096
821.097866,1924.535449,-9400.615463,2145.067394
821.098190,2738.761985,-10214.842000,1762.019645
821.098514,2368.659014,-10288.862594,1225.752797
821.098839,666.185348,-9548.656652,76.609550
821.099163,-1628.453072,-8808.450710,-766.095498
821.099487,-2664.741391,-8512.368333,-1378.971896
821.099811,-2738.761985,-8734.430116,-1378.971896
821.100135,-1332.370696,-8882.471304,-1302.362347
821.100459,-296.082377,-9696.697840,-919.314598
821.100784,222.061783,-9474.636058,-306.438199
821.101108,666.185348,-9326.594869,306.438199
821.101432,148.041188,-8808.450710,1149.143247
821.101756,592.164754,-8882.471304,1685.410096
821.102080,1776.494261,-9326.594869,1915.238745
821.102404,2960.823768,-10066.800811,1762.019645
821.102729,2664.741391,-11029.068536,1302.362347
821.103053,1406.391290,-10066.800811,766.095498
821.103377,0.000000,-8734.430116,-612.876398
821.103701,-1702.473667,-8512.368333,-1838.629195
821.104025,-2072.576638,-8512.368333,-1915.238745
821.104350,-1702.473667,-8956.491898,-1608.800546
821.104674,-888.247130,-9918.759623,-1762.019645
821.104998,-222.061783,-10140.821405,-1149.143247
821.105322,-148.041188,-10066.800811,-536.266849
821.105646,-222.061783,-9474.636058,229.828649
821.105970,-148.041188,-9326.594869,919.314598
821.106295,1406.391290,-9770.718434,919.314598
821.106619,3034.844362,-10140.821405,2374.896044
821.106943,3775.050304,-11177.109724,1685.410096
821.107267,2812.782580,-11251.130318,1302.362347
821.107591,1110.308913,-10658.965565,153.219100
821.107915,-1258.350101,-9844.739029,-1225.752797
821.108240,-3701.029710,-8882.471304,-2145.067394
821.108564,-3478.967927,-9400.615463,-2451.505594
821.108888,-2590.720797,-9844.739029,-2681.334243
821.109212,-1332.370696,-10362.883188,-1225.752797
821.109536,-444.123565,-10140.821405,-842.705048
821.109861,-740.205942,-9474.636058,-153.219100
821.110185,-962.267725,-8956.491898,0.000000
821.110509,-962.267725,-8956.491898,459.657299
821.110833,370.102971,-9400.615463,1455.581446
821.111157,2072.576638,-9918.759623,1838.629195
821.111481,2738.761985,-10807.006753,1762.019645
821.111806,1332.370696,-10436.903782,1225.752797
821.112130,-444.123565,-9696.697840,76.609550
821.112454,-2368.659014,-9474.636058,-1149.143247
821.112778,-3478.967927,-9104.533087,-1838.629195
821.113102,-3108.864956,-9326.594869,-2145.067394
821.113426,-1998.556043,-9326.594869,-1532.190996
821.113751,-444.123565,-9918.759623,-919.314598
821.114075,0.000000,-9696.697840,-1225.752797
821.114399,74.020594,-9178.553681,-153.219100
821.114723,0.000000,-8956.491898,76.609550
821.115047,592.164754,-9326.594869,766.095498
821.115372,2072.576638,-10066.800811,1455.581446
821.115696,3256.906145,-10658.965565,2374.896044
821.116020,3108.864956,-11177.109724,1378.971896
821.116344,2072.576638,-10288.862594,919.314598
821.116668,74.020594,-9992.780217,0.000000
821.116992,-1924.535449,-9252.574275,-995.924147
821.117317,-2664.741391,-9252.574275,-1532.190996
821.117641,-1776.494261,-9178.553681,-1532.190996
821.117965,-666.185348,-9622.677246,-919.314598
821.118289,0.000000,-9844.739029,-536.266849
821.118613,222.061783,-9326.594869,-383.047749
821.118937,0.000000,-8586.388927,536.266849
821.119262,-444.123565,-8586.388927,536.266849
821.119586,740.205942,-9400.615463,1225.752797
821.119910,2368.659014,-9992.780217,1455.581446
821.120234,3256.906145,-10288.862594,1532.190996
821.120558,2294.638420,-10732.986159,1378.971896
821.120882,74.020594,-9770.718434,383.047749
821.121207,-1554.432478,-9474.636058,-153.219100
821.121531,-2960.823768,-9178.553681,-1072.533697
821.121855,-2368.659014,-8956.491898,-1225.752797
821.122179,-1258.350101,-9474.636058,-1225.752797
821.122503,-296.082377,-10066.800811,-536.266849
821.122828,0.000000,-9622.677246,-383.047749
821.123152,-444.123565,-9326.594869,153.219100
821.123476,-888.247130,-7994.224174,229.828649
821.123800,-518.144159,-7846.182985,689.485948
821.124124,814.226536,-9178.553681,1149.143247
821.124448,2294.638420,-9992.780217,842.705048
821.124773,2516.700203,-10584.944971,766.095498
821.125097,1480.411884,-10510.924376,842.705048
821.125421,-222.061783,-9770.718434,-766.095498
821.125745,-1924.535449,-9918.759623,-1378.971896
821.126069,-2516.700203,-9474.636058,-919.314598
821.126393,-1924.535449,-9474.636058,-1532.190996
821.126718,-740.205942,-10214.842000,-1225.752797
821.127042,444.123565,-10658.965565,-612.876398
821.127366,740.205942,-10214.842000,0.000000
821.127690,518.144159,-9770.718434,459.657299
821.128014,518.144159,-9252.574275,766.095498
821.128339,962.267725,-9548.656652,919.314598
821.128663,2220.617826,-10362.883188,1072.533697
821.128987,2664.741391,-11103.089130,1072.533697
821.129311,1924.535449,-11399.171507,842.705048
821.129635,148.041188,-10955.047942,0.000000
821.129959,-1480.411884,-9918.759623,-1378.971896
821.130284,-2516.700203,-9326.594869,-1225.752797
821.130608,-2664.741391,-8438.347739,-2451.505594
821.130932,-1628.453072,-9104.533087,-1838.629195
821.131256,0.000000,-10214.842000,-1225.752797
821.131580,814.226536,-10066.800811,-766.095498
821.131904,666.185348,-9622.677246,153.219100
821.132229,148.041188,-9104.533087,229.828649
821.132553,222.061783,-9030.512492,383.047749
821.132877,888.247130,-9326.594869,1225.752797
821.133201,2368.659014,-9992.780217,1915.238745
821.133525,3034.844362,-10732.986159,1915.238745
821.133850,2664.741391,-10732.986159,919.314598
821.134174,740.205942,-9696.697840,0.000000
821.134498,-2072.576638,-8660.409521,-1072.533697
821.134822,-3330.926739,-8438.347739,-1838.629195
821.135146,-3182.885551,-8364.327145,-1915.238745
821.135470,-2368.659014,-8660.409521,-1685.410096
821.135795,-962.267725,-9326.594869,-1149.143247
821.136119,0.000000,-9474.636058,-153.219100
821.136443,-222.061783,-9178.553681,-306.438199
821.136767,-592.164754,-8808.450710,229.828649
821.137091,0.000000,-8956.491898,766.095498
821.137415,962.267725,-9622.677246,1149.143247
821.137740,1998.556043,-10584.944971,1149.143247
821.138064,1998.556043,-11029.068536,842.705048
821.138388,518.144159,-10510.924376,689.485948
821.138712,-1332.370696,-10140.821405,-383.047749
821.139036,-2812.782580,-9770.718434,-1149.143247
821.139361,-2886.803174,-9104.533087,-1608.800546
821.139685,-1776.494261,-9178.553681,-1455.581446
821.140009,0.000000,-9844.739029,-995.924147
821.140333,888.247130,-10214.842000,0.000000
821.140657,1332.370696,-10214.842000,-229.828649
821.140981,222.061783,-9474.636058,0.000000
821.141306,-444.123565,-9252.574275,76.609550
821.141630,0.000000,-9696.697840,612.876398
821.141954,1850.514855,-10510.924376,1378.971896
821.142278,3552.988522,-11695.253884,1685.410096
821.142602,3627.009116,-11399.171507,1455.581446
821.142926,1998.556043,-10510.924376,919.314598
821.143251,-148.041188,-9844.739029,-229.828649
821.143575,-2220.617826,-8808.450710,-995.924147
821.143899,-2368.659014,-8734.430116,-2221.676944
821.144223,-1258.350101,-9252.574275,-842.705048
821.144547,0.000000,-9770.718434,-766.095498
821.144872,1036.288319,-9474.636058,-153.219100
821.145196,518.144159,-8734.430116,0.000000
821.145520,0.000000,-8512.368333,766.095498
821.145844,0.000000,-8586.388927,919.314598
821.146168,1036.288319,-9400.615463,919.314598
821.146492,1554.432478,-9474.636058,1838.629195
821.146817,1924.535449,-10288.862594,1608.800546
821.147141,814.226536,-10140.821405,842.705048
821.147465,-370.102971,-9474.636058,306.438199
821.147789,-1924.535449,-8808.450710,-459.657299
821.148113,-2442.679609,-8364.327145,-1072.533697
821.148437,-1628.453072,-8216.285956,-766.095498
821.148762,-1184.329507,-8586.388927,-919.314598
821.149086,0.000000,-9326.594869,-766.095498
821.149410,-296.082377,-9844.739029,-306.438199
821.149734,-740.205942,-9474.636058,0.000000
821.150058,-1110.308913,-9030.512492,459.657299
821.150383,-518.144159,-8882.471304,689.485948
821.150707,1110.308913,-9696.697840,1072.533697
821.151031,2590.720797,-10955.047942,842.705048
821.151355,2368.659014,-10955.047942,1072.533697
821.151679,1702.473667,-10140.821405,0.000000
821.152003,-370.102971,-9474.636058,-766.095498
821.152328,-2368.659014,-9252.574275,-1838.629195
821.152652,-2886.803174,-9252.574275,-2068.457845
821.152976,-2220.617826,-9400.615463,-2068.457845
821.153300,-740.205942,-10140.821405,-1838.629195
821.153624,222.061783,-10732.986159,-612.876398
821.153948,740.205942,-10732.986159,-842.705048
821.154273,296.082377,-10140.821405,-536.266849
821.154597,-222.061783,-9918.759623,153.219100
821.154921,222.061783,-10436.903782,689.485948
821.155245,1702.473667,-11251.130318,1072.533697
821.155569,2442.679609,-11547.212695,1762.019645
821.155894,2294.638420,-11029.068536,1149.143247
821.156218,1036.288319,-9992.780217,0.000000
821.156542,-1258.350101,-9474.636058,-1225.752797
821.156866,-2960.823768,-9104.533087,-1838.629195
821.157190,-3256.906145,-8956.491898,-2221.676944
821.157514,-2368.659014,-9400.615463,-2145.067394
821.157839,-1184.329507,-10140.821405,-1838.629195
821.158163,-1036.288319,-10140.821405,-1378.971896
821.158487,-666.185348,-9474.636058,-536.266849
821.158811,-592.164754,-9400.615463,0.000000
821.159135,0.000000,-9104.533087,689.485948
821.159459,1332.370696,-9474.636058,1302.362347
821.159784,3182.885551,-9844.739029,2298.286494
821.160108,3997.112087,-10510.924376,2145.067394
821.160432,3108.864956,-10510.924376,1685.410096
821.160756,1554.432478,-9178.553681,995.924147
821.161080,-888.247130,-8512.368333,-612.876398
821.161405,-2294.638420,-7846.182985,-1225.752797
821.161729,-2294.638420,-8290.306550,-1455.581446
821.162053,-1628.453072,-8956.491898,-1378.971896
821.162377,-1036.288319,-9178.553681,-1072.533697
821.162701,-1036.288319,-8512.368333,-383.047749
821.163025,-888.247130,-8142.265362,459.657299
821.163350,-1258.350101,-8438.347739,76.609550
821.163674,-592.164754,-8956.491898,2068.457845
821.163998,1036.288319,-9474.636058,2145.067394
821.164322,2220.617826,-9918.759623,2451.505594
821.164646,2220.617826,-10881.027347,1991.848295
821.164970,888.247130,-11029.068536,1991.848295
821.165295,0.000000,-10658.965565,536.266849
821.165619,-1406.391290,-9104.533087,153.219100
821.165943,-1924.535449,-9400.615463,-536.266849
821.166267,-1110.308913,-9918.759623,-995.924147
821.166591,0.000000,-10732.986159,-536.266849
821.166916,518.144159,-10732.986159,-153.219100
821.167240,592.164754,-10214.842000,153.219100
821.167564,370.102971,-9326.594869,76.609550
821.167888,-444.123565,-9178.553681,153.219100
821.168212,518.144159,-9104.533087,766.095498
821.168536,2368.659014,-9622.677246,919.314598
821.168861,2442.679609,-10955.047942,1149.143247
821.169185,1406.391290,-10807.006753,612.876398
821.169509,0.000000,-10066.800811,0.000000
821.169833,-1628.453072,-9474.636058,-689.485948
821.170157,-2738.761985,-8808.450710,-1225.752797
821.170481,-2442.679609,-9104.533087,-689.485948
821.170806,-1036.288319,-9770.718434,-919.314598
821.171130,0.000000,-9918.759623,-1072.533697
821.171454,1110.308913,-9474.636058,-536.266849
821.171778,1036.288319,-9104.533087,0.000000
821.172102,444.123565,-9326.594869,153.219100
821.172427,444.123565,-9474.636058,766.095498
821.172751,888.247130,-9400.615463,1072.533697
821.173075,1628.453072,-9696.697840,536.266849
821.173399,1924.535449,-10436.903782,536.266849
821.173723,370.102971,-10288.862594,153.219100
821.174047,-888.247130,-9918.759623,-612.876398
821.174372,-2146.597232,-9400.615463,-1149.143247
821.174696,-2516.700203,-8734.430116,-1915.238745
821.175020,-2294.638420,-8586.388927,-1915.238745
821.175344,-740.205942,-9548.656652,-1685.410096
821.175668,0.000000,-9844.739029,-995.924147
821.175992,222.061783,-10510.924376,-383.047749
821.176317,222.061783,-9474.636058,0.000000
821.176641,-148.041188,-9030.512492,459.657299
821.176965,222.061783,-9400.615463,919.314598
821.177289,2072.576638,-10140.821405,995.924147
821.177613,3108.864956,-10658.965565,1532.190996
821.177938,2812.782580,-11251.130318,1149.143247
821.178262,1110.308913,-10066.800811,153.219100
821.178586,-370.102971,-9252.574275,-842.705048
821.178910,-2220.617826,-8808.450710,-1455.581446
821.179234,-2738.761985,-8956.491898,-1685.410096
821.179558,-2294.638420,-9178.553681,-2068.457845
821.179883,-1258.350101,-9474.636058,-1608.800546
821.180207,-444.123565,-9992.780217,-842.705048
821.180531,888.247130,-9992.780217,0.000000
821.180855,74.020594,-9474.636058,229.828649
821.181179,0.000000,-9400.615463,1072.533697
821.181503,888.247130,-10214.842000,1685.410096
821.181828,1924.535449,-10584.944971,1685.410096
821.182152,1628.453072,-10807.006753,1455.581446
821.182476,1332.370696,-10881.027347,1225.752797
821.182800,0.000000,-9992.780217,0.000000
821.183124,-1332.370696,-9326.594869,-842.705048
821.183449,-2886.803174,-8586.388927,-1608.800546
821.183773,-2590.720797,-8438.347739,-1915.238745
821.184097,-1702.473667,-9252.574275,-1915.238745
821.184421,-1036.288319,-9770.718434,-1532.190996
821.184745,-1110.308913,-9992.780217,-1149.143247
821.185069,-1036.288319,-9844.739029,-995.924147
821.185394,-1332.370696,-9548.656652,0.000000
821.185718,0.000000,-9548.656652,306.438199
821.186042,1776.494261,-9992.780217,1608.800546
821.186366,3404.947333,-11029.068536,2145.067394
821.186690,4071.132681,-11621.233289,1915.238745
821.187014,3034.844362,-10658.965565,1455.581446
821.187339,1258.350101,-9918.759623,536.266849
821.187663,-666.185348,-9326.594869,-842.705048
821.187987,-2072.576638,-9252.574275,-1532.190996
821.188311,-2146.597232,-8586.388927,-1302.362347
821.188635,-1036.288319,-9474.636058,-1608.800546
821.188960,-148.041188,-9696.697840,-1455.581446
821.189284,222.061783,-9474.636058,-919.314598
821.189608,0.000000,-9030.512492,-995.924147
821.189932,0.000000,-8364.327145,-536.266849
821.190256,740.205942,-8882.471304,383.047749
821.190580,2294.638420,-9770.718434,1608.800546
821.190905,3256.906145,-10584.944971,1762.019645
821.191229,2960.823768,-11103.089130,1455.581446
821.191553,1406.391290,-10584.944971,1225.752797
821.191877,-296.082377,-10140.821405,459.657299
821.192201,-1924.535449,-9030.512492,-459.657299
821.192526,-1924.535449,-8512.368333,-306.438199
821.192850,-1258.350101,-9178.553681,-612.876398
821.193174,-148.041188,-9770.718434,-689.485948
821.193498,-296.082377,-10066.800811,-689.485948
821.193822,-888.247130,-9030.512492,-612.876398
821.194146,-1332.370696,-8586.388927,-306.438199
821.194471,-962.267725,-8512.368333,0.000000
821.194795,-222.061783,-9030.512492,1072.533697
821.195119,1110.308913,-9474.636058,1302.362347
821.195443,2516.700203,-10658.965565,1685.410096
821.195767,1998.556043,-10510.924376,1072.533697
821.196091,444.123565,-9770.718434,459.657299
821.196416,-1850.514855,-9104.533087,-306.438199
821.196740,-2886.803174,-8956.491898,-766.095498
821.197064,-2664.741391,-9030.512492,-689.485948
821.197388,-1258.350101,-9622.677246,-1608.800546
821.197712,-222.061783,-10510.924376,-612.876398
821.198037,0.000000,-9400.615463,0.000000
821.198361,-222.061783,-9548.656652,0.000000
821.198685,-592.164754,-9474.636058,229.828649
821.199009,-814.226536,-9696.697840,766.095498
821.199333,296.082377,-9622.677246,842.705048
821.199657,1850.514855,-10436.903782,842.705048
821.199982,2294.638420,-10732.986159,536.266849
821.200306,740.205942,-11029.068536,459.657299
821.200630,-1036.288319,-10584.944971,0.000000
821.200954,-2812.782580,-9770.718434,-1072.533697
821.201278,-3108.864956,-9252.574275,-1378.971896
821.201602,-2294.638420,-9474.636058,-1378.971896
821.201927,-1332.370696,-10140.821405,-995.924147
821.202251,-444.123565,-10584.944971,-229.828649
821.202575,-666.185348,-10066.800811,0.000000
821.202899,-444.123565,-9474.636058,0.000000
821.203223,-444.123565,-9104.533087,536.266849
821.203548,296.082377,-9104.533087,1302.362347
821.203872,2072.576638,-9548.656652,1685.410096
821.204196,3256.906145,-10214.842000,1225.752797
821.204520,3182.885551,-10510.924376,842.705048
821.204844,1554.432478,-9844.739029,459.657299
821.205168,-592.164754,-8660.409521,-612.876398
821.205493,-2220.617826,-8586.388927,-1302.362347
821.205817,-2442.679609,-8882.471304,-1915.238745
821.206141,-1702.473667,-9400.615463,-1685.410096
821.206465,-444.123565,-9770.718434,-842.705048
821.206789,296.082377,-9548.656652,-842.705048
821.207113,740.205942,-9178.553681,0.000000
821.207438,592.164754,-8956.491898,383.047749
821.207762,0.000000,-8660.409521,766.095498
821.208086,666.185348,-9104.533087,1608.800546
821.208410,1924.535449,-9918.759623,1685.410096
821.208734,2442.679609,-10807.006753,1532.190996
821.209059,1184.329507,-10362.883188,1072.533697
821.209383,0.000000,-9918.759623,-229.828649
821.209707,-1776.494261,-9104.533087,-1685.410096
821.210031,-2368.659014,-8660.409521,-1378.971896
821.210355,-2072.576638,-8734.430116,-1225.752797
821.210679,-1110.308913,-9400.615463,-1378.971896
821.211004,-666.185348,-9844.739029,-689.485948
821.211328,-592.164754,-9622.677246,-459.657299
821.211652,-296.082377,-9548.656652,-229.828649
821.211976,-222.061783,-9252.574275,766.095498
821.212300,518.144159,-9252.574275,766.095498
821.212624,1924.535449,-9844.739029,766.095498
821.212949,2664.741391,-10362.883188,1378.971896
821.213273,2442.679609,-11103.089130,919.314598
821.213597,1554.432478,-10732.986159,153.219100
821.213921,-296.082377,-10140.821405,-612.876398
821.214245,-1480.411884,-9474.636058,-689.485948
821.214570,-1998.556043,-9474.636058,-1455.581446
821.214894,-1110.308913,-9474.636058,-1149.143247
821.215218,-518.144159,-10140.821405,-919.314598
821.215542,296.082377,-10510.924376,-536.266849
821.215866,518.144159,-9992.780217,0.000000
821.216190,296.082377,-9474.636058,229.828649
821.216515,-222.061783,-9252.574275,1072.533697
821.216839,592.164754,-9474.636058,995.924147
821.217163,1628.453072,-10288.862594,1149.143247
821.217487,1924.535449,-10436.903782,1149.143247
821.217811,1628.453072,-10362.883188,459.657299
821.218135,222.061783,-9622.677246,-306.438199
821.218460,-1406.391290,-9548.656652,-1685.410096
821.218784,-2812.782580,-8956.491898,-1915.238745
821.219108,-2664.741391,-8956.491898,-2145.067394
821.219432,-1480.411884,-9474.636058,-1455.581446
821.219756,-296.082377,-10140.821405,-1149.143247
821.220081,-370.102971,-9918.759623,-536.266849
821.220405,-814.226536,-9104.533087,0.000000
821.220729,-962.267725,-9178.553681,0.000000
821.221053,-370.102971,-9104.533087,842.705048
821.221377,1110.308913,-9622.677246,1532.190996
821.221701,2664.741391,-9992.780217,1608.800546
821.222026,2960.823768,-10362.883188,1455.581446
821.222350,1776.494261,-9622.677246,612.876398
821.222674,0.000000,-9252.574275,-1072.533697
821.222998,-1776.494261,-8734.430116,-1455.581446
821.223322,-2516.700203,-8438.347739,-1991.848295
821.223646,-2368.659014,-8808.450710,-1608.800546
821.223971,-1110.308913,-9918.759623,-1455.581446
821.224295,0.000000,-10140.821405,-995.924147
821.224619,518.144159,-9844.739029,-306.438199
821.224943,888.247130,-9622.677246,383.047749
821.225267,888.247130,-9104.533087,1302.362347
821.225592,1406.391290,-9622.677246,1685.410096
821.225916,2294.638420,-10140.821405,2068.457845
821.226240,3256.906145,-10881.027347,1915.238745
821.226564,2294.638420,-11029.068536,1378.971896
821.226888,666.185348,-10658.965565,689.485948
821.227212,-1554.432478,-9844.739029,-306.438199
821.227537,-2812.782580,-9696.697840,-842.705048
821.227861,-3256.906145,-9400.615463,-1225.752797
821.228185,-2294.638420,-9474.636058,-1225.752797
821.228509,-1184.329507,-10436.903782,-1072.533697
821.228833,-888.247130,-10436.903782,-612.876398
821.229157,-1036.288319,-9622.677246,0.000000
821.229481,-888.247130,-9104.533087,306.438199
821.229805,0.000000,-9252.574275,1532.190996
821.230129,1258.350101,-9252.574275,2298.286494
821.230453,3256.906145,-9548.656652,2451.505594
821.230777,3775.050304,-10214.842000,2451.505594
821.231101,2368.659014,-10658.965565,1532.190996
821.231425,222.061783,-9326.594869,153.219100
821.231750,-2146.597232,-8734.430116,-919.314598
821.232074,-3330.926739,-8068.244768,-1532.190996
821.232398,-2886.803174,-8142.265362,-1302.362347
821.232722,-2146.597232,-8586.388927,-1838.629195
821.233046,-592.164754,-9104.533087,-766.095498
821.233370,444.123565,-9252.574275,-229.828649
821.233694,814.226536,-9400.615463,0.000000
821.234018,222.061783,-8808.450710,536.266849
821.234342,148.041188,-8586.388927,1455.581446
821.234666,1480.411884,-9474.636058,1608.800546
821.234990,2664.741391,-10140.821405,1915.238745
821.235314,2886.803174,-10510.924376,1378.971896
821.235638,1776.494261,-10584.944971,842.705048
821.235962,0.000000,-9770.718434,-536.266849
821.236286,-2146.597232,-9178.553681,-1378.971896
821.236611,-3108.864956,-8808.450710,-1762.019645
821.236935,-2812.782580,-8808.450710,-1838.629195
821.237259,-1702.473667,-9178.553681,-1762.019645
821.237583,-370.102971,-9770.718434,-1532.190996
821.237907,-370.102971,-9474.636058,-1072.533697
821.238231,-148.041188,-9770.718434,-919.314598
821.238555,0.000000,-9474.636058,0.000000
821.238879,962.267725,-9770.718434,995.924147
821.239203,2738.761985,-10658.965565,1455.581446
821.239527,3330.926739,-11695.253884,1072.533697
821.239851,2812.782580,-11473.192101,1149.143247
821.240175,1258.350101,-10807.006753,0.000000
821.240499,-1184.329507,-10362.883188,-1378.971896
821.240823,-2960.823768,-9696.697840,-2451.505594
821.241147,-3404.947333,-9252.574275,-2834.553343
821.241472,-2516.700203,-9474.636058,-2604.724693
821.241796,-1036.288319,-9844.739029,-1762.019645
821.242120,74.020594,-10140.821405,-1378.971896
821.242444,222.061783,-9770.718434,-842.705048
821.242768,370.102971,-9474.636058,0.000000
821.243092,370.102971,-9474.636058,766.095498
821.243416,1406.391290,-9918.759623,1149.143247
821.243740,2738.761985,-10510.924376,1532.190996
821.244064,3182.885551,-11029.068536,1455.581446
821.244388,2368.659014,-10955.047942,842.705048
821.244712,518.144159,-10140.821405,-306.438199
821.245036,-1554.432478,-9178.553681,-1149.143247
821.245360,-2812.782580,-8364.327145,-1608.800546
821.245684,-2812.782580,-8364.327145,-1455.581446
821.246008,-1702.473667,-9030.512492,-1302.362347
821.246333,-1036.288319,-9770.718434,-612.876398
821.246657,-592.164754,-9400.615463,0.000000
821.246981,-666.185348,-8734.430116,383.047749
821.247305,0.000000,-8438.347739,1072.533697
821.247629,0.000000,-8586.388927,1532.190996
821.247953,1702.473667,-9474.636058,1915.238745
821.248277,2812.782580,-10066.800811,2528.115143
821.248601,2886.803174,-10510.924376,2374.896044
821.248925,1850.514855,-10140.821405,1378.971896
821.249249,-370.102971,-9252.574275,0.000000
821.249573,-2738.761985,-8438.347739,-842.705048
821.249897,-3478.967927,-8290.306550,-1072.533697
821.250221,-2886.803174,-8734.430116,-1455.581446
821.250545,-1628.453072,-9400.615463,-689.485948
821.250869,-518.144159,-9474.636058,-383.047749
821.251194,444.123565,-9400.615463,0.000000
821.251518,74.020594,-8734.430116,689.485948
821.251842,148.041188,-9474.636058,1149.143247
821.252166,518.144159,-9326.594869,1915.238745
821.252490,1776.494261,-9474.636058,1838.629195
821.252814,2442.679609,-11103.089130,2298.286494
821.253138,2294.638420,-11547.212695,1838.629195
821.253462,814.226536,-11029.068536,995.924147
821.253786,-888.247130,-9622.677246,-306.438199
821.254110,-2220.617826,-8956.491898,-1302.362347
821.254434,-2590.720797,-8956.491898,-1915.238745
821.254758,-1628.453072,-9770.718434,-1455.581446
821.255082,-814.226536,-9992.780217,-1072.533697
821.255406,0.000000,-10510.924376,0.000000
821.255730,296.082377,-10140.821405,-229.828649
821.256054,-592.164754,-9474.636058,153.219100
821.256379,0.000000,-9104.533087,612.876398
821.256703,1036.288319,-9770.718434,1302.362347
821.257027,2516.700203,-10510.924376,1532.190996
821.257351,2738.761985,-10584.944971,1532.190996
821.257675,2220.617826,-10658.965565,1915.238745
821.257999,370.102971,-9844.739029,76.609550
821.258323,-1406.391290,-9326.594869,-1072.533697
821.258647,-2442.679609,-8808.450710,-1838.629195
821.258971,-1924.535449,-9030.512492,-2068.457845
821.259295,-444.123565,-9622.677246,-1915.238745
821.259619,222.061783,-9696.697840,-919.314598
821.259943,444.123565,-9622.677246,-689.485948
821.260267,148.041188,-9400.615463,-766.095498
821.260591,222.061783,-9326.594869,-383.047749
821.260915,444.123565,-9252.574275,536.266849
821.261240,2220.617826,-10066.800811,1149.143247
821.261564,3330.926739,-10955.047942,1378.971896
821.261888,2812.782580,-10732.986159,1685.410096
821.262212,1554.432478,-10732.986159,689.485948
821.262536,-592.164754,-9770.718434,-766.095498
821.262860,-2812.782580,-8512.368333,-1762.019645
821.263184,-3256.906145,-7994.224174,-1838.629195
821.263508,-1702.473667,-8882.471304,-1762.019645
821.263832,-740.205942,-9474.636058,-1302.362347
821.264156,-148.041188,-9548.656652,-766.095498
821.264480,0.000000,-8438.347739,-459.657299
821.264804,-370.102971,-8068.244768,306.438199
821.265128,0.000000,-8142.265362,0.000000
821.265452,444.123565,-8660.409521,383.047749
821.265776,2220.617826,-9696.697840,1532.190996
821.266101,3404.947333,-10658.965565,1532.190996
821.266425,2812.782580,-10658.965565,995.924147
821.266749,740.205942,-9622.677246,0.000000
821.267073,-1110.308913,-9178.553681,-1149.143247
821.267397,-2516.700203,-9178.553681,-995.924147
821.267721,-2664.741391,-9252.574275,-1532.190996
821.268045,-2516.700203,-9770.718434,-1532.190996
821.268369,-1628.453072,-10288.862594,-1378.971896
821.268693,-592.164754,-10214.842000,-766.095498
821.269017,-296.082377,-9844.739029,-383.047749
821.269341,0.000000,-9474.636058,0.000000
821.269665,0.000000,-9474.636058,1072.533697
821.269989,1332.370696,-10214.842000,1149.143247
821.270313,2516.700203,-10732.986159,1378.971896
821.270637,2146.597232,-11695.253884,1225.752797
821.270962,518.144159,-11547.212695,76.609550
821.271286,-888.247130,-10807.006753,-766.095498
821.271610,-1554.432478,-9992.780217,-1378.971896
821.271934,-1850.514855,-9178.553681,-1532.190996
821.272258,-1406.391290,-9474.636058,-1762.019645
821.272582,-444.123565,-9992.780217,-536.266849
821.272906,-148.041188,-10362.883188,-612.876398
821.273230,0.000000,-9918.759623,-306.438199
821.273554,-518.144159,-9622.677246,0.000000
821.273878,-962.267725,-9104.533087,689.485948
821.274202,-148.041188,-9252.574275,1225.752797
821.274526,1258.350101,-9770.718434,2145.067394
821.274850,2368.659014,-10510.924376,2145.067394
821.275174,2516.700203,-10881.027347,1072.533697
821.275498,1036.288319,-10066.800811,919.314598
821.275823,-1184.329507,-9474.636058,0.000000
821.276147,-2590.720797,-9030.512492,-919.314598
821.276471,-2812.782580,-8734.430116,-1532.190996
821.276795,-1998.556043,-8586.388927,-1302.362347
821.277119,-592.164754,-9474.636058,-229.828649
821.277443,592.164754,-9770.718434,-383.047749
821.277767,1184.329507,-9104.533087,536.266849
821.278091,1036.288319,-8512.368333,1072.533697
821.278415,666.185348,-8290.306550,1149.143247
821.278739,1184.329507,-8882.471304,1685.410096
821.279063,2368.659014,-9548.656652,2298.286494
821.279387,2886.803174,-10955.047942,1838.629195
821.279711,2368.659014,-10881.027347,1455.581446
821.280035,592.164754,-9474.636058,689.485948
821.280359,-1036.288319,-8808.450710,-612.876398
821.280684,-2442.679609,-8364.327145,-1302.362347
821.281008,-2812.782580,-8512.368333,-1455.581446
821.281332,-1998.556043,-8808.450710,-1149.143247
821.281656,-518.144159,-9992.780217,-1072.533697
821.281980,-296.082377,-9474.636058,-766.095498
821.282304,-592.164754,-9030.512492,-153.219100
821.282628,-814.226536,-9326.594869,76.609550
821.282952,-814.226536,-9474.636058,842.705048
821.283276,592.164754,-10362.883188,1378.971896
821.283600,1924.535449,-11177.109724,1915.238745
821.283924,2442.679609,-11177.109724,1915.238745
821.284248,962.267725,-10732.986159,1149.143247
821.284572,-370.102971,-10881.027347,-153.219100
821.284896,-2220.617826,-9918.759623,-1072.533697
821.285220,-2590.720797,-9474.636058,-1455.581446
821.285544,-1998.556043,-9400.615463,-1762.019645
821.285869,-740.205942,-9992.780217,-1378.971896
821.286193,148.041188,-10066.800811,-1225.752797
821.286517,296.082377,-10066.800811,-612.876398
821.286841,222.061783,-9474.636058,-766.095498
821.287165,-518.144159,-9326.594869,-383.047749
821.287489,-296.082377,-9252.574275,229.828649
821.287813,1110.308913,-10066.800811,689.485948
821.288137,2442.679609,-11103.089130,1072.533697
821.288461,2590.720797,-11473.192101,1302.362347
821.288785,1332.370696,-10658.965565,536.266849
821.289109,-888.247130,-9622.677246,-612.876398
821.289433,-2294.638420,-8808.450710,-612.876398
821.289757,-2516.700203,-9178.553681,-1532.190996
821.290081,-1628.453072,-9474.636058,-1225.752797
821.290405,-592.164754,-10066.800811,-995.924147
821.290730,-518.144159,-10140.821405,-766.095498
821.291054,-814.226536,-9178.553681,-995.924147
821.291378,-1036.288319,-8216.285956,-612.876398
821.291702,-518.144159,-8660.409521,153.219100
821.292026,592.164754,-9178.553681,842.705048
821.292350,2368.659014,-9770.718434,1225.752797
821.292674,3034.844362,-10362.883188,1225.752797
821.292998,2442.679609,-10436.903782,1072.533697
821.293322,592.164754,-9918.759623,383.047749
821.293646,-1258.350101,-9622.677246,-459.657299
821.293970,-2886.803174,-8364.327145,-1072.533697
821.294294,-1998.556043,-8734.430116,-1225.752797
821.294618,-814.226536,-9474.636058,-995.924147
821.294942,0.000000,-9918.759623,-842.705048
821.295266,518.144159,-9622.677246,-153.219100
821.295591,0.000000,-9104.533087,0.000000
821.295915,-592.164754,-8586.388927,0.000000
821.296239,-296.082377,-8882.471304,612.876398
821.296563,740.205942,-9474.636058,1072.533697
821.296887,2368.659014,-10584.944971,1685.410096
821.297211,2590.720797,-10807.006753,1302.362347
821.297535,1628.453072,-10584.944971,229.828649
821.297859,-148.041188,-9548.656652,-536.266849
821.298183,-1776.494261,-9178.553681,-1532.190996
821.298507,-2072.576638,-9030.512492,-1149.143247
821.298831,-1406.391290,-9030.512492,-1378.971896
821.299155,-592.164754,-9474.636058,-995.924147
821.299479,444.123565,-9770.718434,-229.828649
821.299803,74.020594,-9622.677246,-383.047749
821.300127,74.020594,-9474.636058,536.266849
821.300452,74.020594,-9400.615463,842.705048
821.300776,666.185348,-9770.718434,1455.581446
821.301100,1998.556043,-9844.739029,1149.143247
821.301424,2516.700203,-10436.903782,1378.971896
821.301748,1776.494261,-10881.027347,842.705048
821.302072,74.020594,-10214.842000,0.000000
821.302396,-1628.453072,-9622.677246,-1149.143247
821.302720,-2812.782580,-9474.636058,-1532.190996
821.303044,-2738.761985,-9104.533087,-1915.238745
821.303368,-1628.453072,-9474.636058,-1608.800546
821.303692,-444.123565,-10066.800811,-1532.190996
821.304016,0.000000,-10288.862594,-842.705048
821.304340,0.000000,-9770.718434,0.000000
821.304664,-222.061783,-8956.491898,536.266849
821.304988,666.185348,-9474.636058,766.095498
821.305313,1702.473667,-9474.636058,1455.581446
821.305637,3034.844362,-10436.903782,1915.238745
821.305961,3108.864956,-10807.006753,1455.581446
821.306285,2072.576638,-10732.986159,1072.533697
821.306609,222.061783,-9770.718434,229.828649
821.306933,-1702.473667,-8956.491898,-1225.752797
821.307257,-2442.679609,-8734.430116,-1072.533697
821.307581,-2368.659014,-8068.244768,-1072.533697
821.307905,-962.267725,-9030.512492,-1532.190996
821.308229,-222.061783,-9844.739029,-1149.143247
821.308553,-296.082377,-9548.656652,-459.657299
821.308877,-666.185348,-9030.512492,-306.438199
821.309201,-666.185348,-8512.368333,0.000000
821.309525,444.123565,-9252.574275,919.314598
821.309849,1776.494261,-10066.800811,1532.190996
821.310174,3108.864956,-10732.986159,1685.410096
821.310498,2368.659014,-11103.089130,1455.581446
821.310822,1258.350101,-10881.027347,766.095498
821.311146,-888.247130,-10140.821405,-459.657299
821.311470,-2368.659014,-9252.574275,-1302.362347
821.311794,-3034.844362,-9252.574275,-1608.800546
821.312118,-1924.535449,-9548.656652,-995.924147
821.312442,-1110.308913,-9918.759623,-1149.143247
821.312766,-296.082377,-9992.780217,-842.705048
821.313090,0.000000,-9178.553681,-383.047749
821.313414,-222.061783,-9030.512492,0.000000
821.313738,-296.082377,-9178.553681,612.876398
821.314062,444.123565,-9622.677246,1072.533697
821.314386,1258.350101,-10066.800811,1532.190996
821.314710,1628.453072,-10732.986159,1149.143247
821.315035,1110.308913,-11473.192101,153.219100
821.315359,74.020594,-10658.965565,0.000000
821.315683,-1110.308913,-9918.759623,-919.314598
821.316007,-1924.535449,-9474.636058,-919.314598
821.316331,-1924.535449,-9030.512492,-1685.410096
821.316655,-592.164754,-9326.594869,-1225.752797
821.316979,0.000000,-9696.697840,-995.924147
821.317303,518.144159,-10066.800811,0.000000
821.317627,296.082377,-10066.800811,-153.219100
821.317951,-444.123565,-9400.615463,0.000000
821.318275,148.041188,-9104.533087,306.438199
821.318599,1480.411884,-9474.636058,1072.533697
821.318923,2664.741391,-10066.800811,919.314598
821.319247,2590.720797,-10436.903782,842.705048
821.319571,1332.370696,-10436.903782,306.438199
821.319895,-148.041188,-9474.636058,-995.924147
821.320220,-1998.556043,-9030.512492,-1225.752797
821.320544,-2590.720797,-8660.409521,-1532.190996
821.320868,-2220.617826,-8586.388927,-1378.971896
821.321192,-518.144159,-9548.656652,-995.924147
821.321516,1036.288319,-10140.821405,-153.219100
821.321840,1258.350101,-9918.759623,383.047749
821.322164,814.226536,-9400.615463,383.047749
821.322488,148.041188,-9326.594869,842.705048
821.322812,444.123565,-9400.615463,1149.143247
821.323136,1480.411884,-10140.821405,1685.410096
821.323460,2220.617826,-10807.006753,1838.629195
821.323784,1850.514855,-10732.986159,1455.581446
821.324108,1110.308913,-10658.965565,306.438199
821.324432,-740.205942,-9252.574275,-766.095498
821.324756,-2812.782580,-8882.471304,-1532.190996
821.325081,-3182.885551,-8660.409521,-1685.410096
821.325405,-1924.535449,-9030.512492,-1302.362347
821.325729,-740.205942,-9400.615463,-995.924147
821.326053,296.082377,-9474.636058,0.000000
821.326377,0.000000,-9178.553681,-306.438199
821.326701,-296.082377,-8808.450710,153.219100
821.327025,0.000000,-8956.491898,766.095498
821.327349,740.205942,-9622.677246,1762.019645
821.327673,1998.556043,-9992.780217,1532.190996
821.327997,2294.638420,-10362.883188,1455.581446
821.328321,1480.411884,-10288.862594,842.705048
821.328645,-444.123565,-9622.677246,-459.657299
821.328969,-2516.700203,-9104.533087,-919.314598
821.329293,-2960.823768,-8660.409521,-2298.286494
821.329617,-2886.803174,-9400.615463,-1608.800546
821.329941,-1406.391290,-9622.677246,-1762.019645
821.330265,-222.061783,-10066.800811,-1378.971896
821.330589,-296.082377,-10436.903782,-383.047749
821.330913,-370.102971,-9770.718434,-459.657299
821.331237,0.000000,-10214.842000,536.266849
821.331561,0.000000,-10288.862594,842.705048
821.331885,1332.370696,-9844.739029,842.705048
821.332209,2368.659014,-10955.047942,1455.581446
821.332533,2738.761985,-11399.171507,995.924147
821.332857,1628.453072,-11029.068536,536.266849
821.333181,-222.061783,-9918.759623,-153.219100
821.333506,-1480.411884,-8956.491898,-995.924147
821.333830,-2368.659014,-8290.306550,-1608.800546
821.334154,-2072.576638,-8882.471304,-2374.896044
821.334478,-1258.350101,-9548.656652,-1838.629195
821.334802,-444.123565,-10436.903782,-1225.752797
821.335126,-370.102971,-10288.862594,-306.438199
821.335450,-666.185348,-9474.636058,0.000000
821.335774,-740.205942,-8734.430116,689.485948
821.336098,518.144159,-9326.594869,1072.533697
821.336422,2294.638420,-9844.739029,1991.848295
821.336746,3182.885551,-10362.883188,2374.896044
821.337070,2664.741391,-10658.965565,1838.629195
821.337394,1184.329507,-9918.759623,919.314598
821.337718,-814.226536,-8882.471304,-306.438199
821.338042,-2442.679609,-8512.368333,-1532.190996
821.338366,-3034.844362,-8364.327145,-1378.971896
821.338690,-2294.638420,-8586.388927,-995.924147
821.339014,-888.247130,-9474.636058,-995.924147
821.339338,-370.102971,-9474.636058,-459.657299
821.339662,-740.205942,-9178.553681,0.000000
821.339986,-888.247130,-8512.368333,229.828649
821.340310,-518.144159,-8660.409521,919.314598
821.340634,814.226536,-9326.594869,1838.629195
821.340958,1998.556043,-9696.697840,2834.553343
821.341282,2960.823768,-9918.759623,2451.505594
821.341606,2368.659014,-10362.883188,2145.067394
821.341930,370.102971,-9474.636058,536.266849
821.342254,-1924.535449,-8734.430116,-689.485948
821.342578,-3034.844362,-8586.388927,-1608.800546
821.342902,-2516.700203,-9030.512492,-1608.800546
821.343226,-1554.432478,-9474.636058,-1225.752797
821.343550,-296.082377,-9992.780217,-536.266849
821.343874,-518.144159,-10214.842000,-153.219100
821.344198,0.000000,-9844.739029,306.438199
821.344522,-222.061783,-9474.636058,-153.219100
821.344846,444.123565,-9326.594869,919.314598
821.345170,2220.617826,-10066.800811,1685.410096
821.345494,3627.009116,-10807.006753,1608.800546
821.345818,3775.050304,-11103.089130,1532.190996
821.346142,2072.576638,-10807.006753,689.485948
821.346466,222.061783,-10066.800811,-766.095498
821.346790,-2368.659014,-9400.615463,-1455.581446
821.347114,-2220.617826,-8956.491898,-1532.190996
821.347438,-1332.370696,-9474.636058,-1685.410096
821.347762,-370.102971,-10288.862594,-1685.410096
821.348086,74.020594,-10658.965565,-1455.581446
821.348410,-222.061783,-10214.842000,-612.876398
821.348734,-740.205942,-9400.615463,-1149.143247
821.349058,0.000000,-9474.636058,0.000000
821.349382,666.185348,-9622.677246,459.657299
821.349706,2294.638420,-10288.862594,1225.752797
821.350030,2960.823768,-11029.068536,1378.971896
821.350354,2220.617826,-11251.130318,842.705048
821.350678,888.247130,-10658.965565,-153.219100
821.351003,-1406.391290,-9474.636058,-1455.581446
821.351327,-2294.638420,-8660.409521,-2221.676944
821.351651,-2368.659014,-8734.430116,-1915.238745
821.351975,-1110.308913,-9548.656652,-1455.581446
821.352299,-962.267725,-9918.759623,-1072.533697
821.352623,-666.185348,-9770.718434,-842.705048
821.352947,-740.205942,-9326.594869,-766.095498
821.353271,-740.205942,-8660.409521,0.000000
821.353595,370.102971,-8660.409521,766.095498
821.353919,1998.556043,-8956.491898,1532.190996
821.354243,2960.823768,-9326.594869,2145.067394
821.354567,3034.844362,-9474.636058,1378.971896
821.354891,1628.453072,-9622.677246,536.266849
821.355215,-592.164754,-9252.574275,-306.438199
821.355539,-2294.638420,-8660.409521,-1149.143247
821.355863,-2590.720797,-8586.388927,-1685.410096
821.356187,-2368.659014,-8808.450710,-1762.019645
821.356511,-1702.473667,-9178.553681,-689.485948
821.356835,-666.185348,-9918.759623,153.219100
821.357159,-666.185348,-9844.739029,-459.657299
821.357483,-740.205942,-9474.636058,229.828649
821.357807,-444.123565,-9400.615463,1455.581446
821.358131,740.205942,-9696.697840,1532.190996
821.358455,1776.494261,-9770.718434,2068.457845
821.358779,2220.617826,-10510.924376,1838.629195
821.359103,1628.453072,-10732.986159,995.924147
821.359427,0.000000,-11177.109724,153.219100
821.359751,-1850.514855,-10214.842000,-612.876398
821.360075,-2960.823768,-9252.574275,-1608.800546
821.360399,-2738.761985,-8956.491898,-1608.800546
821.360723,-1554.432478,-9326.594869,-766.095498
821.361047,-370.102971,-10066.800811,-766.095498
821.361371,518.144159,-9844.739029,612.876398
821.361695,518.144159,-9918.759623,459.657299
821.362019,0.000000,-9622.677246,383.047749
821.362343,370.102971,-9474.636058,919.314598
821.362667,1702.473667,-9622.677246,1915.238745
821.362991,3256.906145,-10658.965565,2374.896044
821.363315,3775.050304,-11399.171507,1685.410096
821.363639,2960.823768,-11547.212695,1225.752797
821.363963,370.102971,-9548.656652,229.828649
821.364287,-1036.288319,-9844.739029,-995.924147
821.364611,-1998.556043,-9770.718434,-1532.190996
821.364935,-2072.576638,-9918.759623,-1608.800546
821.365259,-1628.453072,-9844.739029,-1608.800546
821.365583,-592.164754,-9770.718434,-842.705048
821.365907,74.020594,-9918.759623,76.609550
821.366231,0.000000,-9622.677246,383.047749
821.366555,-74.020594,-8956.491898,689.485948
821.366879,0.000000,-8808.450710,995.924147
821.367203,1184.329507,-9252.574275,1838.629195
821.367527,2294.638420,-9918.759623,1378.971896
821.367851,2072.576638,-10362.883188,842.705048
821.368175,962.267725,-9770.718434,919.314598
821.368500,-740.205942,-9252.574275,-383.047749
821.368824,-2738.761985,-8512.368333,-1455.581446
821.369148,-2294.638420,-8364.327145,-1532.190996
821.369472,-1258.350101,-8364.327145,-1762.019645
821.369796,74.020594,-8956.491898,-995.924147
821.370120,74.020594,-9252.574275,-919.314598
821.370444,-222.061783,-9400.615463,-536.266849
821.370768,-1110.308913,-8512.368333,-153.219100
821.371092,-666.185348,-8734.430116,0.000000
821.371416,222.061783,-9474.636058,1149.143247
821.371740,2368.659014,-10140.821405,1149.143247
821.372064,3330.926739,-10807.006753,1532.190996
821.372388,2442.679609,-10881.027347,842.705048
821.372712,222.061783,-10436.903782,-383.047749
821.373036,-1480.411884,-10362.883188,-1225.752797
821.373360,-2886.803174,-9622.677246,-2451.505594
821.373684,-2738.761985,-9474.636058,-2757.943793
821.374008,-1702.473667,-9548.656652,-2298.286494
821.374332,-370.102971,-10288.862594,-1838.629195
821.374656,370.102971,-10436.903782,-1378.971896
821.374980,444.123565,-10214.842000,-612.876398
821.375304,148.041188,-9622.677246,0.000000
821.375628,-370.102971,-9178.553681,-306.438199
821.375952,666.185348,-9474.636058,766.095498
821.376276,2664.741391,-10658.965565,536.266849
821.376600,2960.823768,-11769.274478,1378.971896
821.376924,1998.556043,-11399.171507,995.924147
821.377248,222.061783,-10658.965565,0.000000
821.377572,-2146.597232,-9696.697840,-766.095498
821.377896,-3108.864956,-9104.533087,-1608.800546
821.378220,-2442.679609,-9400.615463,-1455.581446
821.378544,-1998.556043,-9474.636058,-1225.752797
821.378868,-1258.350101,-10140.821405,-1072.533697
821.379192,-1110.308913,-10140.821405,-689.485948
821.379516,-1036.288319,-9104.533087,-306.438199
821.379840,-1110.308913,-8882.471304,306.438199
821.380164,0.000000,-9326.594869,766.095498
821.380488,1554.432478,-9326.594869,1302.362347
821.380812,2886.803174,-10288.862594,2145.067394
821.381136,2442.679609,-10584.944971,1608.800546
821.381460,740.205942,-10436.903782,1072.533697
821.381784,-1406.391290,-9992.780217,0.000000
821.382108,-3034.844362,-9178.553681,-766.095498
821.382432,-2960.823768,-8660.409521,-689.485948
821.382756,-1332.370696,-8586.388927,-766.095498
821.383080,222.061783,-8956.491898,153.219100
821.383404,888.247130,-9178.553681,536.266849
821.383728,518.144159,-9474.636058,1072.533697
821.384052,0.000000,-8956.491898,919.314598
821.384376,-222.061783,-8364.327145,919.314598
821.384700,444.123565,-8734.430116,1838.629195
821.385024,2368.659014,-9474.636058,2298.286494
821.385348,3256.906145,-9844.739029,1915.238745
821.385672,2368.659014,-10066.800811,1685.410096
821.385997,962.267725,-10362.883188,919.314598
821.386321,-1258.350101,-9696.697840,76.609550
821.386645,-2664.741391,-9326.594869,-919.314598
821.386969,-2664.741391,-8364.327145,-995.924147
821.387293,-1554.432478,-8956.491898,-1072.533697
821.387617,-296.082377,-9770.718434,0.000000
821.387941,0.000000,-10658.965565,0.000000
821.388265,0.000000,-10214.842000,612.876398
821.388589,-148.041188,-9252.574275,76.609550
821.388913,0.000000,-8956.491898,536.266849
821.389237,1258.350101,-9548.656652,612.876398
821.389561,2738.761985,-10362.883188,1072.533697
821.389885,3552.988522,-11251.130318,1072.533697
821.390209,2812.782580,-11029.068536,1225.752797
821.390533,444.123565,-10510.924376,-459.657299
821.390857,-962.267725,-9770.718434,-1378.971896
821.391181,-1998.556043,-9104.533087,-1608.800546
821.391505,-1924.535449,-9252.574275,-1762.019645
821.391829,-888.247130,-9844.739029,-1762.019645
821.392153,74.020594,-10140.821405,-842.705048
821.392477,518.144159,-10214.842000,306.438199
821.392801,0.000000,-9622.677246,-995.924147
821.393125,-148.041188,-9030.512492,0.000000
821.393449,-296.082377,-9178.553681,76.609550
821.393773,1036.288319,-10214.842000,612.876398
821.394097,1998.556043,-10732.986159,689.485948
821.394421,1628.453072,-10732.986159,1072.533697
821.394745,0.000000,-10584.944971,612.876398
821.395069,-1036.288319,-10436.903782,-842.705048
821.395393,-2368.659014,-9252.574275,-2374.896044
821.395717,-2812.782580,-8512.368333,-1991.848295
821.396041,-2146.597232,-8512.368333,-2298.286494
821.396365,-888.247130,-9104.533087,-1685.410096
821.396689,-444.123565,-9770.718434,-919.314598
821.397013,-666.185348,-9326.594869,76.609550
821.397337,-666.185348,-8808.450710,-229.828649
821.397661,-296.082377,-9252.574275,0.000000
821.397985,518.144159,-9030.512492,153.219100
821.398309,2368.659014,-9844.739029,1072.533697
821.398633,3478.967927,-10510.924376,1455.581446
821.398957,2886.803174,-10881.027347,1072.533697
821.399281,1258.350101,-10436.903782,-229.828649
821.399605,-740.205942,-9400.615463,-842.705048
821.399929,-1776.494261,-9178.553681,-1532.190996
821.400253,-1480.411884,-9178.553681,-1838.629195
821.400577,-666.185348,-9252.574275,-1532.190996
821.400901,0.000000,-9844.739029,-995.924147
821.401225,0.000000,-10214.842000,-919.314598
821.401549,-444.123565,-9696.697840,-689.485948
821.401873,-888.247130,-8882.471304,-842.705048
821.402197,-740.205942,-9548.656652,0.000000
821.402521,370.102971,-9770.718434,1225.752797
821.402845,1924.535449,-10955.047942,1455.581446
821.403170,2220.617826,-11473.192101,1532.190996
821.403494,1406.391290,-11547.212695,842.705048
821.403818,-296.082377,-10881.027347,153.219100
821.404142,-1998.556043,-9252.574275,-689.485948
821.404466,-2368.659014,-8956.491898,-1302.362347
821.404790,-1554.432478,-9252.574275,-459.657299
821.405114,-888.247130,-9918.759623,-459.657299
