#time,accel_x,accel_y,accel_z
534.176415,0.000000,-9844.739029,76.609550
534.176739,0.000000,-9400.615463,383.047749
534.177063,0.000000,-9474.636058,536.266849
534.177387,0.000000,-9770.718434,76.609550
534.177711,-296.082377,-9622.677246,0.000000
534.178035,-370.102971,-9770.718434,0.000000
534.178359,-444.123565,-9992.780217,306.438199
534.178683,-222.061783,-9696.697840,0.000000
534.179007,0.000000,-9844.739029,0.000000
534.179332,0.000000,-9548.656652,76.609550
534.179656,-296.082377,-9474.636058,0.000000
534.179980,0.000000,-9400.615463,-153.219100
534.180304,0.000000,-9548.656652,-153.219100
534.180628,74.020594,-9696.697840,76.609550
534.180952,0.000000,-9844.739029,0.000000
534.181276,0.000000,-9696.697840,0.000000
534.181600,0.000000,-9770.718434,76.609550
534.181924,-222.061783,-9548.656652,0.000000
534.182248,-74.020594,-9770.718434,-766.095498
534.182572,0.000000,-9770.718434,-383.047749
534.182896,148.041188,-9474.636058,-229.828649
534.183220,518.144159,-9770.718434,0.000000
534.183544,592.164754,-9844.739029,153.219100
534.183868,592.164754,-9918.759623,0.000000
534.184192,0.000000,-9770.718434,229.828649
534.184516,-518.144159,-9918.759623,229.828649
534.184841,-740.205942,-9178.553681,-383.047749
534.185165,-740.205942,-9030.512492,-153.219100
534.185489,74.020594,-9622.677246,76.609550
534.185813,814.226536,-10066.800811,229.828649
534.186137,1184.329507,-9474.636058,-153.219100
534.186461,888.247130,-9030.512492,229.828649
534.186785,740.205942,-9326.594869,-153.219100
534.187109,1184.329507,-9696.697840,153.219100
534.187433,148.041188,-9548.656652,0.000000
534.187757,0.000000,-10140.821405,-383.047749
534.188081,-592.164754,-10066.800811,-306.438199
534.188405,-666.185348,-10140.821405,0.000000
534.188729,222.061783,-10436.903782,766.095498
534.189053,1258.350101,-9770.718434,1072.533697
534.189377,1998.556043,-9400.615463,919.314598
534.189701,2516.700203,-9548.656652,2068.457845
534.190025,2442.679609,-9844.739029,1225.752797
534.190349,2294.638420,-9770.718434,1149.143247
534.190674,1924.535449,-9326.594869,459.657299
534.190998,1184.329507,-9622.677246,0.000000
534.191322,444.123565,-10066.800811,0.000000
534.191646,-222.061783,-9992.780217,229.828649
534.191970,-666.185348,-9844.739029,0.000000
534.192294,74.020594,-9696.697840,459.657299
534.192618,1554.432478,-9696.697840,1302.362347
534.192942,3478.967927,-9770.718434,2068.457845
534.193266,4737.318029,-9696.697840,2757.943793
534.193590,5181.441594,-9622.677246,2911.162892
534.193914,4959.379811,-9844.739029,3294.210641
534.194238,3997.112087,-9696.697840,2604.724693
534.194562,3404.947333,-10510.924376,2068.457845
534.194886,2368.659014,-10214.842000,1838.629195
534.195210,1332.370696,-10584.944971,1225.752797
534.195534,444.123565,-10584.944971,689.485948
534.195858,74.020594,-9548.656652,1225.752797
534.196182,1332.370696,-9474.636058,2298.286494
534.196507,2960.823768,-9474.636058,3217.601092
534.196831,4145.153275,-9178.553681,3370.820191
534.197155,4367.215058,-9252.574275,4519.963438
534.197479,4589.276840,-10066.800811,4826.401637
534.197803,4219.173869,-10436.903782,4979.620737
534.198127,2590.720797,-9844.739029,4749.792088
534.198451,962.267725,-9104.533087,3753.867940
534.198775,-444.123565,-9030.512492,3064.381992
534.199099,-1628.453072,-8142.265362,2834.553343
534.199423,-1850.514855,-7846.182985,2757.943793
534.199747,-1110.308913,-7179.997637,2528.115143
534.200071,148.041188,-6587.832884,2451.505594
534.200395,1110.308913,-5995.668130,2911.162892
534.200719,2368.659014,-5699.585753,3524.039291
534.201043,3997.112087,-7105.977043,4060.306139
534.201367,4737.318029,-8512.368333,4749.792088
534.201691,5329.482782,-9622.677246,4903.011187
534.202016,5181.441594,-10732.986159,4979.620737
534.202340,4071.132681,-11843.295072,4443.353888
534.202664,2072.576638,-12657.521608,3677.258390
534.202988,148.041188,-12583.501014,2757.943793
534.203312,-1776.494261,-11917.315666,1915.238745
534.203636,-1776.494261,-10658.965565,919.314598
534.203960,-518.144159,-9252.574275,1532.190996
534.204284,962.267725,-8512.368333,1608.800546
534.204608,2812.782580,-7994.224174,1455.581446
534.204932,3849.070898,-7550.100608,1302.362347
534.205256,4515.256246,-7698.141797,995.924147
534.205580,4367.215058,-8438.347739,1532.190996
534.205904,3330.926739,-10214.842000,1762.019645
534.206228,2146.597232,-11843.295072,2451.505594
534.206552,444.123565,-12583.501014,2221.676944
534.206876,-74.020594,-11917.315666,919.314598
534.207200,-222.061783,-11251.130318,766.095498
534.207524,518.144159,-11103.089130,766.095498
534.207849,1480.411884,-10584.944971,0.000000
534.208173,2146.597232,-9400.615463,229.828649
534.208497,2368.659014,-8290.306550,0.000000
534.208821,2960.823768,-8660.409521,-459.657299
534.209145,2368.659014,-8808.450710,-229.828649
534.209469,1628.453072,-8216.285956,-842.705048
534.209793,2146.597232,-8068.244768,-842.705048
534.210117,3849.070898,-10066.800811,0.000000
534.210441,5699.585753,-12065.356855,1149.143247
534.210765,6365.771101,-12953.603985,1838.629195
534.211089,5033.400406,-12879.583391,1762.019645
534.211413,2220.617826,-12583.501014,995.924147
534.211737,-518.144159,-11991.336260,459.657299
534.212061,-2738.761985,-11325.150913,229.828649
534.212385,-2516.700203,-10362.883188,229.828649
534.212709,-296.082377,-9178.553681,1072.533697
534.213033,2294.638420,-7772.162391,1302.362347
534.213357,3182.885551,-7105.977043,1302.362347
534.213682,3701.029710,-6143.709319,459.657299
534.214006,3404.947333,-5551.544565,0.000000
534.214330,3478.967927,-6735.874072,612.876398
534.214654,4293.194464,-8882.471304,1149.143247
534.214978,3775.050304,-10436.903782,2451.505594
534.215302,2886.803174,-11251.130318,2298.286494
534.215626,1036.288319,-9770.718434,1302.362347
534.215950,-518.144159,-9178.553681,1225.752797
534.216274,-296.082377,-9474.636058,1991.848295
534.216598,0.000000,-10436.903782,2221.676944
534.216922,-592.164754,-10362.883188,2604.724693
534.217246,-962.267725,-10214.842000,2604.724693
534.217570,-740.205942,-8956.491898,1762.019645
534.217894,1554.432478,-7328.038826,1608.800546
534.218218,4071.132681,-7328.038826,1915.238745
534.218542,5403.503377,-8586.388927,2451.505594
534.218866,4959.379811,-9918.759623,1915.238745
534.219191,1998.556043,-10214.842000,1991.848295
534.219515,0.000000,-10658.965565,1225.752797
534.219839,0.000000,-11251.130318,1685.410096
534.220163,1998.556043,-12213.398043,2451.505594
534.220487,3108.864956,-11769.274478,3677.258390
534.220811,3108.864956,-10436.903782,3907.087040
534.221135,2516.700203,-9696.697840,3830.477490
534.221459,1998.556043,-9992.780217,3830.477490
534.221783,1850.514855,-10140.821405,3677.258390
534.222107,1036.288319,-9844.739029,3677.258390
534.222431,740.205942,-8956.491898,3140.991542
534.222755,1702.473667,-8290.306550,3140.991542
534.223079,3701.029710,-8290.306550,2987.772442
534.223403,4663.297435,-9400.615463,2528.115143
534.223727,4737.318029,-9696.697840,2528.115143
534.224051,4145.153275,-8956.491898,2298.286494
534.224375,3849.070898,-8808.450710,2528.115143
534.224699,3775.050304,-10066.800811,3064.381992
534.225024,3404.947333,-11473.192101,3140.991542
534.225348,1998.556043,-11103.089130,3907.087040
534.225672,518.144159,-9770.718434,3677.258390
534.225996,444.123565,-9770.718434,3830.477490
534.226320,1406.391290,-10362.883188,4060.306139
534.226644,3034.844362,-10510.924376,4136.915689
534.226968,3627.009116,-9474.636058,4366.744339
534.227292,2368.659014,-8734.430116,2911.162892
534.227616,-666.185348,-9252.574275,1608.800546
534.227940,-3330.926739,-8660.409521,612.876398
534.228264,-2516.700203,-7328.038826,306.438199
534.228588,-814.226536,-6957.935855,766.095498
534.228912,1258.350101,-7550.100608,689.485948
534.229236,3108.864956,-7772.162391,1991.848295
534.229560,4441.235652,-7994.224174,2681.334243
534.229884,5403.503377,-7476.080014,2298.286494
534.230208,3775.050304,-7772.162391,1762.019645
534.230532,1480.411884,-8808.450710,2604.724693
534.230857,0.000000,-10436.903782,2451.505594
534.231181,74.020594,-9992.780217,2221.676944
534.231505,-444.123565,-8512.368333,153.219100
534.231829,-1554.432478,-9474.636058,0.000000
534.232153,-1998.556043,-11991.336260,0.000000
534.232477,-1776.494261,-11325.150913,-766.095498
534.232801,-1998.556043,-9104.533087,-1302.362347
534.233125,-2664.741391,-8660.409521,-1838.629195
534.233449,-2442.679609,-9992.780217,-1991.848295
534.233773,0.000000,-10436.903782,-919.314598
534.234097,3552.988522,-9622.677246,-153.219100
534.234421,4515.256246,-9844.739029,-766.095498
534.234745,3775.050304,-11325.150913,-536.266849
534.235069,2590.720797,-11547.212695,-766.095498
534.235393,1332.370696,-9918.759623,-459.657299
534.235717,-592.164754,-9770.718434,-153.219100
534.236041,-1850.514855,-11843.295072,-383.047749
534.236365,-2220.617826,-12139.377449,-1149.143247
534.236689,-1332.370696,-10955.047942,-1072.533697
534.237013,-666.185348,-9992.780217,-383.047749
534.237337,0.000000,-10584.944971,-2221.676944
534.237661,-888.247130,-10658.965565,-2451.505594
534.237985,-2368.659014,-9400.615463,-2987.772442
534.238309,-1406.391290,-9252.574275,-2757.943793
534.238633,0.000000,-10140.821405,-3677.258390
534.238957,296.082377,-10807.006753,-2911.162892
534.239281,1554.432478,-10214.842000,-1149.143247
534.239604,2590.720797,-9918.759623,-1072.533697
534.239928,2368.659014,-10584.944971,-1378.971896
534.240252,296.082377,-9918.759623,-1302.362347
534.240576,-888.247130,-9548.656652,0.000000
534.240900,74.020594,-10732.986159,612.876398
534.241224,444.123565,-11473.192101,0.000000
534.241548,-962.267725,-10807.006753,766.095498
534.241872,-2812.782580,-10732.986159,76.609550
534.242196,-3330.926739,-10658.965565,-1991.848295
534.242520,-4219.173869,-9326.594869,-3447.429741
534.242844,-5107.421000,-7179.997637,-2528.115143
534.243168,-3997.112087,-7772.162391,-2451.505594
534.243491,-1998.556043,-8364.327145,-2528.115143
534.243815,-518.144159,-7328.038826,-1762.019645
534.244139,1258.350101,-6143.709319,-995.924147
534.244463,2738.761985,-7846.182985,-153.219100
534.244787,4663.297435,-9104.533087,766.095498
534.245111,5995.668130,-7994.224174,2145.067394
534.245435,6735.874072,-8438.347739,3753.867940
534.245759,5773.606348,-11103.089130,3753.867940
534.246083,4145.153275,-12213.398043,2757.943793
534.246407,1998.556043,-11399.171507,2528.115143
534.246731,-814.226536,-10732.986159,1302.362347
534.247054,-4071.132681,-10955.047942,-1149.143247
534.247378,-6217.729913,-10288.862594,-1762.019645
534.247702,-5699.585753,-8364.327145,-1225.752797
534.248026,-4145.153275,-8290.306550,-1608.800546
534.248350,-3256.906145,-8216.285956,-2221.676944
534.248674,-2738.761985,-7698.141797,-1455.581446
534.248998,-370.102971,-7402.059420,-689.485948
534.249322,2294.638420,-8290.306550,0.000000
534.249646,4071.132681,-9918.759623,1991.848295
534.249970,5699.585753,-9326.594869,3294.210641
534.250294,6143.709319,-10066.800811,3524.039291
534.250618,5107.421000,-12805.562797,3600.648841
534.250941,3478.967927,-13397.727550,3600.648841
534.251265,1628.453072,-12583.501014,3217.601092
534.251589,-1554.432478,-11917.315666,2068.457845
534.251913,-4885.359217,-10584.944971,76.609550
534.252237,-6513.812290,-8068.244768,-1532.190996
534.252561,-5699.585753,-7846.182985,-1915.238745
534.252885,-3923.091493,-8956.491898,-2068.457845
534.253209,-2368.659014,-8142.265362,-1762.019645
534.253533,-1480.411884,-6069.688724,-689.485948
534.253857,0.000000,-6217.729913,-229.828649
534.254181,1036.288319,-8734.430116,229.828649
534.254504,2886.803174,-9770.718434,1838.629195
534.254828,4071.132681,-9252.574275,3140.991542
534.255152,4589.276840,-10955.047942,2987.772442
534.255476,3997.112087,-12139.377449,3524.039291
534.255800,2960.823768,-11843.295072,3753.867940
534.256124,666.185348,-12213.398043,2987.772442
534.256448,-2442.679609,-12509.480420,1915.238745
534.256772,-4293.194464,-10881.027347,-306.438199
534.257096,-4441.235652,-8142.265362,-229.828649
534.257420,-2368.659014,-8216.285956,-689.485948
534.257744,-888.247130,-8290.306550,-1378.971896
534.258067,222.061783,-7105.977043,-995.924147
534.258391,148.041188,-7105.977043,-1149.143247
534.258715,740.205942,-7846.182985,-1838.629195
534.259039,1036.288319,-8438.347739,-1149.143247
534.259363,1998.556043,-7846.182985,229.828649
534.259687,2590.720797,-9326.594869,0.000000
534.260011,2886.803174,-11843.295072,153.219100
534.260335,2664.741391,-11991.336260,1762.019645
534.260659,2368.659014,-11843.295072,2068.457845
534.260983,592.164754,-12435.459826,1149.143247
534.261307,-1628.453072,-11991.336260,612.876398
534.261631,-2072.576638,-10066.800811,0.000000
534.261954,-1628.453072,-9844.739029,-766.095498
534.262278,-1850.514855,-9918.759623,-1838.629195
534.262602,-1480.411884,-8142.265362,-2068.457845
534.262926,-1480.411884,-7698.141797,-2374.896044
534.263250,-2072.576638,-8142.265362,-3907.087040
534.263574,-2738.761985,-8068.244768,-4366.744339
534.263898,-1258.350101,-7105.977043,-1838.629195
534.264222,1480.411884,-8438.347739,-1685.410096
534.264546,2368.659014,-11029.068536,-306.438199
534.264870,2738.761985,-10510.924376,689.485948
534.265194,2812.782580,-9474.636058,1072.533697
534.265517,962.267725,-10658.965565,229.828649
534.265841,-1406.391290,-10955.047942,153.219100
534.266165,-1998.556043,-10510.924376,306.438199
534.266489,-1702.473667,-9918.759623,612.876398
534.266813,-1406.391290,-10584.944971,-383.047749
534.267137,-1036.288319,-9178.553681,-1532.190996
534.267461,-518.144159,-7105.977043,-2221.676944
534.267785,-296.082377,-8290.306550,-3600.648841
534.268109,-740.205942,-9178.553681,-4290.134789
534.268433,-148.041188,-8290.306550,-2987.772442
534.268757,1776.494261,-8068.244768,-1149.143247
534.269081,2664.741391,-10510.924376,0.000000
534.269404,2442.679609,-11843.295072,229.828649
534.269728,1924.535449,-11695.253884,0.000000
534.270052,0.000000,-11843.295072,-459.657299
534.270376,-2368.659014,-13323.706956,-306.438199
534.270700,-3034.844362,-12657.521608,842.705048
534.271024,-2368.659014,-11621.233289,1532.190996
534.271348,-1924.535449,-11251.130318,1455.581446
534.271672,-1776.494261,-10436.903782,0.000000
534.271996,-1036.288319,-8364.327145,-1455.581446
534.272320,-444.123565,-7624.121203,-2374.896044
534.272644,-148.041188,-7994.224174,-2451.505594
534.272967,962.267725,-8216.285956,-842.705048
534.273291,2738.761985,-7402.059420,0.000000
534.273615,3849.070898,-8734.430116,383.047749
534.273939,3330.926739,-9770.718434,689.485948
534.274263,2516.700203,-9770.718434,766.095498
534.274587,1998.556043,-10140.821405,766.095498
534.274911,-518.144159,-10807.006753,1455.581446
534.275235,-3034.844362,-11177.109724,2374.896044
534.275559,-3182.885551,-10584.944971,2451.505594
534.275883,-2738.761985,-10362.883188,1608.800546
534.276207,-3108.864956,-9400.615463,1532.190996
534.276530,-2072.576638,-8438.347739,383.047749
534.276854,-1554.432478,-7772.162391,-306.438199
534.277178,-2220.617826,-7920.203579,-229.828649
534.277502,-2072.576638,-8142.265362,-459.657299
534.277826,-814.226536,-7550.100608,0.000000
534.278150,592.164754,-8512.368333,229.828649
534.278474,1702.473667,-9548.656652,0.000000
534.278798,3108.864956,-9918.759623,1302.362347
534.279122,3552.988522,-9770.718434,2145.067394
534.279446,2442.679609,-10881.027347,2451.505594
534.279770,148.041188,-11325.150913,2528.115143
534.280094,-518.144159,-10288.862594,2911.162892
534.280417,-592.164754,-9696.697840,2681.334243
534.280741,-962.267725,-10214.842000,2298.286494
534.281065,-444.123565,-8660.409521,1762.019645
534.281389,444.123565,-7624.121203,995.924147
534.281713,0.000000,-7846.182985,-536.266849
534.282037,-962.267725,-8364.327145,-1532.190996
534.282361,-222.061783,-7105.977043,-1915.238745
534.282685,1184.329507,-7031.956449,-919.314598
534.283009,1850.514855,-9844.739029,-1302.362347
534.283333,2516.700203,-11547.212695,229.828649
534.283657,3182.885551,-10584.944971,1532.190996
534.283980,2664.741391,-11695.253884,995.924147
534.284304,0.000000,-13175.665768,919.314598
534.284628,-1258.350101,-12361.439231,1225.752797
534.284952,-1480.411884,-11103.089130,1302.362347
534.285276,-1850.514855,-11621.233289,1149.143247
534.285600,-2146.597232,-11177.109724,536.266849
534.285924,-1406.391290,-8956.491898,0.000000
534.286248,-1628.453072,-7920.203579,-995.924147
534.286572,-2368.659014,-8734.430116,-2528.115143
534.286896,-1628.453072,-7031.956449,-2911.162892
534.287220,814.226536,-6069.688724,-2298.286494
534.287544,2516.700203,-7772.162391,-1225.752797
534.287867,3478.967927,-9770.718434,-1072.533697
534.288191,4219.173869,-9178.553681,229.828649
534.288515,3923.091493,-9030.512492,153.219100
534.288839,962.267725,-11473.192101,229.828649
534.289163,-518.144159,-11621.233289,689.485948
534.289487,-370.102971,-10214.842000,1072.533697
534.289811,-1258.350101,-10955.047942,1685.410096
534.290135,-1998.556043,-11103.089130,1532.190996
534.290459,-1628.453072,-9474.636058,306.438199
534.290783,-1702.473667,-8290.306550,-612.876398
534.291107,-3330.926739,-8364.327145,-1915.238745
534.291430,-2516.700203,-8216.285956,-2681.334243
534.291754,-518.144159,-7179.997637,-2221.676944
534.292078,518.144159,-8216.285956,-1762.019645
534.292402,888.247130,-10066.800811,-1378.971896
534.292726,1480.411884,-10510.924376,-1838.629195
534.293050,1850.514855,-10362.883188,-1302.362347
534.293374,518.144159,-12879.583391,-1225.752797
534.293698,0.000000,-13323.706956,-536.266849
534.294022,74.020594,-12361.439231,919.314598
534.294346,148.041188,-12287.418637,689.485948
534.294670,0.000000,-12879.583391,459.657299
534.294993,0.000000,-11843.295072,612.876398
534.295317,0.000000,-9030.512492,-995.924147
534.295641,-814.226536,-8586.388927,-1532.190996
534.295965,-1480.411884,-9400.615463,-1225.752797
534.296289,-592.164754,-7846.182985,-1378.971896
534.296613,370.102971,-7402.059420,-1072.533697
534.296937,370.102971,-8956.491898,-1915.238745
534.297261,740.205942,-8956.491898,-2451.505594
534.297585,1924.535449,-8512.368333,-1608.800546
534.297909,962.267725,-9400.615463,-536.266849
534.298233,0.000000,-11177.109724,76.609550
534.298557,-888.247130,-10436.903782,1608.800546
534.298880,-1480.411884,-9992.780217,1685.410096
534.299204,-1998.556043,-11029.068536,766.095498
534.299528,-1702.473667,-10214.842000,1225.752797
534.299852,-962.267725,-9030.512492,995.924147
534.300176,-1776.494261,-8882.471304,612.876398
534.300500,-2590.720797,-9104.533087,536.266849
534.300824,-1554.432478,-7550.100608,459.657299
534.301148,148.041188,-6883.915261,0.000000
534.301472,1036.288319,-7476.080014,-919.314598
534.301796,1554.432478,-8808.450710,-1072.533697
534.302120,2812.782580,-8660.409521,0.000000
534.302443,3108.864956,-8734.430116,383.047749
534.302767,1480.411884,-9474.636058,1072.533697
534.303091,74.020594,-8882.471304,1685.410096
534.303415,0.000000,-8882.471304,1225.752797
534.303739,-148.041188,-10510.924376,1072.533697
534.304063,-962.267725,-11029.068536,919.314598
534.304387,-814.226536,-9696.697840,1608.800546
534.304711,-1036.288319,-9548.656652,2451.505594
534.305035,-1184.329507,-10214.842000,1302.362347
534.305359,-1110.308913,-9178.553681,-383.047749
534.305683,-296.082377,-7846.182985,-612.876398
534.306007,814.226536,-9104.533087,-1532.190996
534.306330,1332.370696,-11325.150913,-1455.581446
534.306654,2368.659014,-10658.965565,-153.219100
534.306978,2738.761985,-10066.800811,-229.828649
534.307302,1406.391290,-11991.336260,-229.828649
534.307626,444.123565,-12731.542202,-306.438199
534.307950,740.205942,-11473.192101,689.485948
534.308274,1110.308913,-11325.150913,842.705048
534.308598,518.144159,-12213.398043,1225.752797
534.308922,148.041188,-11325.150913,2068.457845
534.309246,-444.123565,-9844.739029,1378.971896
534.309570,-2738.761985,-9844.739029,612.876398
534.309893,-3627.009116,-9030.512492,-536.266849
534.310217,-2590.720797,-7031.956449,-1302.362347
534.310541,-1850.514855,-6291.750507,-1302.362347
534.310865,-518.144159,-8068.244768,-1302.362347
534.311189,888.247130,-8290.306550,-689.485948
534.311513,1480.411884,-8068.244768,-612.876398
534.311837,740.205942,-8586.388927,-536.266849
534.312161,-222.061783,-9844.739029,0.000000
534.312485,740.205942,-9622.677246,689.485948
534.312809,1332.370696,-9252.574275,1455.581446
534.313133,222.061783,-10362.883188,1302.362347
534.313457,-222.061783,-10288.862594,842.705048
534.313780,-444.123565,-10140.821405,1072.533697
534.314104,-1110.308913,-9992.780217,919.314598
534.314428,-1776.494261,-9548.656652,76.609550
534.314752,-1628.453072,-7476.080014,-383.047749
534.315076,-518.144159,-7031.956449,-612.876398
534.315400,-444.123565,-9252.574275,-1302.362347
534.315724,-592.164754,-9844.739029,-1608.800546
534.316048,1480.411884,-8956.491898,-1532.190996
534.316372,1406.391290,-8808.450710,-1685.410096
534.316696,814.226536,-10881.027347,-1225.752797
534.317020,1258.350101,-10436.903782,-689.485948
534.317343,2368.659014,-9400.615463,-383.047749
534.317667,1776.494261,-10732.986159,-229.828649
534.317991,444.123565,-12435.459826,-766.095498
534.318315,888.247130,-11695.253884,0.000000
534.318639,444.123565,-10658.965565,383.047749
534.318963,-962.267725,-11695.253884,306.438199
534.319287,-888.247130,-11103.089130,-459.657299
534.319611,0.000000,-9622.677246,-1225.752797
534.319935,370.102971,-10732.986159,-766.095498
534.320259,592.164754,-11547.212695,-1838.629195
534.320583,1702.473667,-10510.924376,-1608.800546
534.320906,888.247130,-9400.615463,-919.314598
534.321230,-592.164754,-10214.842000,-1762.019645
534.321554,-814.226536,-10362.883188,-1838.629195
534.321878,222.061783,-9252.574275,-229.828649
534.322202,1036.288319,-9992.780217,0.000000
534.322526,888.247130,-11103.089130,1302.362347
534.322850,666.185348,-10066.800811,2068.457845
534.323174,444.123565,-9400.615463,2451.505594
534.323498,-2072.576638,-9622.677246,1225.752797
534.323822,-3330.926739,-8882.471304,76.609550
534.324146,-3256.906145,-7698.141797,76.609550
534.324470,-2664.741391,-8142.265362,76.609550
534.324793,-1924.535449,-9326.594869,919.314598
534.325117,-814.226536,-8438.347739,536.266849
534.325441,-222.061783,-7994.224174,536.266849
534.325765,-962.267725,-8438.347739,-229.828649
534.326089,-1406.391290,-8512.368333,-459.657299
534.326413,370.102971,-7476.080014,76.609550
534.326737,1924.535449,-8364.327145,1072.533697
534.327061,2220.617826,-10510.924376,1532.190996
534.327385,2146.597232,-10140.821405,1838.629195
534.327709,1332.370696,-8956.491898,383.047749
534.328033,-740.205942,-9178.553681,76.609550
534.328356,-1998.556043,-10881.027347,383.047749
534.328680,-1924.535449,-10140.821405,-229.828649
534.329004,-1850.514855,-9548.656652,0.000000
534.329328,-2072.576638,-10362.883188,0.000000
534.329652,-1184.329507,-10955.047942,-383.047749
534.329976,148.041188,-9548.656652,-919.314598
534.330300,-148.041188,-9474.636058,-842.705048
534.330624,-1110.308913,-9992.780217,-1302.362347
534.330948,-296.082377,-9992.780217,-1455.581446
534.331272,1258.350101,-9548.656652,-995.924147
534.331596,1776.494261,-10436.903782,0.000000
534.331920,2294.638420,-11103.089130,229.828649
534.332243,3108.864956,-9992.780217,-76.609550
534.332567,2442.679609,-9622.677246,153.219100
534.332891,740.205942,-10881.027347,153.219100
534.333215,-666.185348,-10510.924376,383.047749
534.333539,0.000000,-9992.780217,459.657299
534.333863,-592.164754,-10658.965565,689.485948
534.334187,-666.185348,-10658.965565,306.438199
534.334511,-148.041188,-9252.574275,0.000000
534.334835,-666.185348,-7846.182985,-842.705048
534.335159,-1332.370696,-8808.450710,-1302.362347
534.335483,-592.164754,-8586.388927,-919.314598
534.335806,222.061783,-7698.141797,-383.047749
534.336130,1110.308913,-8364.327145,-383.047749
534.336454,1184.329507,-9104.533087,-229.828649
534.336778,2146.597232,-8438.347739,0.000000
534.337103,2146.597232,-8512.368333,1225.752797
534.337427,222.061783,-10140.821405,1378.971896
534.337751,-740.205942,-10436.903782,689.485948
534.338075,-370.102971,-9030.512492,766.095498
534.338399,-296.082377,-9844.739029,612.876398
534.338723,-1110.308913,-12139.377449,229.828649
534.339048,-1184.329507,-11399.171507,0.000000
534.339372,-2368.659014,-9252.574275,-689.485948
534.339696,-3256.906145,-8882.471304,-842.705048
534.340020,-2590.720797,-8956.491898,-1225.752797
534.340344,0.000000,-8438.347739,-1225.752797
534.340668,1184.329507,-8660.409521,-995.924147
534.340993,2072.576638,-9326.594869,-1225.752797
534.341317,3478.967927,-8882.471304,-459.657299
534.341641,4145.153275,-8586.388927,689.485948
534.341965,3182.885551,-10140.821405,689.485948
534.342289,1036.288319,-10362.883188,229.828649
534.342613,0.000000,-9992.780217,0.000000
534.342938,-444.123565,-10807.006753,153.219100
534.343262,-1554.432478,-12065.356855,0.000000
534.343586,-1924.535449,-11991.336260,153.219100
534.343910,-2146.597232,-10214.842000,-229.828649
534.344234,-3256.906145,-9696.697840,-689.485948
534.344558,-3478.967927,-9770.718434,-1072.533697
534.344883,-2442.679609,-9104.533087,-1608.800546
534.345207,-1036.288319,-8142.265362,-995.924147
534.345531,518.144159,-8882.471304,-766.095498
534.345855,2368.659014,-9400.615463,-612.876398
534.346179,3256.906145,-8808.450710,0.000000
534.346503,1998.556043,-9548.656652,612.876398
534.346828,518.144159,-11399.171507,536.266849
534.347152,0.000000,-10807.006753,1302.362347
534.347476,74.020594,-10436.903782,2145.067394
534.347800,-592.164754,-11769.274478,1149.143247
534.348124,-1554.432478,-12139.377449,995.924147
534.348448,-2368.659014,-10288.862594,536.266849
534.348773,-3256.906145,-9030.512492,153.219100
534.349097,-4663.297435,-9400.615463,0.000000
534.349421,-3923.091493,-8068.244768,-1149.143247
534.349745,-2072.576638,-5921.647536,-842.705048
534.350069,0.000000,-6069.688724,-612.876398
534.350393,2220.617826,-7550.100608,-766.095498
534.350718,3404.947333,-7402.059420,-229.828649
534.351042,3404.947333,-7772.162391,459.657299
534.351366,2368.659014,-9400.615463,689.485948
534.351690,1998.556043,-10436.903782,383.047749
534.352014,1406.391290,-9770.718434,919.314598
534.352338,962.267725,-11547.212695,1149.143247
534.352663,444.123565,-13545.768739,1302.362347
534.352987,592.164754,-13767.830521,1225.752797
534.353311,-148.041188,-11547.212695,536.266849
534.353635,-2072.576638,-10362.883188,0.000000
534.353959,-2738.761985,-10140.821405,-383.047749
534.354284,-1776.494261,-8512.368333,-1762.019645
534.354608,-592.164754,-8290.306550,-1762.019645
534.354932,-592.164754,-8216.285956,-1685.410096
534.355256,666.185348,-8216.285956,-2221.676944
534.355580,1850.514855,-8068.244768,-1608.800546
534.355904,2146.597232,-9696.697840,-459.657299
534.356229,2294.638420,-10658.965565,76.609550
534.356553,2516.700203,-9844.739029,306.438199
534.356877,1702.473667,-9622.677246,919.314598
534.357201,444.123565,-11547.212695,1455.581446
534.357525,444.123565,-11991.336260,1608.800546
534.357849,0.000000,-11399.171507,1532.190996
534.358174,-1554.432478,-9992.780217,766.095498
534.358498,-2368.659014,-9400.615463,536.266849
534.358822,-2072.576638,-8216.285956,-306.438199
534.359146,-1406.391290,-7328.038826,-1225.752797
534.359470,-1110.308913,-7254.018232,-1762.019645
534.359794,-444.123565,-7328.038826,-1991.848295
534.360119,888.247130,-7772.162391,-2068.457845
534.360443,1110.308913,-8290.306550,-1149.143247
534.360767,1702.473667,-9030.512492,-689.485948
534.361091,1924.535449,-8586.388927,-306.438199
534.361415,1924.535449,-9178.553681,76.609550
534.361739,1406.391290,-11769.274478,919.314598
534.362064,814.226536,-13841.851115,2298.286494
534.362388,148.041188,-12953.603985,3064.381992
534.362712,-1850.514855,-11991.336260,1455.581446
534.363036,-2960.823768,-11399.171507,1072.533697
534.363360,-3108.864956,-10140.821405,459.657299
534.363684,-2220.617826,-9400.615463,-153.219100
534.364009,-1406.391290,-9474.636058,-766.095498
534.364333,-444.123565,-8660.409521,-1302.362347
534.364657,592.164754,-7402.059420,-1838.629195
534.364981,740.205942,-7402.059420,-1915.238745
534.365305,1406.391290,-8956.491898,-1838.629195
534.365629,1258.350101,-9030.512492,-1762.019645
534.365954,1924.535449,-8808.450710,0.000000
534.366278,2146.597232,-10436.903782,1149.143247
534.366602,1776.494261,-12361.439231,1915.238745
534.366926,1850.514855,-11473.192101,2451.505594
534.367250,740.205942,-10214.842000,2298.286494
534.367574,-1110.308913,-10288.862594,1915.238745
534.367899,-2664.741391,-10510.924376,1149.143247
534.368223,-3256.906145,-8660.409521,1072.533697
534.368547,-3034.844362,-7254.018232,383.047749
534.368871,-2220.617826,-7179.997637,-1225.752797
534.369195,-1258.350101,-6809.894666,-1608.800546
534.369519,-888.247130,-6957.935855,-1762.019645
534.369844,-666.185348,-7846.182985,-1378.971896
534.370168,-814.226536,-7846.182985,-1455.581446
534.370492,222.061783,-7624.121203,-383.047749
534.370816,1036.288319,-9918.759623,0.000000
534.371140,962.267725,-12213.398043,76.609550
534.371464,740.205942,-12435.459826,919.314598
534.371789,740.205942,-11695.253884,1991.848295
534.372113,0.000000,-12509.480420,1302.362347
534.372437,-666.185348,-11917.315666,1685.410096
534.372761,-1184.329507,-10362.883188,1455.581446
534.373085,-962.267725,-9696.697840,229.828649
534.373409,-1110.308913,-9770.718434,-919.314598
534.373734,-888.247130,-8808.450710,-1762.019645
534.374058,74.020594,-8068.244768,-1915.238745
534.374382,888.247130,-8734.430116,-1838.629195
534.374706,1036.288319,-9474.636058,-1762.019645
534.375030,1258.350101,-8512.368333,-2221.676944
534.375354,1998.556043,-8808.450710,-2298.286494
534.375679,1850.514855,-11547.212695,-1225.752797
534.376003,1702.473667,-13101.645173,0.000000
534.376327,1628.453072,-12139.377449,1149.143247
534.376651,370.102971,-12509.480420,1762.019645
534.376975,-814.226536,-12583.501014,1072.533697
534.377299,-666.185348,-10881.027347,536.266849
534.377624,-148.041188,-9178.553681,612.876398
534.377948,0.000000,-10066.800811,229.828649
534.378272,148.041188,-10214.842000,-536.266849
534.378596,814.226536,-7994.224174,-995.924147
534.378920,148.041188,-7254.018232,-1072.533697
534.379244,0.000000,-8068.244768,-1608.800546
534.379569,740.205942,-7846.182985,-1302.362347
534.379893,3108.864956,-7476.080014,0.000000
534.380217,3182.885551,-9030.512492,-229.828649
534.380541,1480.411884,-10140.821405,766.095498
534.380865,518.144159,-9696.697840,1455.581446
534.381189,-1110.308913,-10140.821405,1685.410096
534.381514,-2886.803174,-10288.862594,1685.410096
534.381838,-3923.091493,-9474.636058,1225.752797
534.382162,-4219.173869,-8734.430116,1608.800546
534.382486,-4145.153275,-8660.409521,1685.410096
534.382810,-2960.823768,-9104.533087,689.485948
534.383134,-1036.288319,-7624.121203,-306.438199
534.383459,148.041188,-7179.997637,-689.485948
534.383783,740.205942,-8438.347739,-995.924147
534.384107,2516.700203,-8956.491898,-766.095498
534.384431,4589.276840,-8586.388927,-383.047749
534.384755,4515.256246,-9326.594869,-383.047749
534.385079,3552.988522,-11621.233289,612.876398
534.385404,2590.720797,-11917.315666,689.485948
534.385728,1406.391290,-11029.068536,459.657299
534.386052,-1406.391290,-10584.944971,459.657299
534.386376,-4071.132681,-10658.965565,0.000000
534.386700,-4885.359217,-9918.759623,-229.828649
534.387024,-4811.338623,-10066.800811,0.000000
534.387349,-4071.132681,-9844.739029,0.000000
534.387673,-2368.659014,-8882.471304,-306.438199
534.387997,-1554.432478,-7105.977043,-995.924147
534.388321,-518.144159,-7624.121203,-2604.724693
534.388645,1258.350101,-8660.409521,-2757.943793
534.388969,3701.029710,-8956.491898,-1838.629195
534.389294,4737.318029,-10066.800811,-842.705048
534.389618,4441.235652,-12435.459826,-153.219100
534.389942,4071.132681,-13545.768739,229.828649
534.390266,3552.988522,-12213.398043,459.657299
534.390590,2072.576638,-12435.459826,536.266849
534.390914,-1258.350101,-13915.871710,919.314598
534.391239,-2738.761985,-12435.459826,383.047749
534.391563,-2886.803174,-10732.986159,689.485948
534.391887,-2886.803174,-10214.842000,1455.581446
534.392211,-1998.556043,-10066.800811,766.095498
534.392535,-1850.514855,-7179.997637,0.000000
534.392859,-2590.720797,-5773.606348,-1302.362347
534.393184,-2664.741391,-6439.791695,-1685.410096
534.393508,-1036.288319,-7105.977043,-1991.848295
534.393832,2072.576638,-6291.750507,-1302.362347
534.394156,3404.947333,-7772.162391,-306.438199
534.394480,3478.967927,-10214.842000,306.438199
534.394804,2442.679609,-10584.944971,995.924147
534.395129,222.061783,-9992.780217,612.876398
534.395453,-1554.432478,-10955.047942,1302.362347
534.395777,-2738.761985,-11251.130318,842.705048
534.396101,-2664.741391,-10510.924376,1455.581446
534.396425,-2812.782580,-9696.697840,1991.848295
534.396749,-2516.700203,-9992.780217,1991.848295
534.397074,-1332.370696,-8734.430116,1072.533697
534.397398,-592.164754,-7031.956449,919.314598
534.397722,-1406.391290,-7179.997637,-1225.752797
534.398046,-962.267725,-6513.812290,-2604.724693
534.398370,888.247130,-6439.791695,-1991.848295
534.398694,3256.906145,-8512.368333,-1225.752797
534.399019,4441.235652,-11177.109724,-766.095498
534.399343,4145.153275,-11029.068536,0.000000
534.399667,3256.906145,-10214.842000,383.047749
534.399991,814.226536,-11251.130318,-306.438199
534.400315,-1480.411884,-12139.377449,-306.438199
534.400639,-1998.556043,-11103.089130,0.000000
534.400964,-2738.761985,-11325.150913,842.705048
534.401288,-3108.864956,-12509.480420,1072.533697
534.401612,-1702.473667,-11103.089130,842.705048
534.401936,0.000000,-8586.388927,229.828649
534.402260,-666.185348,-8586.388927,-1149.143247
534.402584,-1110.308913,-9400.615463,-2451.505594
534.402909,296.082377,-8512.368333,-2298.286494
534.403233,2516.700203,-8882.471304,-1532.190996
534.403557,3701.029710,-11029.068536,-1378.971896
534.403881,4071.132681,-11843.295072,-919.314598
534.404205,3923.091493,-10955.047942,-459.657299
534.404529,2590.720797,-12287.418637,-229.828649
534.404854,296.082377,-13471.748144,153.219100
534.405178,-1184.329507,-11991.336260,842.705048
534.405502,-1480.411884,-11695.253884,1149.143247
534.405826,-1776.494261,-11843.295072,1685.410096
534.406150,-1036.288319,-10584.944971,1532.190996
534.406474,-148.041188,-8216.285956,842.705048
534.406799,-1776.494261,-7105.977043,689.485948
534.407123,-2886.803174,-7254.018232,153.219100
534.407447,-1776.494261,-5699.585753,-1225.752797
534.407771,-592.164754,-4737.318029,-1532.190996
534.408095,814.226536,-6809.894666,-1225.752797
534.408419,2072.576638,-8956.491898,-919.314598
534.408744,2664.741391,-9474.636058,-766.095498
534.409068,1776.494261,-9252.574275,-229.828649
534.409392,-592.164754,-10288.862594,229.828649
534.409716,-1702.473667,-11029.068536,842.705048
534.410040,-1406.391290,-11325.150913,1225.752797
534.410364,-740.205942,-11399.171507,1302.362347
534.410689,-666.185348,-11029.068536,1608.800546
534.411013,0.000000,-9622.677246,1838.629195
534.411337,0.000000,-9252.574275,1991.848295
534.411661,-1332.370696,-8956.491898,689.485948
534.411985,-1998.556043,-7994.224174,-919.314598
534.412309,-1554.432478,-6217.729913,-1225.752797
534.412634,-148.041188,-7550.100608,-1225.752797
534.412958,1332.370696,-9696.697840,-1149.143247
534.413282,2368.659014,-9992.780217,-689.485948
534.413606,1850.514855,-9474.636058,-229.828649
534.413930,0.000000,-10362.883188,76.609550
534.414254,-1184.329507,-11547.212695,0.000000
534.414579,-814.226536,-11251.130318,229.828649
534.414903,-518.144159,-10955.047942,1302.362347
534.415227,0.000000,-11769.274478,2374.896044
534.415551,740.205942,-11325.150913,2451.505594
534.415875,518.144159,-9548.656652,2298.286494
534.416199,-740.205942,-8808.450710,1532.190996
534.416524,-1480.411884,-8438.347739,153.219100
534.416848,-592.164754,-8142.265362,-995.924147
534.417172,-592.164754,-7328.038826,-766.095498
534.417496,74.020594,-8364.327145,-842.705048
534.417820,1258.350101,-9400.615463,-1685.410096
534.418144,1776.494261,-9030.512492,-1608.800546
534.418469,814.226536,-9696.697840,-1149.143247
534.418793,-592.164754,-11399.171507,0.000000
534.419117,296.082377,-10732.986159,229.828649
534.419441,1110.308913,-10584.944971,2068.457845
534.419765,666.185348,-11547.212695,1532.190996
534.420089,592.164754,-12139.377449,1762.019645
534.420414,814.226536,-11103.089130,1685.410096
534.420738,-444.123565,-10510.924376,995.924147
534.421062,-1554.432478,-10066.800811,229.828649
534.421386,-1332.370696,-9104.533087,76.609550
534.421710,74.020594,-9474.636058,-153.219100
534.422034,592.164754,-9770.718434,-766.095498
534.422359,814.226536,-9104.533087,-1915.238745
534.422683,888.247130,-8586.388927,-1685.410096
534.423007,222.061783,-9030.512492,-2757.943793
534.423331,-592.164754,-9178.553681,-2834.553343
534.423655,0.000000,-8364.327145,-1762.019645
534.423979,444.123565,-8068.244768,-766.095498
534.424304,962.267725,-10362.883188,689.485948
534.424628,1258.350101,-11769.274478,2068.457845
534.424952,888.247130,-10214.842000,1838.629195
534.425276,-222.061783,-9252.574275,1915.238745
534.425600,-1628.453072,-9474.636058,1225.752797
534.425924,-1480.411884,-9104.533087,383.047749
534.426249,-370.102971,-8068.244768,383.047749
534.426573,222.061783,-8512.368333,229.828649
534.426897,444.123565,-9918.759623,-689.485948
534.427221,592.164754,-9474.636058,-1608.800546
534.427545,-370.102971,-8290.306550,-2451.505594
534.427870,-1184.329507,-9326.594869,-3140.991542
534.428194,-1702.473667,-10807.006753,-2757.943793
534.428518,-1110.308913,-10658.965565,-919.314598
534.428842,0.000000,-11029.068536,306.438199
534.429166,-666.185348,-11769.274478,306.438199
534.429490,-296.082377,-11325.150913,1149.143247
534.429815,0.000000,-10584.944971,459.657299
534.430139,-1850.514855,-10658.965565,459.657299
534.430463,-2516.700203,-10214.842000,536.266849
534.430787,-1480.411884,-9030.512492,536.266849
534.431111,0.000000,-8290.306550,842.705048
534.431435,1332.370696,-8512.368333,76.609550
534.431760,2516.700203,-8512.368333,-536.266849
534.432084,2590.720797,-8364.327145,-995.924147
534.432408,1332.370696,-8216.285956,-2451.505594
534.432732,-222.061783,-10658.965565,-1838.629195
534.433056,-814.226536,-10214.842000,-1302.362347
534.433380,148.041188,-8956.491898,-1149.143247
534.433705,148.041188,-10584.944971,0.000000
534.434029,814.226536,-11251.130318,383.047749
534.434353,1850.514855,-10066.800811,612.876398
534.434677,444.123565,-10436.903782,919.314598
534.435001,-1554.432478,-10658.965565,1149.143247
534.435325,-1850.514855,-9326.594869,1149.143247
534.435650,-1406.391290,-8068.244768,306.438199
534.435974,-1702.473667,-8808.450710,229.828649
534.436298,-814.226536,-9992.780217,-306.438199
534.436622,740.205942,-9400.615463,-536.266849
534.436946,74.020594,-9030.512492,-1532.190996
534.437270,-1554.432478,-9918.759623,-1149.143247
534.437594,-518.144159,-8882.471304,-842.705048
534.437918,148.041188,-8512.368333,-1532.190996
534.438243,-592.164754,-9178.553681,-1149.143247
534.438567,-592.164754,-10436.903782,76.609550
534.438891,888.247130,-10436.903782,459.657299
534.439215,1258.350101,-9992.780217,1762.019645
534.439539,222.061783,-10214.842000,1378.971896
534.439863,666.185348,-9696.697840,1991.848295
534.440187,666.185348,-8586.388927,1149.143247
534.440511,74.020594,-9252.574275,919.314598
534.440835,-148.041188,-10362.883188,1149.143247
534.441160,962.267725,-9844.739029,995.924147
534.441484,814.226536,-9400.615463,153.219100
534.441808,-518.144159,-9252.574275,-383.047749
534.442132,-666.185348,-9178.553681,-1762.019645
534.442456,-740.205942,-8290.306550,-1685.410096
534.442780,0.000000,-9770.718434,-1762.019645
534.443104,-592.164754,-11029.068536,-995.924147
534.443428,0.000000,-9992.780217,-153.219100
534.443752,0.000000,-9918.759623,229.828649
534.444076,-962.267725,-11547.212695,459.657299
534.444401,-888.247130,-11843.295072,612.876398
534.444725,-222.061783,-10214.842000,383.047749
534.445049,296.082377,-9474.636058,995.924147
534.445373,1702.473667,-10140.821405,1838.629195
534.445697,2960.823768,-10732.986159,2068.457845
534.446021,3108.864956,-9918.759623,919.314598
534.446345,740.205942,-9252.574275,-536.266849
534.446669,-592.164754,-8734.430116,-1149.143247
534.446993,-370.102971,-8068.244768,-612.876398
534.447317,962.267725,-8734.430116,-766.095498
534.447642,518.144159,-9326.594869,-76.609550
534.447966,0.000000,-9104.533087,-383.047749
534.448290,-222.061783,-8290.306550,-1149.143247
534.448614,-1184.329507,-9252.574275,-995.924147
534.448938,-1924.535449,-10362.883188,76.609550
534.449262,-1924.535449,-10066.800811,1608.800546
534.449586,-1258.350101,-9178.553681,919.314598
534.449910,-1998.556043,-9696.697840,995.924147
534.450234,-1554.432478,-10288.862594,1149.143247
534.450558,-296.082377,-9770.718434,919.314598
534.450883,-222.061783,-9622.677246,229.828649
534.451207,-222.061783,-9400.615463,76.609550
534.451531,296.082377,-8438.347739,76.609550
534.451855,814.226536,-8660.409521,-153.219100
534.452179,962.267725,-9844.739029,-919.314598
534.452503,740.205942,-9918.759623,-766.095498
534.452827,888.247130,-9104.533087,-1455.581446
534.453151,296.082377,-9030.512492,-995.924147
534.453475,-296.082377,-10362.883188,0.000000
534.453799,-518.144159,-10288.862594,229.828649
534.454124,148.041188,-9474.636058,995.924147
534.454448,74.020594,-9992.780217,612.876398
534.454772,0.000000,-11103.089130,536.266849
534.455096,0.000000,-10214.842000,0.000000
534.455420,-666.185348,-9104.533087,-229.828649
534.455744,-1776.494261,-9918.759623,-612.876398
534.456068,-1332.370696,-9992.780217,-1149.143247
534.456392,0.000000,-9178.553681,-1072.533697
534.456716,740.205942,-8808.450710,-1762.019645
534.457040,1332.370696,-9770.718434,-2298.286494
534.457365,1850.514855,-9918.759623,-1378.971896
534.457689,2146.597232,-10362.883188,-1608.800546
534.458013,518.144159,-11695.253884,-1302.362347
534.458337,-888.247130,-11103.089130,-612.876398
534.458661,-740.205942,-10362.883188,-842.705048
534.458985,-1036.288319,-10658.965565,-229.828649
534.459309,-222.061783,-12213.398043,229.828649
534.459633,74.020594,-10955.047942,383.047749
534.459957,0.000000,-9400.615463,229.828649
534.460281,-518.144159,-8882.471304,229.828649
534.460606,-592.164754,-9030.512492,76.609550
534.460930,74.020594,-7550.100608,0.000000
534.461254,-444.123565,-7105.977043,-459.657299
534.461578,-518.144159,-7328.038826,-766.095498
534.461902,592.164754,-7772.162391,-1225.752797
534.462226,1776.494261,-7994.224174,-306.438199
534.462550,1110.308913,-9252.574275,0.000000
534.462874,0.000000,-10436.903782,383.047749
534.463198,-370.102971,-9696.697840,76.609550
534.463522,-444.123565,-10140.821405,766.095498
534.463847,-1554.432478,-11547.212695,1991.848295
534.464171,-1554.432478,-11991.336260,1685.410096
534.464495,-1036.288319,-9844.739029,919.314598
534.464819,-2368.659014,-9252.574275,459.657299
534.465143,-2664.741391,-9770.718434,459.657299
534.465467,-814.226536,-9696.697840,536.266849
534.465791,740.205942,-9400.615463,995.924147
534.466115,740.205942,-8660.409521,153.219100
534.466439,1184.329507,-8364.327145,0.000000
534.466764,1628.453072,-8660.409521,-536.266849
534.467088,1258.350101,-9992.780217,0.000000
534.467412,370.102971,-11325.150913,229.828649
534.467736,222.061783,-9918.759623,536.266849
534.468060,444.123565,-9104.533087,612.876398
534.468384,148.041188,-10732.986159,1225.752797
534.468708,0.000000,-11843.295072,1915.238745
534.469032,444.123565,-11177.109724,1378.971896
534.469356,-1184.329507,-9474.636058,1302.362347
534.469680,-1776.494261,-9844.739029,1149.143247
534.470005,-1110.308913,-9104.533087,919.314598
534.470329,814.226536,-8142.265362,1072.533697
534.470653,1480.411884,-7698.141797,459.657299
534.470977,1184.329507,-7994.224174,-536.266849
534.471301,1924.535449,-7476.080014,-919.314598
534.471625,1184.329507,-8586.388927,-383.047749
534.471949,74.020594,-9104.533087,-536.266849
534.472273,222.061783,-9104.533087,-306.438199
534.472597,444.123565,-8734.430116,229.828649
534.472921,444.123565,-10288.862594,919.314598
534.473246,888.247130,-11991.336260,1455.581446
534.473570,740.205942,-10807.006753,1991.848295
534.473894,-370.102971,-9622.677246,1149.143247
534.474218,-1776.494261,-10288.862594,1072.533697
534.474542,-2886.803174,-10362.883188,919.314598
534.474866,-1554.432478,-9400.615463,689.485948
534.475190,-962.267725,-8586.388927,-459.657299
534.475514,-518.144159,-8068.244768,-1149.143247
534.475838,-222.061783,-7698.141797,-2068.457845
534.476162,592.164754,-8808.450710,-2221.676944
534.476487,592.164754,-9252.574275,-2298.286494
534.476811,0.000000,-9696.697840,-1838.629195
534.477135,666.185348,-9474.636058,-995.924147
534.477459,2368.659014,-11177.109724,-306.438199
534.477783,2812.782580,-13397.727550,383.047749
534.478107,2220.617826,-12731.542202,842.705048
534.478431,1406.391290,-11621.233289,612.876398
534.478755,-814.226536,-12139.377449,306.438199
534.479079,-1998.556043,-12361.439231,919.314598
534.479403,-1628.453072,-9992.780217,842.705048
534.479728,-1184.329507,-8290.306550,-536.266849
534.480052,-1332.370696,-8216.285956,-2374.896044
534.480376,-1406.391290,-7994.224174,-2834.553343
534.480700,-148.041188,-7698.141797,-2987.772442
534.481024,74.020594,-7698.141797,-2068.457845
534.481348,-296.082377,-9178.553681,-2221.676944
534.481672,962.267725,-8956.491898,-1532.190996
534.481996,1480.411884,-8512.368333,-766.095498
534.482320,814.226536,-10658.965565,-766.095498
534.482644,0.000000,-11843.295072,0.000000
534.482969,0.000000,-11399.171507,306.438199
534.483293,-814.226536,-11251.130318,536.266849
534.483617,-2294.638420,-11473.192101,459.657299
534.483941,-1776.494261,-10584.944971,306.438199
534.484265,-814.226536,-9104.533087,459.657299
534.484589,-666.185348,-8808.450710,0.000000
534.484913,-1036.288319,-8216.285956,-1072.533697
534.485237,-1110.308913,-7179.997637,-1302.362347
534.485561,-962.267725,-7994.224174,-1685.410096
534.485885,-814.226536,-8586.388927,-1991.848295
534.486210,-222.061783,-8882.471304,-1608.800546
534.486534,888.247130,-8882.471304,-1072.533697
534.486858,1258.350101,-10510.924376,-689.485948
534.487182,814.226536,-12435.459826,536.266849
534.487506,518.144159,-12213.398043,1685.410096
534.487830,-1184.329507,-11843.295072,689.485948
534.488154,-3552.988522,-12139.377449,1225.752797
534.488478,-3330.926739,-11399.171507,1455.581446
534.488802,-1332.370696,-9474.636058,2068.457845
534.489126,1110.308913,-8586.388927,2374.896044
534.489451,2812.782580,-8290.306550,1149.143247
534.489775,2516.700203,-7402.059420,0.000000
534.490099,1850.514855,-6291.750507,-919.314598
534.490423,740.205942,-6809.894666,-1915.238745
534.490747,444.123565,-8512.368333,-1915.238745
534.491071,1110.308913,-9178.553681,-1302.362347
534.491395,2220.617826,-9252.574275,-612.876398
534.491719,2220.617826,-10807.006753,612.876398
534.492043,2220.617826,-12139.377449,1302.362347
534.492368,888.247130,-11251.130318,1378.971896
534.492692,-1702.473667,-11769.274478,1455.581446
534.493016,-4293.194464,-11473.192101,1991.848295
534.493340,-3849.070898,-10584.944971,1838.629195
534.493664,-2220.617826,-9252.574275,2068.457845
534.493988,-1406.391290,-8142.265362,995.924147
534.494312,-518.144159,-8364.327145,-383.047749
534.494636,888.247130,-7846.182985,-1455.581446
534.494960,1628.453072,-7476.080014,-1302.362347
534.495284,1776.494261,-9474.636058,-1225.752797
534.495609,2294.638420,-9326.594869,-995.924147
534.495933,2590.720797,-9622.677246,0.000000
534.496257,1776.494261,-10584.944971,0.000000
534.496581,888.247130,-11473.192101,536.266849
534.496905,814.226536,-11177.109724,689.485948
534.497229,-296.082377,-10436.903782,1072.533697
534.497553,-1406.391290,-11029.068536,1685.410096
534.497877,-2442.679609,-10288.862594,2298.286494
534.498201,-2812.782580,-9030.512492,1685.410096
534.498525,-3256.906145,-8512.368333,1072.533697
534.498850,-2516.700203,-8364.327145,0.000000
534.499174,-148.041188,-6735.874072,-919.314598
534.499498,1258.350101,-6069.688724,-1532.190996
534.499822,2368.659014,-8216.285956,-612.876398
534.500146,3775.050304,-9104.533087,-995.924147
534.500470,4663.297435,-9178.553681,-995.924147
534.500794,3404.947333,-10510.924376,-766.095498
534.501118,1554.432478,-12657.521608,-153.219100
534.501442,888.247130,-13249.686362,-229.828649
534.501766,-592.164754,-11843.295072,-383.047749
534.502091,-1850.514855,-12805.562797,689.485948
534.502415,-2442.679609,-12583.501014,995.924147
534.502739,-1924.535449,-10955.047942,1072.533697
534.503063,-2072.576638,-9844.739029,1455.581446
534.503387,-1850.514855,-9400.615463,919.314598
534.503711,-518.144159,-8586.388927,-153.219100
534.504035,0.000000,-7254.018232,-1455.581446
534.504359,-296.082377,-7105.977043,-1302.362347
534.504683,1110.308913,-8142.265362,-1225.752797
534.505007,1406.391290,-8290.306550,-1915.238745
534.505332,1850.514855,-8512.368333,-1455.581446
534.505656,1406.391290,-9992.780217,-766.095498
534.505980,1258.350101,-10807.006753,-459.657299
534.506304,296.082377,-10140.821405,-536.266849
534.506628,-1850.514855,-10658.965565,76.609550
534.506952,-3182.885551,-11177.109724,842.705048
534.507276,-2146.597232,-10807.006753,1149.143247
534.507600,-1850.514855,-9696.697840,1762.019645
534.507924,-1554.432478,-8808.450710,2221.676944
534.508248,-296.082377,-7550.100608,1225.752797
534.508573,148.041188,-7105.977043,766.095498
534.508897,-296.082377,-7105.977043,-612.876398
534.509221,-592.164754,-6883.915261,-1762.019645
534.509545,370.102971,-7254.018232,-1915.238745
534.509869,2294.638420,-8882.471304,-1302.362347
534.510193,2516.700203,-10807.006753,-1302.362347
534.510517,2368.659014,-11695.253884,-383.047749
534.510841,1480.411884,-11547.212695,0.000000
534.511165,-222.061783,-12213.398043,-536.266849
534.511489,-2220.617826,-11843.295072,-612.876398
534.511814,-2220.617826,-11473.192101,459.657299
534.512138,-1554.432478,-11547.212695,689.485948
534.512462,-1332.370696,-11325.150913,1072.533697
534.512786,-1110.308913,-9770.718434,919.314598
534.513110,-888.247130,-8290.306550,229.828649
534.513434,-592.164754,-8586.388927,-1302.362347
534.513758,-814.226536,-8882.471304,-1685.410096
534.514082,148.041188,-7698.141797,-842.705048
534.514406,1332.370696,-7550.100608,-1532.190996
534.514731,1702.473667,-9178.553681,-2374.896044
534.515055,1480.411884,-11103.089130,-1762.019645
534.515379,2146.597232,-11769.274478,-536.266849
534.515703,1480.411884,-11917.315666,-766.095498
534.516027,-370.102971,-12361.439231,-383.047749
534.516351,-1554.432478,-11177.109724,306.438199
534.516675,-962.267725,-9770.718434,459.657299
534.516999,-666.185348,-10510.924376,995.924147
534.517323,-962.267725,-10732.986159,1532.190996
534.517647,0.000000,-9326.594869,1072.533697
534.517972,666.185348,-7994.224174,689.485948
534.518296,1036.288319,-7772.162391,229.828649
534.518620,1110.308913,-7846.182985,-459.657299
534.518944,2368.659014,-6957.935855,-1072.533697
534.519268,1776.494261,-7920.203579,-995.924147
534.519592,1110.308913,-9918.759623,-919.314598
534.519916,1406.391290,-10732.986159,0.000000
534.520240,740.205942,-10140.821405,-306.438199
534.520564,-1406.391290,-10510.924376,-229.828649
534.520888,-2812.782580,-10807.006753,536.266849
534.521213,-1924.535449,-9622.677246,306.438199
534.521537,-1554.432478,-9918.759623,1149.143247
534.521861,-1406.391290,-10362.883188,2068.457845
534.522185,-592.164754,-9400.615463,1991.848295
534.522509,148.041188,-8068.244768,1302.362347
534.522833,-370.102971,-8290.306550,1225.752797
534.523157,0.000000,-7624.121203,76.609550
534.523481,1480.411884,-5995.668130,-536.266849
534.523805,1998.556043,-6587.832884,-536.266849
534.524129,2072.576638,-8808.450710,-383.047749
534.524454,2664.741391,-11029.068536,0.000000
534.524778,2516.700203,-10584.944971,0.000000
534.525102,222.061783,-9992.780217,0.000000
534.525426,-2368.659014,-10955.047942,-153.219100
534.525750,-2664.741391,-10955.047942,76.609550
534.526074,-1480.411884,-10658.965565,229.828649
534.526398,-1110.308913,-11251.130318,1378.971896
534.526722,-370.102971,-10732.986159,2528.115143
534.527046,222.061783,-9474.636058,1455.581446
534.527370,-370.102971,-9400.615463,1302.362347
534.527695,-1480.411884,-8882.471304,-459.657299
534.528019,-888.247130,-8438.347739,-1838.629195
534.528343,518.144159,-8512.368333,-1532.190996
534.528667,1776.494261,-10066.800811,-1072.533697
534.528991,2738.761985,-11029.068536,-536.266849
534.529315,2516.700203,-10658.965565,383.047749
534.529639,962.267725,-10881.027347,-536.266849
534.529963,-888.247130,-11991.336260,-459.657299
534.530287,-1776.494261,-12065.356855,-536.266849
534.530611,-1332.370696,-10436.903782,0.000000
534.530936,-888.247130,-10807.006753,1685.410096
534.531260,-148.041188,-11843.295072,2451.505594
534.531584,444.123565,-10732.986159,1838.629195
534.531908,-444.123565,-8216.285956,1685.410096
534.532232,-1628.453072,-8068.244768,612.876398
534.532556,-888.247130,-7476.080014,-612.876398
534.532880,222.061783,-7105.977043,-306.438199
534.533204,666.185348,-7920.203579,0.000000
534.533528,1110.308913,-9030.512492,-842.705048
534.533852,1184.329507,-8734.430116,-1302.362347
534.534177,814.226536,-9178.553681,-459.657299
534.534501,-296.082377,-10066.800811,-919.314598
534.534825,-1628.453072,-9992.780217,-1072.533697
534.535149,-1628.453072,-8808.450710,-612.876398
534.535473,-1406.391290,-9030.512492,536.266849
534.535797,-888.247130,-10881.027347,1149.143247
534.536121,0.000000,-11325.150913,919.314598
534.536445,-444.123565,-9474.636058,1225.752797
534.536769,-1702.473667,-9030.512492,1455.581446
534.537093,-1702.473667,-9474.636058,536.266849
534.537418,-740.205942,-7920.203579,-383.047749
534.537742,444.123565,-7698.141797,-1302.362347
534.538066,666.185348,-8586.388927,-1762.019645
534.538390,1406.391290,-9992.780217,-1762.019645
534.538714,1998.556043,-10140.821405,-1532.190996
534.539038,1628.453072,-9992.780217,-1915.238745
534.539362,370.102971,-10214.842000,-1072.533697
534.539686,-370.102971,-9992.780217,-1302.362347
534.540010,-444.123565,-10807.006753,-1302.362347
534.540334,-740.205942,-11547.212695,0.000000
534.540658,222.061783,-11177.109724,612.876398
534.540982,1406.391290,-10140.821405,995.924147
534.541307,814.226536,-9770.718434,2298.286494
534.541631,0.000000,-9474.636058,766.095498
534.541955,-814.226536,-7624.121203,-766.095498
534.542279,-592.164754,-6883.915261,-1149.143247
534.542603,-592.164754,-8142.265362,-1991.848295
534.542927,444.123565,-9326.594869,-1225.752797
534.543251,1480.411884,-9326.594869,-1378.971896
534.543575,962.267725,-8956.491898,-2221.676944
534.543899,-962.267725,-10066.800811,-1685.410096
534.544223,-1628.453072,-11029.068536,-1685.410096
534.544547,-370.102971,-11399.171507,-1149.143247
534.544871,-444.123565,-11769.274478,76.609550
534.545195,-518.144159,-11769.274478,1302.362347
534.545520,-148.041188,-11473.192101,766.095498
534.545844,-814.226536,-10955.047942,383.047749
534.546168,-1850.514855,-10214.842000,153.219100
534.546492,-814.226536,-9548.656652,536.266849
534.546816,814.226536,-9474.636058,383.047749
534.547140,1036.288319,-8586.388927,-229.828649
534.547464,1184.329507,-9030.512492,-153.219100
534.547788,1998.556043,-9326.594869,-383.047749
534.548112,1628.453072,-9918.759623,-1378.971896
534.548436,0.000000,-10140.821405,-1072.533697
534.548760,-814.226536,-9770.718434,-842.705048
534.549084,-592.164754,-9104.533087,0.000000
534.549409,-814.226536,-8734.430116,-536.266849
534.549733,-592.164754,-9844.739029,306.438199
534.550057,592.164754,-9992.780217,536.266849
534.550381,888.247130,-9400.615463,689.485948
534.550705,0.000000,-9474.636058,1685.410096
534.551029,-222.061783,-9326.594869,2068.457845
534.551353,888.247130,-9548.656652,1762.019645
534.551677,1184.329507,-8882.471304,1838.629195
534.552001,1258.350101,-9474.636058,1302.362347
534.552325,1702.473667,-9844.739029,919.314598
534.552649,1924.535449,-9696.697840,536.266849
534.552973,592.164754,-9770.718434,612.876398
534.553297,-1036.288319,-10214.842000,229.828649
534.553622,-1110.308913,-9252.574275,-153.219100
534.553946,-1480.411884,-8290.306550,-612.876398
534.554270,-1184.329507,-9104.533087,1072.533697
534.554594,-1184.329507,-9622.677246,1455.581446
534.554918,-740.205942,-9030.512492,1608.800546
534.555242,-1554.432478,-8660.409521,1838.629195
534.555566,-2294.638420,-8586.388927,1915.238745
534.555890,-1258.350101,-7994.224174,1685.410096
534.556214,-592.164754,-7772.162391,2298.286494
534.556538,-148.041188,-8882.471304,2528.115143
534.556862,740.205942,-8808.450710,1302.362347
534.557186,666.185348,-8438.347739,459.657299
534.557511,-370.102971,-8586.388927,-153.219100
534.557835,-1258.350101,-9474.636058,-842.705048
534.558159,-518.144159,-9400.615463,-1378.971896
534.558483,-370.102971,-8956.491898,-842.705048
534.558807,-222.061783,-10658.965565,-306.438199
534.559131,444.123565,-11547.212695,153.219100
534.559455,888.247130,-10658.965565,-612.876398
534.559779,0.000000,-10510.924376,-612.876398
534.560103,-1184.329507,-11251.130318,-459.657299
534.560427,-518.144159,-11473.192101,0.000000
534.560751,370.102971,-11251.130318,306.438199
534.561075,296.082377,-10807.006753,1302.362347
534.561399,222.061783,-11399.171507,306.438199
534.561724,518.144159,-11103.089130,-536.266849
534.562048,592.164754,-10732.986159,-1685.410096
534.562372,296.082377,-10881.027347,-1762.019645
534.562696,888.247130,-10214.842000,-1685.410096
534.563020,1702.473667,-9400.615463,-1608.800546
534.563344,1924.535449,-9474.636058,-1838.629195
534.563668,1924.535449,-9474.636058,-1149.143247
534.563992,2368.659014,-9844.739029,-1072.533697
534.564316,2294.638420,-9548.656652,-1302.362347
534.564640,592.164754,-10066.800811,-612.876398
534.564964,0.000000,-9696.697840,-229.828649
534.565288,74.020594,-8882.471304,306.438199
534.565612,0.000000,-9474.636058,229.828649
534.565937,-740.205942,-10066.800811,0.000000
534.566261,-222.061783,-9918.759623,0.000000
534.566585,-592.164754,-9030.512492,-459.657299
534.566909,-1554.432478,-8586.388927,-689.485948
534.567233,-1110.308913,-8734.430116,-995.924147
534.567557,-296.082377,-8216.285956,-1302.362347
534.567881,74.020594,-7698.141797,-1608.800546
534.568205,0.000000,-8734.430116,-612.876398
534.568529,148.041188,-8660.409521,-612.876398
534.568853,444.123565,-8734.430116,-229.828649
534.569177,-814.226536,-9474.636058,-76.609550
534.569501,-2146.597232,-9844.739029,0.000000
534.569826,-1628.453072,-9252.574275,0.000000
534.570150,-666.185348,-9548.656652,153.219100
534.570474,0.000000,-11177.109724,1149.143247
534.570798,0.000000,-10807.006753,1378.971896
534.571122,0.000000,-9992.780217,383.047749
534.571446,-1110.308913,-9104.533087,-306.438199
534.571770,-1776.494261,-9622.677246,-1225.752797
534.572094,-222.061783,-8882.471304,-1302.362347
534.572418,1110.308913,-8586.388927,-1532.190996
534.572742,1480.411884,-9178.553681,-842.705048
534.573066,2368.659014,-9992.780217,-383.047749
534.573390,2886.803174,-9548.656652,-919.314598
534.573714,2072.576638,-10584.944971,0.000000
534.574039,222.061783,-12139.377449,306.438199
534.574363,-444.123565,-11621.233289,383.047749
534.574687,-814.226536,-10436.903782,689.485948
534.575011,-1332.370696,-11473.192101,1685.410096
534.575335,-1184.329507,-12287.418637,1608.800546
534.575659,-814.226536,-11177.109724,459.657299
534.575983,-1258.350101,-9696.697840,76.609550
534.576307,-2442.679609,-9474.636058,-229.828649
534.576631,-1998.556043,-9548.656652,-306.438199
534.576955,-592.164754,-8734.430116,-306.438199
534.577279,148.041188,-8216.285956,-229.828649
534.577603,888.247130,-8512.368333,-536.266849
534.577927,1924.535449,-9474.636058,-383.047749
534.578252,1850.514855,-9474.636058,0.000000
534.578576,666.185348,-10288.862594,1302.362347
534.578900,444.123565,-11177.109724,1838.629195
534.579224,370.102971,-9992.780217,1378.971896
534.579548,-222.061783,-9918.759623,2068.457845
534.579872,-1110.308913,-10658.965565,2221.676944
534.580196,-296.082377,-10732.986159,2145.067394
534.580520,-962.267725,-8734.430116,1685.410096
534.580844,-2146.597232,-8142.265362,1455.581446
534.581168,-1998.556043,-7179.997637,612.876398
534.581492,-1184.329507,-6291.750507,-306.438199
534.581816,-370.102971,-6587.832884,-306.438199
534.582141,518.144159,-7698.141797,-229.828649
534.582465,1554.432478,-7994.224174,-306.438199
534.582789,1850.514855,-7402.059420,0.000000
534.583113,296.082377,-8364.327145,-766.095498
534.583437,0.000000,-10436.903782,383.047749
534.583761,814.226536,-10288.862594,383.047749
534.584085,888.247130,-10658.965565,612.876398
534.584409,-296.082377,-11769.274478,1685.410096
534.584733,-148.041188,-11917.315666,1685.410096
534.585057,74.020594,-10140.821405,1149.143247
534.585381,0.000000,-9844.739029,1378.971896
534.585705,-1332.370696,-9770.718434,-229.828649
534.586029,-666.185348,-8364.327145,-1225.752797
534.586354,-444.123565,-7846.182985,-1532.190996
534.586678,148.041188,-8438.347739,-1685.410096
534.587002,592.164754,-8882.471304,-2145.067394
534.587326,444.123565,-9400.615463,-1915.238745
534.587650,148.041188,-9992.780217,-2068.457845
534.587974,518.144159,-10732.986159,-1149.143247
534.588298,1480.411884,-11029.068536,-995.924147
534.588622,2146.597232,-10807.006753,-459.657299
534.588946,1554.432478,-12435.459826,383.047749
534.589270,888.247130,-13471.748144,1072.533697
534.589594,1332.370696,-12583.501014,842.705048
534.589918,962.267725,-11621.233289,459.657299
534.590242,-962.267725,-11399.171507,459.657299
534.590567,-1184.329507,-9696.697840,-1149.143247
534.590891,-1184.329507,-8216.285956,-1991.848295
534.591215,-1850.514855,-8216.285956,-2221.676944
534.591539,-1036.288319,-9474.636058,-2221.676944
534.591863,74.020594,-9252.574275,-2451.505594
534.592187,-148.041188,-7846.182985,-2451.505594
534.592511,-962.267725,-8586.388927,-1455.581446
534.592835,-518.144159,-9548.656652,-1378.971896
534.593159,370.102971,-9770.718434,-1149.143247
534.593483,222.061783,-10584.944971,0.000000
534.593807,148.041188,-11695.253884,995.924147
534.594131,814.226536,-11843.295072,1302.362347
534.594456,370.102971,-11473.192101,1838.629195
534.594780,-1036.288319,-10584.944971,1685.410096
534.595104,-1702.473667,-10584.944971,842.705048
534.595428,-1036.288319,-9844.739029,689.485948
534.595752,222.061783,-8216.285956,-306.438199
534.596076,666.185348,-7624.121203,-306.438199
534.596400,1406.391290,-7698.141797,-1072.533697
534.596724,1184.329507,-7772.162391,-1608.800546
534.597048,148.041188,-8068.244768,-1302.362347
534.597372,-296.082377,-8512.368333,-995.924147
534.597696,74.020594,-8142.265362,-536.266849
534.598020,148.041188,-9178.553681,153.219100
534.598344,-962.267725,-10288.862594,612.876398
534.598669,-888.247130,-10881.027347,1149.143247
534.598993,-814.226536,-10288.862594,1225.752797
534.599317,-1776.494261,-10066.800811,1685.410096
534.599641,-2220.617826,-10066.800811,2145.067394
534.599965,-1184.329507,-9622.677246,2911.162892
534.600289,370.102971,-9030.512492,1685.410096
534.600613,1036.288319,-8142.265362,1302.362347
534.600937,1776.494261,-7179.997637,536.266849
534.601261,1628.453072,-7550.100608,-229.828649
534.601585,592.164754,-8660.409521,-766.095498
534.601909,-592.164754,-9474.636058,-1149.143247
534.602233,-814.226536,-9474.636058,-919.314598
534.602558,-444.123565,-9622.677246,-995.924147
534.602882,-666.185348,-11177.109724,0.000000
534.603206,-814.226536,-11843.295072,995.924147
534.603530,-814.226536,-11399.171507,383.047749
534.603854,-1554.432478,-11325.150913,612.876398
534.604178,-2812.782580,-11177.109724,1532.190996
534.604502,-2294.638420,-10658.965565,1762.019645
534.604826,-1110.308913,-9326.594869,1762.019645
534.605150,-444.123565,-9178.553681,1455.581446
534.605474,1184.329507,-8956.491898,612.876398
534.605798,2220.617826,-7920.203579,-1915.238745
534.606122,1184.329507,-7328.038826,-1915.238745
534.606446,444.123565,-8956.491898,-2068.457845
534.606771,1036.288319,-10214.842000,-1991.848295
534.607095,1776.494261,-10288.862594,-1378.971896
534.607419,1406.391290,-11103.089130,-689.485948
534.607743,0.000000,-12287.418637,-459.657299
534.608067,222.061783,-12509.480420,0.000000
534.608391,0.000000,-11251.130318,0.000000
534.608715,-1480.411884,-11547.212695,1149.143247
534.609039,-1036.288319,-11547.212695,1378.971896
534.609363,148.041188,-10214.842000,1685.410096
534.609687,592.164754,-9178.553681,2145.067394
534.610011,814.226536,-8364.327145,1455.581446
534.610335,962.267725,-7772.162391,-383.047749
534.610659,740.205942,-7179.997637,-1302.362347
534.610984,296.082377,-7476.080014,-1608.800546
534.611308,518.144159,-7920.203579,-1838.629195
534.611632,1850.514855,-7698.141797,-1532.190996
534.611956,1924.535449,-8438.347739,-1072.533697
534.612280,1184.329507,-10584.944971,536.266849
534.612604,666.185348,-10436.903782,229.828649
534.612928,0.000000,-10066.800811,-229.828649
534.613252,-1776.494261,-9400.615463,76.609550
534.613576,-2294.638420,-9696.697840,612.876398
534.613900,-1110.308913,-9770.718434,1302.362347
534.614224,-222.061783,-9696.697840,2221.676944
534.614548,296.082377,-9252.574275,2221.676944
534.614873,814.226536,-7846.182985,1302.362347
534.615197,740.205942,-7105.977043,-1072.533697
534.615521,0.000000,-7105.977043,-2298.286494
534.615845,-740.205942,-8290.306550,-2528.115143
534.616169,-148.041188,-9400.615463,-2374.896044
534.616493,444.123565,-10066.800811,-2681.334243
534.616817,296.082377,-11177.109724,-1455.581446
534.617141,962.267725,-12509.480420,153.219100
534.617465,518.144159,-12509.480420,-1225.752797
534.617789,-1480.411884,-12287.418637,-1838.629195
534.618113,-2960.823768,-12065.356855,-229.828649
534.618437,-1702.473667,-12657.521608,536.266849
534.618761,-296.082377,-12435.459826,1378.971896
534.619086,-222.061783,-10955.047942,2451.505594
534.619410,592.164754,-9696.697840,2145.067394
534.619734,1628.453072,-7846.182985,-536.266849
534.620058,370.102971,-7328.038826,-2757.943793
534.620382,-888.247130,-7476.080014,-2298.286494
534.620706,0.000000,-8438.347739,-2221.676944
534.621030,1776.494261,-9400.615463,-1455.581446
534.621354,1998.556043,-10362.883188,-536.266849
534.621678,1628.453072,-10658.965565,0.000000
534.622002,888.247130,-10584.944971,-1072.533697
534.622326,-666.185348,-10732.986159,-766.095498
534.622650,-2072.576638,-11325.150913,0.000000
534.622974,-1480.411884,-11695.253884,1532.190996
534.623299,-148.041188,-10510.924376,2451.505594
534.623623,148.041188,-9770.718434,3140.991542
534.623947,0.000000,-9400.615463,2834.553343
534.624271,296.082377,-8364.327145,1532.190996
534.624595,-148.041188,-8068.244768,1072.533697
534.624919,-1406.391290,-7402.059420,0.000000
534.625243,-1258.350101,-7476.080014,-766.095498
534.625567,-592.164754,-7179.997637,-612.876398
534.625891,-296.082377,-7846.182985,-842.705048
534.626215,-666.185348,-9474.636058,-995.924147
534.626539,-1036.288319,-10140.821405,-306.438199
534.626863,-1036.288319,-10066.800811,0.000000
534.627188,-2072.576638,-10288.862594,766.095498
534.627512,-2294.638420,-9696.697840,1378.971896
534.627836,-1184.329507,-9326.594869,1838.629195
534.628160,-74.020594,-9474.636058,2145.067394
534.628484,518.144159,-9992.780217,2451.505594
534.628808,1258.350101,-9178.553681,2451.505594
534.629132,1998.556043,-8216.285956,1991.848295
534.629456,1480.411884,-8142.265362,383.047749
534.629780,740.205942,-7920.203579,-1072.533697
534.630104,370.102971,-7105.977043,-1838.629195
534.630428,1184.329507,-8142.265362,-1455.581446
534.630752,1110.308913,-10658.965565,-1838.629195
534.631076,888.247130,-11177.109724,-766.095498
534.631401,888.247130,-10584.944971,-1302.362347
534.631725,-370.102971,-10955.047942,-2298.286494
534.632049,-2072.576638,-12361.439231,-919.314598
534.632373,-1332.370696,-12657.521608,76.609550
534.632697,-666.185348,-11621.233289,306.438199
534.633021,-296.082377,-11177.109724,1532.190996
534.633345,518.144159,-11103.089130,2374.896044
534.633669,1850.514855,-9770.718434,1378.971896
534.633993,1554.432478,-9030.512492,-306.438199
534.634317,222.061783,-8512.368333,-766.095498
534.634641,1184.329507,-8068.244768,-1915.238745
534.634965,1924.535449,-7994.224174,-1838.629195
534.635290,1998.556043,-8956.491898,-1915.238745
534.635614,1036.288319,-10066.800811,-1762.019645
534.635938,814.226536,-10658.965565,-1762.019645
534.636262,444.123565,-11177.109724,-1991.848295
534.636586,-1406.391290,-11621.233289,-1762.019645
534.636910,-1702.473667,-10584.944971,-842.705048
534.637234,-666.185348,-9178.553681,-612.876398
534.637558,-592.164754,-9992.780217,995.924147
534.637882,-222.061783,-11695.253884,1762.019645
534.638206,74.020594,-9770.718434,1685.410096
534.638530,74.020594,-8364.327145,766.095498
534.638854,-740.205942,-8290.306550,306.438199
534.639179,0.000000,-7031.956449,-689.485948
534.639503,888.247130,-6365.771101,-1608.800546
534.639827,888.247130,-7772.162391,-383.047749
534.640151,962.267725,-10140.821405,-995.924147
534.640475,1110.308913,-10140.821405,-1685.410096
534.640799,222.061783,-9770.718434,-1302.362347
534.641123,-1924.535449,-10510.924376,-1608.800546
534.641447,-3034.844362,-11547.212695,-1608.800546
534.641771,-1924.535449,-10584.944971,-842.705048
534.642095,-814.226536,-9844.739029,0.000000
534.642420,-444.123565,-10066.800811,1378.971896
534.642744,296.082377,-9474.636058,1991.848295
534.643068,740.205942,-8808.450710,1149.143247
534.643392,296.082377,-8660.409521,1302.362347
534.643716,370.102971,-9030.512492,689.485948
534.644040,1110.308913,-8586.388927,153.219100
534.644364,1480.411884,-7254.018232,-612.876398
534.644688,1702.473667,-8660.409521,-842.705048
534.645012,1332.370696,-10584.944971,-1072.533697
534.645337,0.000000,-11399.171507,-1302.362347
534.645661,-1850.514855,-11325.150913,-1378.971896
534.645985,-3256.906145,-11399.171507,-612.876398
534.646309,-2368.659014,-11029.068536,-229.828649
534.646633,-1406.391290,-11029.068536,153.219100
534.646957,-1110.308913,-11251.130318,1608.800546
534.647281,-444.123565,-10881.027347,2528.115143
534.647605,370.102971,-9918.759623,2068.457845
534.647929,0.000000,-9696.697840,2298.286494
534.648253,-222.061783,-9696.697840,2298.286494
534.648578,296.082377,-8734.430116,1455.581446
534.648902,666.185348,-6439.791695,689.485948
534.649226,222.061783,-7105.977043,-383.047749
534.649550,0.000000,-9326.594869,-459.657299
534.649874,0.000000,-9918.759623,-1149.143247
534.650198,0.000000,-9844.739029,-1302.362347
534.650522,-1554.432478,-9622.677246,-766.095498
534.650846,-2220.617826,-9622.677246,-612.876398
534.651170,-1406.391290,-10214.842000,-153.219100
534.651495,222.061783,-10881.027347,766.095498
534.651819,1036.288319,-11177.109724,1838.629195
534.652143,2220.617826,-10510.924376,2528.115143
534.652467,2220.617826,-9548.656652,2451.505594
534.652791,814.226536,-9400.615463,2528.115143
534.653115,888.247130,-8808.450710,1838.629195
534.653439,1036.288319,-7179.997637,229.828649
534.653763,296.082377,-7772.162391,-153.219100
534.654087,-222.061783,-9326.594869,-689.485948
534.654411,888.247130,-10066.800811,-1149.143247
534.654736,518.144159,-8956.491898,-1149.143247
534.655060,-1036.288319,-8956.491898,-1455.581446
534.655384,-2146.597232,-9770.718434,-1532.190996
534.655708,-962.267725,-9844.739029,-1838.629195
534.656032,370.102971,-9770.718434,0.000000
534.656356,888.247130,-10436.903782,1149.143247
534.656680,1776.494261,-10436.903782,1455.581446
534.657004,1332.370696,-9400.615463,1608.800546
534.657328,666.185348,-9992.780217,1685.410096
534.657653,592.164754,-9918.759623,995.924147
534.657977,1110.308913,-9178.553681,306.438199
534.658301,888.247130,-8808.450710,153.219100
534.658625,1036.288319,-9030.512492,76.609550
534.658949,1628.453072,-9696.697840,-1455.581446
534.659273,888.247130,-8956.491898,-2451.505594
534.659597,-1554.432478,-9400.615463,-2528.115143
534.659921,-2590.720797,-10807.006753,-2604.724693
534.660245,-2146.597232,-10658.965565,-2528.115143
534.660569,-1702.473667,-9918.759623,-1838.629195
534.660894,-1554.432478,-10288.862594,-842.705048
534.661218,-1184.329507,-11473.192101,-612.876398
534.661542,-296.082377,-11103.089130,-842.705048
534.661866,-666.185348,-10436.903782,-153.219100
534.662190,-740.205942,-10362.883188,1149.143247
534.662514,148.041188,-10214.842000,766.095498
534.662838,1110.308913,-9030.512492,383.047749
534.663162,1110.308913,-8216.285956,-306.438199
534.663486,1258.350101,-8364.327145,-1378.971896
534.663811,1924.535449,-9400.615463,-1991.848295
534.664135,1406.391290,-9326.594869,-2374.896044
534.664459,-444.123565,-9178.553681,-2145.067394
534.664783,-1258.350101,-9622.677246,-1762.019645
534.665107,-1480.411884,-9400.615463,-2298.286494
534.665431,-1554.432478,-10066.800811,-1991.848295
534.665755,-1258.350101,-11473.192101,-766.095498
534.666079,222.061783,-11325.150913,-459.657299
534.666403,0.000000,-10214.842000,306.438199
534.666727,-518.144159,-10140.821405,1838.629195
534.667052,0.000000,-10140.821405,2298.286494
534.667376,1184.329507,-9548.656652,842.705048
534.667700,740.205942,-9326.594869,306.438199
534.668024,296.082377,-9474.636058,0.000000
534.668348,740.205942,-9400.615463,-766.095498
534.668672,666.185348,-9622.677246,-1149.143247
534.668996,-518.144159,-9104.533087,-1072.533697
534.669320,-1628.453072,-9104.533087,-612.876398
534.669644,-1110.308913,-8808.450710,-1302.362347
534.669969,-1110.308913,-9252.574275,-919.314598
534.670293,-1332.370696,-9918.759623,0.000000
534.670617,-222.061783,-9770.718434,612.876398
534.670941,814.226536,-9400.615463,995.924147
534.671265,0.000000,-10066.800811,1991.848295
534.671589,-666.185348,-9992.780217,2374.896044
534.671913,-370.102971,-8660.409521,1608.800546
534.672237,0.000000,-8142.265362,1685.410096
534.672561,444.123565,-9252.574275,1455.581446
534.672885,1110.308913,-9992.780217,995.924147
534.673210,1184.329507,-9622.677246,383.047749
534.673534,-148.041188,-9548.656652,-306.438199
534.673858,-962.267725,-9326.594869,-842.705048
534.674182,-518.144159,-9326.594869,-689.485948
534.674506,-148.041188,-9622.677246,-383.047749
534.674830,148.041188,-10658.965565,383.047749
534.675154,962.267725,-10732.986159,1149.143247
534.675478,1480.411884,-10510.924376,1532.190996
534.675802,296.082377,-10732.986159,1378.971896
534.676127,-296.082377,-10807.006753,1378.971896
534.676451,222.061783,-9918.759623,2068.457845
534.676775,74.020594,-8660.409521,1532.190996
534.677099,296.082377,-9474.636058,1838.629195
534.677423,1036.288319,-9992.780217,1378.971896
534.677747,1924.535449,-9770.718434,536.266849
534.678071,1036.288319,-9030.512492,-306.438199
534.678395,0.000000,-8364.327145,-842.705048
534.678719,-444.123565,-8216.285956,-919.314598
534.679043,740.205942,-8512.368333,-995.924147
534.679368,1554.432478,-9104.533087,-153.219100
534.679692,1480.411884,-10140.821405,153.219100
534.680016,2294.638420,-9992.780217,536.266849
534.680340,1924.535449,-10436.903782,689.485948
534.680664,148.041188,-11029.068536,306.438199
534.680988,-1036.288319,-9918.759623,766.095498
534.681312,-1628.453072,-9400.615463,689.485948
534.681636,-1628.453072,-11103.089130,1378.971896
534.681960,-1406.391290,-12065.356855,1149.143247
534.682284,-666.185348,-10584.944971,459.657299
534.682609,-1036.288319,-8956.491898,-766.095498
534.682933,-1850.514855,-7994.224174,-1455.581446
534.683257,-1776.494261,-8808.450710,-1762.019645
534.683581,-592.164754,-8068.244768,-1762.019645
534.683905,-370.102971,-7846.182985,-1608.800546
534.684229,296.082377,-8882.471304,-842.705048
534.684553,1480.411884,-9474.636058,-766.095498
534.684877,1480.411884,-9252.574275,-1302.362347
534.685201,0.000000,-9326.594869,-1302.362347
534.685526,-222.061783,-9770.718434,-612.876398
534.685850,814.226536,-9770.718434,-612.876398
534.686174,888.247130,-10288.862594,76.609550
534.686498,74.020594,-11399.171507,1532.190996
534.686822,-222.061783,-11029.068536,383.047749
534.687146,-666.185348,-10288.862594,-689.485948
534.687470,-1702.473667,-9622.677246,-1608.800546
534.687794,-2146.597232,-9104.533087,-1685.410096
534.688118,-1110.308913,-9030.512492,-2145.067394
534.688442,-222.061783,-8734.430116,-2604.724693
534.688767,370.102971,-9178.553681,-1838.629195
534.689091,1406.391290,-10584.944971,-1685.410096
534.689415,1850.514855,-10658.965565,-2068.457845
534.689739,666.185348,-10807.006753,-1608.800546
534.690063,-666.185348,-11547.212695,-766.095498
534.690387,-222.061783,-11399.171507,-1302.362347
534.690711,0.000000,-11399.171507,-689.485948
534.691035,-1258.350101,-11769.274478,995.924147
534.691359,-740.205942,-12213.398043,1072.533697
534.691684,74.020594,-10881.027347,459.657299
534.692008,-444.123565,-9400.615463,689.485948
534.692332,-814.226536,-8216.285956,229.828649
534.692656,-296.082377,-7550.100608,-612.876398
534.692980,296.082377,-7254.018232,-1685.410096
534.693304,0.000000,-7254.018232,-1072.533697
534.693628,296.082377,-8142.265362,-612.876398
534.693952,814.226536,-8290.306550,-1149.143247
534.694276,518.144159,-8734.430116,-689.485948
534.694600,-222.061783,-10362.883188,153.219100
534.694925,-518.144159,-10658.965565,536.266849
534.695249,-444.123565,-10066.800811,383.047749
534.695573,-1776.494261,-10214.842000,1915.238745
534.695897,-1258.350101,-11473.192101,2221.676944
534.696221,-444.123565,-11103.089130,2145.067394
534.696545,-1110.308913,-9474.636058,1762.019645
534.696869,-1480.411884,-8956.491898,1838.629195
534.697193,-888.247130,-8660.409521,919.314598
534.697517,0.000000,-7476.080014,766.095498
534.697842,370.102971,-7179.997637,919.314598
534.698166,74.020594,-7550.100608,842.705048
534.698490,962.267725,-8512.368333,-766.095498
534.698814,1258.350101,-9178.553681,-689.485948
534.699138,74.020594,-10288.862594,-153.219100
534.699462,0.000000,-11251.130318,0.000000
534.699786,-592.164754,-10510.924376,0.000000
534.700110,-518.144159,-10510.924376,995.924147
534.700434,0.000000,-11843.295072,2068.457845
534.700758,814.226536,-11695.253884,1149.143247
534.701083,962.267725,-10288.862594,1762.019645
534.701407,370.102971,-9622.677246,2068.457845
534.701731,444.123565,-9918.759623,1225.752797
534.702055,1184.329507,-9104.533087,459.657299
534.702379,1332.370696,-7772.162391,306.438199
534.702703,1332.370696,-7846.182985,229.828649
534.703027,1332.370696,-8808.450710,-1072.533697
534.703351,1110.308913,-9030.512492,-1302.362347
534.703675,666.185348,-9474.636058,-919.314598
534.704000,222.061783,-10955.047942,-383.047749
534.704324,296.082377,-11251.130318,-536.266849
534.704648,-370.102971,-10362.883188,-229.828649
534.704972,-1110.308913,-11029.068536,459.657299
534.705296,-740.205942,-12139.377449,1149.143247
534.705620,148.041188,-11621.233289,1378.971896
534.705944,-592.164754,-9992.780217,1378.971896
534.706268,-666.185348,-9400.615463,1455.581446
534.706592,148.041188,-8956.491898,612.876398
534.706916,1036.288319,-8364.327145,0.000000
534.707241,1036.288319,-7402.059420,-612.876398
534.707565,1258.350101,-7179.997637,-1378.971896
534.707889,1036.288319,-7624.121203,-2221.676944
534.708213,444.123565,-8290.306550,-1991.848295
534.708537,-814.226536,-9252.574275,-2145.067394
534.708861,-666.185348,-9030.512492,-1915.238745
534.709185,-814.226536,-8956.491898,-1608.800546
534.709509,-888.247130,-10732.986159,-536.266849
534.709833,-444.123565,-11695.253884,536.266849
534.710158,-370.102971,-10362.883188,153.219100
534.710482,-1036.288319,-9696.697840,0.000000
534.710806,-1924.535449,-10584.944971,842.705048
534.711130,-1036.288319,-10955.047942,995.924147
534.711454,518.144159,-9770.718434,306.438199
534.711778,888.247130,-8734.430116,0.000000
534.712102,1036.288319,-8216.285956,-1378.971896
534.712426,666.185348,-8660.409521,-2757.943793
534.712750,-222.061783,-9844.739029,-2681.334243
534.713074,-370.102971,-10288.862594,-2451.505594
534.713399,296.082377,-10510.924376,-2221.676944
534.713723,444.123565,-10584.944971,-1991.848295
534.714047,-222.061783,-11547.212695,-1532.190996
534.714371,-1924.535449,-12509.480420,-766.095498
534.714695,-2516.700203,-12287.418637,-306.438199
534.715019,-2146.597232,-11251.130318,-153.219100
534.715343,-2220.617826,-11325.150913,1455.581446
534.715667,-1998.556043,-10584.944971,1991.848295
534.715991,0.000000,-8956.491898,1532.190996
534.716316,518.144159,-7550.100608,1532.190996
534.716640,1184.329507,-8216.285956,1225.752797
534.716964,1480.411884,-7846.182985,-536.266849
534.717288,1258.350101,-6439.791695,-1225.752797
534.717612,0.000000,-5699.585753,-1225.752797
534.717936,74.020594,-7402.059420,-1225.752797
534.718260,296.082377,-8734.430116,-1685.410096
534.718584,0.000000,-9548.656652,-1302.362347
534.718908,-1332.370696,-10584.944971,76.609550
534.719232,-1628.453072,-11029.068536,0.000000
534.719557,-1480.411884,-10955.047942,383.047749
534.719881,-2294.638420,-10807.006753,1915.238745
534.720205,-1702.473667,-10955.047942,2221.676944
534.720529,0.000000,-9918.759623,2451.505594
534.720853,888.247130,-9474.636058,2834.553343
534.721177,1850.514855,-9030.512492,2987.772442
534.721501,2812.782580,-8660.409521,2451.505594
534.721825,2294.638420,-6957.935855,-229.828649
534.722149,740.205942,-6957.935855,-842.705048
534.722473,-888.247130,-8068.244768,-766.095498
534.722798,-222.061783,-9918.759623,-1991.848295
534.723122,74.020594,-10436.903782,-1838.629195
534.723446,-666.185348,-11843.295072,-229.828649
534.723770,-888.247130,-12509.480420,0.000000
534.724094,-444.123565,-12139.377449,-306.438199
534.724418,-1480.411884,-11103.089130,842.705048
534.724742,-1332.370696,-10362.883188,2451.505594
534.725066,444.123565,-11029.068536,1991.848295
534.725390,1332.370696,-9474.636058,2221.676944
534.725715,2072.576638,-8142.265362,2374.896044
534.726039,2886.803174,-7846.182985,2145.067394
534.726363,2960.823768,-8512.368333,76.609550
534.726687,1554.432478,-8586.388927,-689.485948
534.727011,888.247130,-8142.265362,-1225.752797
534.727335,2072.576638,-8438.347739,-995.924147
534.727659,2146.597232,-9770.718434,-1378.971896
534.727983,1628.453072,-10584.944971,-1149.143247
534.728307,814.226536,-11917.315666,0.000000
534.728631,-444.123565,-12287.418637,-612.876398
534.728956,-2516.700203,-11621.233289,-459.657299
534.729280,-4293.194464,-10881.027347,612.876398
534.729604,-3997.112087,-10066.800811,766.095498
534.729928,-2072.576638,-9696.697840,536.266849
534.730252,-1480.411884,-8438.347739,842.705048
534.730576,-296.082377,-7328.038826,1225.752797
534.730900,1480.411884,-7698.141797,919.314598
534.731224,1776.494261,-7772.162391,76.609550
534.731548,1332.370696,-6957.935855,-306.438199
534.731873,1036.288319,-7846.182985,-612.876398
534.732197,1628.453072,-8586.388927,-995.924147
534.732521,1332.370696,-9548.656652,-1608.800546
534.732845,740.205942,-11029.068536,-1685.410096
534.733169,-74.020594,-10807.006753,-842.705048
534.733493,-444.123565,-11547.212695,-919.314598
534.733817,-1924.535449,-11621.233289,-459.657299
534.734141,-2664.741391,-10881.027347,76.609550
534.734465,-2516.700203,-9474.636058,0.000000
534.734789,-2072.576638,-9030.512492,536.266849
534.735114,-1406.391290,-9548.656652,153.219100
534.735438,592.164754,-9326.594869,612.876398
534.735762,2146.597232,-8438.347739,-306.438199
534.736086,1998.556043,-7994.224174,-919.314598
534.736410,1332.370696,-8438.347739,-1762.019645
534.736734,1628.453072,-9400.615463,-2604.724693
534.737058,1628.453072,-9696.697840,-2374.896044
534.737382,1258.350101,-11399.171507,-1378.971896
534.737706,888.247130,-12953.603985,-842.705048
534.738031,740.205942,-12435.459826,-995.924147
534.738355,-1036.288319,-12287.418637,-1225.752797
534.738679,-2442.679609,-12287.418637,-459.657299
534.739003,-2516.700203,-11621.233289,0.000000
534.739327,-2072.576638,-10658.965565,536.266849
534.739652,-2072.576638,-9622.677246,1378.971896
534.739976,-1110.308913,-8882.471304,842.705048
534.740300,0.000000,-7698.141797,0.000000
534.740624,-222.061783,-7031.956449,-153.219100
534.740948,148.041188,-7698.141797,-1378.971896
534.741273,740.205942,-8290.306550,-1378.971896
534.741597,1628.453072,-7846.182985,-1608.800546
534.741921,1776.494261,-8512.368333,-1532.190996
534.742245,1332.370696,-10510.924376,-766.095498
534.742570,666.185348,-11399.171507,76.609550
534.742894,-740.205942,-11177.109724,0.000000
534.743218,-2664.741391,-11029.068536,536.266849
534.743542,-3330.926739,-11621.233289,919.314598
534.743867,-2294.638420,-10881.027347,689.485948
534.744191,-1924.535449,-10732.986159,1915.238745
534.744515,-1480.411884,-10584.944971,2681.334243
534.744839,-148.041188,-9326.594869,2068.457845
534.745163,0.000000,-7179.997637,766.095498
534.745488,0.000000,-7031.956449,689.485948
534.745812,1406.391290,-7698.141797,-383.047749
534.746136,2886.803174,-7994.224174,-459.657299
534.746460,3034.844362,-7772.162391,-612.876398
534.746785,1924.535449,-8882.471304,-383.047749
534.747109,666.185348,-9844.739029,-229.828649
534.747433,0.000000,-10140.821405,-153.219100
534.747757,-1850.514855,-11029.068536,842.705048
534.748081,-3108.864956,-11695.253884,995.924147
534.748406,-2516.700203,-10436.903782,612.876398
534.748730,-1702.473667,-9400.615463,1455.581446
534.749054,-592.164754,-9770.718434,2834.553343
534.749378,1554.432478,-9178.553681,2451.505594
534.749703,1850.514855,-7476.080014,2298.286494
534.750027,1184.329507,-6217.729913,1685.410096
534.750351,1332.370696,-7328.038826,0.000000
534.750675,2442.679609,-7846.182985,0.000000
534.751000,2886.803174,-8068.244768,-612.876398
534.751324,2072.576638,-9326.594869,-612.876398
534.751648,1628.453072,-10955.047942,-1685.410096
534.751972,666.185348,-11399.171507,-1149.143247
534.752296,-1036.288319,-12361.439231,-306.438199
534.752621,-2294.638420,-12879.583391,-306.438199
534.752945,-2368.659014,-12287.418637,306.438199
534.753269,-2812.782580,-11399.171507,76.609550
534.753593,-2516.700203,-10436.903782,995.924147
534.753918,-1184.329507,-9992.780217,1532.190996
534.754242,444.123565,-9252.574275,536.266849
534.754566,666.185348,-8290.306550,842.705048
534.754890,1332.370696,-7698.141797,1532.190996
534.755215,2664.741391,-7105.977043,-229.828649
534.755539,3108.864956,-7105.977043,-995.924147
534.755863,2590.720797,-8512.368333,-1378.971896
534.756187,1776.494261,-10658.965565,-1532.190996
534.756511,1554.432478,-11843.295072,-2681.334243
534.756836,592.164754,-11843.295072,-1762.019645
534.757160,-1480.411884,-11843.295072,-842.705048
534.757484,-2516.700203,-11843.295072,-1225.752797
534.757808,-3330.926739,-10436.903782,-2145.067394
534.758133,-3404.947333,-10510.924376,-919.314598
534.758457,-2368.659014,-10881.027347,0.000000
534.758781,-592.164754,-10362.883188,306.438199
534.759105,444.123565,-8734.430116,536.266849
534.759429,592.164754,-7550.100608,689.485948
534.759754,1184.329507,-7328.038826,-766.095498
534.760078,1924.535449,-7476.080014,-1532.190996
534.760402,1924.535449,-8660.409521,-1149.143247
534.760726,2516.700203,-10584.944971,-1302.362347
534.761051,2442.679609,-11177.109724,-2068.457845
534.761375,888.247130,-10807.006753,-1762.019645
534.761699,-592.164754,-11843.295072,-1072.533697
534.762023,-2442.679609,-11843.295072,-1149.143247
534.762348,-3330.926739,-10807.006753,-995.924147
534.762672,-3404.947333,-10066.800811,-766.095498
534.762996,-2960.823768,-9622.677246,459.657299
534.763320,-1702.473667,-9474.636058,919.314598
534.763644,-666.185348,-7994.224174,919.314598
534.763969,-444.123565,-7254.018232,1225.752797
534.764293,-296.082377,-7254.018232,1302.362347
534.764617,666.185348,-7328.038826,766.095498
534.764941,2220.617826,-7105.977043,1685.410096
534.765266,2664.741391,-7994.224174,766.095498
534.765590,2294.638420,-8882.471304,153.219100
534.765914,1036.288319,-10436.903782,-842.705048
534.766238,-740.205942,-11029.068536,-1608.800546
534.766562,-1628.453072,-10732.986159,-536.266849
534.766887,-2072.576638,-10214.842000,76.609550
534.767211,-1702.473667,-10362.883188,459.657299
534.767535,-1702.473667,-11177.109724,612.876398
534.767859,-1554.432478,-10214.842000,1149.143247
534.768184,-814.226536,-9400.615463,1455.581446
534.768508,-444.123565,-9252.574275,1608.800546
534.768832,-296.082377,-8734.430116,1991.848295
534.769156,740.205942,-8142.265362,1608.800546
534.769481,2368.659014,-7846.182985,1302.362347
534.769805,2812.782580,-8956.491898,536.266849
534.770129,2368.659014,-10362.883188,76.609550
534.770453,1998.556043,-10732.986159,-1302.362347
534.770777,592.164754,-10955.047942,-1685.410096
534.771102,-1184.329507,-11621.233289,-1072.533697
534.771426,-1554.432478,-11621.233289,-995.924147
534.771750,-962.267725,-10955.047942,-1225.752797
534.772074,-1184.329507,-10955.047942,0.000000
534.772399,-666.185348,-11621.233289,919.314598
534.772723,0.000000,-10288.862594,229.828649
534.773047,370.102971,-8956.491898,1455.581446
534.773371,-592.164754,-8586.388927,2221.676944
534.773696,0.000000,-8438.347739,1532.190996
534.774020,740.205942,-7624.121203,766.095498
534.774344,1184.329507,-7402.059420,306.438199
534.774668,1480.411884,-8734.430116,383.047749
534.774992,2368.659014,-9400.615463,-306.438199
534.775317,1628.453072,-9548.656652,-1225.752797
534.775641,-296.082377,-9400.615463,-842.705048
534.775965,-1406.391290,-10066.800811,-995.924147
534.776289,-888.247130,-10510.924376,-919.314598
534.776614,-1110.308913,-10584.944971,-536.266849
534.776938,-1480.411884,-10732.986159,689.485948
534.777262,-222.061783,-10066.800811,536.266849
534.777586,0.000000,-8808.450710,0.000000
534.777910,-296.082377,-8216.285956,842.705048
534.778235,-296.082377,-8216.285956,919.314598
534.778559,592.164754,-7920.203579,383.047749
534.778883,1110.308913,-7772.162391,689.485948
534.779207,1702.473667,-8438.347739,766.095498
534.779532,2368.659014,-9030.512492,-842.705048
534.779856,1850.514855,-9474.636058,-1149.143247
534.780180,148.041188,-9326.594869,-1991.848295
534.780504,-888.247130,-9992.780217,-2068.457845
534.780829,-1110.308913,-10140.821405,-1991.848295
534.781153,-1184.329507,-10214.842000,-1838.629195
534.781477,-1258.350101,-11251.130318,-459.657299
534.781801,-296.082377,-11695.253884,76.609550
534.782125,0.000000,-10881.027347,-459.657299
534.782450,-296.082377,-9844.739029,306.438199
534.782774,-740.205942,-10140.821405,995.924147
534.783098,0.000000,-9696.697840,612.876398
534.783422,444.123565,-9178.553681,229.828649
534.783747,370.102971,-9104.533087,306.438199
534.784071,814.226536,-10436.903782,-229.828649
534.784395,592.164754,-11103.089130,-1378.971896
534.784719,-814.226536,-10362.883188,-1225.752797
534.785043,-1998.556043,-9696.697840,-1685.410096
534.785368,-2146.597232,-9548.656652,-2068.457845
534.785692,-2220.617826,-9622.677246,-2068.457845
534.786016,-1924.535449,-10510.924376,-1072.533697
534.786340,-1332.370696,-11769.274478,-612.876398
534.786665,-962.267725,-10584.944971,-842.705048
534.786989,-1480.411884,-9474.636058,0.000000
534.787313,-2072.576638,-9696.697840,612.876398
534.787637,-962.267725,-10066.800811,1455.581446
534.787962,370.102971,-9622.677246,1149.143247
534.788286,888.247130,-9326.594869,1455.581446
534.788610,1036.288319,-9696.697840,1225.752797
534.788934,1628.453072,-9622.677246,229.828649
534.789258,370.102971,-8882.471304,-995.924147
534.789583,-592.164754,-9104.533087,-1225.752797
534.789907,-1110.308913,-10436.903782,-689.485948
534.790231,-444.123565,-10288.862594,-689.485948
534.790555,-296.082377,-9400.615463,-689.485948
534.790880,0.000000,-9474.636058,229.828649
534.791204,444.123565,-9770.718434,229.828649
534.791528,370.102971,-9326.594869,689.485948
534.791852,-740.205942,-9030.512492,1149.143247
534.792177,-1110.308913,-8290.306550,1302.362347
534.792501,888.247130,-7698.141797,766.095498
534.792825,1110.308913,-7846.182985,1532.190996
534.793149,1776.494261,-9030.512492,1838.629195
534.793473,1702.473667,-9326.594869,1072.533697
534.793798,1110.308913,-8882.471304,612.876398
534.794122,222.061783,-8956.491898,612.876398
534.794446,296.082377,-9474.636058,-229.828649
534.794770,740.205942,-9104.533087,-459.657299
534.795095,1184.329507,-8956.491898,-153.219100
534.795419,1554.432478,-10140.821405,-229.828649
534.795743,1850.514855,-10955.047942,76.609550
534.796067,1036.288319,-10140.821405,153.219100
534.796391,-592.164754,-9844.739029,306.438199
534.796716,-2072.576638,-9696.697840,842.705048
534.797040,-1776.494261,-9178.553681,76.609550
534.797364,-888.247130,-8956.491898,995.924147
534.797688,-1110.308913,-10436.903782,1532.190996
534.798013,-592.164754,-11251.130318,1149.143247
534.798337,0.000000,-9622.677246,306.438199
534.798661,-444.123565,-9030.512492,612.876398
534.798985,-592.164754,-9400.615463,-229.828649
534.799310,148.041188,-9474.636058,-995.924147
534.799634,222.061783,-8956.491898,-766.095498
534.799958,296.082377,-9474.636058,-689.485948
534.800282,1406.391290,-10510.924376,-766.095498
534.800606,1924.535449,-10066.800811,-842.705048
534.800931,1184.329507,-9992.780217,-229.828649
534.801255,-370.102971,-10955.047942,0.000000
534.801579,-740.205942,-10732.986159,-153.219100
534.801903,-740.205942,-9696.697840,459.657299
534.802228,-370.102971,-10584.944971,1455.581446
534.802552,-740.205942,-11621.233289,459.657299
534.802876,-296.082377,-10955.047942,0.000000
534.803200,-888.247130,-9548.656652,-153.219100
534.803525,-962.267725,-9548.656652,-766.095498
534.803849,-370.102971,-9474.636058,-1225.752797
534.804173,0.000000,-7698.141797,-1532.190996
534.804497,-222.061783,-7105.977043,-1225.752797
534.804821,1406.391290,-9104.533087,-919.314598
534.805146,1998.556043,-10214.842000,-1149.143247
534.805470,1702.473667,-9844.739029,-689.485948
534.805794,148.041188,-9104.533087,0.000000
534.806118,-444.123565,-9400.615463,-306.438199
534.806443,-444.123565,-9104.533087,0.000000
534.806767,-1036.288319,-9992.780217,76.609550
534.807091,-1110.308913,-11251.130318,1149.143247
534.807415,-148.041188,-11473.192101,1149.143247
534.807739,296.082377,-9622.677246,459.657299
534.808064,0.000000,-8142.265362,383.047749
534.808388,0.000000,-7624.121203,0.000000
534.808712,814.226536,-8586.388927,-995.924147
534.809036,1036.288319,-8290.306550,-306.438199
534.809361,666.185348,-7772.162391,-383.047749
534.809685,888.247130,-8216.285956,-306.438199
534.810009,444.123565,-9252.574275,-1225.752797
534.810333,-962.267725,-9844.739029,-842.705048
534.810658,-2442.679609,-10288.862594,-229.828649
534.810982,-2516.700203,-9992.780217,-383.047749
534.811306,-2960.823768,-9770.718434,0.000000
534.811630,-2738.761985,-10881.027347,1685.410096
534.811954,-2368.659014,-11251.130318,1225.752797
534.812279,-1554.432478,-10658.965565,1149.143247
534.812603,-1776.494261,-10436.903782,1532.190996
534.812927,-370.102971,-10288.862594,1455.581446
534.813251,1036.288319,-8808.450710,536.266849
534.813576,2072.576638,-7476.080014,153.219100
534.813900,2516.700203,-7920.203579,-536.266849
534.814224,2368.659014,-8512.368333,-995.924147
534.814548,2664.741391,-9770.718434,-995.924147
534.814872,1258.350101,-10807.006753,-1072.533697
534.815197,0.000000,-11251.130318,-919.314598
534.815521,-814.226536,-11029.068536,-842.705048
534.815845,-1924.535449,-10436.903782,-919.314598
534.816169,-1628.453072,-11547.212695,-306.438199
534.816494,-1554.432478,-11917.315666,689.485948
534.816818,-740.205942,-11103.089130,766.095498
534.817142,-444.123565,-10436.903782,1302.362347
534.817466,0.000000,-9918.759623,1225.752797
534.817791,1258.350101,-9326.594869,612.876398
534.818115,1998.556043,-8512.368333,76.609550
534.818439,2294.638420,-7772.162391,-919.314598
534.818763,2072.576638,-8734.430116,-612.876398
534.819087,2220.617826,-9622.677246,-1072.533697
534.819412,2442.679609,-9622.677246,-842.705048
534.819736,814.226536,-9918.759623,-766.095498
534.820060,-148.041188,-10362.883188,-612.876398
534.820384,-444.123565,-10140.821405,-612.876398
534.820709,-1332.370696,-10732.986159,229.828649
534.821033,-2146.597232,-11029.068536,1378.971896
534.821357,-1258.350101,-10510.924376,2374.896044
534.821681,-814.226536,-8808.450710,1532.190996
534.822006,-1332.370696,-8364.327145,2145.067394
534.822330,-666.185348,-7772.162391,1302.362347
534.822654,222.061783,-7254.018232,76.609550
534.822978,518.144159,-6735.874072,-153.219100
534.823302,1406.391290,-6513.812290,-459.657299
534.823627,2664.741391,-7846.182985,-229.828649
534.823951,2664.741391,-8290.306550,-1072.533697
534.824275,1702.473667,-8512.368333,-919.314598
534.824599,0.000000,-9326.594869,-612.876398
534.824924,-370.102971,-9696.697840,-919.314598
534.825248,-370.102971,-10658.965565,76.609550
534.825572,-1110.308913,-11621.233289,1072.533697
534.825896,-1480.411884,-11325.150913,995.924147
534.826220,-2072.576638,-11399.171507,766.095498
534.826545,-3256.906145,-11325.150913,919.314598
534.826869,-3182.885551,-10214.842000,459.657299
534.827193,-1776.494261,-9030.512492,0.000000
534.827517,0.000000,-8068.244768,-459.657299
534.827842,1480.411884,-8660.409521,-383.047749
534.828166,3108.864956,-9548.656652,-1378.971896
534.828490,4219.173869,-9622.677246,-1608.800546
534.828814,2960.823768,-9918.759623,-1685.410096
534.829139,1850.514855,-10955.047942,-1685.410096
534.829463,1258.350101,-11769.274478,-1455.581446
534.829787,518.144159,-12213.398043,-995.924147
534.830111,-1036.288319,-12805.562797,-766.095498
534.830435,-2442.679609,-12805.562797,-612.876398
534.830760,-2960.823768,-11621.233289,153.219100
534.831084,-3256.906145,-10955.047942,-229.828649
534.831408,-3478.967927,-10288.862594,1149.143247
534.831732,-2442.679609,-9474.636058,919.314598
534.832057,-1110.308913,-8068.244768,459.657299
534.832381,0.000000,-7105.977043,0.000000
534.832705,1480.411884,-6587.832884,-612.876398
534.833029,2368.659014,-6587.832884,-1455.581446
534.833354,1776.494261,-7031.956449,-1532.190996
534.833678,1184.329507,-8808.450710,-1149.143247
534.834002,962.267725,-10807.006753,-1302.362347
534.834326,888.247130,-10732.986159,-766.095498
534.834650,-1036.288319,-11399.171507,0.000000
534.834975,-3478.967927,-12435.459826,0.000000
534.835299,-4219.173869,-12139.377449,-229.828649
534.835623,-3849.070898,-10807.006753,459.657299
534.835947,-4145.153275,-10140.821405,1455.581446
534.836272,-2812.782580,-9696.697840,1915.238745
534.836596,-1628.453072,-7254.018232,689.485948
534.836920,148.041188,-6143.709319,995.924147
534.837244,2072.576638,-6587.832884,383.047749
534.837568,3034.844362,-6661.853478,-612.876398
534.837893,3108.864956,-6957.935855,-1378.971896
534.838217,3182.885551,-8660.409521,-1378.971896
534.838541,3256.906145,-10807.006753,-1378.971896
534.838865,3256.906145,-10732.986159,-1608.800546
534.839190,1480.411884,-10807.006753,-459.657299
534.839514,0.000000,-12805.562797,0.000000
534.839838,-1332.370696,-13693.809927,76.609550
534.840162,-1628.453072,-12731.542202,229.828649
534.840486,-2146.597232,-10584.944971,766.095498
534.840810,-1480.411884,-9844.739029,766.095498
534.841134,0.000000,-8290.306550,1378.971896
534.841458,666.185348,-6957.935855,1072.533697
534.841783,1332.370696,-7402.059420,1608.800546
534.842107,2294.638420,-8290.306550,612.876398
534.842431,2368.659014,-7994.224174,-612.876398
534.842755,1628.453072,-8216.285956,-689.485948
534.843079,1110.308913,-9918.759623,-766.095498
534.843403,1110.308913,-10362.883188,-1455.581446
534.843727,1036.288319,-11177.109724,-1149.143247
534.844051,-296.082377,-12213.398043,0.000000
534.844376,-1036.288319,-12509.480420,-229.828649
534.844700,-2072.576638,-11621.233289,-229.828649
534.845024,-2738.761985,-10881.027347,536.266849
534.845348,-2442.679609,-11103.089130,1225.752797
534.845672,-1998.556043,-10066.800811,1302.362347
534.845996,-1332.370696,-9178.553681,1608.800546
534.846320,-370.102971,-8142.265362,2451.505594
534.846644,1628.453072,-8586.388927,2145.067394
534.846969,2812.782580,-8216.285956,995.924147
534.847293,2368.659014,-6661.853478,383.047749
534.847617,1628.453072,-6439.791695,-383.047749
534.847941,1406.391290,-7994.224174,-1378.971896
534.848265,1036.288319,-10066.800811,-1302.362347
534.848589,518.144159,-11473.192101,-842.705048
534.848913,-1258.350101,-12139.377449,-229.828649
534.849238,-1998.556043,-12139.377449,-383.047749
534.849562,-2960.823768,-11547.212695,-612.876398
534.849886,-3108.864956,-10214.842000,0.000000
534.850210,-2516.700203,-9474.636058,76.609550
534.850534,-1184.329507,-9326.594869,1225.752797
534.850858,148.041188,-9474.636058,1608.800546
534.851182,2146.597232,-8956.491898,2451.505594
534.851506,2960.823768,-7179.997637,1149.143247
534.851831,2590.720797,-6365.771101,-536.266849
534.852155,1406.391290,-7031.956449,-1378.971896
534.852479,1406.391290,-9104.533087,-1225.752797
534.852803,2516.700203,-10436.903782,-1685.410096
534.853127,1924.535449,-10584.944971,-383.047749
534.853451,1554.432478,-11325.150913,-459.657299
534.853775,592.164754,-11843.295072,-842.705048
534.854099,-2146.597232,-11473.192101,-1915.238745
534.854424,-4885.359217,-10436.903782,-2068.457845
534.854748,-5255.462188,-9696.697840,-1378.971896
534.855072,-2886.803174,-10066.800811,0.000000
534.855396,-1184.329507,-10140.821405,995.924147
534.855720,148.041188,-9030.512492,2604.724693
534.856044,740.205942,-8290.306550,1149.143247
534.856368,888.247130,-8586.388927,0.000000
534.856692,148.041188,-8216.285956,-919.314598
534.857017,444.123565,-7772.162391,-995.924147
534.857341,1776.494261,-8734.430116,0.000000
534.857665,3108.864956,-10362.883188,0.000000
534.857989,2812.782580,-11325.150913,-153.219100
534.858313,592.164754,-11473.192101,-689.485948
534.858637,-2590.720797,-11399.171507,-1532.190996
534.858961,-4367.215058,-11547.212695,-2068.457845
534.859286,-6069.688724,-11251.130318,-1225.752797
534.859610,-5403.503377,-9474.636058,-766.095498
534.859934,-3552.988522,-8734.430116,383.047749
534.860258,-1702.473667,-9770.718434,1225.752797
534.860582,0.000000,-9474.636058,1225.752797
534.860906,1036.288319,-7846.182985,919.314598
534.861230,888.247130,-7031.956449,766.095498
534.861554,1628.453072,-7402.059420,-229.828649
534.861879,2664.741391,-7846.182985,-459.657299
534.862203,3552.988522,-8438.347739,-229.828649
534.862527,3775.050304,-10066.800811,-612.876398
534.862851,3775.050304,-12213.398043,-536.266849
534.863175,3182.885551,-12953.603985,229.828649
534.863499,1258.350101,-12731.542202,-229.828649
534.863823,-1554.432478,-12213.398043,-842.705048
534.864147,-3997.112087,-11547.212695,-1225.752797
534.864472,-4071.132681,-10436.903782,-766.095498
534.864796,-2516.700203,-10584.944971,153.219100
534.865120,-888.247130,-10288.862594,1378.971896
534.865444,814.226536,-7994.224174,1378.971896
534.865768,2294.638420,-6661.853478,919.314598
534.866092,1924.535449,-6883.915261,229.828649
534.866416,1702.473667,-7402.059420,-536.266849
534.866740,1628.453072,-7550.100608,-306.438199
534.867065,2590.720797,-8216.285956,0.000000
534.867389,3330.926739,-9992.780217,229.828649
534.867713,2886.803174,-11251.130318,459.657299
534.868037,1332.370696,-11251.130318,-383.047749
534.868361,-1776.494261,-11399.171507,-919.314598
534.868685,-3552.988522,-11695.253884,-842.705048
534.869009,-3849.070898,-10362.883188,-842.705048
534.869334,-3182.885551,-9844.739029,1225.752797
534.869658,-2220.617826,-9696.697840,1991.848295
534.869982,-370.102971,-9622.677246,1302.362347
534.870306,74.020594,-7402.059420,689.485948
534.870630,-148.041188,-6883.915261,612.876398
534.870954,370.102971,-7254.018232,0.000000
534.871278,1924.535449,-7402.059420,0.000000
534.871602,2664.741391,-7328.038826,306.438199
534.871927,3034.844362,-8586.388927,-383.047749
534.872251,2294.638420,-10214.842000,-1302.362347
534.872575,740.205942,-11399.171507,-1378.971896
534.872899,-1184.329507,-12361.439231,-1225.752797
534.873223,-2886.803174,-12139.377449,-1225.752797
534.873547,-2886.803174,-11399.171507,-612.876398
534.873871,-2368.659014,-10658.965565,153.219100
534.874195,-1110.308913,-11399.171507,995.924147
534.874520,518.144159,-10881.027347,2298.286494
534.874844,1406.391290,-9474.636058,1532.190996
534.875168,1184.329507,-8364.327145,2145.067394
534.875492,1628.453072,-8438.347739,919.314598
534.875816,1776.494261,-7846.182985,76.609550
534.876140,2220.617826,-7328.038826,153.219100
534.876464,2294.638420,-8734.430116,0.000000
534.876788,2368.659014,-10658.965565,-306.438199
534.877113,1332.370696,-11325.150913,-1072.533697
534.877437,-814.226536,-10881.027347,-842.705048
534.877761,-2886.803174,-10807.006753,-1072.533697
534.878085,-3552.988522,-11251.130318,-1072.533697
534.878409,-3552.988522,-10066.800811,-766.095498
534.878733,-2886.803174,-9474.636058,459.657299
534.879057,-1332.370696,-9622.677246,1762.019645
534.879382,148.041188,-8956.491898,1915.238745
534.879706,518.144159,-7994.224174,1915.238745
534.880030,0.000000,-8438.347739,1838.629195
534.880354,592.164754,-8956.491898,995.924147
534.880678,1184.329507,-7550.100608,76.609550
534.881002,2072.576638,-7402.059420,919.314598
534.881326,2146.597232,-8586.388927,0.000000
534.881650,962.267725,-10214.842000,-919.314598
534.881975,-888.247130,-11621.233289,-1302.362347
534.882299,-2294.638420,-12139.377449,-1225.752797
534.882623,-3627.009116,-11917.315666,-2145.067394
534.882947,-3997.112087,-10732.986159,-1072.533697
534.883271,-3849.070898,-9548.656652,-1762.019645
534.883595,-3404.947333,-9770.718434,-689.485948
534.883919,-2072.576638,-10214.842000,-229.828649
534.884243,-666.185348,-9548.656652,383.047749
534.884568,296.082377,-9030.512492,1378.971896
534.884892,1480.411884,-7920.203579,1302.362347
534.885216,2738.761985,-6883.915261,153.219100
534.885540,3552.988522,-6883.915261,-153.219100
534.885864,4145.153275,-8660.409521,-766.095498
534.886188,3701.029710,-10881.027347,-536.266849
534.886512,3627.009116,-11769.274478,-2221.676944
534.886836,2886.803174,-11399.171507,-1225.752797
534.887161,888.247130,-10955.047942,-1149.143247
534.887485,74.020594,-11251.130318,-1685.410096
534.887809,-1480.411884,-11325.150913,-1991.848295
534.888133,-2812.782580,-11177.109724,-1378.971896
534.888457,-2294.638420,-10066.800811,-536.266849
534.888781,-592.164754,-9548.656652,-153.219100
534.889105,-444.123565,-8216.285956,76.609550
534.889430,-666.185348,-8290.306550,612.876398
534.889754,370.102971,-8438.347739,459.657299
534.890078,444.123565,-7846.182985,-383.047749
534.890402,592.164754,-7698.141797,-383.047749
534.890726,1258.350101,-9104.533087,-76.609550
534.891050,2220.617826,-10436.903782,-689.485948
534.891374,2220.617826,-10807.006753,-995.924147
534.891698,0.000000,-10362.883188,-459.657299
534.892023,-592.164754,-10881.027347,-995.924147
534.892347,-1406.391290,-11325.150913,-1915.238745
534.892671,-2368.659014,-11547.212695,-689.485948
534.892995,-2516.700203,-10807.006753,0.000000
534.893319,-1628.453072,-10436.903782,459.657299
534.893643,-1776.494261,-9844.739029,459.657299
534.893967,-2072.576638,-9030.512492,1072.533697
534.894291,-814.226536,-7624.121203,459.657299
534.894616,962.267725,-6883.915261,153.219100
534.894940,1702.473667,-7846.182985,536.266849
534.895264,2590.720797,-9548.656652,536.266849
534.895588,3256.906145,-9474.636058,76.609550
534.895912,2072.576638,-9178.553681,-459.657299
534.896236,296.082377,-10140.821405,-766.095498
534.896560,-444.123565,-12509.480420,-689.485948
534.896884,-1036.288319,-11843.295072,-536.266849
534.897209,-1628.453072,-10658.965565,-383.047749
534.897533,-1850.514855,-10732.986159,306.438199
534.897857,-740.205942,-11325.150913,76.609550
534.898181,0.000000,-11177.109724,306.438199
534.898505,-740.205942,-9918.759623,1149.143247
534.898829,-592.164754,-8808.450710,1455.581446
534.899153,0.000000,-7846.182985,689.485948
534.899477,1184.329507,-8364.327145,536.266849
534.899802,1480.411884,-8882.471304,459.657299
534.900126,1258.350101,-9400.615463,153.219100
534.900450,814.226536,-9400.615463,-995.924147
534.900774,222.061783,-9548.656652,-1149.143247
534.901098,222.061783,-9548.656652,-459.657299
534.901422,148.041188,-9548.656652,-919.314598
534.901746,-370.102971,-9844.739029,-612.876398
534.902071,-1184.329507,-10955.047942,153.219100
534.902395,-814.226536,-11103.089130,919.314598
534.902719,-888.247130,-10066.800811,153.219100
534.903043,-1480.411884,-9400.615463,1149.143247
534.903367,-1258.350101,-9252.574275,2221.676944
534.903691,-444.123565,-8586.388927,1378.971896
534.904015,0.000000,-7772.162391,1838.629195
534.904339,0.000000,-8364.327145,1685.410096
534.904664,148.041188,-9326.594869,689.485948
534.904988,296.082377,-9178.553681,-153.219100
534.905312,-740.205942,-8512.368333,0.000000
534.905636,-740.205942,-8808.450710,306.438199
534.905960,-518.144159,-9252.574275,-536.266849
534.906284,-814.226536,-8734.430116,-995.924147
534.906608,-1332.370696,-8734.430116,0.000000
534.906932,-370.102971,-9770.718434,153.219100
534.907257,0.000000,-9474.636058,-76.609550
534.907581,0.000000,-9400.615463,536.266849
534.907905,-518.144159,-8882.471304,1149.143247
534.908229,0.000000,-8364.327145,995.924147
534.908553,888.247130,-8882.471304,1302.362347
534.908877,1258.350101,-9918.759623,2145.067394
534.909201,1554.432478,-10658.965565,842.705048
534.909525,2220.617826,-10066.800811,0.000000
534.909850,1554.432478,-9474.636058,-383.047749
534.910174,1184.329507,-9918.759623,-612.876398
534.910498,888.247130,-10955.047942,-842.705048
534.910822,518.144159,-11399.171507,-1149.143247
534.911146,-370.102971,-10510.924376,-612.876398
534.911470,-296.082377,-10214.842000,-1225.752797
534.911794,148.041188,-11029.068536,-919.314598
534.912119,-814.226536,-10955.047942,-842.705048
534.912443,-1776.494261,-10436.903782,-766.095498
534.912767,-1998.556043,-9622.677246,-459.657299
534.913091,-1554.432478,-8882.471304,-612.876398
534.913415,-888.247130,-9770.718434,0.000000
534.913739,74.020594,-10658.965565,229.828649
534.914063,888.247130,-9844.739029,0.000000
534.914387,1258.350101,-8660.409521,-153.219100
534.914712,444.123565,-8364.327145,-689.485948
534.915036,888.247130,-9030.512492,-995.924147
534.915360,1480.411884,-9104.533087,-1532.190996
534.915684,1776.494261,-8438.347739,-1225.752797
534.916008,1406.391290,-9474.636058,-536.266849
534.916332,1332.370696,-10140.821405,-1608.800546
534.916656,666.185348,-10214.842000,-1762.019645
534.916980,-1776.494261,-9696.697840,-1532.190996
534.917305,-3108.864956,-9326.594869,-1838.629195
534.917629,-3478.967927,-9474.636058,-1991.848295
534.917953,-2812.782580,-10510.924376,-612.876398
534.918277,-1776.494261,-11473.192101,919.314598
534.918601,-592.164754,-10510.924376,153.219100
534.918925,-592.164754,-8956.491898,-995.924147
534.919249,-1036.288319,-8808.450710,-306.438199
534.919573,-666.185348,-9548.656652,-689.485948
534.919898,518.144159,-9548.656652,-1149.143247
534.920222,1258.350101,-8882.471304,-1685.410096
534.920546,1998.556043,-8734.430116,-842.705048
534.920870,3256.906145,-10732.986159,-536.266849
534.921194,2960.823768,-10955.047942,-1302.362347
534.921518,888.247130,-10066.800811,-1532.190996
534.921842,-888.247130,-10140.821405,-306.438199
534.922167,-1998.556043,-10510.924376,-1225.752797
534.922491,-2146.597232,-10140.821405,-919.314598
534.922815,-1924.535449,-10288.862594,995.924147
534.923139,-962.267725,-10584.944971,1149.143247
534.923463,-592.164754,-10288.862594,0.000000
534.923787,-666.185348,-8882.471304,1072.533697
534.924111,-370.102971,-8586.388927,689.485948
534.924435,592.164754,-9178.553681,229.828649
534.924760,666.185348,-8586.388927,0.000000
534.925084,518.144159,-7846.182985,689.485948
534.925408,1258.350101,-8734.430116,536.266849
534.925732,1554.432478,-9770.718434,-76.609550
534.926056,518.144159,-9474.636058,306.438199
534.926380,-1776.494261,-9400.615463,766.095498
534.926704,-2664.741391,-10362.883188,306.438199
534.927028,-2590.720797,-10584.944971,76.609550
534.927353,-2442.679609,-10436.903782,1915.238745
534.927677,-1332.370696,-10807.006753,2681.334243
534.928001,148.041188,-10732.986159,2068.457845
534.928325,148.041188,-8882.471304,1838.629195
534.928649,666.185348,-7624.121203,2757.943793
534.928973,1332.370696,-7698.141797,1455.581446
534.929297,1776.494261,-8290.306550,612.876398
534.929621,1702.473667,-7328.038826,919.314598
534.929946,2812.782580,-7994.224174,1302.362347
534.930270,2664.741391,-9400.615463,-229.828649
534.930594,1258.350101,-9918.759623,-689.485948
534.930918,-444.123565,-10658.965565,0.000000
534.931242,-2146.597232,-11029.068536,-153.219100
534.931566,-2368.659014,-10955.047942,-842.705048
534.931890,-3182.885551,-10955.047942,153.219100
534.932215,-2516.700203,-10807.006753,919.314598
534.932539,-962.267725,-11399.171507,1072.533697
534.932863,222.061783,-10510.924376,1072.533697
534.933187,740.205942,-9844.739029,2451.505594
534.933511,888.247130,-9400.615463,1532.190996
534.933835,1110.308913,-8956.491898,0.000000
534.934159,1776.494261,-7994.224174,0.000000
534.934483,2812.782580,-7920.203579,0.000000
534.934808,3404.947333,-8956.491898,-919.314598
534.935132,2368.659014,-9992.780217,-1072.533697
534.935456,1110.308913,-10066.800811,-1149.143247
534.935780,-148.041188,-9918.759623,-1302.362347
534.936104,-962.267725,-10140.821405,-1608.800546
534.936428,-2886.803174,-9844.739029,-1838.629195
534.936752,-3627.009116,-9400.615463,-1225.752797
534.937076,-2738.761985,-9844.739029,-612.876398
534.937401,-1110.308913,-10140.821405,0.000000
534.937725,-444.123565,-9548.656652,919.314598
534.938049,-148.041188,-10362.883188,1915.238745
534.938373,1036.288319,-9178.553681,1378.971896
534.938697,2368.659014,-8364.327145,153.219100
534.939021,2368.659014,-7624.121203,76.609550
534.939345,2442.679609,-8364.327145,-1225.752797
534.939670,1998.556043,-9474.636058,-2298.286494
534.939994,1184.329507,-9918.759623,-2221.676944
534.940318,740.205942,-10436.903782,-2298.286494
534.940642,-222.061783,-11103.089130,-1455.581446
534.940966,-1480.411884,-11029.068536,-1762.019645
534.941290,-2664.741391,-10807.006753,-1685.410096
534.941614,-2960.823768,-10881.027347,-1455.581446
534.941939,-2442.679609,-11325.150913,-995.924147
534.942263,-1850.514855,-11103.089130,-383.047749
534.942587,-1480.411884,-10584.944971,689.485948
534.942911,-296.082377,-9918.759623,1455.581446
534.943235,1998.556043,-9178.553681,1072.533697
534.943559,3256.906145,-7846.182985,229.828649
534.943883,4071.132681,-7772.162391,-459.657299
534.944208,4071.132681,-8290.306550,-995.924147
534.944532,3552.988522,-8882.471304,-1378.971896
534.944856,1332.370696,-9548.656652,-2145.067394
534.945180,-222.061783,-10436.903782,-612.876398
534.945504,-1628.453072,-11029.068536,-1991.848295
534.945828,-3627.009116,-10584.944971,-2374.896044
534.946153,-5625.565159,-10955.047942,-1302.362347
534.946477,-6069.688724,-11325.150913,-1378.971896
534.946801,-5107.421000,-10362.883188,-1225.752797
534.947125,-4737.318029,-9622.677246,612.876398
534.947449,-2738.761985,-9474.636058,1532.190996
534.947773,74.020594,-9548.656652,1685.410096
534.948097,1628.453072,-8660.409521,1532.190996
534.948422,2886.803174,-7920.203579,2298.286494
534.948746,4811.338623,-8142.265362,1532.190996
534.949070,5329.482782,-7105.977043,-459.657299
534.949394,3404.947333,-7698.141797,-1225.752797
534.949718,1332.370696,-10066.800811,0.000000
534.950042,666.185348,-12139.377449,-1455.581446
534.950366,0.000000,-12435.459826,-1532.190996
534.950691,-2664.741391,-11251.130318,153.219100
534.951015,-4441.235652,-10658.965565,229.828649
534.951339,-5551.544565,-10066.800811,-1838.629195
534.951663,-5625.565159,-9622.677246,-919.314598
534.951987,-4515.256246,-9104.533087,1378.971896
534.952311,-1406.391290,-9252.574275,1072.533697
534.952636,1406.391290,-8364.327145,1608.800546
534.952960,3256.906145,-6587.832884,2987.772442
534.953284,5033.400406,-6957.935855,2987.772442
534.953608,5403.503377,-8216.285956,1225.752797
534.953932,3849.070898,-8068.244768,536.266849
534.954256,2590.720797,-8734.430116,612.876398
534.954580,2812.782580,-10658.965565,0.000000
534.954905,1628.453072,-12065.356855,-1149.143247
534.955229,-592.164754,-12287.418637,306.438199
534.955553,-2368.659014,-12805.562797,689.485948
534.955877,-3478.967927,-12657.521608,-842.705048
534.956201,-5403.503377,-10584.944971,-842.705048
534.956525,-5107.421000,-9030.512492,842.705048
534.956849,-1480.411884,-8956.491898,1608.800546
534.957174,2516.700203,-8882.471304,1685.410096
534.957498,3404.947333,-7772.162391,3217.601092
534.957822,4441.235652,-6809.894666,2834.553343
534.958146,4811.338623,-7105.977043,995.924147
534.958470,3034.844362,-7402.059420,-383.047749
534.958794,1332.370696,-7846.182985,-536.266849
534.959119,1850.514855,-9178.553681,0.000000
534.959443,1924.535449,-11177.109724,-459.657299
534.959767,-148.041188,-10732.986159,0.000000
534.960091,-2220.617826,-10955.047942,383.047749
534.960415,-3034.844362,-11621.233289,-995.924147
534.960739,-4515.256246,-10732.986159,-2145.067394
534.961063,-5625.565159,-9474.636058,-1072.533697
534.961388,-4885.359217,-8586.388927,0.000000
534.961712,-2220.617826,-8586.388927,842.705048
534.962036,0.000000,-7920.203579,1608.800546
534.962360,2294.638420,-7994.224174,1991.848295
534.962684,3478.967927,-8290.306550,842.705048
534.963008,3997.112087,-7994.224174,-612.876398
534.963332,3256.906145,-7772.162391,-995.924147
534.963657,2960.823768,-9178.553681,-766.095498
534.963981,2664.741391,-10658.965565,-1608.800546
534.964305,1998.556043,-11843.295072,-1302.362347
534.964629,222.061783,-12657.521608,-1455.581446
534.964953,-962.267725,-12953.603985,-1762.019645
534.965277,-2812.782580,-11991.336260,-3294.210641
534.965601,-4663.297435,-10807.006753,-3064.381992
534.965926,-4811.338623,-9770.718434,-1532.190996
534.966250,-3404.947333,-9992.780217,-1302.362347
534.966574,-1924.535449,-9474.636058,383.047749
534.966898,0.000000,-9030.512492,1838.629195
534.967222,2738.761985,-9326.594869,1072.533697
534.967546,4589.276840,-8290.306550,-536.266849
534.967871,4441.235652,-7772.162391,-1225.752797
534.968195,4071.132681,-9548.656652,-689.485948
534.968519,4219.173869,-11103.089130,-689.485948
534.968843,3775.050304,-10955.047942,-1378.971896
534.969167,1850.514855,-11103.089130,-919.314598
534.969491,0.000000,-12139.377449,-995.924147
534.969815,-1110.308913,-12731.542202,-2374.896044
534.970140,-3404.947333,-11177.109724,-1991.848295
534.970464,-5847.626942,-9474.636058,-1302.362347
534.970788,-6439.791695,-8660.409521,-1225.752797
534.971112,-5033.400406,-8586.388927,-383.047749
534.971436,-3627.009116,-7846.182985,2068.457845
534.971760,-1036.288319,-7624.121203,2221.676944
534.972084,592.164754,-8142.265362,1762.019645
534.972409,962.267725,-8808.450710,1455.581446
534.972733,1850.514855,-7920.203579,1225.752797
534.973057,2960.823768,-7031.956449,1915.238745
534.973381,3775.050304,-6513.812290,1225.752797
534.973705,2368.659014,-6883.915261,-229.828649
534.974029,0.000000,-9548.656652,0.000000
534.974354,-2072.576638,-12287.418637,-612.876398
534.974678,-3478.967927,-12287.418637,-1532.190996
534.975002,-5477.523971,-11473.192101,-842.705048
534.975326,-6513.812290,-10584.944971,0.000000
534.975650,-5403.503377,-9030.512492,-689.485948
534.975974,-3849.070898,-8438.347739,612.876398
534.976298,-1924.535449,-8142.265362,1378.971896
534.976623,962.267725,-8068.244768,1991.848295
534.976947,3701.029710,-8438.347739,1608.800546
534.977271,4367.215058,-8808.450710,1838.629195
534.977595,5181.441594,-7994.224174,1378.971896
534.977919,5329.482782,-7624.121203,-76.609550
534.978243,3849.070898,-9474.636058,-612.876398
534.978567,2220.617826,-13175.665768,-689.485948
534.978892,2664.741391,-14952.160028,-1225.752797
534.979216,962.267725,-14211.954086,-1378.971896
534.979540,-2220.617826,-12879.583391,-1532.190996
534.979864,-4367.215058,-12805.562797,-2374.896044
534.980188,-4737.318029,-11917.315666,-2451.505594
534.980512,-3627.009116,-10732.986159,-919.314598
534.980837,-1998.556043,-9696.697840,1838.629195
534.981161,148.041188,-8438.347739,919.314598
534.981485,2072.576638,-6883.915261,1149.143247
534.981809,2442.679609,-6957.935855,536.266849
534.982133,3034.844362,-7179.997637,153.219100
534.982457,3997.112087,-7402.059420,-153.219100
534.982781,4219.173869,-7994.224174,153.219100
534.983106,3627.009116,-9178.553681,536.266849
534.983430,3256.906145,-11103.089130,0.000000
534.983754,1850.514855,-11325.150913,-153.219100
534.984078,-296.082377,-11547.212695,153.219100
534.984402,-2294.638420,-11547.212695,0.000000
534.984726,-3182.885551,-10510.924376,-153.219100
534.985050,-3997.112087,-8512.368333,-306.438199
534.985375,-3627.009116,-7846.182985,995.924147
