#time,accel_x,accel_y,accel_z
965.464271,-296.082377,-9770.718434,-153.219100
965.464595,-148.041188,-9548.656652,-383.047749
965.464919,0.000000,-9696.697840,76.609550
965.465244,148.041188,-9918.759623,0.000000
965.465568,0.000000,-9622.677246,-229.828649
965.465893,0.000000,-9622.677246,0.000000
965.466217,0.000000,-9696.697840,-306.438199
965.466541,0.000000,-9992.780217,0.000000
965.466866,0.000000,-9548.656652,-536.266849
965.467190,370.102971,-9474.636058,0.000000
965.467514,0.000000,-9178.553681,229.828649
965.467839,0.000000,-9548.656652,-153.219100
965.468163,0.000000,-9918.759623,0.000000
965.468487,0.000000,-9622.677246,0.000000
965.468812,0.000000,-9548.656652,-306.438199
965.469136,74.020594,-9696.697840,-459.657299
965.469461,296.082377,-9548.656652,-76.609550
965.469785,0.000000,-9548.656652,306.438199
965.470109,0.000000,-9918.759623,0.000000
965.470434,444.123565,-10362.883188,-612.876398
965.470758,222.061783,-9770.718434,0.000000
965.471082,148.041188,-9548.656652,229.828649
965.471407,0.000000,-9696.697840,-306.438199
965.471731,0.000000,-9474.636058,153.219100
965.472055,0.000000,-9918.759623,0.000000
965.472380,222.061783,-9844.739029,306.438199
965.472704,518.144159,-9252.574275,153.219100
965.473029,222.061783,-9400.615463,306.438199
965.473353,148.041188,-9844.739029,-76.609550
965.473677,74.020594,-9696.697840,-383.047749
965.474002,-148.041188,-10066.800811,612.876398
965.474326,0.000000,-10288.862594,0.000000
965.474650,0.000000,-10066.800811,229.828649
965.474975,-740.205942,-9474.636058,0.000000
965.475299,-1036.288319,-9622.677246,612.876398
965.475624,-1110.308913,-10362.883188,76.609550
965.475948,-1110.308913,-9548.656652,0.000000
965.476272,-1406.391290,-8586.388927,76.609550
965.476597,-1184.329507,-8660.409521,766.095498
965.476921,148.041188,-9252.574275,766.095498
965.477245,296.082377,-9770.718434,766.095498
965.477570,-296.082377,-10140.821405,689.485948
965.477894,-1406.391290,-10140.821405,306.438199
965.478218,-1850.514855,-10732.986159,76.609550
965.478543,-2368.659014,-10807.006753,153.219100
965.478867,-2738.761985,-10807.006753,536.266849
965.479192,-2738.761985,-10140.821405,612.876398
965.479516,-2146.597232,-9696.697840,689.485948
965.479840,-1702.473667,-8956.491898,536.266849
965.480165,-740.205942,-9178.553681,1072.533697
965.480489,-148.041188,-9030.512492,1225.752797
965.480813,-444.123565,-9474.636058,1225.752797
965.481138,-1628.453072,-9474.636058,1149.143247
965.481462,-2590.720797,-9400.615463,995.924147
965.481786,-3256.906145,-10288.862594,1532.190996
965.482111,-3182.885551,-10732.986159,1378.971896
965.482435,-3108.864956,-10807.006753,1685.410096
965.482760,-3182.885551,-10955.047942,1225.752797
965.483084,-2590.720797,-10436.903782,1532.190996
965.483408,-2294.638420,-9622.677246,1915.238745
965.483733,-1332.370696,-9104.533087,1915.238745
965.484057,-1184.329507,-9104.533087,2374.896044
965.484381,-814.226536,-9770.718434,2374.896044
965.484706,-370.102971,-9696.697840,2604.724693
965.485030,-1184.329507,-9918.759623,2451.505594
965.485354,-2368.659014,-10066.800811,2681.334243
965.485679,-2960.823768,-10584.944971,2451.505594
965.486003,-3552.988522,-10658.965565,2911.162892
965.486328,-4219.173869,-10214.842000,3524.039291
965.486652,-4737.318029,-10288.862594,3370.820191
965.486976,-4441.235652,-9918.759623,3140.991542
965.487301,-4441.235652,-8882.471304,3217.601092
965.487625,-3701.029710,-9104.533087,3753.867940
965.487949,-2960.823768,-9400.615463,3524.039291
965.488274,-1480.411884,-9030.512492,4366.744339
965.488598,-148.041188,-8438.347739,4979.620737
965.488922,1036.288319,-7772.162391,4903.011187
965.489247,1628.453072,-8068.244768,4749.792088
965.489571,1184.329507,-8364.327145,4290.134789
965.489896,148.041188,-8808.450710,3370.820191
965.490220,-1332.370696,-8512.368333,2757.943793
965.490544,-3404.947333,-7550.100608,1225.752797
965.490869,-5773.606348,-8512.368333,842.705048
965.491193,-6809.894666,-10510.924376,1378.971896
965.491517,-5847.626942,-11769.274478,1072.533697
965.491842,-4885.359217,-9992.780217,2374.896044
965.492166,-4219.173869,-8290.306550,3830.477490
965.492490,-1924.535449,-7994.224174,3830.477490
965.492815,444.123565,-8956.491898,3677.258390
965.493139,2368.659014,-9696.697840,4443.353888
965.493464,3997.112087,-10436.903782,5362.668486
965.493788,3775.050304,-11103.089130,5132.839837
965.494112,1554.432478,-10362.883188,4060.306139
965.494437,-1036.288319,-8438.347739,2911.162892
965.494761,-2664.741391,-8216.285956,1149.143247
965.495085,-5477.523971,-7328.038826,-3677.258390
965.495410,-7698.141797,-9474.636058,-3064.381992
965.495734,-7031.956449,-11843.295072,-1455.581446
965.496058,-2368.659014,-11473.192101,-2374.896044
965.496383,-1554.432478,-9992.780217,-383.047749
965.496707,-4071.132681,-9104.533087,2145.067394
965.497032,-2960.823768,-9992.780217,612.876398
965.497356,-3404.947333,-11621.233289,0.000000
965.497680,-3330.926739,-10732.986159,919.314598
965.498005,296.082377,-10658.965565,3064.381992
965.498329,4959.379811,-12657.521608,3370.820191
965.498653,6587.832884,-12361.439231,3524.039291
965.498978,4811.338623,-10732.986159,3447.429741
965.499302,1480.411884,-9474.636058,1455.581446
965.499626,-2886.803174,-9992.780217,-1685.410096
965.499951,-6439.791695,-9178.553681,-2528.115143
965.500275,-6439.791695,-6143.709319,-4290.134789
965.500600,-5477.523971,-8438.347739,-2834.553343
965.500924,-4589.276840,-12657.521608,-1532.190996
965.501248,-2812.782580,-12139.377449,-2451.505594
965.501573,-3923.091493,-10066.800811,-1149.143247
965.501897,-6365.771101,-8734.430116,0.000000
965.502221,-6291.750507,-8882.471304,0.000000
965.502546,-3849.070898,-9252.574275,689.485948
965.502870,0.000000,-9474.636058,1762.019645
965.503194,2960.823768,-11547.212695,3294.210641
965.503519,3552.988522,-12805.562797,2987.772442
965.503843,2072.576638,-10955.047942,3447.429741
965.504168,370.102971,-9252.574275,3600.648841
965.504492,-1036.288319,-8364.327145,2757.943793
965.504816,-1702.473667,-9400.615463,995.924147
965.505141,-2738.761985,-9326.594869,919.314598
965.505465,-3478.967927,-8512.368333,536.266849
965.505789,-3775.050304,-8142.265362,689.485948
965.506114,-4515.256246,-8438.347739,842.705048
965.506438,-4441.235652,-7328.038826,1302.362347
965.506763,-4145.153275,-7105.977043,1685.410096
965.507087,-4959.379811,-8364.327145,1072.533697
965.507411,-6513.812290,-9918.759623,1608.800546
965.507736,-6291.750507,-10214.842000,1838.629195
965.508060,-3108.864956,-9474.636058,2604.724693
965.508384,-222.061783,-9030.512492,2987.772442
965.508709,74.020594,-9474.636058,3294.210641
965.509033,-296.082377,-10807.006753,4213.525239
965.509357,-592.164754,-11769.274478,4596.572988
965.509682,666.185348,-11473.192101,4519.963438
965.510006,1184.329507,-9548.656652,4136.915689
965.510331,-666.185348,-9252.574275,3370.820191
965.510655,-2960.823768,-10436.903782,3294.210641
965.510979,-4145.153275,-11695.253884,3217.601092
965.511304,-3923.091493,-11251.130318,2757.943793
965.511628,-3627.009116,-8660.409521,1915.238745
965.511952,-4737.318029,-6735.874072,2681.334243
965.512277,-4515.256246,-7031.956449,2374.896044
965.512601,-3478.967927,-8808.450710,2451.505594
965.512925,-3478.967927,-9770.718434,1302.362347
965.513250,-4441.235652,-9992.780217,1225.752797
965.513574,-3627.009116,-10066.800811,1838.629195
965.513899,-518.144159,-10214.842000,2834.553343
965.514223,1924.535449,-10881.027347,5132.839837
965.514547,2590.720797,-11325.150913,5209.449386
965.514872,1110.308913,-11769.274478,4519.963438
965.515196,222.061783,-11843.295072,4290.134789
965.515520,962.267725,-11103.089130,4213.525239
965.515845,814.226536,-9992.780217,3983.696590
965.516169,-1480.411884,-9770.718434,4136.915689
965.516493,-4367.215058,-9548.656652,2757.943793
965.516818,-4145.153275,-8586.388927,2298.286494
965.517142,-3478.967927,-6883.915261,1685.410096
965.517467,-3849.070898,-7179.997637,1838.629195
965.517791,-5255.462188,-8438.347739,842.705048
965.518115,-5107.421000,-7476.080014,383.047749
965.518440,-3404.947333,-7105.977043,612.876398
965.518764,-1850.514855,-8734.430116,1532.190996
965.519088,-1554.432478,-10066.800811,1762.019645
965.519413,-1036.288319,-9178.553681,1762.019645
965.519737,148.041188,-8290.306550,3064.381992
965.520061,1406.391290,-9474.636058,3064.381992
965.520386,1850.514855,-11103.089130,2451.505594
965.520710,962.267725,-10584.944971,2911.162892
965.521035,-592.164754,-10288.862594,2757.943793
965.521359,-1406.391290,-11251.130318,1991.848295
965.521683,-1628.453072,-9770.718434,1915.238745
965.522008,-2146.597232,-8734.430116,2834.553343
965.522332,-3404.947333,-10288.862594,1838.629195
965.522656,-5181.441594,-10214.842000,-766.095498
965.522981,-6291.750507,-7772.162391,-1225.752797
965.523305,-6365.771101,-6957.935855,-995.924147
965.523629,-5181.441594,-8734.430116,-1991.848295
965.523954,-3997.112087,-8882.471304,-689.485948
965.524278,-2516.700203,-8882.471304,995.924147
965.524602,-962.267725,-10510.924376,1149.143247
965.524926,-148.041188,-11547.212695,919.314598
965.525250,148.041188,-10807.006753,1455.581446
965.525574,0.000000,-11399.171507,842.705048
965.525898,-592.164754,-12065.356855,459.657299
965.526222,-1110.308913,-11621.233289,1072.533697
965.526546,-592.164754,-12953.603985,766.095498
965.526870,-814.226536,-12435.459826,-229.828649
965.527194,-2072.576638,-10658.965565,-383.047749
965.527518,-2368.659014,-10066.800811,-995.924147
965.527842,-3108.864956,-9844.739029,-1532.190996
965.528166,-3330.926739,-9622.677246,-842.705048
965.528490,-2368.659014,-9992.780217,-612.876398
965.528814,-1702.473667,-9474.636058,-995.924147
965.529138,-1924.535449,-7402.059420,919.314598
965.529462,-1628.453072,-7624.121203,306.438199
965.529786,-1406.391290,-8364.327145,0.000000
965.530110,-814.226536,-8438.347739,1225.752797
965.530434,296.082377,-9400.615463,1608.800546
965.530758,1480.411884,-10288.862594,1532.190996
965.531082,1036.288319,-8956.491898,2068.457845
965.531406,-1036.288319,-9400.615463,2068.457845
965.531730,-2368.659014,-10584.944971,0.000000
965.532054,-2590.720797,-10510.924376,0.000000
965.532378,-1924.535449,-10510.924376,-306.438199
965.532702,-1554.432478,-10066.800811,-842.705048
965.533026,-1184.329507,-9622.677246,306.438199
965.533350,-740.205942,-9844.739029,689.485948
965.533674,-518.144159,-9696.697840,612.876398
965.533998,-740.205942,-9178.553681,766.095498
965.534322,-888.247130,-8660.409521,1149.143247
965.534646,0.000000,-9696.697840,1838.629195
965.534970,148.041188,-9844.739029,2068.457845
965.535294,-740.205942,-8586.388927,2068.457845
965.535618,-1628.453072,-8734.430116,2145.067394
965.535942,-1332.370696,-9622.677246,2298.286494
965.536266,74.020594,-9474.636058,2374.896044
965.536590,666.185348,-9326.594869,2068.457845
965.536914,0.000000,-8068.244768,229.828649
965.537238,-814.226536,-8068.244768,229.828649
965.537562,-444.123565,-8808.450710,76.609550
965.537886,666.185348,-9030.512492,-842.705048
965.538210,0.000000,-8734.430116,0.000000
965.538534,-518.144159,-9030.512492,306.438199
965.538858,74.020594,-10732.986159,-383.047749
965.539182,-444.123565,-10510.924376,459.657299
965.539506,-740.205942,-10658.965565,1302.362347
965.539830,-444.123565,-10436.903782,612.876398
965.540154,-962.267725,-11103.089130,1225.752797
965.540478,-1036.288319,-11103.089130,1915.238745
965.540802,222.061783,-9844.739029,1762.019645
965.541126,740.205942,-9030.512492,1838.629195
965.541450,1850.514855,-8882.471304,1302.362347
965.541774,2072.576638,-8290.306550,459.657299
965.542098,666.185348,-10140.821405,919.314598
965.542422,888.247130,-10881.027347,-536.266849
965.542746,962.267725,-9770.718434,-919.314598
965.543070,518.144159,-9992.780217,-995.924147
965.543394,296.082377,-9918.759623,-1225.752797
965.543718,-666.185348,-10732.986159,-919.314598
965.544042,-518.144159,-12139.377449,-153.219100
965.544366,-518.144159,-10807.006753,-995.924147
965.544690,-962.267725,-9474.636058,-459.657299
965.545014,-1332.370696,-8956.491898,-153.219100
965.545338,-222.061783,-9992.780217,459.657299
965.545662,444.123565,-9770.718434,1072.533697
965.545986,592.164754,-8586.388927,1149.143247
965.546310,592.164754,-8216.285956,1455.581446
965.546634,1110.308913,-8882.471304,229.828649
965.546958,1776.494261,-9474.636058,-306.438199
965.547282,1184.329507,-8734.430116,-383.047749
965.547606,0.000000,-9178.553681,-919.314598
965.547930,-1480.411884,-9992.780217,-1608.800546
965.548254,-1850.514855,-9992.780217,-2451.505594
965.548578,-2072.576638,-8882.471304,-1915.238745
965.548902,-1924.535449,-8660.409521,-2451.505594
965.549226,-1776.494261,-9622.677246,-2451.505594
965.549550,-1332.370696,-10066.800811,-1302.362347
965.549874,0.000000,-9252.574275,-383.047749
965.550198,1332.370696,-8808.450710,0.000000
965.550522,1110.308913,-8586.388927,995.924147
965.550846,444.123565,-9770.718434,995.924147
965.551170,148.041188,-11029.068536,919.314598
965.551494,888.247130,-9844.739029,0.000000
965.551818,592.164754,-8364.327145,0.000000
965.552142,-74.020594,-8290.306550,-1455.581446
965.552466,-2072.576638,-9992.780217,-1915.238745
965.552790,-2072.576638,-11251.130318,-1532.190996
965.553114,-1480.411884,-10510.924376,-1915.238745
965.553438,-592.164754,-9326.594869,-2374.896044
965.553762,-222.061783,-9844.739029,-2451.505594
965.554086,518.144159,-11399.171507,-1149.143247
965.554410,1850.514855,-11769.274478,-1608.800546
965.554734,2368.659014,-10658.965565,0.000000
965.555058,1998.556043,-10140.821405,459.657299
965.555382,1850.514855,-10436.903782,-306.438199
965.555706,1258.350101,-9770.718434,76.609550
965.556030,518.144159,-10362.883188,1302.362347
965.556354,518.144159,-10658.965565,153.219100
965.556678,296.082377,-10955.047942,-612.876398
965.557002,-222.061783,-10362.883188,76.609550
965.557326,148.041188,-9548.656652,-1072.533697
965.557650,-740.205942,-9474.636058,-612.876398
965.557974,-1036.288319,-10362.883188,-1302.362347
965.558298,-666.185348,-9992.780217,-1915.238745
965.558623,74.020594,-9622.677246,-612.876398
965.558947,592.164754,-9252.574275,-766.095498
965.559271,296.082377,-8808.450710,76.609550
965.559595,0.000000,-9622.677246,306.438199
965.559919,962.267725,-9992.780217,1149.143247
965.560243,1776.494261,-9548.656652,1532.190996
965.560567,1998.556043,-9474.636058,1532.190996
965.560891,1554.432478,-8364.327145,1915.238745
965.561215,1110.308913,-8956.491898,1991.848295
965.561539,740.205942,-9548.656652,1149.143247
965.561863,0.000000,-9030.512492,842.705048
965.562187,-666.185348,-7846.182985,1378.971896
965.562511,-1554.432478,-7328.038826,-153.219100
965.562835,-1554.432478,-7402.059420,-995.924147
965.563159,-1776.494261,-7994.224174,-306.438199
965.563483,-1184.329507,-8512.368333,0.000000
965.563807,-740.205942,-8290.306550,-766.095498
965.564131,-592.164754,-7105.977043,-842.705048
965.564455,-592.164754,-7328.038826,-1149.143247
965.564779,0.000000,-9474.636058,842.705048
965.565103,592.164754,-10362.883188,0.000000
965.565427,296.082377,-9696.697840,689.485948
965.565751,148.041188,-9030.512492,536.266849
965.566075,518.144159,-9992.780217,0.000000
965.566399,-444.123565,-12361.439231,766.095498
965.566723,-592.164754,-12065.356855,459.657299
965.567047,-962.267725,-10214.842000,459.657299
965.567371,-1702.473667,-10732.986159,306.438199
965.567695,-888.247130,-10066.800811,-919.314598
965.568019,-222.061783,-10066.800811,-1149.143247
965.568343,0.000000,-11251.130318,-383.047749
965.568667,-518.144159,-11547.212695,-766.095498
965.568991,-592.164754,-11029.068536,-919.314598
965.569315,-1110.308913,-9918.759623,-536.266849
965.569639,-1850.514855,-9770.718434,-1302.362347
965.569963,-1998.556043,-11325.150913,-459.657299
965.570287,-1480.411884,-11991.336260,-842.705048
965.570611,-814.226536,-11695.253884,-459.657299
965.570935,-444.123565,-10955.047942,-459.657299
965.571259,444.123565,-9548.656652,0.000000
965.571583,1036.288319,-9770.718434,229.828649
965.571907,814.226536,-10658.965565,0.000000
965.572231,296.082377,-10881.027347,229.828649
965.572555,1480.411884,-10140.821405,689.485948
965.572879,2146.597232,-9474.636058,919.314598
965.573203,1776.494261,-9474.636058,689.485948
965.573527,296.082377,-9548.656652,306.438199
965.573851,-666.185348,-9326.594869,153.219100
965.574175,-444.123565,-8216.285956,153.219100
965.574499,296.082377,-7846.182985,459.657299
965.574823,962.267725,-6735.874072,536.266849
965.575147,1184.329507,-7402.059420,766.095498
965.575471,444.123565,-8364.327145,536.266849
965.575795,666.185348,-7920.203579,306.438199
965.576119,740.205942,-7698.141797,536.266849
965.576443,0.000000,-7476.080014,-612.876398
965.576767,-518.144159,-7550.100608,-306.438199
965.577091,-1184.329507,-8882.471304,306.438199
965.577415,222.061783,-9770.718434,0.000000
965.577739,518.144159,-9992.780217,995.924147
965.578063,296.082377,-9918.759623,1149.143247
965.578387,518.144159,-9252.574275,536.266849
965.578711,1036.288319,-9104.533087,229.828649
965.579035,444.123565,-10066.800811,229.828649
965.579359,222.061783,-10584.944971,0.000000
965.579683,296.082377,-10658.965565,153.219100
965.580007,370.102971,-9918.759623,-459.657299
965.580331,-444.123565,-9844.739029,-766.095498
965.580655,-1184.329507,-10214.842000,-1762.019645
965.580979,-1406.391290,-10584.944971,-1455.581446
965.581303,-888.247130,-10732.986159,-1378.971896
965.581627,-740.205942,-10066.800811,-2604.724693
965.581951,-296.082377,-9548.656652,-1455.581446
965.582275,0.000000,-10436.903782,-612.876398
965.582599,296.082377,-11473.192101,-536.266849
965.582923,1036.288319,-10881.027347,-229.828649
965.583247,888.247130,-10140.821405,76.609550
965.583571,1110.308913,-10732.986159,76.609550
965.583895,888.247130,-11251.130318,-536.266849
965.584219,740.205942,-10807.006753,0.000000
965.584543,222.061783,-10140.821405,0.000000
965.584867,0.000000,-11103.089130,-689.485948
965.585191,-666.185348,-10881.027347,-2298.286494
965.585515,-1702.473667,-9992.780217,-1685.410096
965.585839,-2220.617826,-10955.047942,-995.924147
965.586163,-2146.597232,-11399.171507,-1838.629195
965.586487,-2072.576638,-10362.883188,-612.876398
965.586811,-2368.659014,-8956.491898,229.828649
965.587135,-1406.391290,-9622.677246,-383.047749
965.587459,-592.164754,-10140.821405,-229.828649
965.587783,-592.164754,-9104.533087,306.438199
965.588107,74.020594,-8586.388927,1302.362347
965.588431,296.082377,-8882.471304,1149.143247
965.588755,518.144159,-8660.409521,689.485948
965.589079,222.061783,-7624.121203,1149.143247
965.589403,666.185348,-7698.141797,459.657299
965.589727,1628.453072,-8364.327145,612.876398
965.590051,1924.535449,-8438.347739,1072.533697
965.590375,1850.514855,-7550.100608,536.266849
965.590699,740.205942,-7105.977043,229.828649
965.591023,-888.247130,-8364.327145,-459.657299
965.591347,-1702.473667,-9104.533087,-1455.581446
965.591671,-1332.370696,-9030.512492,0.000000
965.591995,148.041188,-9548.656652,689.485948
965.592319,1332.370696,-9326.594869,76.609550
965.592643,740.205942,-9400.615463,1072.533697
965.592967,222.061783,-10288.862594,995.924147
965.593291,74.020594,-9844.739029,612.876398
965.593615,148.041188,-10066.800811,306.438199
965.593939,1036.288319,-9992.780217,995.924147
965.594263,1332.370696,-10436.903782,1685.410096
965.594587,1110.308913,-11325.150913,766.095498
965.594911,-222.061783,-10584.944971,76.609550
965.595235,-1036.288319,-9770.718434,612.876398
965.595559,-148.041188,-10066.800811,-459.657299
965.595883,74.020594,-10288.862594,-919.314598
965.596207,-518.144159,-9992.780217,0.000000
965.596531,-370.102971,-9548.656652,-459.657299
965.596855,74.020594,-9696.697840,-612.876398
965.597179,296.082377,-10140.821405,-383.047749
965.597503,1036.288319,-9252.574275,0.000000
965.597827,1776.494261,-10066.800811,995.924147
965.598151,1110.308913,-10214.842000,-306.438199
965.598475,518.144159,-9326.594869,0.000000
965.598799,666.185348,-9622.677246,612.876398
965.599123,1258.350101,-10807.006753,-306.438199
965.599447,148.041188,-10732.986159,0.000000
965.599771,-962.267725,-9844.739029,229.828649
965.600095,-1332.370696,-9474.636058,-306.438199
965.600419,-1924.535449,-10140.821405,-383.047749
965.600743,-1258.350101,-9400.615463,-459.657299
965.601067,-592.164754,-9104.533087,-536.266849
965.601391,-1332.370696,-9844.739029,-306.438199
965.601715,-2294.638420,-10658.965565,-612.876398
965.602039,-2072.576638,-9770.718434,-612.876398
965.602363,-962.267725,-9474.636058,-306.438199
965.602687,-1258.350101,-8660.409521,-383.047749
965.603011,-1702.473667,-9474.636058,-306.438199
965.603335,-1480.411884,-10584.944971,-766.095498
965.603659,-888.247130,-9622.677246,-383.047749
965.603983,0.000000,-9326.594869,612.876398
965.604307,888.247130,-9252.574275,0.000000
965.604631,370.102971,-9474.636058,153.219100
965.604955,-1110.308913,-9474.636058,1225.752797
965.605279,-666.185348,-9548.656652,766.095498
965.605603,148.041188,-9622.677246,842.705048
965.605927,296.082377,-9400.615463,153.219100
965.606251,222.061783,-7476.080014,-536.266849
965.606575,0.000000,-8586.388927,0.000000
965.606899,-74.020594,-9770.718434,-459.657299
965.607223,74.020594,-9400.615463,-612.876398
965.607547,-518.144159,-8734.430116,-689.485948
965.607871,-444.123565,-8882.471304,-842.705048
965.608195,148.041188,-9548.656652,-536.266849
965.608519,370.102971,-10288.862594,0.000000
965.608843,444.123565,-10658.965565,766.095498
965.609167,592.164754,-10362.883188,459.657299
965.609491,888.247130,-9400.615463,-689.485948
965.609815,740.205942,-8808.450710,-153.219100
965.610140,592.164754,-10288.862594,229.828649
965.610464,1110.308913,-11399.171507,306.438199
965.610788,1406.391290,-10732.986159,612.876398
965.611112,1332.370696,-9918.759623,689.485948
965.611436,1480.411884,-9622.677246,0.000000
965.611760,962.267725,-10214.842000,-459.657299
965.612084,518.144159,-10510.924376,-995.924147
965.612408,222.061783,-10288.862594,-229.828649
965.612732,814.226536,-9696.697840,76.609550
965.613056,1036.288319,-9992.780217,306.438199
965.613380,666.185348,-9178.553681,306.438199
965.613704,-444.123565,-9770.718434,459.657299
965.614028,-296.082377,-10881.027347,229.828649
965.614352,148.041188,-9770.718434,306.438199
965.614676,888.247130,-8734.430116,76.609550
965.615000,888.247130,-8216.285956,612.876398
965.615324,666.185348,-9030.512492,689.485948
965.615648,0.000000,-10584.944971,229.828649
965.615972,0.000000,-9548.656652,229.828649
965.616296,518.144159,-9252.574275,-153.219100
965.616620,370.102971,-9326.594869,-689.485948
965.616944,0.000000,-9770.718434,153.219100
965.617268,-1184.329507,-10658.965565,0.000000
965.617592,-1776.494261,-10288.862594,0.000000
965.617916,-1480.411884,-8956.491898,-612.876398
965.618240,-1110.308913,-8512.368333,-536.266849
965.618564,-1110.308913,-8438.347739,-459.657299
965.618888,-1258.350101,-9844.739029,76.609550
965.619212,-1184.329507,-10436.903782,612.876398
965.619536,-962.267725,-8882.471304,306.438199
965.619860,-296.082377,-8068.244768,842.705048
965.620184,-888.247130,-8512.368333,-383.047749
965.620508,-1184.329507,-9104.533087,383.047749
965.620832,-1554.432478,-10436.903782,0.000000
965.621156,-962.267725,-10510.924376,0.000000
965.621480,-370.102971,-9252.574275,-766.095498
965.621804,-888.247130,-8586.388927,-1149.143247
965.622128,-1924.535449,-8808.450710,-766.095498
965.622452,-1628.453072,-11399.171507,-536.266849
965.622776,-1480.411884,-11695.253884,-306.438199
965.623100,-740.205942,-10658.965565,153.219100
965.623424,-148.041188,-9400.615463,-306.438199
965.623748,0.000000,-9178.553681,-689.485948
965.624072,0.000000,-10436.903782,-536.266849
965.624396,-444.123565,-11473.192101,-919.314598
965.624720,-296.082377,-11473.192101,536.266849
965.625044,74.020594,-9622.677246,153.219100
965.625368,740.205942,-8882.471304,-383.047749
965.625692,444.123565,-9548.656652,-229.828649
965.626016,-148.041188,-11325.150913,-766.095498
965.626340,518.144159,-11251.130318,-689.485948
965.626665,1332.370696,-9844.739029,689.485948
965.626989,2442.679609,-9474.636058,766.095498
965.627313,2886.803174,-8734.430116,1762.019645
965.627637,1998.556043,-9992.780217,459.657299
965.627961,1110.308913,-10732.986159,612.876398
965.628285,1258.350101,-10732.986159,919.314598
965.628609,1924.535449,-10140.821405,536.266849
965.628933,1110.308913,-7994.224174,153.219100
965.629258,-740.205942,-7254.018232,0.000000
965.629582,-962.267725,-9622.677246,-306.438199
965.629906,296.082377,-10584.944971,0.000000
965.630230,1628.453072,-9844.739029,919.314598
965.630554,1554.432478,-7402.059420,1072.533697
965.630878,888.247130,-7402.059420,1838.629195
965.631202,74.020594,-8882.471304,1225.752797
965.631526,-444.123565,-9474.636058,306.438199
965.631851,-148.041188,-8660.409521,229.828649
965.632175,370.102971,-7402.059420,0.000000
965.632499,740.205942,-7328.038826,536.266849
965.632823,-222.061783,-9178.553681,1302.362347
965.633147,74.020594,-9474.636058,612.876398
965.633471,814.226536,-9326.594869,612.876398
965.633795,666.185348,-10066.800811,0.000000
965.634119,444.123565,-10436.903782,-689.485948
965.634443,74.020594,-9474.636058,229.828649
965.634768,0.000000,-9992.780217,383.047749
965.635092,-518.144159,-10436.903782,-766.095498
965.635416,-1406.391290,-10214.842000,-842.705048
965.635740,-1480.411884,-10214.842000,-306.438199
965.636064,-1554.432478,-10140.821405,-383.047749
965.636388,-2146.597232,-10214.842000,-842.705048
965.636712,-2368.659014,-9474.636058,-1072.533697
965.637036,-2146.597232,-9252.574275,-995.924147
965.637361,-444.123565,-10066.800811,-1149.143247
965.637685,0.000000,-9104.533087,-766.095498
965.638009,0.000000,-9178.553681,153.219100
965.638333,-296.082377,-10436.903782,-383.047749
965.638657,296.082377,-11399.171507,-459.657299
965.638981,666.185348,-10066.800811,-919.314598
965.639305,296.082377,-9770.718434,-1149.143247
965.639629,-962.267725,-10732.986159,-919.314598
965.639953,-1184.329507,-12287.418637,-766.095498
965.640278,-592.164754,-11621.233289,-1302.362347
965.640602,-1184.329507,-9548.656652,-995.924147
965.640926,-1776.494261,-9992.780217,-1378.971896
965.641250,-1258.350101,-10955.047942,-766.095498
965.641574,-444.123565,-11695.253884,-612.876398
965.641898,-740.205942,-11251.130318,0.000000
965.642222,-666.185348,-9548.656652,-383.047749
965.642546,222.061783,-8734.430116,-383.047749
965.642871,296.082377,-9992.780217,0.000000
965.643195,-740.205942,-10436.903782,0.000000
965.643519,-1332.370696,-9844.739029,-612.876398
965.643843,-1480.411884,-8882.471304,-306.438199
965.644167,0.000000,-8882.471304,0.000000
965.644491,2368.659014,-8882.471304,153.219100
965.644815,2664.741391,-8142.265362,1302.362347
965.645139,1036.288319,-8364.327145,1455.581446
965.645463,666.185348,-8660.409521,536.266849
965.645788,888.247130,-8512.368333,919.314598
965.646112,1110.308913,-8068.244768,995.924147
965.646436,814.226536,-8142.265362,1149.143247
965.646760,-888.247130,-9474.636058,1378.971896
965.647084,0.000000,-9696.697840,1532.190996
965.647408,962.267725,-8290.306550,1455.581446
965.647732,1628.453072,-8364.327145,995.924147
965.648056,2072.576638,-8142.265362,766.095498
965.648381,1924.535449,-8734.430116,1915.238745
965.648705,1406.391290,-10066.800811,2068.457845
965.649029,1332.370696,-10288.862594,1225.752797
965.649353,888.247130,-9178.553681,1225.752797
965.649677,814.226536,-8438.347739,229.828649
965.650001,740.205942,-9918.759623,689.485948
965.650325,666.185348,-11029.068536,459.657299
965.650649,74.020594,-10214.842000,229.828649
965.650974,0.000000,-9326.594869,459.657299
965.651298,-148.041188,-9474.636058,0.000000
965.651622,148.041188,-9548.656652,0.000000
965.651946,370.102971,-9696.697840,306.438199
965.652270,-666.185348,-10066.800811,0.000000
965.652594,-1036.288319,-9474.636058,-1378.971896
965.652918,-1406.391290,-8586.388927,-689.485948
965.653242,-296.082377,-9178.553681,-995.924147
965.653566,-370.102971,-9992.780217,-1378.971896
965.653891,-888.247130,-10362.883188,-842.705048
965.654215,-666.185348,-9770.718434,-766.095498
965.654539,74.020594,-10732.986159,-306.438199
965.654863,592.164754,-11917.315666,-766.095498
965.655187,-148.041188,-10510.924376,-536.266849
965.655511,-444.123565,-10584.944971,0.000000
965.655835,-740.205942,-11843.295072,-612.876398
965.656159,-740.205942,-11325.150913,-229.828649
965.656484,-814.226536,-10288.862594,459.657299
965.656808,-1480.411884,-9992.780217,-689.485948
965.657132,-2294.638420,-10584.944971,-766.095498
965.657456,-2960.823768,-10807.006753,-1149.143247
965.657780,-2368.659014,-10288.862594,-919.314598
965.658104,-1776.494261,-9474.636058,-842.705048
965.658428,-1554.432478,-9178.553681,-1838.629195
965.658752,-1628.453072,-9030.512492,-766.095498
965.659076,-962.267725,-9622.677246,0.000000
965.659401,0.000000,-10066.800811,-1072.533697
965.659725,222.061783,-8438.347739,-459.657299
965.660049,666.185348,-7550.100608,153.219100
965.660373,592.164754,-8956.491898,-306.438199
965.660697,518.144159,-10214.842000,153.219100
965.661021,666.185348,-9548.656652,153.219100
965.661345,962.267725,-8142.265362,1072.533697
965.661669,1332.370696,-9030.512492,1149.143247
965.661994,2294.638420,-9252.574275,229.828649
965.662318,1776.494261,-9104.533087,1302.362347
965.662642,444.123565,-9992.780217,995.924147
965.662966,0.000000,-10288.862594,229.828649
965.663290,-370.102971,-9474.636058,536.266849
965.663614,222.061783,-8734.430116,536.266849
965.663938,592.164754,-9252.574275,383.047749
965.664262,-444.123565,-11177.109724,536.266849
965.664586,-1110.308913,-10510.924376,76.609550
965.664911,-518.144159,-9474.636058,229.828649
965.665235,148.041188,-8956.491898,306.438199
965.665559,296.082377,-8808.450710,76.609550
965.665883,0.000000,-9326.594869,689.485948
965.666207,-222.061783,-10584.944971,1149.143247
965.666531,962.267725,-9992.780217,536.266849
965.666855,1776.494261,-7698.141797,766.095498
965.667179,2368.659014,-7994.224174,536.266849
965.667504,1776.494261,-9326.594869,536.266849
965.667828,1258.350101,-10881.027347,919.314598
965.668152,1702.473667,-9918.759623,766.095498
965.668476,1554.432478,-9474.636058,842.705048
965.668800,592.164754,-9474.636058,-153.219100
965.669124,1258.350101,-9178.553681,459.657299
965.669448,1184.329507,-10140.821405,689.485948
965.669772,740.205942,-11695.253884,229.828649
965.670096,222.061783,-10658.965565,0.000000
965.670421,296.082377,-9474.636058,0.000000
965.670745,148.041188,-9770.718434,-229.828649
965.671069,-1332.370696,-11325.150913,153.219100
965.671393,-2442.679609,-12065.356855,-229.828649
965.671717,-2294.638420,-11251.130318,-842.705048
965.672041,-1406.391290,-10436.903782,-842.705048
965.672365,-518.144159,-10214.842000,-766.095498
965.672689,-666.185348,-9178.553681,-383.047749
965.673014,-1332.370696,-10214.842000,76.609550
965.673338,-1776.494261,-10732.986159,-459.657299
965.673662,-1554.432478,-8956.491898,0.000000
965.673986,-1110.308913,-9104.533087,0.000000
965.674310,-1850.514855,-8216.285956,-306.438199
965.674634,-1628.453072,-8734.430116,-229.828649
965.674958,-1480.411884,-9474.636058,0.000000
965.675282,-1332.370696,-9400.615463,-536.266849
965.675607,-1184.329507,-9252.574275,-612.876398
965.675931,-1036.288319,-8216.285956,-229.828649
965.676255,-444.123565,-8364.327145,306.438199
965.676579,-592.164754,-9770.718434,0.000000
965.676903,-1110.308913,-9770.718434,-1149.143247
965.677227,0.000000,-8512.368333,76.609550
965.677551,1850.514855,-9326.594869,-306.438199
965.677875,1998.556043,-9992.780217,0.000000
965.678199,74.020594,-10584.944971,536.266849
965.678524,-1110.308913,-9918.759623,-842.705048
965.678848,-1554.432478,-9474.636058,-1149.143247
965.679172,-1184.329507,-9474.636058,-766.095498
965.679496,148.041188,-9918.759623,0.000000
965.679820,814.226536,-10288.862594,536.266849
965.680144,962.267725,-10881.027347,536.266849
965.680468,740.205942,-9474.636058,153.219100
965.680792,666.185348,-8512.368333,-153.219100
965.681117,888.247130,-9252.574275,-153.219100
965.681441,666.185348,-9844.739029,612.876398
965.681765,740.205942,-10214.842000,229.828649
965.682089,1628.453072,-9474.636058,459.657299
965.682413,1184.329507,-9104.533087,536.266849
965.682737,2146.597232,-9178.553681,229.828649
965.683061,3330.926739,-9104.533087,229.828649
965.683385,2664.741391,-10214.842000,1072.533697
965.683709,2072.576638,-11029.068536,153.219100
965.684034,1702.473667,-9474.636058,229.828649
965.684358,1258.350101,-9252.574275,1072.533697
965.684682,1184.329507,-10288.862594,0.000000
965.685006,518.144159,-10584.944971,-229.828649
965.685330,148.041188,-10732.986159,306.438199
965.685654,148.041188,-10362.883188,0.000000
965.685978,814.226536,-10066.800811,-229.828649
965.686302,518.144159,-9326.594869,0.000000
965.686627,-518.144159,-9474.636058,306.438199
965.686951,-1110.308913,-10658.965565,-383.047749
965.687275,-1776.494261,-11103.089130,0.000000
965.687599,-1480.411884,-9622.677246,0.000000
965.687923,-666.185348,-9326.594869,0.000000
965.688247,0.000000,-9696.697840,-229.828649
965.688571,-518.144159,-9918.759623,0.000000
965.688895,-518.144159,-9622.677246,153.219100
965.689219,-814.226536,-9474.636058,0.000000
965.689544,-1036.288319,-9326.594869,-766.095498
965.689868,-1110.308913,-8364.327145,-536.266849
965.690192,-1480.411884,-8068.244768,-229.828649
965.690516,-2812.782580,-9104.533087,-689.485948
965.690840,-2664.741391,-9252.574275,-842.705048
965.691164,-1554.432478,-8586.388927,0.000000
965.691488,-740.205942,-8216.285956,0.000000
965.691812,-1184.329507,-8068.244768,-306.438199
965.692137,-1184.329507,-8216.285956,-459.657299
965.692461,-740.205942,-9992.780217,-229.828649
965.692785,0.000000,-9696.697840,-1072.533697
965.693109,-518.144159,-9104.533087,-1072.533697
965.693433,-518.144159,-8956.491898,-459.657299
965.693757,222.061783,-9696.697840,-306.438199
965.694081,592.164754,-11843.295072,-995.924147
965.694405,74.020594,-11399.171507,-306.438199
965.694730,-962.267725,-9844.739029,153.219100
965.695054,-740.205942,-11029.068536,-689.485948
965.695378,-814.226536,-11843.295072,-536.266849
965.695702,-814.226536,-11917.315666,536.266849
965.696026,-592.164754,-11325.150913,-229.828649
965.696350,-370.102971,-10584.944971,-1149.143247
965.696674,-222.061783,-9844.739029,0.000000
965.696998,518.144159,-10066.800811,-995.924147
965.697322,666.185348,-10214.842000,306.438199
965.697647,0.000000,-10881.027347,-229.828649
965.697971,-370.102971,-9400.615463,0.000000
965.698295,74.020594,-8808.450710,229.828649
965.698619,1110.308913,-9178.553681,229.828649
965.698943,1110.308913,-9474.636058,1149.143247
965.699267,888.247130,-9474.636058,1762.019645
965.699591,1184.329507,-8808.450710,1838.629195
965.699915,1184.329507,-8882.471304,2145.067394
965.700240,1776.494261,-8586.388927,1608.800546
965.700564,2294.638420,-7846.182985,1532.190996
965.700888,1332.370696,-8808.450710,1838.629195
965.701212,444.123565,-9992.780217,1225.752797
965.701536,666.185348,-8364.327145,1608.800546
965.701860,444.123565,-7402.059420,1532.190996
965.702184,-296.082377,-7698.141797,76.609550
965.702508,-888.247130,-9178.553681,229.828649
965.702832,-444.123565,-10140.821405,76.609550
965.703157,0.000000,-9030.512492,306.438199
965.703481,296.082377,-8734.430116,1149.143247
965.703805,370.102971,-8068.244768,76.609550
965.704129,222.061783,-8512.368333,995.924147
965.704453,296.082377,-9548.656652,1072.533697
965.704777,0.000000,-10066.800811,1149.143247
965.705101,296.082377,-9844.739029,766.095498
965.705425,740.205942,-9400.615463,919.314598
965.705750,666.185348,-9030.512492,612.876398
965.706074,-148.041188,-9696.697840,153.219100
965.706398,-1332.370696,-9770.718434,-229.828649
965.706722,-1628.453072,-9918.759623,-383.047749
965.707046,-1110.308913,-10066.800811,-842.705048
965.707370,-888.247130,-9178.553681,-1608.800546
965.707694,-1702.473667,-8512.368333,-1608.800546
965.708018,-2812.782580,-10214.842000,-1915.238745
965.708342,-2368.659014,-11621.233289,-2145.067394
965.708667,-1480.411884,-10955.047942,-1225.752797
965.708991,-1036.288319,-9696.697840,-1378.971896
965.709315,-444.123565,-10436.903782,-1225.752797
965.709639,-1258.350101,-11769.274478,-689.485948
965.709963,-1184.329507,-12435.459826,-842.705048
965.710287,-370.102971,-11695.253884,-459.657299
965.710611,0.000000,-11325.150913,-1225.752797
965.710935,370.102971,-10436.903782,-1225.752797
965.711260,-444.123565,-10732.986159,-689.485948
965.711584,-1406.391290,-11251.130318,-1532.190996
965.711908,-888.247130,-9992.780217,-2834.553343
965.712232,-296.082377,-9178.553681,-2451.505594
965.712556,0.000000,-9474.636058,-2528.115143
965.712880,0.000000,-9030.512492,-2451.505594
965.713204,-592.164754,-8956.491898,-1838.629195
965.713528,-888.247130,-9474.636058,-842.705048
965.713852,74.020594,-9178.553681,-306.438199
965.714177,1184.329507,-9474.636058,-536.266849
965.714501,2442.679609,-8438.347739,919.314598
965.714825,2886.803174,-8660.409521,2068.457845
965.715149,3404.947333,-10436.903782,1838.629195
965.715473,2590.720797,-10140.821405,1915.238745
965.715797,2442.679609,-8734.430116,1762.019645
965.716121,1998.556043,-7846.182985,842.705048
965.716445,814.226536,-8512.368333,536.266849
965.716770,592.164754,-9918.759623,536.266849
965.717094,740.205942,-9622.677246,1072.533697
965.717418,1998.556043,-9326.594869,689.485948
965.717742,1480.411884,-8956.491898,459.657299
965.718066,888.247130,-8142.265362,1149.143247
965.718390,666.185348,-8956.491898,1762.019645
965.718714,1110.308913,-10362.883188,1685.410096
965.719038,518.144159,-9548.656652,1072.533697
965.719363,-370.102971,-8808.450710,1455.581446
965.719687,-814.226536,-8438.347739,1072.533697
965.720011,-1184.329507,-9178.553681,1302.362347
965.720335,-1332.370696,-10510.924376,1072.533697
965.720659,-1554.432478,-9474.636058,383.047749
965.720983,-1554.432478,-8512.368333,153.219100
965.721307,-814.226536,-8956.491898,536.266849
965.721631,0.000000,-9622.677246,229.828649
965.721955,-296.082377,-9770.718434,383.047749
965.722280,-1554.432478,-9548.656652,0.000000
965.722604,-1998.556043,-9844.739029,-459.657299
965.722928,-814.226536,-9770.718434,-766.095498
965.723252,222.061783,-9622.677246,-459.657299
965.723576,0.000000,-10288.862594,459.657299
965.723900,-444.123565,-10732.986159,0.000000
965.724224,-148.041188,-9696.697840,383.047749
965.724548,-518.144159,-9696.697840,0.000000
965.724873,-1184.329507,-9326.594869,0.000000
965.725194,-1184.329507,-8956.491898,-766.095498
965.725518,-1924.535449,-9474.636058,-919.314598
965.725842,-2368.659014,-9400.615463,-766.095498
965.726166,-1850.514855,-9474.636058,-1225.752797
965.726491,-814.226536,-9622.677246,-2221.676944
965.726815,-148.041188,-9992.780217,-766.095498
965.727139,0.000000,-10584.944971,-229.828649
965.727463,222.061783,-10732.986159,-536.266849
965.727787,444.123565,-10658.965565,0.000000
965.728111,1480.411884,-10140.821405,0.000000
965.728436,2368.659014,-9992.780217,-306.438199
965.728760,2590.720797,-10732.986159,-153.219100
965.729084,1258.350101,-11103.089130,-1532.190996
965.729408,148.041188,-10658.965565,-1762.019645
965.729732,-740.205942,-10362.883188,-2451.505594
965.730056,-1776.494261,-10362.883188,-3064.381992
965.730381,-2960.823768,-10288.862594,-1991.848295
965.730705,-2812.782580,-11029.068536,-2068.457845
965.731029,-888.247130,-11399.171507,-842.705048
965.731353,0.000000,-10066.800811,0.000000
965.731677,814.226536,-9252.574275,0.000000
965.732001,1554.432478,-9622.677246,383.047749
965.732325,1924.535449,-10584.944971,919.314598
965.732650,1258.350101,-10436.903782,1302.362347
965.732974,1554.432478,-9178.553681,689.485948
965.733298,1184.329507,-8364.327145,842.705048
965.733622,814.226536,-8882.471304,-383.047749
965.733946,-962.267725,-8290.306550,-842.705048
965.734270,-1702.473667,-8290.306550,-766.095498
965.734595,-1702.473667,-8142.265362,-995.924147
965.734919,-1184.329507,-8068.244768,-306.438199
965.735243,0.000000,-7624.121203,919.314598
965.735567,1036.288319,-7328.038826,536.266849
965.735891,1554.432478,-8364.327145,1532.190996
965.736215,740.205942,-9178.553681,689.485948
965.736540,888.247130,-9104.533087,1838.629195
965.736864,1258.350101,-9030.512492,2145.067394
965.737188,1776.494261,-8660.409521,1608.800546
965.737512,1184.329507,-9326.594869,1532.190996
965.737836,962.267725,-9696.697840,1455.581446
965.738160,1702.473667,-9992.780217,1378.971896
965.738484,1628.453072,-9326.594869,536.266849
965.738809,296.082377,-8808.450710,0.000000
965.739133,-444.123565,-9104.533087,-842.705048
965.739457,-444.123565,-10955.047942,0.000000
965.739781,-444.123565,-11325.150913,-306.438199
965.740105,0.000000,-9622.677246,-306.438199
965.740429,-888.247130,-8734.430116,-459.657299
965.740754,-1628.453072,-10362.883188,-842.705048
965.741078,-1480.411884,-11695.253884,-153.219100
965.741402,-444.123565,-11547.212695,0.000000
965.741726,370.102971,-11029.068536,229.828649
965.742050,518.144159,-11029.068536,306.438199
965.742374,1110.308913,-11325.150913,1072.533697
965.742699,2220.617826,-11399.171507,1378.971896
965.743023,1776.494261,-11843.295072,76.609550
965.743347,444.123565,-10214.842000,-919.314598
965.743671,-888.247130,-9918.759623,-1302.362347
965.743995,-1110.308913,-10362.883188,-1532.190996
965.744319,-1776.494261,-10362.883188,-919.314598
965.744644,-2590.720797,-10214.842000,-1532.190996
965.744968,-3478.967927,-9252.574275,-2221.676944
965.745292,-3034.844362,-9326.594869,-2451.505594
965.745616,-2294.638420,-9400.615463,-1762.019645
965.745940,-1184.329507,-9400.615463,-383.047749
965.746264,-666.185348,-9992.780217,0.000000
965.746588,-962.267725,-9844.739029,-536.266849
965.746913,-296.082377,-8882.471304,-459.657299
965.747237,222.061783,-8734.430116,-459.657299
965.747561,888.247130,-9252.574275,-536.266849
965.747885,444.123565,-9992.780217,-459.657299
965.748209,0.000000,-9178.553681,-1685.410096
965.748533,-814.226536,-8586.388927,-1608.800546
965.748858,-148.041188,-8956.491898,-1302.362347
965.749182,1480.411884,-9474.636058,-1149.143247
965.749506,1776.494261,-9178.553681,0.000000
965.749830,888.247130,-9474.636058,-306.438199
965.750154,148.041188,-9326.594869,536.266849
965.750478,444.123565,-8808.450710,229.828649
965.750803,1184.329507,-9326.594869,919.314598
965.751127,1554.432478,-9622.677246,1532.190996
965.751451,1554.432478,-9770.718434,919.314598
965.751775,296.082377,-10214.842000,1225.752797
965.752099,296.082377,-9400.615463,1149.143247
965.752423,888.247130,-8956.491898,1149.143247
965.752748,1184.329507,-10436.903782,2374.896044
965.753072,1480.411884,-9770.718434,536.266849
965.753396,592.164754,-9770.718434,383.047749
965.753720,0.000000,-10288.862594,612.876398
965.754044,1184.329507,-9474.636058,76.609550
965.754368,1184.329507,-9918.759623,612.876398
965.754692,444.123565,-9474.636058,153.219100
965.755017,0.000000,-9474.636058,-229.828649
965.755341,-592.164754,-9474.636058,0.000000
965.755665,0.000000,-8586.388927,-153.219100
965.755989,-222.061783,-8660.409521,536.266849
965.756313,444.123565,-9252.574275,153.219100
965.756637,0.000000,-9030.512492,0.000000
965.756962,-370.102971,-10288.862594,919.314598
965.757286,0.000000,-10362.883188,842.705048
965.757610,370.102971,-9918.759623,383.047749
965.757934,-148.041188,-9918.759623,0.000000
965.758258,0.000000,-9252.574275,-229.828649
965.758582,-592.164754,-10510.924376,-459.657299
965.758907,-1776.494261,-10807.006753,-766.095498
965.759231,-1776.494261,-9844.739029,-995.924147
965.759555,-1554.432478,-9844.739029,-1072.533697
965.759879,-1036.288319,-9474.636058,-995.924147
965.760203,-1258.350101,-9770.718434,-1149.143247
965.760527,-1184.329507,-10288.862594,-1149.143247
965.760851,-2072.576638,-9548.656652,-1302.362347
965.761176,-1184.329507,-10140.821405,-766.095498
965.761500,-370.102971,-10362.883188,-612.876398
965.761824,296.082377,-9326.594869,153.219100
965.762148,296.082377,-9622.677246,-383.047749
965.762472,0.000000,-9400.615463,-459.657299
965.762796,0.000000,-9548.656652,-383.047749
965.763121,296.082377,-10066.800811,-1608.800546
965.763445,1110.308913,-9400.615463,-766.095498
965.763769,962.267725,-9400.615463,-1225.752797
965.764093,666.185348,-10436.903782,-689.485948
965.764417,592.164754,-10436.903782,-1072.533697
965.764741,222.061783,-10214.842000,-2145.067394
965.765066,-444.123565,-9326.594869,-1762.019645
965.765390,-888.247130,-9104.533087,-2221.676944
965.765714,-1258.350101,-9474.636058,-1991.848295
965.766038,-1332.370696,-10214.842000,-1072.533697
965.766362,-1184.329507,-10140.821405,-612.876398
965.766686,-666.185348,-9992.780217,-1072.533697
965.767011,-370.102971,-9400.615463,-842.705048
965.767335,-444.123565,-10436.903782,-536.266849
965.767659,0.000000,-10510.924376,383.047749
965.767983,0.000000,-9918.759623,0.000000
965.768307,0.000000,-10288.862594,459.657299
965.768631,148.041188,-9844.739029,0.000000
965.768955,222.061783,-9326.594869,0.000000
965.769280,-148.041188,-9548.656652,-306.438199
965.769604,-296.082377,-8956.491898,-153.219100
965.769928,444.123565,-8882.471304,229.828649
965.770252,1184.329507,-9474.636058,536.266849
965.770576,592.164754,-9252.574275,1225.752797
965.770900,444.123565,-9326.594869,919.314598
965.771225,370.102971,-8660.409521,689.485948
965.771549,740.205942,-8512.368333,842.705048
965.771873,1258.350101,-9030.512492,1378.971896
965.772197,1480.411884,-9178.553681,1838.629195
965.772521,888.247130,-9178.553681,1455.581446
965.772845,666.185348,-9104.533087,1685.410096
965.773170,1332.370696,-8512.368333,1685.410096
965.773494,962.267725,-9400.615463,1225.752797
965.773818,148.041188,-9622.677246,76.609550
965.774142,-814.226536,-9252.574275,306.438199
965.774466,-518.144159,-9992.780217,306.438199
965.774790,0.000000,-9918.759623,612.876398
965.775115,0.000000,-10510.924376,689.485948
965.775439,740.205942,-9918.759623,1378.971896
965.775763,888.247130,-9918.759623,76.609550
965.776087,-370.102971,-10955.047942,383.047749
965.776411,-1332.370696,-10436.903782,-459.657299
965.776735,-1036.288319,-10066.800811,0.000000
965.777059,-592.164754,-10288.862594,-153.219100
965.777384,-148.041188,-9548.656652,-459.657299
965.777708,-592.164754,-9992.780217,-766.095498
965.778032,-1702.473667,-10510.924376,-766.095498
965.778356,-1850.514855,-9844.739029,-689.485948
965.778680,-888.247130,-9992.780217,-612.876398
965.779004,-518.144159,-9400.615463,-995.924147
965.779329,-1036.288319,-9178.553681,-919.314598
965.779653,-2294.638420,-9622.677246,-1302.362347
965.779977,-666.185348,-9400.615463,-1072.533697
965.780301,-444.123565,-9622.677246,-1072.533697
965.780625,740.205942,-10732.986159,-766.095498
965.780949,740.205942,-9992.780217,-1378.971896
965.781274,0.000000,-9178.553681,-1608.800546
965.781598,-962.267725,-9548.656652,-1915.238745
965.781922,-1554.432478,-10288.862594,-1915.238745
965.782246,-1258.350101,-9622.677246,-2681.334243
965.782570,-592.164754,-8956.491898,-1149.143247
965.782894,-1036.288319,-9844.739029,-1378.971896
965.783218,-2146.597232,-10584.944971,-1455.581446
965.783543,-2146.597232,-10362.883188,-612.876398
965.783867,-296.082377,-10436.903782,-536.266849
965.784191,1480.411884,-10584.944971,0.000000
965.784515,2294.638420,-11029.068536,995.924147
965.784839,2072.576638,-10955.047942,1302.362347
965.785163,1998.556043,-10362.883188,919.314598
965.785488,2072.576638,-9696.697840,1685.410096
965.785812,2590.720797,-9992.780217,229.828649
965.786136,1924.535449,-10140.821405,229.828649
965.786460,148.041188,-9770.718434,76.609550
965.786784,-222.061783,-9474.636058,0.000000
965.787108,0.000000,-9770.718434,459.657299
965.787433,74.020594,-9326.594869,612.876398
965.787757,-444.123565,-8660.409521,-153.219100
965.788081,-666.185348,-9030.512492,689.485948
965.788405,-1110.308913,-10140.821405,1532.190996
965.788729,0.000000,-9844.739029,1302.362347
965.789053,0.000000,-8956.491898,1991.848295
965.789378,592.164754,-8586.388927,2911.162892
965.789702,1480.411884,-7994.224174,1915.238745
965.790026,296.082377,-9474.636058,1991.848295
965.790350,-518.144159,-9104.533087,1378.971896
965.790674,-370.102971,-8586.388927,1149.143247
965.790998,0.000000,-8586.388927,766.095498
965.791322,-222.061783,-8068.244768,306.438199
965.791647,-666.185348,-8142.265362,-459.657299
965.791971,-1480.411884,-9030.512492,-842.705048
965.792295,-1554.432478,-8142.265362,-689.485948
965.792619,-1110.308913,-7994.224174,0.000000
965.792943,444.123565,-8438.347739,0.000000
965.793267,1480.411884,-8438.347739,612.876398
965.793592,1036.288319,-9326.594869,383.047749
965.793916,444.123565,-9326.594869,689.485948
965.794240,740.205942,-9326.594869,0.000000
965.794564,1110.308913,-9622.677246,-306.438199
965.794888,666.185348,-9326.594869,842.705048
965.795212,370.102971,-10066.800811,-536.266849
965.795537,-592.164754,-10658.965565,-1762.019645
965.795861,-1628.453072,-10510.924376,-2068.457845
965.796185,-1776.494261,-11103.089130,-1915.238745
965.796509,-888.247130,-11695.253884,-2298.286494
965.796833,-962.267725,-11991.336260,-2068.457845
965.797157,-1036.288319,-10955.047942,-1532.190996
965.797482,-148.041188,-10881.027347,-1915.238745
965.797806,1110.308913,-11843.295072,-2145.067394
965.798130,1184.329507,-11917.315666,-1991.848295
965.798454,666.185348,-10955.047942,-1378.971896
965.798778,0.000000,-11769.274478,-1225.752797
965.799102,74.020594,-12139.377449,-2068.457845
965.799426,0.000000,-10658.965565,-1532.190996
965.799751,148.041188,-10732.986159,-1608.800546
965.800075,222.061783,-10288.862594,-1378.971896
965.800399,-740.205942,-11103.089130,-1685.410096
965.800723,-888.247130,-11251.130318,-612.876398
965.801047,148.041188,-9770.718434,-995.924147
965.801371,814.226536,-8216.285956,-1455.581446
965.801696,592.164754,-7994.224174,-919.314598
965.802020,1036.288319,-8808.450710,-612.876398
965.802344,148.041188,-9548.656652,76.609550
965.802668,222.061783,-9252.574275,383.047749
965.802992,444.123565,-7920.203579,995.924147
965.803316,296.082377,-7105.977043,229.828649
965.803641,-888.247130,-8068.244768,0.000000
965.803965,-1702.473667,-9326.594869,383.047749
965.804289,-1332.370696,-8956.491898,1378.971896
965.804613,-814.226536,-8142.265362,1838.629195
965.804937,-814.226536,-7846.182985,1685.410096
965.805261,-444.123565,-7698.141797,995.924147
965.805585,-444.123565,-7254.018232,919.314598
965.805910,-222.061783,-8882.471304,919.314598
965.806234,444.123565,-9548.656652,1608.800546
965.806558,1332.370696,-8512.368333,1915.238745
965.806882,2368.659014,-7550.100608,1608.800546
965.807206,1628.453072,-7550.100608,536.266849
965.807530,222.061783,-8216.285956,-919.314598
965.807855,-740.205942,-8734.430116,-1532.190996
965.808179,-666.185348,-9400.615463,-689.485948
965.808503,148.041188,-10362.883188,459.657299
965.808827,1998.556043,-9252.574275,689.485948
965.809151,1258.350101,-8586.388927,536.266849
965.809475,-518.144159,-9918.759623,-612.876398
965.809800,-518.144159,-11843.295072,-842.705048
965.810124,444.123565,-12361.439231,0.000000
965.810448,1554.432478,-11251.130318,383.047749
965.810772,1628.453072,-10732.986159,306.438199
965.811096,370.102971,-12435.459826,-612.876398
965.811420,444.123565,-12953.603985,-306.438199
965.811745,814.226536,-13323.706956,76.609550
965.812069,888.247130,-12805.562797,76.609550
965.812393,0.000000,-11473.192101,-612.876398
965.812717,-1554.432478,-11325.150913,-536.266849
965.813041,-1628.453072,-11325.150913,-1225.752797
965.813365,-814.226536,-11695.253884,-1685.410096
965.813689,-1036.288319,-11251.130318,-1991.848295
965.814014,-1184.329507,-9918.759623,-842.705048
965.814338,-1554.432478,-10140.821405,-229.828649
965.814662,-370.102971,-9918.759623,536.266849
965.814986,74.020594,-9178.553681,229.828649
965.815310,-666.185348,-8808.450710,0.000000
965.815634,-296.082377,-8660.409521,-612.876398
965.815959,148.041188,-8068.244768,76.609550
965.816283,0.000000,-8142.265362,536.266849
965.816607,148.041188,-7624.121203,1302.362347
965.816931,-962.267725,-7328.038826,0.000000
965.817255,-888.247130,-6809.894666,-1302.362347
965.817579,-1850.514855,-7846.182985,-1072.533697
965.817904,-1554.432478,-9030.512492,-689.485948
965.818228,-592.164754,-8882.471304,0.000000
965.818552,-666.185348,-8290.306550,689.485948
965.818876,74.020594,-7624.121203,689.485948
965.819200,518.144159,-7550.100608,153.219100
965.819524,148.041188,-8956.491898,153.219100
965.819849,-592.164754,-9844.739029,383.047749
965.820173,-888.247130,-9178.553681,1225.752797
965.820497,-444.123565,-9030.512492,1608.800546
965.820821,-888.247130,-9104.533087,536.266849
965.821145,-2294.638420,-8438.347739,-306.438199
965.821469,-2812.782580,-8660.409521,-1532.190996
965.821793,-2368.659014,-10066.800811,-459.657299
965.822118,-814.226536,-10658.965565,-612.876398
965.822442,888.247130,-9474.636058,153.219100
965.822766,2294.638420,-8290.306550,766.095498
965.823090,2960.823768,-9474.636058,689.485948
965.823414,3034.844362,-11843.295072,612.876398
965.823738,2664.741391,-11917.315666,612.876398
965.824063,2960.823768,-10732.986159,1378.971896
965.824387,3923.091493,-10362.883188,766.095498
965.824711,3108.864956,-10732.986159,0.000000
965.825035,1258.350101,-11621.233289,-153.219100
965.825359,-148.041188,-11843.295072,-1378.971896
965.825683,-1036.288319,-11177.109724,-1915.238745
965.826008,-814.226536,-9844.739029,-1685.410096
965.826332,-518.144159,-9104.533087,-1762.019645
965.826656,-1110.308913,-9474.636058,-1838.629195
965.826980,-1628.453072,-10584.944971,-1991.848295
965.827304,-814.226536,-10288.862594,-1302.362347
965.827629,0.000000,-10807.006753,-842.705048
965.827953,222.061783,-11325.150913,153.219100
965.828277,0.000000,-9918.759623,153.219100
965.828601,-296.082377,-10140.821405,153.219100
965.828925,-148.041188,-9770.718434,-459.657299
965.829250,0.000000,-9622.677246,-766.095498
965.829574,-148.041188,-9844.739029,-1532.190996
965.829898,0.000000,-8512.368333,-919.314598
965.830222,0.000000,-9178.553681,-612.876398
965.830546,-518.144159,-9622.677246,-842.705048
965.830870,-1110.308913,-8882.471304,-919.314598
965.831195,-1480.411884,-9104.533087,-842.705048
965.831519,-1480.411884,-8882.471304,-612.876398
965.831843,-962.267725,-9918.759623,-459.657299
965.832167,-888.247130,-9622.677246,-383.047749
965.832491,-740.205942,-8882.471304,153.219100
965.832816,-814.226536,-9400.615463,-459.657299
965.833140,-888.247130,-9252.574275,-383.047749
965.833464,-222.061783,-8290.306550,-229.828649
965.833788,-1258.350101,-9326.594869,-229.828649
965.834112,-1184.329507,-9770.718434,0.000000
965.834437,-148.041188,-8808.450710,76.609550
965.834761,74.020594,-8734.430116,-306.438199
965.835085,-148.041188,-9178.553681,-689.485948
965.835409,-1406.391290,-10288.862594,-1378.971896
965.835733,-1258.350101,-9474.636058,-1072.533697
965.836058,-518.144159,-9104.533087,-612.876398
965.836382,444.123565,-10066.800811,-229.828649
965.836706,1332.370696,-10066.800811,-536.266849
965.837030,1850.514855,-9844.739029,536.266849
965.837354,2072.576638,-10066.800811,229.828649
965.837678,2220.617826,-10214.842000,766.095498
965.838003,2664.741391,-10140.821405,1455.581446
965.838327,2368.659014,-9400.615463,1072.533697
965.838651,1184.329507,-9770.718434,1378.971896
965.838975,0.000000,-10362.883188,153.219100
965.839299,-814.226536,-9770.718434,-153.219100
965.839624,-1184.329507,-9548.656652,612.876398
965.839948,-666.185348,-9992.780217,-383.047749
965.840272,-370.102971,-8956.491898,383.047749
965.840596,0.000000,-8956.491898,1149.143247
965.840920,518.144159,-9992.780217,306.438199
965.841245,814.226536,-9400.615463,229.828649
965.841569,814.226536,-8956.491898,229.828649
965.841893,888.247130,-9178.553681,689.485948
965.842217,592.164754,-10288.862594,995.924147
965.842541,0.000000,-10807.006753,1225.752797
965.842866,666.185348,-9474.636058,1072.533697
965.843190,1110.308913,-9030.512492,919.314598
965.843514,592.164754,-9622.677246,-153.219100
965.843838,148.041188,-9252.574275,153.219100
965.844162,-518.144159,-9178.553681,383.047749
965.844487,-1184.329507,-9844.739029,-76.609550
965.844811,-666.185348,-9400.615463,306.438199
965.845135,-148.041188,-9030.512492,383.047749
965.845459,0.000000,-8882.471304,0.000000
965.845783,-740.205942,-9474.636058,383.047749
965.846107,-1184.329507,-10510.924376,0.000000
965.846432,-1184.329507,-9918.759623,383.047749
965.846756,-740.205942,-10362.883188,536.266849
965.847080,-444.123565,-9844.739029,-229.828649
965.847404,-222.061783,-9326.594869,-229.828649
965.847728,-1332.370696,-10584.944971,-383.047749
965.848053,-1258.350101,-11399.171507,153.219100
965.848377,296.082377,-10584.944971,76.609550
965.848701,888.247130,-9622.677246,-383.047749
965.849025,592.164754,-8734.430116,-612.876398
965.849349,-740.205942,-9992.780217,-689.485948
965.849674,-1628.453072,-10807.006753,-1302.362347
965.849998,-1110.308913,-9548.656652,-995.924147
965.850322,-814.226536,-9474.636058,-995.924147
965.850646,-518.144159,-9252.574275,-919.314598
965.850970,-148.041188,-9030.512492,-919.314598
965.851295,148.041188,-9918.759623,-459.657299
965.851619,148.041188,-10214.842000,0.000000
965.851943,370.102971,-10140.821405,76.609550
965.852267,888.247130,-9326.594869,-536.266849
965.852591,74.020594,-9622.677246,-153.219100
965.852915,222.061783,-10214.842000,-1072.533697
965.853240,222.061783,-10066.800811,-1225.752797
965.853564,-592.164754,-9474.636058,-1225.752797
965.853888,-666.185348,-9992.780217,-919.314598
965.854212,0.000000,-9474.636058,-766.095498
965.854536,222.061783,-9474.636058,-995.924147
965.854861,74.020594,-9770.718434,-766.095498
965.855185,370.102971,-9918.759623,-229.828649
965.855509,888.247130,-9992.780217,76.609550
965.855833,814.226536,-9918.759623,-229.828649
965.856157,0.000000,-9548.656652,459.657299
965.856482,-148.041188,-9474.636058,612.876398
965.856806,1184.329507,-10140.821405,306.438199
965.857130,1332.370696,-9400.615463,306.438199
965.857454,1406.391290,-8956.491898,766.095498
965.857778,1258.350101,-8364.327145,536.266849
965.858103,370.102971,-9548.656652,383.047749
965.858427,-296.082377,-9696.697840,306.438199
965.858751,888.247130,-8660.409521,766.095498
965.859075,1480.411884,-8068.244768,536.266849
965.859399,1110.308913,-8512.368333,0.000000
965.859723,0.000000,-9104.533087,306.438199
965.860048,0.000000,-9770.718434,459.657299
965.860372,0.000000,-8882.471304,0.000000
965.860696,0.000000,-9326.594869,229.828649
965.861020,74.020594,-9474.636058,0.000000
965.861344,518.144159,-9030.512492,229.828649
965.861669,-592.164754,-9474.636058,76.609550
965.861993,-1480.411884,-9326.594869,-689.485948
965.862317,-1258.350101,-9178.553681,-919.314598
965.862641,-592.164754,-9548.656652,-689.485948
965.862965,-814.226536,-10140.821405,0.000000
965.863290,-370.102971,-10732.986159,-229.828649
965.863614,0.000000,-10140.821405,-229.828649
965.863938,148.041188,-9770.718434,76.609550
965.864262,370.102971,-10510.924376,-459.657299
965.864586,592.164754,-11029.068536,-689.485948
965.864911,0.000000,-11029.068536,0.000000
965.865235,-1036.288319,-11991.336260,76.609550
965.865559,-1776.494261,-11621.233289,-459.657299
965.865883,-1480.411884,-10140.821405,-766.095498
965.866207,-1258.350101,-10362.883188,-766.095498
965.866532,-1184.329507,-10140.821405,-383.047749
965.866856,-1850.514855,-10881.027347,-383.047749
965.867180,-1406.391290,-10066.800811,-536.266849
965.867504,-814.226536,-9104.533087,76.609550
965.867828,0.000000,-9474.636058,-229.828649
965.868152,296.082377,-9252.574275,-766.095498
965.868477,0.000000,-8660.409521,-153.219100
965.868801,-888.247130,-9474.636058,-919.314598
965.869125,0.000000,-9992.780217,-842.705048
965.869449,1036.288319,-9326.594869,-383.047749
965.869773,962.267725,-8956.491898,459.657299
965.870098,1036.288319,-9104.533087,689.485948
965.870422,592.164754,-9474.636058,0.000000
965.870746,148.041188,-9474.636058,612.876398
965.871070,740.205942,-9474.636058,1378.971896
965.871394,2146.597232,-9548.656652,995.924147
965.871719,1036.288319,-8216.285956,995.924147
965.872043,-666.185348,-7772.162391,919.314598
965.872367,-1332.370696,-9252.574275,459.657299
965.872691,-1036.288319,-9992.780217,612.876398
965.873015,-444.123565,-9548.656652,1072.533697
965.873340,74.020594,-8068.244768,919.314598
965.873664,74.020594,-8142.265362,1072.533697
965.873988,-296.082377,-9326.594869,383.047749
965.874312,444.123565,-9474.636058,1149.143247
965.874636,1702.473667,-9326.594869,1302.362347
965.874960,1924.535449,-9696.697840,1072.533697
965.875285,1554.432478,-8882.471304,766.095498
965.875609,1332.370696,-8956.491898,1149.143247
965.875933,1332.370696,-9474.636058,536.266849
965.876257,444.123565,-9104.533087,689.485948
965.876581,-148.041188,-9474.636058,-306.438199
965.876906,-666.185348,-9178.553681,0.000000
965.877230,-296.082377,-9326.594869,459.657299
965.877554,518.144159,-9548.656652,0.000000
965.877878,1036.288319,-9252.574275,1072.533697
965.878202,962.267725,-9400.615463,0.000000
965.878527,444.123565,-9918.759623,-459.657299
965.878851,-740.205942,-9770.718434,-306.438199
965.879175,-666.185348,-10140.821405,-1302.362347
965.879499,-1184.329507,-9918.759623,-1378.971896
965.879823,-814.226536,-9622.677246,-1225.752797
965.880148,74.020594,-10436.903782,-919.314598
965.880472,814.226536,-10881.027347,-536.266849
965.880796,-148.041188,-10881.027347,-842.705048
965.881120,-740.205942,-11029.068536,-306.438199
965.881444,-1036.288319,-10584.944971,-1225.752797
965.881768,-592.164754,-10510.924376,-1225.752797
965.882093,-444.123565,-10658.965565,-612.876398
965.882417,-888.247130,-11103.089130,-689.485948
965.882741,-1110.308913,-10584.944971,-919.314598
965.883065,-1480.411884,-10066.800811,-459.657299
965.883389,-1480.411884,-10288.862594,-229.828649
965.883714,-1258.350101,-9844.739029,-1225.752797
965.884038,-1258.350101,-9252.574275,-1225.752797
965.884362,-1850.514855,-9844.739029,-919.314598
965.884686,-1406.391290,-10362.883188,-766.095498
965.885010,74.020594,-9770.718434,0.000000
965.885335,962.267725,-9474.636058,689.485948
965.885659,222.061783,-8808.450710,0.000000
965.885983,-518.144159,-9030.512492,-383.047749
965.886307,-592.164754,-9770.718434,-689.485948
965.886631,-592.164754,-9548.656652,0.000000
965.886956,222.061783,-8660.409521,0.000000
965.887280,518.144159,-8734.430116,0.000000
965.887604,-666.185348,-8808.450710,153.219100
965.887928,-1184.329507,-9770.718434,153.219100
965.888252,-444.123565,-9696.697840,-306.438199
965.888577,-148.041188,-9252.574275,1072.533697
965.888901,222.061783,-9252.574275,919.314598
965.889225,1036.288319,-9178.553681,842.705048
965.889549,666.185348,-9474.636058,1072.533697
965.889873,74.020594,-9178.553681,0.000000
965.890197,-296.082377,-9030.512492,536.266849
965.890522,444.123565,-9622.677246,766.095498
965.890846,814.226536,-9844.739029,0.000000
965.891170,222.061783,-9104.533087,919.314598
965.891494,-518.144159,-9030.512492,459.657299
965.891818,74.020594,-10066.800811,306.438199
965.892143,1110.308913,-10436.903782,459.657299
965.892467,1776.494261,-9548.656652,229.828649
965.892791,2146.597232,-8808.450710,1225.752797
965.893115,2368.659014,-10066.800811,1838.629195
965.893439,2368.659014,-10807.006753,1149.143247
965.893764,1850.514855,-10214.842000,689.485948
965.894088,740.205942,-10140.821405,306.438199
965.894412,518.144159,-10214.842000,306.438199
965.894736,888.247130,-10140.821405,0.000000
965.895060,0.000000,-9992.780217,229.828649
965.895385,-592.164754,-9030.512492,153.219100
965.895709,0.000000,-9104.533087,-842.705048
965.896033,666.185348,-9178.553681,-689.485948
965.896357,814.226536,-9030.512492,-689.485948
965.896681,-592.164754,-9030.512492,-383.047749
965.897005,-1480.411884,-8956.491898,-612.876398
965.897330,-1184.329507,-9104.533087,0.000000
965.897654,-592.164754,-10288.862594,306.438199
965.897978,0.000000,-8882.471304,-153.219100
965.898302,-592.164754,-8882.471304,229.828649
965.898626,-1036.288319,-9992.780217,306.438199
965.898951,-148.041188,-9474.636058,306.438199
965.899275,740.205942,-9326.594869,766.095498
965.899599,-148.041188,-9474.636058,306.438199
965.899923,-1406.391290,-9252.574275,-306.438199
965.900247,-2072.576638,-9548.656652,-766.095498
965.900572,-2442.679609,-9844.739029,-459.657299
965.900896,-2516.700203,-9622.677246,-1762.019645
965.901220,-2368.659014,-9474.636058,-2145.067394
965.901544,-2294.638420,-9474.636058,-689.485948
965.901868,-1924.535449,-11029.068536,76.609550
965.902193,-1258.350101,-11695.253884,766.095498
965.902517,296.082377,-11029.068536,1838.629195
965.902841,1184.329507,-10658.965565,229.828649
965.903165,2220.617826,-9770.718434,689.485948
965.903489,1332.370696,-9696.697840,536.266849
965.903813,0.000000,-10066.800811,0.000000
965.904138,-1258.350101,-10140.821405,0.000000
965.904462,-1258.350101,-9992.780217,0.000000
965.904786,-592.164754,-9400.615463,-612.876398
965.905110,-666.185348,-9474.636058,-995.924147
965.905434,-1406.391290,-8956.491898,-1991.848295
965.905759,-1702.473667,-9474.636058,-1608.800546
965.906083,-1110.308913,-10214.842000,-766.095498
965.906407,518.144159,-10066.800811,-536.266849
965.906731,1332.370696,-9844.739029,383.047749
965.907055,1184.329507,-9918.759623,1225.752797
965.907380,1628.453072,-10658.965565,0.000000
965.907704,1480.411884,-10214.842000,842.705048
965.908028,1554.432478,-10510.924376,919.314598
965.908352,1776.494261,-10288.862594,919.314598
965.908676,1406.391290,-10140.821405,995.924147
965.909001,296.082377,-9696.697840,612.876398
965.909325,74.020594,-9918.759623,-153.219100
965.909649,814.226536,-10140.821405,-153.219100
965.909973,1554.432478,-10066.800811,0.000000
965.910297,1110.308913,-8808.450710,229.828649
965.910622,444.123565,-8660.409521,-76.609550
965.910946,444.123565,-8438.347739,-229.828649
965.911270,888.247130,-8586.388927,0.000000
965.911594,1258.350101,-8512.368333,0.000000
965.911918,1628.453072,-7402.059420,-612.876398
965.912242,814.226536,-7550.100608,-76.609550
965.912567,814.226536,-8734.430116,0.000000
965.912891,1554.432478,-9104.533087,76.609550
965.913215,1554.432478,-9104.533087,383.047749
965.913539,1554.432478,-8808.450710,153.219100
965.913863,1702.473667,-9178.553681,229.828649
965.914188,1258.350101,-9844.739029,-612.876398
965.914512,222.061783,-9696.697840,-229.828649
965.914836,-1036.288319,-9918.759623,-459.657299
965.915160,-518.144159,-10362.883188,-766.095498
965.915484,-888.247130,-10066.800811,-612.876398
965.915809,-888.247130,-10584.944971,-383.047749
965.916133,-1480.411884,-10362.883188,-1072.533697
965.916457,-1702.473667,-10362.883188,-612.876398
965.916781,-1036.288319,-10584.944971,-1302.362347
965.917105,-296.082377,-10214.842000,-1455.581446
965.917430,-962.267725,-10807.006753,-612.876398
965.917754,-1480.411884,-11251.130318,-459.657299
965.918078,-1258.350101,-10140.821405,-459.657299
965.918402,-592.164754,-10140.821405,-306.438199
965.918726,-222.061783,-10362.883188,-383.047749
965.919050,444.123565,-10066.800811,153.219100
965.919375,-222.061783,-10584.944971,-229.828649
965.919699,-1924.535449,-10214.842000,-995.924147
965.920023,-2294.638420,-9400.615463,-536.266849
965.920347,-1332.370696,-10066.800811,-306.438199
965.920671,-444.123565,-10140.821405,229.828649
965.920996,0.000000,-10732.986159,1149.143247
965.921320,-296.082377,-10658.965565,1302.362347
965.921644,-444.123565,-9622.677246,1072.533697
965.921968,-1332.370696,-9622.677246,153.219100
965.922292,-1850.514855,-8956.491898,-306.438199
965.922617,-1850.514855,-9252.574275,383.047749
965.922941,-1998.556043,-10288.862594,229.828649
965.923265,-1998.556043,-9992.780217,612.876398
965.923589,-1628.453072,-9770.718434,1455.581446
965.923913,-296.082377,-9178.553681,1072.533697
965.924238,444.123565,-8956.491898,766.095498
965.924562,592.164754,-9104.533087,1378.971896
965.924886,1406.391290,-8734.430116,1225.752797
965.925210,1776.494261,-9474.636058,1685.410096
965.925534,2072.576638,-9918.759623,2451.505594
965.925858,1924.535449,-9178.553681,2451.505594
965.926183,1258.350101,-8956.491898,1455.581446
965.926507,666.185348,-9030.512492,689.485948
965.926831,518.144159,-8216.285956,1455.581446
965.927155,814.226536,-8290.306550,919.314598
965.927479,962.267725,-7994.224174,1149.143247
965.927803,222.061783,-8142.265362,1455.581446
965.928128,296.082377,-9252.574275,1225.752797
965.928452,1480.411884,-9252.574275,1072.533697
965.928776,2220.617826,-9104.533087,689.485948
965.929100,2294.638420,-8734.430116,229.828649
965.929424,1480.411884,-8364.327145,-153.219100
965.929748,74.020594,-9326.594869,-459.657299
965.930072,-222.061783,-9918.759623,-459.657299
965.930397,0.000000,-9252.574275,-689.485948
965.930721,222.061783,-9474.636058,-995.924147
965.931045,444.123565,-10066.800811,-766.095498
965.931369,592.164754,-10362.883188,-995.924147
965.931693,814.226536,-10362.883188,-459.657299
965.932017,962.267725,-10140.821405,153.219100
965.932342,1110.308913,-10214.842000,-153.219100
965.932666,1110.308913,-10436.903782,-766.095498
965.932990,148.041188,-9770.718434,-919.314598
965.933314,-1036.288319,-10732.986159,-1685.410096
965.933638,-1480.411884,-11177.109724,-2068.457845
965.933962,-1628.453072,-9918.759623,-2757.943793
965.934286,-1554.432478,-9918.759623,-2604.724693
965.934611,-1332.370696,-10288.862594,-2145.067394
965.934935,-1332.370696,-10510.924376,-2604.724693
965.935259,-2146.597232,-10584.944971,-1762.019645
965.935583,-1776.494261,-10214.842000,-1532.190996
965.935907,-666.185348,-10214.842000,-1915.238745
965.936231,74.020594,-10510.924376,-1378.971896
965.936556,0.000000,-10658.965565,-459.657299
965.936880,-666.185348,-11399.171507,0.000000
965.937204,-444.123565,-10510.924376,153.219100
965.937528,-666.185348,-9918.759623,-383.047749
965.937852,-444.123565,-9474.636058,-842.705048
965.938176,-814.226536,-8956.491898,-1149.143247
965.938500,-1406.391290,-9548.656652,-1532.190996
965.938825,-1480.411884,-10362.883188,-1302.362347
965.939149,-666.185348,-9474.636058,-766.095498
965.939473,740.205942,-8808.450710,-995.924147
965.939797,444.123565,-8068.244768,-689.485948
965.940121,-1110.308913,-8734.430116,-153.219100
965.940445,-888.247130,-9918.759623,-536.266849
965.940769,-222.061783,-9918.759623,612.876398
965.941094,148.041188,-9474.636058,1149.143247
965.941418,518.144159,-8956.491898,919.314598
965.941742,1110.308913,-7624.121203,1685.410096
965.942066,1480.411884,-8956.491898,1762.019645
965.942390,1850.514855,-10362.883188,2221.676944
965.942714,1924.535449,-10140.821405,2451.505594
965.943039,1480.411884,-8068.244768,1532.190996
965.943363,666.185348,-7179.997637,1455.581446
965.943687,-222.061783,-9178.553681,689.485948
965.944011,-814.226536,-9770.718434,0.000000
965.944335,-1406.391290,-8586.388927,306.438199
965.944659,-222.061783,-8438.347739,995.924147
965.944983,370.102971,-9400.615463,766.095498
965.945308,0.000000,-9030.512492,1072.533697
965.945632,-1036.288319,-9252.574275,459.657299
965.945956,-962.267725,-8808.450710,536.266849
965.946280,-592.164754,-9622.677246,766.095498
965.946604,-296.082377,-9622.677246,766.095498
965.946928,0.000000,-8512.368333,459.657299
965.947253,-222.061783,-9030.512492,1302.362347
965.947577,-518.144159,-9474.636058,76.609550
965.947901,-740.205942,-10288.862594,0.000000
965.948225,-962.267725,-10807.006753,842.705048
965.948549,74.020594,-11029.068536,1302.362347
965.948873,1406.391290,-11621.233289,689.485948
965.949197,1776.494261,-10362.883188,0.000000
965.949522,1480.411884,-10436.903782,153.219100
965.949846,1332.370696,-11695.253884,0.000000
965.950170,2516.700203,-12065.356855,383.047749
965.950494,1702.473667,-10732.986159,995.924147
965.950818,518.144159,-10732.986159,229.828649
965.951142,-740.205942,-9474.636058,-459.657299
965.951466,-962.267725,-9400.615463,-995.924147
965.951791,-1110.308913,-9918.759623,-306.438199
965.952115,-1480.411884,-9844.739029,-536.266849
965.952439,-2516.700203,-9400.615463,-153.219100
965.952763,-2886.803174,-8586.388927,-459.657299
965.953087,-1924.535449,-8438.347739,0.000000
965.953411,-518.144159,-9696.697840,0.000000
965.953736,-518.144159,-9252.574275,153.219100
965.954060,-962.267725,-9178.553681,229.828649
965.954384,-592.164754,-10436.903782,459.657299
965.954708,296.082377,-10140.821405,383.047749
965.955032,962.267725,-8364.327145,153.219100
965.955356,1184.329507,-8438.347739,-153.219100
965.955680,1184.329507,-9622.677246,0.000000
965.956005,962.267725,-10955.047942,0.000000
965.956329,-518.144159,-10658.965565,766.095498
965.956653,-222.061783,-9548.656652,459.657299
965.956977,-592.164754,-8956.491898,-1378.971896
965.957301,-888.247130,-9030.512492,-1149.143247
965.957625,-1480.411884,-9844.739029,-612.876398
965.957950,-962.267725,-10214.842000,-383.047749
965.958274,-296.082377,-9178.553681,459.657299
965.958598,-222.061783,-8512.368333,459.657299
965.958922,296.082377,-8068.244768,0.000000
965.959246,-148.041188,-8808.450710,689.485948
965.959570,-740.205942,-9696.697840,842.705048
965.959894,0.000000,-9252.574275,689.485948
965.960219,222.061783,-8512.368333,383.047749
965.960543,814.226536,-8734.430116,76.609550
965.960867,518.144159,-9992.780217,995.924147
965.961191,444.123565,-11103.089130,0.000000
965.961515,-296.082377,-10732.986159,383.047749
965.961839,0.000000,-10140.821405,383.047749
965.962163,1110.308913,-10214.842000,0.000000
965.962488,1628.453072,-10214.842000,-153.219100
965.962812,1480.411884,-10436.903782,689.485948
965.963136,444.123565,-10807.006753,-383.047749
965.963460,-370.102971,-10214.842000,-689.485948
965.963784,0.000000,-10066.800811,-1378.971896
965.964108,1258.350101,-9474.636058,76.609550
965.964433,1776.494261,-9992.780217,766.095498
965.964757,962.267725,-11029.068536,229.828649
965.965081,-518.144159,-10214.842000,-153.219100
965.965405,-222.061783,-9400.615463,-995.924147
965.965729,740.205942,-8438.347739,-1685.410096
965.966053,1480.411884,-7920.203579,-1608.800546
965.966377,222.061783,-8438.347739,-842.705048
965.966702,-1110.308913,-9178.553681,-1762.019645
965.967026,-2146.597232,-9474.636058,-1762.019645
965.967350,-1406.391290,-9326.594869,-2451.505594
965.967674,148.041188,-9030.512492,-1762.019645
965.967998,888.247130,-9326.594869,-1149.143247
965.968322,592.164754,-10436.903782,-842.705048
965.968647,222.061783,-10288.862594,459.657299
965.968971,814.226536,-10584.944971,306.438199
965.969295,1036.288319,-10510.924376,612.876398
965.969619,962.267725,-10807.006753,0.000000
965.969943,0.000000,-10658.965565,-842.705048
965.970267,-1036.288319,-9770.718434,-1302.362347
965.970591,-1406.391290,-10510.924376,-612.876398
965.970916,-1036.288319,-11473.192101,-1225.752797
965.971240,-666.185348,-10510.924376,-1302.362347
965.971564,-666.185348,-9326.594869,-1149.143247
965.971888,-518.144159,-9030.512492,0.000000
965.972212,0.000000,-9104.533087,-536.266849
965.972536,74.020594,-9400.615463,0.000000
965.972860,0.000000,-8808.450710,459.657299
965.973185,-370.102971,-8586.388927,689.485948
965.973509,-518.144159,-8734.430116,459.657299
965.973833,-444.123565,-8438.347739,766.095498
965.974157,0.000000,-8216.285956,536.266849
965.974481,148.041188,-8586.388927,0.000000
965.974805,-1850.514855,-8438.347739,0.000000
965.975130,-3775.050304,-8956.491898,-153.219100
965.975454,-3034.844362,-9622.677246,76.609550
965.975778,-518.144159,-9474.636058,766.095498
965.976102,666.185348,-9548.656652,919.314598
965.976426,740.205942,-8290.306550,1072.533697
965.976750,814.226536,-9104.533087,766.095498
965.977074,296.082377,-11325.150913,1685.410096
965.977399,444.123565,-11843.295072,1838.629195
965.977723,1036.288319,-11399.171507,2528.115143
965.978047,518.144159,-10807.006753,1762.019645
965.978371,-444.123565,-10214.842000,1455.581446
965.978695,-1406.391290,-10881.027347,689.485948
965.979019,-888.247130,-11103.089130,383.047749
965.979344,0.000000,-9548.656652,1225.752797
965.979668,962.267725,-9104.533087,995.924147
965.979992,1184.329507,-8142.265362,995.924147
965.980316,666.185348,-8290.306550,536.266849
965.980640,740.205942,-9474.636058,766.095498
965.980964,1332.370696,-9474.636058,995.924147
965.981288,1776.494261,-8956.491898,612.876398
965.981613,1480.411884,-8290.306550,919.314598
965.981937,1480.411884,-7846.182985,995.924147
965.982261,1776.494261,-9844.739029,459.657299
965.982585,1406.391290,-10807.006753,229.828649
965.982909,1554.432478,-9474.636058,-153.219100
965.983233,1406.391290,-8956.491898,153.219100
965.983558,1184.329507,-9474.636058,76.609550
965.983882,444.123565,-10066.800811,-229.828649
965.984206,-592.164754,-9918.759623,-1072.533697
965.984530,-1110.308913,-9622.677246,-919.314598
965.984854,-962.267725,-10510.924376,-1378.971896
965.985178,-1332.370696,-10066.800811,-919.314598
965.985502,-1554.432478,-9030.512492,-612.876398
965.985827,-1998.556043,-9844.739029,-766.095498
965.986151,-1776.494261,-10362.883188,-766.095498
965.986475,-592.164754,-10362.883188,-1455.581446
965.986799,-518.144159,-9474.636058,-842.705048
965.987123,-1036.288319,-8956.491898,-612.876398
965.987447,-1702.473667,-9326.594869,-1378.971896
965.987771,-1776.494261,-10214.842000,-1072.533697
965.988096,-1036.288319,-9992.780217,-1072.533697
965.988420,444.123565,-9918.759623,-1685.410096
965.988744,1776.494261,-8734.430116,-1378.971896
965.989068,1184.329507,-9474.636058,-842.705048
965.989392,1702.473667,-11251.130318,-919.314598
965.989716,962.267725,-10436.903782,-536.266849
965.990041,1554.432478,-10436.903782,-842.705048
965.990365,1036.288319,-9844.739029,-536.266849
965.990689,74.020594,-9400.615463,-1302.362347
965.991013,-740.205942,-10066.800811,-1072.533697
965.991337,-1258.350101,-9992.780217,-919.314598
965.991661,-1850.514855,-9548.656652,-1685.410096
965.991985,-2220.617826,-9400.615463,-1608.800546
965.992310,-3552.988522,-8882.471304,-1838.629195
965.992634,-3330.926739,-9770.718434,-1991.848295
965.992958,-2368.659014,-9844.739029,-1838.629195
965.993282,-1924.535449,-10214.842000,-536.266849
965.993606,-518.144159,-10881.027347,1072.533697
965.993930,2072.576638,-10807.006753,612.876398
965.994255,3701.029710,-10214.842000,1838.629195
965.994579,3182.885551,-10288.862594,1532.190996
965.994903,2664.741391,-10732.986159,1302.362347
965.995227,2294.638420,-11029.068536,1149.143247
965.995551,1702.473667,-10288.862594,1455.581446
965.995875,296.082377,-9400.615463,1455.581446
965.996199,-740.205942,-9030.512492,-229.828649
965.996524,-1554.432478,-8364.327145,-612.876398
965.996848,-1036.288319,-8882.471304,76.609550
965.997172,-148.041188,-9548.656652,0.000000
965.997496,-148.041188,-8216.285956,536.266849
965.997820,-370.102971,-7402.059420,1149.143247
965.998144,0.000000,-7994.224174,689.485948
965.998468,1036.288319,-8512.368333,1225.752797
965.998793,1554.432478,-9474.636058,1838.629195
965.999117,1776.494261,-9400.615463,1915.238745
965.999441,1554.432478,-8660.409521,766.095498
965.999765,1702.473667,-9104.533087,766.095498
966.000089,1776.494261,-9548.656652,995.924147
966.000413,1480.411884,-10362.883188,536.266849
966.000738,296.082377,-10436.903782,383.047749
966.001062,-222.061783,-9770.718434,229.828649
966.001386,-1110.308913,-10288.862594,76.609550
966.001710,-1554.432478,-10288.862594,-919.314598
966.002034,-962.267725,-10288.862594,-229.828649
966.002358,-518.144159,-11029.068536,306.438199
966.002682,-370.102971,-10955.047942,306.438199
966.003007,-1184.329507,-9992.780217,383.047749
966.003331,-1850.514855,-8956.491898,0.000000
966.003655,-962.267725,-8512.368333,153.219100
966.003979,814.226536,-9474.636058,0.000000
966.004303,1184.329507,-9844.739029,536.266849
966.004627,592.164754,-9622.677246,229.828649
966.004952,0.000000,-9030.512492,-459.657299
966.005276,-370.102971,-8882.471304,-536.266849
966.005600,222.061783,-9844.739029,-689.485948
966.005924,370.102971,-10510.924376,-1685.410096
966.006248,-296.082377,-9918.759623,-153.219100
966.006572,-1110.308913,-10066.800811,-689.485948
966.006896,-1480.411884,-10436.903782,-689.485948
966.007221,-1332.370696,-9770.718434,0.000000
966.007545,-888.247130,-9844.739029,-612.876398
966.007869,-1036.288319,-9696.697840,-306.438199
966.008193,-1702.473667,-9474.636058,-306.438199
966.008517,-1184.329507,-10214.842000,-229.828649
966.008841,370.102971,-9844.739029,-229.828649
966.009165,1702.473667,-9548.656652,306.438199
966.009490,444.123565,-9918.759623,306.438199
966.009814,-1332.370696,-10436.903782,-689.485948
966.010138,-3182.885551,-10436.903782,-1532.190996
966.010462,-3701.029710,-9326.594869,-995.924147
966.010786,-2516.700203,-9400.615463,-919.314598
966.011110,-518.144159,-9622.677246,-995.924147
966.011435,1036.288319,-8660.409521,-995.924147
966.011759,2294.638420,-8734.430116,1608.800546
966.012083,2664.741391,-9622.677246,766.095498
966.012407,2072.576638,-9548.656652,689.485948
966.012731,888.247130,-8290.306550,1072.533697
966.013055,1258.350101,-8068.244768,459.657299
966.013379,1036.288319,-9474.636058,612.876398
966.013704,0.000000,-9252.574275,536.266849
966.014028,0.000000,-8068.244768,612.876398
966.014352,-592.164754,-8808.450710,153.219100
966.014676,-666.185348,-9474.636058,0.000000
966.015000,-296.082377,-8956.491898,229.828649
966.015324,-370.102971,-9178.553681,0.000000
966.015649,-444.123565,-9326.594869,76.609550
966.015973,0.000000,-9474.636058,0.000000
966.016297,888.247130,-9992.780217,689.485948
966.016621,1480.411884,-9844.739029,536.266849
966.016945,1036.288319,-9992.780217,0.000000
966.017269,666.185348,-10288.862594,0.000000
966.017593,1184.329507,-10140.821405,76.609550
966.017918,1776.494261,-11399.171507,76.609550
966.018242,1702.473667,-11399.171507,76.609550
966.018566,962.267725,-10066.800811,0.000000
966.018890,148.041188,-9844.739029,-1455.581446
966.019214,-962.267725,-9696.697840,-1532.190996
966.019538,-666.185348,-10288.862594,-842.705048
966.019862,518.144159,-10510.924376,-459.657299
966.020187,888.247130,-9400.615463,-919.314598
966.020511,0.000000,-9030.512492,-1532.190996
966.020835,-518.144159,-9474.636058,-1302.362347
966.021159,-444.123565,-9474.636058,-1225.752797
966.021483,0.000000,-10362.883188,-536.266849
966.021807,0.000000,-9696.697840,-459.657299
966.022132,0.000000,-9474.636058,-612.876398
966.022456,-444.123565,-10510.924376,-766.095498
966.022780,-444.123565,-10510.924376,0.000000
966.023104,-222.061783,-10066.800811,-383.047749
966.023428,-296.082377,-9992.780217,-1532.190996
966.023752,-1036.288319,-10214.842000,-612.876398
966.024076,-1850.514855,-10881.027347,-1149.143247
966.024401,-1184.329507,-10584.944971,-612.876398
966.024725,-148.041188,-9992.780217,-383.047749
966.025049,222.061783,-10362.883188,-306.438199
966.025373,444.123565,-10066.800811,-229.828649
966.025697,518.144159,-10436.903782,-229.828649
966.026021,0.000000,-9622.677246,-536.266849
966.026346,-370.102971,-9992.780217,-459.657299
966.026670,-740.205942,-10066.800811,-153.219100
966.026994,74.020594,-8586.388927,-1532.190996
966.027318,-740.205942,-10066.800811,306.438199
966.027642,-1406.391290,-10066.800811,229.828649
966.027966,-666.185348,-7994.224174,-612.876398
966.028290,-1850.514855,-8660.409521,1149.143247
966.028614,-888.247130,-8882.471304,-306.438199
966.028938,592.164754,-7550.100608,0.000000
966.029262,1110.308913,-8438.347739,1455.581446
966.029586,2220.617826,-9252.574275,1455.581446
966.029910,2442.679609,-9252.574275,1991.848295
966.030234,2368.659014,-7994.224174,766.095498
966.030558,0.000000,-7476.080014,1378.971896
966.030882,-740.205942,-9400.615463,229.828649
966.031206,0.000000,-10288.862594,1225.752797
966.031530,-444.123565,-9326.594869,1455.581446
966.031854,-1110.308913,-9104.533087,306.438199
966.032178,-1554.432478,-8438.347739,-306.438199
966.032502,-888.247130,-8142.265362,76.609550
966.032826,-814.226536,-9696.697840,0.000000
966.033150,-740.205942,-9178.553681,306.438199
966.033474,-740.205942,-9104.533087,0.000000
966.033798,-296.082377,-9030.512492,-536.266849
966.034122,444.123565,-9622.677246,0.000000
966.034446,1258.350101,-11325.150913,153.219100
966.034770,2072.576638,-11103.089130,0.000000
966.035094,1776.494261,-10732.986159,612.876398
966.035418,1702.473667,-11473.192101,0.000000
966.035742,1924.535449,-10732.986159,-383.047749
966.036066,1036.288319,-10584.944971,0.000000
966.036390,-592.164754,-11991.336260,-536.266849
966.036714,-1554.432478,-11991.336260,-919.314598
966.037038,-888.247130,-10732.986159,-766.095498
966.037362,148.041188,-9548.656652,-306.438199
966.037686,-296.082377,-9696.697840,0.000000
966.038010,-592.164754,-10807.006753,-153.219100
966.038334,-1702.473667,-10436.903782,-612.876398
966.038658,-1776.494261,-9992.780217,153.219100
966.038982,-370.102971,-9918.759623,0.000000
966.039306,592.164754,-9474.636058,153.219100
966.039630,-148.041188,-8734.430116,0.000000
966.039954,-814.226536,-8734.430116,0.000000
966.040278,-740.205942,-9400.615463,0.000000
966.040602,148.041188,-9104.533087,-689.485948
966.040926,0.000000,-8808.450710,-612.876398
966.041250,-222.061783,-8808.450710,0.000000
966.041574,296.082377,-9474.636058,-612.876398
966.041898,518.144159,-9696.697840,0.000000
966.042222,592.164754,-9474.636058,689.485948
966.042546,148.041188,-9992.780217,689.485948
966.042870,444.123565,-9252.574275,229.828649
966.043194,-814.226536,-8512.368333,-459.657299
966.043518,-1258.350101,-8882.471304,-842.705048
966.043842,-1332.370696,-8882.471304,-536.266849
966.044166,-888.247130,-9252.574275,-689.485948
966.044490,-518.144159,-8882.471304,-689.485948
966.044814,-1184.329507,-8216.285956,0.000000
966.045139,-1480.411884,-9252.574275,-306.438199
966.045463,-1702.473667,-8882.471304,-766.095498
966.045787,-518.144159,-9030.512492,-612.876398
966.046111,518.144159,-9326.594869,-842.705048
966.046435,444.123565,-9252.574275,-306.438199
966.046759,-222.061783,-10436.903782,0.000000
966.047083,296.082377,-10658.965565,0.000000
966.047407,1332.370696,-9770.718434,0.000000
966.047731,1702.473667,-9104.533087,153.219100
966.048055,1406.391290,-8956.491898,0.000000
966.048379,888.247130,-9696.697840,0.000000
966.048703,148.041188,-10066.800811,-612.876398
966.049027,666.185348,-10214.842000,612.876398
966.049351,962.267725,-10955.047942,0.000000
966.049675,1258.350101,-10881.027347,-153.219100
966.049999,0.000000,-10140.821405,1302.362347
966.050323,-666.185348,-11103.089130,0.000000
966.050647,-1628.453072,-10658.965565,-1149.143247
966.050971,-1850.514855,-10362.883188,-1225.752797
966.051295,-962.267725,-10066.800811,-612.876398
966.051619,444.123565,-10362.883188,-153.219100
966.051943,1998.556043,-10658.965565,459.657299
966.052267,1850.514855,-9622.677246,306.438199
966.052591,2294.638420,-9326.594869,612.876398
966.052915,2294.638420,-9918.759623,0.000000
966.053239,814.226536,-10214.842000,-459.657299
966.053563,-518.144159,-9696.697840,306.438199
966.053887,-592.164754,-10510.924376,306.438199
966.054211,-370.102971,-10436.903782,306.438199
966.054535,-370.102971,-8956.491898,0.000000
966.054859,0.000000,-7994.224174,-459.657299
966.055183,-222.061783,-8512.368333,0.000000
966.055507,-962.267725,-9548.656652,-306.438199
966.055831,-444.123565,-8808.450710,0.000000
966.056155,74.020594,-8290.306550,229.828649
966.056479,74.020594,-9030.512492,-229.828649
966.056803,-148.041188,-8956.491898,459.657299
966.057127,-518.144159,-8660.409521,383.047749
966.057451,-1924.535449,-9474.636058,-689.485948
966.057775,-3108.864956,-9252.574275,-842.705048
966.058099,-2368.659014,-9104.533087,-1455.581446
966.058423,-888.247130,-9252.574275,-1072.533697
966.058747,-962.267725,-9548.656652,-306.438199
966.059071,-1036.288319,-10510.924376,-306.438199
966.059395,-222.061783,-9918.759623,0.000000
966.059719,1628.453072,-10066.800811,0.000000
966.060043,2146.597232,-9770.718434,-689.485948
966.060367,1628.453072,-10066.800811,0.000000
966.060691,1332.370696,-10732.986159,0.000000
966.061015,740.205942,-11399.171507,-306.438199
966.061339,-222.061783,-10436.903782,-153.219100
966.061663,0.000000,-9918.759623,-995.924147
966.061987,0.000000,-9474.636058,-153.219100
966.062311,-888.247130,-9992.780217,-689.485948
966.062635,-1554.432478,-10362.883188,-1225.752797
966.062959,-1554.432478,-9400.615463,-229.828649
966.063283,-888.247130,-9622.677246,0.000000
966.063607,222.061783,-9844.739029,-153.219100
966.063931,74.020594,-9770.718434,229.828649
966.064256,0.000000,-10510.924376,689.485948
966.064580,148.041188,-10658.965565,766.095498
966.064904,1036.288319,-9770.718434,689.485948
966.065228,1850.514855,-9622.677246,919.314598
966.065552,1036.288319,-8882.471304,459.657299
966.065876,0.000000,-10362.883188,306.438199
966.066200,0.000000,-11029.068536,842.705048
966.066524,1258.350101,-10066.800811,612.876398
966.066848,1406.391290,-9178.553681,459.657299
966.067172,-148.041188,-8068.244768,383.047749
966.067496,-666.185348,-8068.244768,0.000000
966.067820,-740.205942,-9104.533087,76.609550
966.068144,296.082377,-9400.615463,766.095498
966.068468,592.164754,-8216.285956,459.657299
966.068792,296.082377,-7179.997637,229.828649
966.069116,74.020594,-7550.100608,306.438199
966.069440,0.000000,-8660.409521,-153.219100
966.069764,-222.061783,-9474.636058,0.000000
966.070088,-518.144159,-9178.553681,306.438199
966.070412,666.185348,-8956.491898,306.438199
966.070736,1776.494261,-8882.471304,383.047749
966.071060,1554.432478,-9548.656652,153.219100
966.071384,0.000000,-10362.883188,-612.876398
966.071708,-1036.288319,-10066.800811,-383.047749
966.072032,-518.144159,-10436.903782,-153.219100
966.072356,296.082377,-9548.656652,-383.047749
966.072680,-296.082377,-8956.491898,-919.314598
966.073004,-962.267725,-9918.759623,-306.438199
966.073328,-1258.350101,-10584.944971,-766.095498
966.073652,740.205942,-11029.068536,-383.047749
966.073976,962.267725,-10436.903782,-153.219100
966.074300,222.061783,-9548.656652,0.000000
966.074624,-222.061783,-10140.821405,-229.828649
966.074948,-370.102971,-11103.089130,-766.095498
966.075272,0.000000,-11251.130318,-766.095498
966.075596,-666.185348,-11029.068536,-1608.800546
966.075920,-1110.308913,-10066.800811,-1225.752797
966.076244,-1554.432478,-10510.924376,-1225.752797
966.076568,-2294.638420,-11473.192101,-1378.971896
966.076892,-1628.453072,-10584.944971,-995.924147
966.077216,-888.247130,-10140.821405,-689.485948
966.077540,296.082377,-10140.821405,-1072.533697
966.077864,814.226536,-9844.739029,-229.828649
966.078188,1036.288319,-10362.883188,76.609550
966.078512,0.000000,-11103.089130,229.828649
966.078836,148.041188,-10807.006753,0.000000
966.079160,222.061783,-9548.656652,-766.095498
966.079484,-740.205942,-8216.285956,-612.876398
966.079808,-1184.329507,-8586.388927,-1302.362347
966.080132,-1036.288319,-9622.677246,-1378.971896
966.080456,-962.267725,-8956.491898,0.000000
966.080780,518.144159,-9400.615463,306.438199
966.081104,1332.370696,-9030.512492,612.876398
966.081428,1258.350101,-8512.368333,766.095498
966.081752,1480.411884,-8734.430116,536.266849
966.082076,1332.370696,-8586.388927,536.266849
966.082400,1258.350101,-9474.636058,1225.752797
966.082724,962.267725,-9104.533087,689.485948
966.083048,148.041188,-8586.388927,689.485948
966.083373,-592.164754,-8364.327145,459.657299
966.083697,-1258.350101,-9178.553681,229.828649
966.084021,-962.267725,-9622.677246,383.047749
966.084345,-592.164754,-9178.553681,306.438199
966.084669,518.144159,-7994.224174,995.924147
966.084993,1332.370696,-8216.285956,919.314598
966.085317,1332.370696,-9992.780217,1072.533697
966.085641,888.247130,-10881.027347,1149.143247
966.085965,444.123565,-9696.697840,383.047749
966.086289,148.041188,-9178.553681,306.438199
966.086613,444.123565,-9178.553681,612.876398
966.086937,518.144159,-10140.821405,383.047749
966.087261,-148.041188,-9252.574275,-229.828649
966.087585,0.000000,-7994.224174,-1072.533697
966.087909,-296.082377,-8216.285956,-995.924147
966.088233,0.000000,-8882.471304,-1149.143247
966.088557,148.041188,-10214.842000,76.609550
966.088881,666.185348,-10436.903782,153.219100
966.089205,814.226536,-9770.718434,0.000000
966.089529,222.061783,-10362.883188,153.219100
966.089853,666.185348,-10362.883188,-459.657299
966.090177,666.185348,-10584.944971,-459.657299
966.090501,-962.267725,-11399.171507,-536.266849
966.090825,-2664.741391,-10807.006753,-1149.143247
966.091149,-2590.720797,-10214.842000,-1455.581446
966.091473,-1702.473667,-10288.862594,-1608.800546
966.091797,0.000000,-10066.800811,-1302.362347
966.092121,666.185348,-10214.842000,-2068.457845
966.092445,666.185348,-9844.739029,-2298.286494
966.092769,74.020594,-9770.718434,-2298.286494
966.093093,962.267725,-10658.965565,-2221.676944
966.093417,1554.432478,-10732.986159,-2145.067394
966.093741,592.164754,-11103.089130,-1302.362347
966.094065,-370.102971,-11103.089130,-1685.410096
966.094389,-518.144159,-10732.986159,-1532.190996
966.094713,0.000000,-9844.739029,-1455.581446
966.095037,1628.453072,-9770.718434,-612.876398
966.095361,2886.803174,-9622.677246,-842.705048
966.095685,3256.906145,-8882.471304,-1225.752797
966.096009,2294.638420,-7772.162391,-1302.362347
966.096333,1554.432478,-7920.203579,-1532.190996
966.096657,962.267725,-8364.327145,-2374.896044
966.096981,0.000000,-7846.182985,-3064.381992
966.097305,-1258.350101,-7994.224174,-3140.991542
966.097629,-1184.329507,-8956.491898,-2987.772442
966.097953,-518.144159,-10214.842000,-2757.943793
966.098277,518.144159,-10140.821405,-1608.800546
966.098601,2294.638420,-9252.574275,-689.485948
966.098925,4515.256246,-9104.533087,-306.438199
966.099249,5107.421000,-9622.677246,-766.095498
966.099573,4959.379811,-9548.656652,-689.485948
966.099897,5551.544565,-8956.491898,-766.095498
966.100221,5329.482782,-9400.615463,-919.314598
966.100545,5699.585753,-9918.759623,-1302.362347
966.100869,4145.153275,-9400.615463,-2068.457845
966.101193,1702.473667,-9474.636058,-2374.896044
966.101517,-370.102971,-9548.656652,-2451.505594
966.101841,-2220.617826,-9474.636058,-4673.182538
966.102165,-2294.638420,-9326.594869,-3677.258390
966.102490,-666.185348,-9400.615463,-2221.676944
966.102814,1480.411884,-9918.759623,-1991.848295
966.103138,2960.823768,-9104.533087,-919.314598
966.103462,3404.947333,-8808.450710,-842.705048
966.103786,3256.906145,-9252.574275,-919.314598
966.104110,4145.153275,-9400.615463,-612.876398
966.104434,4441.235652,-9770.718434,-919.314598
966.104758,3849.070898,-9474.636058,-2221.676944
966.105082,2886.803174,-10214.842000,-2451.505594
966.105406,1850.514855,-11325.150913,-3217.601092
966.105730,1332.370696,-11547.212695,-3524.039291
966.106054,1628.453072,-10658.965565,-3064.381992
966.106378,1480.411884,-10807.006753,-3294.210641
966.106702,2294.638420,-10881.027347,-2451.505594
966.107026,3182.885551,-10066.800811,-3294.210641
966.107350,3034.844362,-9030.512492,-2298.286494
966.107674,2368.659014,-10436.903782,-1991.848295
966.107998,3182.885551,-10140.821405,-1915.238745
966.108322,3552.988522,-8956.491898,-919.314598
966.108646,3627.009116,-9548.656652,-1532.190996
966.108970,2812.782580,-9770.718434,-1762.019645
966.109294,1924.535449,-10140.821405,-1685.410096
966.109618,0.000000,-10288.862594,-2911.162892
966.109942,-1480.411884,-10214.842000,-3753.867940
966.110266,-1850.514855,-9474.636058,-3677.258390
966.110590,-1628.453072,-9770.718434,-2834.553343
966.110914,-222.061783,-9918.759623,-3064.381992
966.111238,1406.391290,-9326.594869,-3600.648841
966.111562,1406.391290,-9104.533087,-2911.162892
966.111886,1998.556043,-9548.656652,-3217.601092
966.112210,3034.844362,-9178.553681,-2221.676944
966.112534,3849.070898,-9252.574275,-1532.190996
966.112858,4145.153275,-9696.697840,-1915.238745
966.113182,2960.823768,-9474.636058,-1838.629195
966.113506,2294.638420,-9770.718434,-2451.505594
966.113830,2294.638420,-10955.047942,-2221.676944
966.114154,2220.617826,-10658.965565,-2681.334243
966.114478,1924.535449,-9252.574275,-2068.457845
966.114802,148.041188,-9252.574275,-1838.629195
966.115126,0.000000,-10732.986159,-2145.067394
966.115450,222.061783,-9548.656652,-2604.724693
966.115774,0.000000,-7920.203579,-2528.115143
966.116098,-1036.288319,-8808.450710,-1838.629195
966.116422,666.185348,-9696.697840,-1685.410096
966.116746,3108.864956,-8586.388927,-1915.238745
966.117070,2664.741391,-7994.224174,-1532.190996
966.117394,1406.391290,-9104.533087,-1072.533697
966.117718,1850.514855,-10510.924376,-1455.581446
966.118042,2960.823768,-9992.780217,-1378.971896
966.118366,2960.823768,-8734.430116,-1991.848295
966.118690,2664.741391,-8956.491898,-1915.238745
966.119014,3404.947333,-9548.656652,-995.924147
966.119338,5033.400406,-10140.821405,-1225.752797
966.119662,4959.379811,-9400.615463,-842.705048
966.119986,3775.050304,-9030.512492,-1302.362347
966.120310,2220.617826,-9400.615463,-1455.581446
966.120634,2294.638420,-9178.553681,-1378.971896
966.120958,3182.885551,-8660.409521,-1608.800546
966.121282,3775.050304,-8956.491898,-995.924147
966.121607,3627.009116,-9992.780217,-383.047749
966.121931,2960.823768,-10214.842000,-76.609550
966.122255,3182.885551,-9178.553681,-306.438199
966.122579,3627.009116,-8882.471304,-689.485948
966.122903,2442.679609,-10066.800811,-1532.190996
966.123227,888.247130,-10066.800811,-1532.190996
966.123551,740.205942,-9548.656652,-2298.286494
966.123875,592.164754,-9474.636058,-2221.676944
966.124199,888.247130,-9844.739029,-2987.772442
966.124523,1702.473667,-10140.821405,-2604.724693
966.124847,2220.617826,-10362.883188,-2604.724693
966.125171,2220.617826,-10658.965565,-2834.553343
966.125495,2146.597232,-9918.759623,-2374.896044
966.125819,2516.700203,-9622.677246,-1455.581446
966.126143,3997.112087,-10658.965565,-2451.505594
966.126467,4811.338623,-10288.862594,-1378.971896
966.126791,5181.441594,-9696.697840,-1532.190996
966.127115,3478.967927,-10066.800811,-2451.505594
966.127439,592.164754,-11029.068536,-2757.943793
966.127763,-888.247130,-9992.780217,-3217.601092
966.128087,0.000000,-8734.430116,-3140.991542
966.128411,222.061783,-8290.306550,-3140.991542
966.128735,222.061783,-9474.636058,-2987.772442
966.129059,-1036.288319,-10436.903782,-3907.087040
966.129383,-2442.679609,-10066.800811,-3830.477490
966.129707,-1702.473667,-9252.574275,-2911.162892
966.130031,370.102971,-8734.430116,-2068.457845
966.130355,2368.659014,-9252.574275,-2068.457845
966.130679,3108.864956,-9918.759623,-2834.553343
966.131003,2812.782580,-10955.047942,-3217.601092
966.131327,1924.535449,-10807.006753,-3294.210641
966.131651,1850.514855,-10955.047942,-3447.429741
966.131975,888.247130,-10436.903782,-2757.943793
966.132299,592.164754,-9918.759623,-3294.210641
966.132623,814.226536,-9622.677246,-3753.867940
966.132947,1776.494261,-9326.594869,-3677.258390
966.133271,3256.906145,-9844.739029,-2374.896044
966.133595,4737.318029,-10658.965565,-1378.971896
966.133919,4811.338623,-10140.821405,-1225.752797
966.134243,3256.906145,-8734.430116,-919.314598
966.134567,1628.453072,-8438.347739,-1149.143247
966.134891,740.205942,-9104.533087,-1838.629195
966.135215,962.267725,-9400.615463,-2221.676944
966.135539,2220.617826,-8882.471304,-2451.505594
966.135863,4145.153275,-8882.471304,-995.924147
966.136187,4885.359217,-8660.409521,-1532.190996
966.136511,4441.235652,-8882.471304,-2834.553343
966.136835,2368.659014,-9104.533087,-3600.648841
966.137159,592.164754,-9326.594869,-3983.696590
966.137483,0.000000,-9548.656652,-3524.039291
966.137807,962.267725,-9992.780217,-2298.286494
966.138131,2294.638420,-9770.718434,-1685.410096
966.138455,3997.112087,-10140.821405,229.828649
966.138779,4737.318029,-10066.800811,459.657299
966.139103,4959.379811,-9844.739029,1225.752797
966.139427,4959.379811,-9770.718434,1532.190996
966.139751,4367.215058,-9696.697840,1608.800546
966.140075,3552.988522,-9844.739029,919.314598
966.140399,2590.720797,-9548.656652,-766.095498
966.140723,1036.288319,-9400.615463,-2451.505594
966.141047,-1850.514855,-9474.636058,-4443.353888
966.141371,-2664.741391,-9178.553681,-5362.668486
966.141695,-2738.761985,-8438.347739,-5362.668486
966.142019,-1702.473667,-8068.244768,-4673.182538
966.142343,518.144159,-8956.491898,-3294.210641
966.142667,2812.782580,-9844.739029,-1838.629195
966.142991,4663.297435,-9770.718434,-612.876398
966.143315,5181.441594,-9992.780217,766.095498
966.143639,5551.544565,-9992.780217,1991.848295
966.143963,5847.626942,-10955.047942,2298.286494
966.144287,5033.400406,-11473.192101,2451.505594
966.144611,3923.091493,-11547.212695,1685.410096
966.144935,2220.617826,-11103.089130,229.828649
966.145259,0.000000,-10362.883188,-1302.362347
966.145583,-2516.700203,-9474.636058,-4443.353888
966.145907,-4737.318029,-8956.491898,-6665.030833
966.146231,-5921.647536,-8586.388927,-7431.126331
966.146555,-4737.318029,-8586.388927,-6818.249932
966.146879,-1850.514855,-8068.244768,-5515.887586
966.147203,1702.473667,-7846.182985,-2911.162892
966.147527,4663.297435,-8586.388927,-919.314598
966.147851,7105.977043,-9844.739029,766.095498
966.148175,7550.100608,-11029.068536,766.095498
966.148499,7105.977043,-10955.047942,1149.143247
966.148823,7105.977043,-10584.944971,536.266849
966.149147,6069.688724,-11325.150913,919.314598
966.149471,3923.091493,-11029.068536,-919.314598
966.149795,1184.329507,-10881.027347,-2221.676944
966.150119,-2220.617826,-11103.089130,-3983.696590
966.150443,-4737.318029,-9918.759623,-6281.983084
966.150767,-5847.626942,-7254.018232,-6665.030833
966.151091,-5403.503377,-6513.812290,-4826.401637
966.151415,-3701.029710,-7624.121203,-3140.991542
966.151739,-962.267725,-8660.409521,-1685.410096
966.152063,2220.617826,-8586.388927,-689.485948
966.152387,4441.235652,-9400.615463,1072.533697
966.152711,5773.606348,-10510.924376,1838.629195
966.153035,6217.729913,-12065.356855,1838.629195
966.153359,4737.318029,-10510.924376,1149.143247
966.153683,3330.926739,-8808.450710,-383.047749
966.154007,1406.391290,-9992.780217,-1608.800546
966.154331,74.020594,-12065.356855,-2834.553343
966.154655,0.000000,-12287.418637,-3524.039291
966.154979,222.061783,-9992.780217,-3524.039291
966.155303,-222.061783,-8734.430116,-3140.991542
966.155627,0.000000,-8142.265362,-3294.210641
966.155951,1036.288319,-6513.812290,-2987.772442
966.156275,3404.947333,-6291.750507,-1302.362347
966.156599,5107.421000,-6291.750507,0.000000
966.156923,7105.977043,-7402.059420,612.876398
966.157247,8438.347739,-8142.265362,842.705048
966.157571,7920.203579,-8734.430116,1378.971896
966.157895,6587.832884,-8956.491898,-229.828649
966.158219,3849.070898,-9252.574275,-2451.505594
966.158543,1406.391290,-10807.006753,-3370.820191
966.158867,814.226536,-10732.986159,-4290.134789
966.159191,1332.370696,-10658.965565,-4826.401637
966.159515,1924.535449,-10362.883188,-4290.134789
966.159839,1702.473667,-9622.677246,-4213.525239
966.160163,1554.432478,-9696.697840,-4060.306139
966.160487,2294.638420,-9474.636058,-3370.820191
966.160811,3108.864956,-8068.244768,-2221.676944
966.161135,3849.070898,-8660.409521,-2298.286494
966.161459,3997.112087,-9622.677246,-1608.800546
966.161783,4737.318029,-10658.965565,-1991.848295
966.162107,4441.235652,-10955.047942,-1838.629195
966.162431,3478.967927,-11695.253884,-2221.676944
966.162755,2220.617826,-11769.274478,-3677.258390
966.163079,1258.350101,-11251.130318,-4443.353888
966.163403,74.020594,-10436.903782,-5669.106685
966.163727,-740.205942,-10436.903782,-6435.202183
966.164051,-1924.535449,-10066.800811,-6971.469032
966.164375,-2960.823768,-9844.739029,-6741.640382
966.164699,-2664.741391,-9474.636058,-6281.983084
966.165023,-1110.308913,-9548.656652,-4903.011187
966.165347,1480.411884,-9770.718434,-3524.039291
966.165671,4293.194464,-9622.677246,-2145.067394
966.165995,6291.750507,-10732.986159,-1762.019645
966.166319,6661.853478,-11547.212695,-536.266849
966.166643,6217.729913,-12287.418637,-459.657299
966.166967,4293.194464,-12583.501014,-766.095498
966.167291,1480.411884,-12139.377449,-2068.457845
966.167615,-1480.411884,-11473.192101,-3830.477490
966.167939,-3404.947333,-10510.924376,-4443.353888
966.168263,-3997.112087,-9252.574275,-4979.620737
966.168587,-1998.556043,-8882.471304,-4673.182538
966.168911,-222.061783,-8142.265362,-4519.963438
966.169235,1110.308913,-7550.100608,-3907.087040
966.169559,1554.432478,-7698.141797,-2528.115143
966.169883,1628.453072,-8216.285956,-1455.581446
966.170207,1702.473667,-8586.388927,-842.705048
966.170531,3182.885551,-8216.285956,229.828649
966.170855,5181.441594,-8808.450710,1762.019645
966.171179,7846.182985,-9770.718434,2681.334243
966.171503,8216.285956,-10140.821405,1838.629195
966.171827,6291.750507,-10214.842000,1302.362347
966.172151,2442.679609,-9622.677246,76.609550
966.172475,-814.226536,-8734.430116,-1302.362347
966.172799,-2146.597232,-7476.080014,-2068.457845
966.173123,-1480.411884,-7476.080014,-2681.334243
966.173447,-666.185348,-7254.018232,-1991.848295
966.173771,-148.041188,-7402.059420,-2068.457845
966.174095,-222.061783,-7772.162391,-1302.362347
966.174419,-444.123565,-7846.182985,-306.438199
966.174743,592.164754,-7550.100608,766.095498
966.175067,2590.720797,-7624.121203,1149.143247
966.175391,4959.379811,-9252.574275,1915.238745
966.175715,5847.626942,-10140.821405,1762.019645
966.176039,5181.441594,-11029.068536,1072.533697
966.176363,4367.215058,-11177.109724,1072.533697
966.176687,4293.194464,-10362.883188,536.266849
966.177011,3552.988522,-9474.636058,-306.438199
966.177335,2146.597232,-9252.574275,-2145.067394
966.177659,148.041188,-9400.615463,-3753.867940
966.177983,-1332.370696,-9918.759623,-4749.792088
966.178307,-1554.432478,-10214.842000,-4749.792088
966.178631,518.144159,-9918.759623,-2987.772442
966.178955,2812.782580,-9326.594869,-2298.286494
966.179279,4663.297435,-9474.636058,-1685.410096
966.179603,4589.276840,-10732.986159,-1302.362347
966.179927,4145.153275,-11621.233289,-842.705048
966.180251,4589.276840,-11917.315666,-612.876398
966.180575,5033.400406,-12731.542202,306.438199
966.180899,4293.194464,-13101.645173,-306.438199
966.181223,2220.617826,-12583.501014,-1072.533697
966.181547,296.082377,-11917.315666,-2604.724693
966.181871,-962.267725,-10955.047942,-3753.867940
966.182195,-1184.329507,-10732.986159,-4596.572988
966.182519,-444.123565,-9992.780217,-5056.230287
966.182843,-444.123565,-9326.594869,-4443.353888
966.183167,-148.041188,-8808.450710,-3983.696590
966.183491,1184.329507,-9178.553681,-4213.525239
966.183815,1924.535449,-9104.533087,-4443.353888
966.184139,2368.659014,-8808.450710,-3677.258390
966.184463,3330.926739,-9030.512492,-2451.505594
966.184787,4811.338623,-9622.677246,-1762.019645
966.185111,5255.462188,-9844.739029,-1608.800546
966.185435,4145.153275,-9548.656652,-612.876398
966.185759,3923.091493,-9918.759623,-766.095498
966.186083,3849.070898,-10288.862594,-1149.143247
966.186407,2368.659014,-8956.491898,-1608.800546
966.186731,-888.247130,-7698.141797,-2528.115143
966.187055,-2738.761985,-7550.100608,-3370.820191
966.187379,-2146.597232,-7698.141797,-3294.210641
966.187703,-814.226536,-6735.874072,-3600.648841
966.188027,-962.267725,-6809.894666,-2987.772442
966.188351,-1332.370696,-7402.059420,-2911.162892
966.188675,148.041188,-7920.203579,-2834.553343
966.188999,2220.617826,-7920.203579,-2681.334243
966.189323,3108.864956,-7846.182985,-2528.115143
966.189647,2886.803174,-9178.553681,-2145.067394
966.189971,2812.782580,-10584.944971,-2145.067394
966.190295,3775.050304,-10214.842000,-2374.896044
966.190619,4885.359217,-8956.491898,-1915.238745
966.190943,4811.338623,-10288.862594,-2451.505594
966.191267,4071.132681,-11917.315666,-2528.115143
966.191591,2812.782580,-11399.171507,-2298.286494
966.191915,1702.473667,-10362.883188,-2451.505594
966.192239,740.205942,-9844.739029,-2604.724693
966.192563,1850.514855,-10214.842000,-1762.019645
966.192887,3552.988522,-10066.800811,-1991.848295
966.193211,4515.256246,-10658.965565,-1762.019645
966.193536,3775.050304,-10955.047942,-2221.676944
966.193860,2960.823768,-10436.903782,-2068.457845
966.194184,1924.535449,-10066.800811,-2604.724693
966.194508,518.144159,-10288.862594,-3753.867940
966.194832,592.164754,-9992.780217,-4213.525239
966.195156,1924.535449,-10436.903782,-3753.867940
966.195480,2146.597232,-11029.068536,-4596.572988
966.195804,2072.576638,-11769.274478,-3447.429741
966.196128,2664.741391,-12065.356855,-2221.676944
966.196452,3034.844362,-11325.150913,-1762.019645
966.196776,2368.659014,-10510.924376,-1685.410096
966.197100,1184.329507,-10066.800811,-612.876398
966.197424,1924.535449,-11103.089130,-1072.533697
966.197748,2294.638420,-10362.883188,-842.705048
966.198072,1776.494261,-9548.656652,1072.533697
966.198396,2442.679609,-9918.759623,536.266849
966.198720,3627.009116,-9030.512492,0.000000
966.199044,3182.885551,-8068.244768,229.828649
966.199368,2664.741391,-8438.347739,-1149.143247
966.199692,1776.494261,-7846.182985,-2528.115143
966.200016,-296.082377,-7254.018232,-3830.477490
966.200340,-3552.988522,-8364.327145,-3830.477490
966.200664,-5181.441594,-9104.533087,-4673.182538
966.200988,-3256.906145,-7254.018232,-3753.867940
966.201312,-1332.370696,-8586.388927,-1762.019645
966.201636,1480.411884,-10288.862594,-1378.971896
966.201960,4811.338623,-9770.718434,689.485948
966.202284,5699.585753,-9992.780217,2528.115143
966.202608,6735.874072,-10955.047942,2834.553343
966.202932,7031.956449,-9770.718434,3294.210641
966.203256,5107.421000,-10436.903782,3140.991542
966.203580,2368.659014,-10807.006753,1072.533697
966.203904,518.144159,-9622.677246,0.000000
966.204228,-1702.473667,-8512.368333,0.000000
966.204552,-3849.070898,-9030.512492,-1685.410096
966.204876,-5551.544565,-9548.656652,-3600.648841
966.205200,-7105.977043,-8512.368333,-3983.696590
966.205524,-6957.935855,-7254.018232,-3447.429741
966.205848,-4515.256246,-7698.141797,-3370.820191
966.206172,-2072.576638,-8142.265362,-2757.943793
966.206496,740.205942,-7402.059420,-306.438199
966.206820,5255.462188,-7994.224174,536.266849
966.207144,6957.935855,-9918.759623,2451.505594
966.207468,6735.874072,-12879.583391,4060.306139
966.207792,5699.585753,-13101.645173,3907.087040
966.208116,3627.009116,-11695.253884,3294.210641
966.208440,1406.391290,-11547.212695,2298.286494
966.208764,0.000000,-12509.480420,766.095498
966.209088,-1850.514855,-11843.295072,0.000000
966.209412,-2738.761985,-11399.171507,-1302.362347
966.209736,-3552.988522,-9474.636058,-1685.410096
966.210060,-3034.844362,-8290.306550,-1838.629195
966.210384,-2220.617826,-7624.121203,-1991.848295
966.210708,-2072.576638,-7624.121203,-1838.629195
966.211032,-1702.473667,-8068.244768,-1455.581446
966.211356,-1110.308913,-8734.430116,-1378.971896
966.211680,0.000000,-8290.306550,-995.924147
966.212004,1776.494261,-8586.388927,1149.143247
966.212328,3108.864956,-9844.739029,1915.238745
966.212652,4145.153275,-11843.295072,1838.629195
966.212976,2368.659014,-11843.295072,2681.334243
966.213300,2220.617826,-12065.356855,3217.601092
966.213624,3256.906145,-11695.253884,2681.334243
966.213948,2220.617826,-10140.821405,1532.190996
966.214272,0.000000,-8068.244768,842.705048
966.214596,-1776.494261,-7772.162391,612.876398
966.214920,-1998.556043,-8734.430116,-1532.190996
966.215244,-2442.679609,-7402.059420,-2374.896044
966.215568,-3404.947333,-6883.915261,-1608.800546
966.215892,-3182.885551,-7994.224174,-2145.067394
966.216216,-2442.679609,-9104.533087,-2451.505594
966.216540,-2516.700203,-9252.574275,-2221.676944
966.216864,-1554.432478,-8364.327145,-1532.190996
966.217188,296.082377,-9770.718434,-1302.362347
966.217512,2368.659014,-11991.336260,76.609550
966.217836,2960.823768,-11769.274478,1685.410096
966.218160,2368.659014,-11251.130318,1302.362347
966.218484,518.144159,-10955.047942,229.828649
966.218808,0.000000,-9622.677246,-153.219100
966.219132,666.185348,-10066.800811,-689.485948
966.219456,1776.494261,-9548.656652,-153.219100
966.219780,1258.350101,-9696.697840,-919.314598
966.220104,962.267725,-10066.800811,-1608.800546
966.220428,962.267725,-8808.450710,-1915.238745
966.220752,1480.411884,-9104.533087,-2298.286494
966.221076,518.144159,-11399.171507,-1915.238745
966.221400,-814.226536,-11695.253884,-2451.505594
966.221724,-1628.453072,-11029.068536,-2221.676944
966.222048,-2960.823768,-9548.656652,-2374.896044
966.222372,-2368.659014,-9844.739029,-2374.896044
966.222696,-1480.411884,-10807.006753,-1532.190996
966.223020,-740.205942,-10436.903782,-919.314598
966.223344,-370.102971,-10584.944971,306.438199
966.223668,222.061783,-10732.986159,1532.190996
966.223992,1554.432478,-10510.924376,1302.362347
966.224316,1702.473667,-9104.533087,1072.533697
966.224640,518.144159,-8364.327145,995.924147
966.224964,296.082377,-9400.615463,1072.533697
966.225288,-592.164754,-10584.944971,306.438199
966.225612,-814.226536,-9030.512492,76.609550
966.225936,-888.247130,-7698.141797,612.876398
966.226260,-444.123565,-8142.265362,-766.095498
966.226584,-518.144159,-8364.327145,-1225.752797
966.226908,-1258.350101,-8142.265362,-689.485948
966.227232,-740.205942,-8216.285956,-1378.971896
966.227556,-740.205942,-7031.956449,-995.924147
966.227880,370.102971,-7698.141797,306.438199
966.228204,1850.514855,-9548.656652,1225.752797
966.228528,2960.823768,-9622.677246,1685.410096
966.228852,2368.659014,-9918.759623,1991.848295
966.229176,1036.288319,-9622.677246,2757.943793
966.229500,518.144159,-9918.759623,1685.410096
966.229824,296.082377,-10362.883188,1915.238745
966.230148,0.000000,-9918.759623,1915.238745
966.230472,-592.164754,-10584.944971,1378.971896
966.230796,-1332.370696,-10362.883188,383.047749
966.231120,-1776.494261,-8512.368333,0.000000
966.231444,-1332.370696,-7624.121203,-383.047749
966.231768,-1258.350101,-8068.244768,-1149.143247
966.232092,-2442.679609,-8438.347739,-2221.676944
966.232416,-3330.926739,-9770.718434,-1685.410096
966.232740,-2812.782580,-9992.780217,-1302.362347
966.233064,-1184.329507,-9844.739029,-536.266849
966.233388,444.123565,-10807.006753,1225.752797
966.233712,1628.453072,-11547.212695,1608.800546
966.234036,2590.720797,-11325.150913,1302.362347
966.234360,3849.070898,-10584.944971,2145.067394
966.234684,4441.235652,-11177.109724,2451.505594
966.235008,3775.050304,-12139.377449,1685.410096
966.235332,1702.473667,-10807.006753,1072.533697
966.235656,-962.267725,-10140.821405,306.438199
966.235980,-2886.803174,-9474.636058,-1762.019645
966.236304,-2664.741391,-8956.491898,-1991.848295
966.236628,-2368.659014,-9030.512492,-2145.067394
966.236952,-1702.473667,-9474.636058,-1838.629195
966.237276,-1036.288319,-9252.574275,-2068.457845
966.237600,-1184.329507,-9548.656652,-1378.971896
966.237924,-962.267725,-9696.697840,-995.924147
966.238248,592.164754,-9992.780217,-306.438199
966.238572,2664.741391,-10436.903782,76.609550
966.238896,2368.659014,-10362.883188,766.095498
966.239221,2368.659014,-11029.068536,1302.362347
966.239545,1776.494261,-10732.986159,1225.752797
966.239869,2294.638420,-10436.903782,1762.019645
966.240193,2368.659014,-10214.842000,1302.362347
966.240517,1628.453072,-9622.677246,383.047749
966.240841,0.000000,-9178.553681,76.609550
966.241165,-1628.453072,-8142.265362,-1302.362347
966.241489,-2220.617826,-7698.141797,-1072.533697
966.241813,-1850.514855,-8512.368333,-1455.581446
966.242137,-1702.473667,-8586.388927,-1608.800546
966.242461,-2072.576638,-7624.121203,-1302.362347
966.242785,-2442.679609,-7698.141797,-1685.410096
966.243109,-2072.576638,-8216.285956,-612.876398
966.243433,-296.082377,-9696.697840,536.266849
966.243757,814.226536,-9770.718434,689.485948
966.244081,1184.329507,-8734.430116,1072.533697
966.244405,0.000000,-9770.718434,383.047749
966.244729,-444.123565,-10881.027347,383.047749
966.245053,1110.308913,-10658.965565,536.266849
966.245377,1776.494261,-9844.739029,0.000000
966.245701,1036.288319,-9992.780217,-459.657299
966.246025,592.164754,-10807.006753,-229.828649
966.246349,-222.061783,-11843.295072,-1072.533697
966.246673,-814.226536,-10214.842000,-1378.971896
966.246997,-888.247130,-9030.512492,-1225.752797
966.247321,-370.102971,-9622.677246,-1608.800546
966.247645,-444.123565,-10510.924376,-842.705048
966.247969,-296.082377,-10436.903782,-229.828649
966.248293,-222.061783,-9326.594869,-306.438199
966.248617,-296.082377,-9252.574275,0.000000
966.248941,444.123565,-10066.800811,-459.657299
966.249265,0.000000,-9696.697840,0.000000
966.249589,-814.226536,-9992.780217,842.705048
966.249913,-1480.411884,-10732.986159,229.828649
966.250237,-1184.329507,-9992.780217,76.609550
966.250561,-592.164754,-9622.677246,306.438199
966.250885,0.000000,-9030.512492,-1378.971896
966.251209,-592.164754,-9252.574275,-1072.533697
966.251533,-1406.391290,-9548.656652,-612.876398
966.251857,-666.185348,-10658.965565,-229.828649
966.252181,962.267725,-10510.924376,-459.657299
966.252505,1110.308913,-10288.862594,-536.266849
966.252829,1036.288319,-9030.512492,-612.876398
966.253153,74.020594,-9770.718434,-536.266849
966.253477,-296.082377,-10362.883188,-766.095498
966.253801,0.000000,-9474.636058,0.000000
966.254125,1258.350101,-9622.677246,306.438199
966.254449,1036.288319,-10066.800811,306.438199
966.254773,370.102971,-10140.821405,919.314598
966.255097,592.164754,-9992.780217,689.485948
966.255421,1850.514855,-9992.780217,1378.971896
966.255745,1776.494261,-10140.821405,612.876398
966.256069,296.082377,-8956.491898,-229.828649
966.256393,-1776.494261,-7846.182985,0.000000
966.256717,-2368.659014,-9770.718434,-766.095498
966.257041,-1850.514855,-9474.636058,-1685.410096
966.257366,-666.185348,-8142.265362,-306.438199
966.257690,148.041188,-8882.471304,229.828649
966.258014,592.164754,-9400.615463,0.000000
966.258338,296.082377,-9696.697840,612.876398
966.258662,518.144159,-9474.636058,766.095498
966.258986,666.185348,-9030.512492,-766.095498
966.259310,814.226536,-10066.800811,383.047749
966.259634,666.185348,-10584.944971,842.705048
966.259958,222.061783,-10436.903782,1149.143247
966.260282,-296.082377,-10288.862594,1302.362347
966.260606,-370.102971,-9770.718434,459.657299
966.260930,0.000000,-9326.594869,-306.438199
966.261254,148.041188,-9400.615463,0.000000
966.261578,-222.061783,-9326.594869,153.219100
966.261902,-1332.370696,-9548.656652,-306.438199
966.262226,-1332.370696,-9178.553681,0.000000
966.262550,0.000000,-8882.471304,459.657299
966.262874,666.185348,-8290.306550,-383.047749
966.263198,0.000000,-7994.224174,-459.657299
966.263522,-740.205942,-8586.388927,-306.438199
966.263846,-1036.288319,-9992.780217,-536.266849
966.264170,370.102971,-8882.471304,-229.828649
966.264494,888.247130,-7920.203579,536.266849
966.264818,1036.288319,-8734.430116,612.876398
966.265142,1998.556043,-10066.800811,536.266849
966.265466,2368.659014,-10584.944971,1149.143247
966.265790,2220.617826,-9918.759623,842.705048
966.266114,1924.535449,-9474.636058,536.266849
966.266438,74.020594,-9474.636058,383.047749
966.266762,-1480.411884,-9844.739029,-612.876398
966.267086,-2886.803174,-10881.027347,-919.314598
966.267410,-3627.009116,-10510.924376,-1762.019645
966.267734,-3256.906145,-9474.636058,-1225.752797
966.268058,-2146.597232,-10214.842000,-383.047749
966.268382,-814.226536,-10658.965565,-306.438199
966.268706,-1036.288319,-11325.150913,0.000000
966.269030,-1554.432478,-10140.821405,-842.705048
966.269354,-1036.288319,-8660.409521,-766.095498
966.269678,666.185348,-10807.006753,153.219100
966.270002,2146.597232,-11251.130318,306.438199
966.270326,1332.370696,-10584.944971,536.266849
966.270650,-814.226536,-10362.883188,-536.266849
966.270974,-2220.617826,-10436.903782,-1302.362347
966.271298,-1036.288319,-10881.027347,-229.828649
966.271622,148.041188,-10510.924376,-842.705048
966.271946,0.000000,-9104.533087,-689.485948
966.272270,0.000000,-8438.347739,-689.485948
966.272594,888.247130,-10214.842000,-919.314598
966.272918,962.267725,-10140.821405,-1072.533697
966.273242,1184.329507,-9770.718434,76.609550
966.273566,1480.411884,-9030.512492,-76.609550
966.273890,888.247130,-9326.594869,-459.657299
966.274214,0.000000,-9770.718434,-1072.533697
966.274538,0.000000,-8586.388927,-536.266849
966.274862,1628.453072,-9252.574275,-459.657299
966.275186,1776.494261,-10658.965565,-1608.800546
966.275510,1406.391290,-9326.594869,0.000000
966.275835,666.185348,-9178.553681,919.314598
966.276159,518.144159,-9622.677246,459.657299
966.276483,444.123565,-9474.636058,76.609550
966.276807,222.061783,-9400.615463,-306.438199
966.277131,-1110.308913,-9252.574275,-689.485948
966.277455,-1184.329507,-9770.718434,-306.438199
966.277779,-1184.329507,-9844.739029,-536.266849
