#time,accel_x,accel_y,accel_z
935.926322,148.041188,-9622.677246,-229.828649
935.926646,0.000000,-9474.636058,0.000000
935.926970,-148.041188,-9548.656652,0.000000
935.927294,74.020594,-10288.862594,229.828649
935.927618,222.061783,-10732.986159,-306.438199
935.927942,74.020594,-9844.739029,-153.219100
935.928265,0.000000,-9474.636058,-229.828649
935.928589,222.061783,-9622.677246,-536.266849
935.928913,222.061783,-9548.656652,-153.219100
935.929237,74.020594,-9622.677246,0.000000
935.929561,-222.061783,-9622.677246,76.609550
935.929885,518.144159,-9844.739029,459.657299
935.930209,222.061783,-9326.594869,-536.266849
935.930533,148.041188,-9474.636058,-153.219100
935.930857,0.000000,-9696.697840,-229.828649
935.931181,0.000000,-9770.718434,-153.219100
935.931505,222.061783,-9622.677246,0.000000
935.931829,222.061783,-9622.677246,306.438199
935.932153,74.020594,-9548.656652,-229.828649
935.932476,0.000000,-9400.615463,-383.047749
935.932800,0.000000,-10066.800811,-153.219100
935.933124,148.041188,-10140.821405,0.000000
935.933448,0.000000,-9622.677246,-306.438199
935.933772,0.000000,-9844.739029,0.000000
935.934096,0.000000,-9770.718434,229.828649
935.934420,148.041188,-9622.677246,306.438199
935.934744,0.000000,-9474.636058,0.000000
935.935068,-296.082377,-9622.677246,229.828649
935.935392,-666.185348,-9696.697840,0.000000
935.935716,-296.082377,-9844.739029,-153.219100
935.936040,-518.144159,-9918.759623,306.438199
935.936364,-222.061783,-9918.759623,306.438199
935.936687,-222.061783,-9992.780217,-306.438199
935.937011,-666.185348,-9326.594869,229.828649
935.937335,-814.226536,-9474.636058,459.657299
935.937659,-444.123565,-9844.739029,229.828649
935.937983,-1036.288319,-9252.574275,0.000000
935.938307,-888.247130,-8660.409521,306.438199
935.938631,-666.185348,-9104.533087,306.438199
935.938955,0.000000,-9770.718434,229.828649
935.939279,-592.164754,-9770.718434,459.657299
935.939603,-222.061783,-10140.821405,1149.143247
935.939927,-962.267725,-10066.800811,76.609550
935.940251,-1480.411884,-10510.924376,612.876398
935.940574,-2368.659014,-10510.924376,612.876398
935.940898,-2738.761985,-10732.986159,689.485948
935.941222,-2738.761985,-10288.862594,995.924147
935.941546,-2220.617826,-9474.636058,1225.752797
935.941870,-1258.350101,-8734.430116,1455.581446
935.942194,0.000000,-8586.388927,1762.019645
935.942518,0.000000,-9030.512492,1915.238745
935.942842,-814.226536,-9400.615463,919.314598
935.943166,-2368.659014,-9326.594869,995.924147
935.943490,-3256.906145,-9696.697840,1072.533697
935.943814,-3849.070898,-10362.883188,842.705048
935.944138,-3775.050304,-10436.903782,919.314598
935.944462,-3478.967927,-10955.047942,1225.752797
935.944785,-2960.823768,-10732.986159,1762.019645
935.945109,-2220.617826,-9918.759623,1225.752797
935.945433,-1554.432478,-9252.574275,2298.286494
935.945757,-814.226536,-8734.430116,2145.067394
935.946081,0.000000,-8808.450710,2451.505594
935.946405,148.041188,-8586.388927,3140.991542
935.946729,148.041188,-9252.574275,2221.676944
935.947053,-888.247130,-9622.677246,2068.457845
935.947377,-2146.597232,-9992.780217,2221.676944
935.947701,-3775.050304,-10584.944971,1685.410096
935.948025,-4441.235652,-10807.006753,1762.019645
935.948349,-4885.359217,-10807.006753,2374.896044
935.948672,-5255.462188,-10658.965565,2681.334243
935.948996,-5107.421000,-9844.739029,2757.943793
935.949320,-4885.359217,-9178.553681,3294.210641
935.949644,-3997.112087,-9622.677246,3447.429741
935.949968,-2886.803174,-10436.903782,3294.210641
935.950292,-740.205942,-10140.821405,3907.087040
935.950616,888.247130,-9030.512492,4826.401637
935.950940,1924.535449,-8438.347739,4673.182538
935.951264,2220.617826,-8438.347739,3830.477490
935.951588,1258.350101,-8660.409521,2911.162892
935.951912,518.144159,-8734.430116,3370.820191
935.952236,-1110.308913,-8882.471304,2298.286494
935.952560,-2812.782580,-8512.368333,1915.238745
935.952883,-5477.523971,-7846.182985,383.047749
935.953207,-7624.121203,-8956.491898,-306.438199
935.953531,-8808.450710,-11029.068536,536.266849
935.953855,-7328.038826,-11399.171507,766.095498
935.954179,-4737.318029,-10214.842000,2451.505594
935.954503,-2220.617826,-8512.368333,4596.572988
935.954827,1480.411884,-8364.327145,4213.525239
935.955151,3552.988522,-9400.615463,4443.353888
935.955475,4293.194464,-10066.800811,4519.963438
935.955799,4219.173869,-10436.903782,5056.230287
935.956123,3034.844362,-10214.842000,4290.134789
935.956447,666.185348,-9400.615463,2757.943793
935.956770,-2368.659014,-8290.306550,2068.457845
935.957094,-5255.462188,-7402.059420,-1302.362347
935.957418,-7846.182985,-9474.636058,-2528.115143
935.957742,-8364.327145,-11695.253884,-1991.848295
935.958066,-5255.462188,-10955.047942,-1915.238745
935.958390,-2886.803174,-9548.656652,919.314598
935.958714,-2738.761985,-8734.430116,2298.286494
935.959038,-3330.926739,-9178.553681,2068.457845
935.959362,-3330.926739,-10140.821405,1149.143247
935.959686,-2220.617826,-11103.089130,1762.019645
935.960010,814.226536,-11621.233289,3907.087040
935.960334,4811.338623,-12139.377449,4596.572988
935.960658,7698.141797,-11769.274478,4826.401637
935.960981,6217.729913,-11103.089130,4673.182538
935.961305,2886.803174,-10362.883188,2681.334243
935.961629,-2442.679609,-9992.780217,-536.266849
935.961953,-5625.565159,-9252.574275,-1378.971896
935.962277,-6513.812290,-6587.832884,-3677.258390
935.962601,-6365.771101,-8142.265362,-2145.067394
935.962925,-5329.482782,-10510.924376,-1378.971896
935.963249,-3997.112087,-10807.006753,-995.924147
935.963573,-4737.318029,-9474.636058,459.657299
935.963897,-5995.668130,-7476.080014,229.828649
935.964221,-4811.338623,-7476.080014,919.314598
935.964545,-3034.844362,-9030.512492,1608.800546
935.964868,296.082377,-9548.656652,3064.381992
935.965192,2590.720797,-11473.192101,4519.963438
935.965516,3108.864956,-13175.665768,3753.867940
935.965840,1406.391290,-11621.233289,3983.696590
935.966164,0.000000,-9548.656652,3447.429741
935.966488,-1184.329507,-9104.533087,2221.676944
935.966812,-1924.535449,-9770.718434,1072.533697
935.967136,-3330.926739,-10214.842000,1072.533697
935.967460,-4293.194464,-9474.636058,842.705048
935.967784,-5625.565159,-8512.368333,0.000000
935.968108,-5551.544565,-7994.224174,459.657299
935.968432,-4589.276840,-7698.141797,842.705048
935.968756,-3552.988522,-8142.265362,842.705048
935.969079,-4145.153275,-9030.512492,1072.533697
935.969403,-6587.832884,-9918.759623,1455.581446
935.969727,-5995.668130,-11177.109724,1762.019645
935.970051,-2368.659014,-10436.903782,2681.334243
935.970375,444.123565,-9622.677246,2757.943793
935.970699,370.102971,-9474.636058,2757.943793
935.971023,-444.123565,-10881.027347,3217.601092
935.971347,-518.144159,-11843.295072,3983.696590
935.971671,148.041188,-11695.253884,3524.039291
935.971995,296.082377,-10140.821405,2987.772442
935.972319,-814.226536,-9104.533087,3140.991542
935.972643,-3256.906145,-9474.636058,2528.115143
935.972966,-4219.173869,-10214.842000,2451.505594
935.973290,-3997.112087,-9918.759623,2145.067394
935.973614,-3701.029710,-8290.306550,1685.410096
935.973938,-4219.173869,-6735.874072,1608.800546
935.974262,-4145.153275,-7031.956449,2604.724693
935.974586,-2664.741391,-8586.388927,3064.381992
935.974910,-1850.514855,-9844.739029,2298.286494
935.975234,-3034.844362,-9030.512492,1149.143247
935.975558,-3552.988522,-8956.491898,1455.581446
935.975882,-1924.535449,-10436.903782,2681.334243
935.976206,814.226536,-11695.253884,3677.258390
935.976530,1332.370696,-11251.130318,3524.039291
935.976854,296.082377,-11251.130318,3753.867940
935.977177,-222.061783,-11103.089130,3294.210641
935.977501,592.164754,-10955.047942,2911.162892
935.977825,74.020594,-10288.862594,3447.429741
935.978149,-1924.535449,-10140.821405,3600.648841
935.978473,-3478.967927,-10584.944971,2757.943793
935.978797,-3552.988522,-9770.718434,1915.238745
935.979121,-2960.823768,-8068.244768,2451.505594
935.979445,-2886.803174,-8142.265362,2451.505594
935.979769,-4441.235652,-9326.594869,689.485948
935.980093,-4663.297435,-8660.409521,1225.752797
935.980417,-3256.906145,-7402.059420,1991.848295
935.980741,-1554.432478,-8734.430116,2528.115143
935.981064,-1036.288319,-10066.800811,2451.505594
935.981388,-888.247130,-8734.430116,2604.724693
935.981712,296.082377,-8068.244768,3524.039291
935.982036,1184.329507,-9474.636058,3524.039291
935.982360,1110.308913,-10732.986159,2834.553343
935.982684,222.061783,-9252.574275,2681.334243
935.983008,-666.185348,-9030.512492,2681.334243
935.983332,-1184.329507,-10510.924376,1455.581446
935.983656,-2146.597232,-9548.656652,1532.190996
935.983980,-2812.782580,-7698.141797,2604.724693
935.984304,-3997.112087,-8956.491898,1302.362347
935.984628,-4367.215058,-9770.718434,-229.828649
935.984952,-4737.318029,-8142.265362,-306.438199
935.985275,-4219.173869,-7105.977043,383.047749
935.985599,-3256.906145,-8956.491898,-306.438199
935.985923,-2220.617826,-8586.388927,-536.266849
935.986247,-962.267725,-7772.162391,919.314598
935.986571,148.041188,-9696.697840,1149.143247
935.986895,1036.288319,-11473.192101,306.438199
935.987219,444.123565,-10732.986159,229.828649
935.987543,-1036.288319,-10658.965565,0.000000
935.987867,-2146.597232,-12287.418637,-689.485948
935.988191,-1998.556043,-12435.459826,-995.924147
935.988515,-1036.288319,-12287.418637,-76.609550
935.988840,-444.123565,-13249.686362,-1072.533697
935.989164,0.000000,-11695.253884,-1685.410096
935.989488,-222.061783,-10362.883188,-1225.752797
935.989812,-666.185348,-10436.903782,-1225.752797
935.990136,296.082377,-10066.800811,-1378.971896
935.990460,-148.041188,-10214.842000,-919.314598
935.990784,0.000000,-10362.883188,-612.876398
935.991108,0.000000,-9252.574275,-306.438199
935.991432,-444.123565,-9622.677246,459.657299
935.991756,-1332.370696,-9992.780217,0.000000
935.992080,-2294.638420,-9770.718434,-842.705048
935.992404,-1776.494261,-8882.471304,0.000000
935.992728,740.205942,-8956.491898,-536.266849
935.993052,1258.350101,-8734.430116,-766.095498
935.993376,74.020594,-8142.265362,0.000000
935.993700,222.061783,-8512.368333,-1072.533697
935.994024,370.102971,-8364.327145,-2451.505594
935.994348,222.061783,-8216.285956,-612.876398
935.994672,740.205942,-9770.718434,0.000000
935.994996,1554.432478,-11325.150913,-689.485948
935.995320,74.020594,-10658.965565,1072.533697
935.995644,-1258.350101,-10584.944971,1455.581446
935.995968,-1554.432478,-11177.109724,459.657299
935.996292,-1332.370696,-10288.862594,2145.067394
935.996616,222.061783,-9400.615463,2528.115143
935.996941,592.164754,-8734.430116,229.828649
935.997265,74.020594,-7254.018232,1225.752797
935.997589,-444.123565,-8068.244768,2068.457845
935.997913,0.000000,-9400.615463,-1072.533697
935.998237,-592.164754,-7328.038826,-766.095498
935.998561,-1184.329507,-7031.956449,1149.143247
935.998885,0.000000,-10214.842000,0.000000
935.999209,74.020594,-10807.006753,-306.438199
935.999533,-1184.329507,-9622.677246,1378.971896
935.999857,-1554.432478,-10955.047942,766.095498
936.000181,-592.164754,-11769.274478,0.000000
936.000505,0.000000,-10288.862594,1991.848295
936.000829,1480.411884,-9622.677246,1302.362347
936.001153,1924.535449,-9770.718434,0.000000
936.001477,1184.329507,-9770.718434,2374.896044
936.001801,888.247130,-10658.965565,1455.581446
936.002125,962.267725,-9844.739029,919.314598
936.002449,592.164754,-8068.244768,1838.629195
936.002773,1110.308913,-8660.409521,842.705048
936.003097,1554.432478,-9770.718434,-536.266849
936.003421,0.000000,-9696.697840,919.314598
936.003745,-1184.329507,-10140.821405,153.219100
936.004069,-1480.411884,-10066.800811,-459.657299
936.004393,-1184.329507,-8956.491898,536.266849
936.004718,-740.205942,-9252.574275,0.000000
936.005042,-296.082377,-9918.759623,-383.047749
936.005366,-740.205942,-10140.821405,1149.143247
936.005690,222.061783,-10510.924376,1378.971896
936.006014,1628.453072,-10066.800811,1455.581446
936.006338,1776.494261,-8734.430116,2298.286494
936.006662,2294.638420,-9622.677246,2374.896044
936.006986,2368.659014,-10510.924376,995.924147
936.007310,1258.350101,-9992.780217,1378.971896
936.007634,-518.144159,-9844.739029,1149.143247
936.007958,-740.205942,-9992.780217,0.000000
936.008282,-222.061783,-8956.491898,0.000000
936.008606,-888.247130,-8586.388927,383.047749
936.008930,-1110.308913,-8808.450710,-2145.067394
936.009254,-3108.864956,-9696.697840,-1915.238745
936.009578,-3849.070898,-9474.636058,-2298.286494
936.009902,-2590.720797,-8956.491898,-2221.676944
936.010226,-1628.453072,-8290.306550,0.000000
936.010550,592.164754,-8438.347739,-229.828649
936.010874,2368.659014,-9696.697840,-1225.752797
936.011198,1258.350101,-9548.656652,153.219100
936.011522,1332.370696,-9622.677246,229.828649
936.011846,1110.308913,-10436.903782,0.000000
936.012170,962.267725,-9252.574275,612.876398
936.012494,444.123565,-9030.512492,689.485948
936.012819,296.082377,-10436.903782,-612.876398
936.013143,-148.041188,-10140.821405,-689.485948
936.013467,-1924.535449,-10140.821405,-1225.752797
936.013791,-2368.659014,-10066.800811,-2681.334243
936.014115,-2590.720797,-8956.491898,-2145.067394
936.014439,-2664.741391,-9474.636058,-1608.800546
936.014763,-1776.494261,-10658.965565,-2374.896044
936.015087,-1184.329507,-10584.944971,-1685.410096
936.015411,-1110.308913,-10584.944971,-1149.143247
936.015735,0.000000,-10362.883188,-306.438199
936.016059,1480.411884,-9178.553681,-459.657299
936.016383,2886.803174,-9696.697840,1072.533697
936.016707,3108.864956,-10881.027347,459.657299
936.017031,1332.370696,-11029.068536,766.095498
936.017355,0.000000,-10658.965565,1762.019645
936.017679,518.144159,-10436.903782,153.219100
936.018003,740.205942,-10140.821405,-76.609550
936.018327,740.205942,-10066.800811,383.047749
936.018651,666.185348,-11547.212695,-995.924147
936.018975,444.123565,-11399.171507,-1225.752797
936.019299,-296.082377,-10436.903782,-919.314598
936.019623,-888.247130,-9622.677246,-1991.848295
936.019947,-740.205942,-8216.285956,-1225.752797
936.020271,-592.164754,-9548.656652,0.000000
936.020595,222.061783,-10807.006753,-766.095498
936.020920,148.041188,-9770.718434,766.095498
936.021244,0.000000,-9622.677246,1455.581446
936.021568,0.000000,-10214.842000,1072.533697
936.021892,814.226536,-9252.574275,1532.190996
936.022216,1554.432478,-8882.471304,3140.991542
936.022540,1850.514855,-9992.780217,1915.238745
936.022864,1628.453072,-9548.656652,1302.362347
936.023188,962.267725,-7698.141797,1608.800546
936.023512,814.226536,-8142.265362,689.485948
936.023836,740.205942,-7920.203579,459.657299
936.024160,0.000000,-7994.224174,995.924147
936.024484,-74.020594,-8660.409521,0.000000
936.024808,-666.185348,-7920.203579,-383.047749
936.025132,-1406.391290,-7624.121203,995.924147
936.025456,-1110.308913,-8216.285956,153.219100
936.025780,-1258.350101,-7031.956449,0.000000
936.026104,-1332.370696,-7179.997637,1455.581446
936.026428,0.000000,-9474.636058,1302.362347
936.026752,518.144159,-9844.739029,1608.800546
936.027076,74.020594,-8586.388927,2374.896044
936.027400,-296.082377,-8882.471304,1685.410096
936.027724,-444.123565,-9474.636058,766.095498
936.028048,-592.164754,-9252.574275,1302.362347
936.028372,-222.061783,-10362.883188,0.000000
936.028697,-148.041188,-10658.965565,-689.485948
936.029021,-888.247130,-10362.883188,-459.657299
936.029345,-1480.411884,-10881.027347,-1838.629195
936.029669,-1036.288319,-10140.821405,-3064.381992
936.029993,-962.267725,-9400.615463,-1072.533697
936.030317,296.082377,-11695.253884,-1149.143247
936.030641,1332.370696,-12139.377449,-1378.971896
936.030965,444.123565,-10658.965565,0.000000
936.031289,740.205942,-11325.150913,459.657299
936.031613,1554.432478,-11621.233289,-229.828649
936.031937,1332.370696,-10807.006753,766.095498
936.032261,666.185348,-11029.068536,0.000000
936.032585,962.267725,-11177.109724,-995.924147
936.032909,814.226536,-11029.068536,-306.438199
936.033233,-592.164754,-11473.192101,-1762.019645
936.033557,-1850.514855,-10807.006753,-2221.676944
936.033881,-2516.700203,-9622.677246,-1762.019645
936.034205,-1850.514855,-10066.800811,-1762.019645
936.034529,0.000000,-10955.047942,-1838.629195
936.034853,444.123565,-10066.800811,-919.314598
936.035177,0.000000,-9918.759623,-229.828649
936.035501,666.185348,-9474.636058,-842.705048
936.035825,592.164754,-9030.512492,536.266849
936.036149,74.020594,-9992.780217,306.438199
936.036473,-592.164754,-10214.842000,0.000000
936.036798,-1184.329507,-9918.759623,1302.362347
936.037122,-962.267725,-9548.656652,766.095498
936.037446,-444.123565,-8512.368333,-383.047749
936.037770,-740.205942,-7105.977043,306.438199
936.038094,-888.247130,-7920.203579,153.219100
936.038418,148.041188,-9030.512492,-995.924147
936.038742,-222.061783,-8142.265362,229.828649
936.039066,0.000000,-7402.059420,612.876398
936.039390,666.185348,-7031.956449,383.047749
936.039714,1110.308913,-7031.956449,1072.533697
936.040038,2072.576638,-8956.491898,1532.190996
936.040362,1036.288319,-9474.636058,459.657299
936.040686,0.000000,-9178.553681,919.314598
936.041010,-518.144159,-9474.636058,612.876398
936.041334,-444.123565,-9178.553681,-766.095498
936.041658,-962.267725,-8364.327145,229.828649
936.041982,-962.267725,-9474.636058,842.705048
936.042306,-222.061783,-10584.944971,459.657299
936.042630,222.061783,-10066.800811,612.876398
936.042954,888.247130,-10510.924376,1149.143247
936.043278,1702.473667,-10510.924376,153.219100
936.043602,2368.659014,-10288.862594,1072.533697
936.043926,2072.576638,-10955.047942,1378.971896
936.044250,1998.556043,-11399.171507,76.609550
936.044574,1110.308913,-10510.924376,842.705048
936.044899,-296.082377,-9992.780217,766.095498
936.045223,-814.226536,-9918.759623,-919.314598
936.045547,-1036.288319,-9770.718434,-612.876398
936.045871,-1036.288319,-10288.862594,0.000000
936.046195,-222.061783,-11029.068536,-766.095498
936.046519,-740.205942,-9474.636058,153.219100
936.046843,-1258.350101,-8808.450710,842.705048
936.047167,-592.164754,-9844.739029,-383.047749
936.047491,0.000000,-9252.574275,-536.266849
936.047815,444.123565,-9400.615463,536.266849
936.048139,888.247130,-10436.903782,-459.657299
936.048463,148.041188,-10066.800811,0.000000
936.048787,-444.123565,-9844.739029,536.266849
936.049111,0.000000,-10362.883188,-536.266849
936.049435,0.000000,-10436.903782,229.828649
936.049759,148.041188,-10214.842000,536.266849
936.050083,-296.082377,-10732.986159,-689.485948
936.050407,-962.267725,-10214.842000,-76.609550
936.050731,-2220.617826,-9474.636058,536.266849
936.051055,-2146.597232,-9770.718434,-689.485948
936.051379,-2368.659014,-8364.327145,-153.219100
936.051703,-2220.617826,-7920.203579,536.266849
936.052027,-740.205942,-8956.491898,76.609550
936.052351,-592.164754,-8512.368333,0.000000
936.052676,-444.123565,-8438.347739,229.828649
936.053000,-148.041188,-9178.553681,0.000000
936.053324,222.061783,-8216.285956,0.000000
936.053648,444.123565,-8216.285956,842.705048
936.053972,740.205942,-9178.553681,383.047749
936.054296,666.185348,-9252.574275,-229.828649
936.054620,-296.082377,-8882.471304,689.485948
936.054944,0.000000,-9548.656652,0.000000
936.055268,0.000000,-8882.471304,229.828649
936.055592,-444.123565,-9252.574275,919.314598
936.055916,-592.164754,-10362.883188,-153.219100
936.056240,-666.185348,-9992.780217,-536.266849
936.056564,-1184.329507,-9474.636058,459.657299
936.056888,-1480.411884,-9992.780217,-459.657299
936.057212,-888.247130,-9992.780217,-153.219100
936.057536,-296.082377,-10510.924376,459.657299
936.057860,1036.288319,-11621.233289,-842.705048
936.058184,1628.453072,-10807.006753,-1072.533697
936.058508,740.205942,-10140.821405,153.219100
936.058832,740.205942,-10288.862594,-1225.752797
936.059156,1110.308913,-10066.800811,-153.219100
936.059480,592.164754,-9622.677246,459.657299
936.059804,1110.308913,-10510.924376,-306.438199
936.060128,888.247130,-10140.821405,-612.876398
936.060452,666.185348,-9622.677246,995.924147
936.060777,592.164754,-9400.615463,-383.047749
936.061101,592.164754,-8882.471304,-383.047749
936.061425,0.000000,-9252.574275,842.705048
936.061749,296.082377,-9770.718434,-153.219100
936.062073,1554.432478,-9696.697840,-612.876398
936.062397,1554.432478,-8882.471304,383.047749
936.062721,2072.576638,-9474.636058,0.000000
936.063045,2220.617826,-9030.512492,0.000000
936.063369,1628.453072,-9030.512492,383.047749
936.063693,1332.370696,-10140.821405,383.047749
936.064017,1332.370696,-10658.965565,-536.266849
936.064341,-222.061783,-10214.842000,0.000000
936.064665,-1406.391290,-9992.780217,0.000000
936.064989,-1036.288319,-9696.697840,-536.266849
936.065313,-814.226536,-8956.491898,153.219100
936.065637,-1480.411884,-8660.409521,-383.047749
936.065961,-1924.535449,-9030.512492,-306.438199
936.066285,-2072.576638,-8808.450710,459.657299
936.066609,-1702.473667,-9548.656652,0.000000
936.066933,-740.205942,-9400.615463,1072.533697
936.067257,444.123565,-8734.430116,1532.190996
936.067581,1036.288319,-9622.677246,1072.533697
936.067905,888.247130,-10066.800811,-459.657299
936.068229,518.144159,-9548.656652,919.314598
936.068554,1036.288319,-10658.965565,153.219100
936.068878,1036.288319,-10362.883188,-919.314598
936.069202,-222.061783,-9030.512492,0.000000
936.069526,-222.061783,-8734.430116,-536.266849
936.069850,0.000000,-10362.883188,-536.266849
936.070174,-1110.308913,-10066.800811,0.000000
936.070498,-2960.823768,-9474.636058,-766.095498
936.070822,-2664.741391,-8956.491898,-995.924147
936.071146,-1258.350101,-8956.491898,383.047749
936.071470,74.020594,-9918.759623,689.485948
936.071794,370.102971,-9548.656652,0.000000
936.072118,-1554.432478,-8882.471304,383.047749
936.072442,-1850.514855,-10362.883188,76.609550
936.072766,-1258.350101,-10732.986159,-1225.752797
936.073090,-962.267725,-9474.636058,0.000000
936.073414,-1036.288319,-9696.697840,-383.047749
936.073738,-740.205942,-10881.027347,-2145.067394
936.074062,-740.205942,-10510.924376,-1149.143247
936.074386,-962.267725,-10807.006753,-612.876398
936.074710,0.000000,-11251.130318,-1608.800546
936.075034,0.000000,-9474.636058,-153.219100
936.075358,666.185348,-9992.780217,383.047749
936.075682,1258.350101,-11177.109724,-76.609550
936.076006,740.205942,-11103.089130,612.876398
936.076330,-148.041188,-11547.212695,1225.752797
936.076655,-518.144159,-10955.047942,0.000000
936.076979,-296.082377,-9696.697840,536.266849
936.077303,-222.061783,-9622.677246,383.047749
936.077627,-222.061783,-10214.842000,-1225.752797
936.077951,222.061783,-9844.739029,-842.705048
936.078275,222.061783,-9918.759623,-459.657299
936.078599,814.226536,-9622.677246,-1072.533697
936.078923,1258.350101,-8290.306550,-612.876398
936.079247,1184.329507,-8660.409521,459.657299
936.079571,1258.350101,-9770.718434,-153.219100
936.079895,1110.308913,-9770.718434,766.095498
936.080219,518.144159,-9770.718434,1455.581446
936.080543,1036.288319,-9770.718434,1608.800546
936.080867,2072.576638,-8512.368333,2604.724693
936.081191,2442.679609,-8660.409521,2834.553343
936.081515,2368.659014,-9252.574275,2298.286494
936.081839,1776.494261,-8734.430116,1915.238745
936.082163,666.185348,-8512.368333,2681.334243
936.082487,0.000000,-8734.430116,153.219100
936.082811,74.020594,-7254.018232,689.485948
936.083135,296.082377,-7550.100608,1532.190996
936.083459,740.205942,-9030.512492,-536.266849
936.083783,-444.123565,-8216.285956,-153.219100
936.084107,-1480.411884,-8216.285956,-153.219100
936.084431,-740.205942,-8808.450710,-842.705048
936.084756,0.000000,-8364.327145,536.266849
936.085080,-296.082377,-8956.491898,1225.752797
936.085404,-740.205942,-9474.636058,459.657299
936.085728,-888.247130,-9326.594869,383.047749
936.086052,-1406.391290,-10140.821405,1455.581446
936.086376,-1332.370696,-10066.800811,0.000000
936.086700,-444.123565,-9548.656652,0.000000
936.087024,74.020594,-9696.697840,459.657299
936.087348,296.082377,-10510.924376,-1532.190996
936.087672,-370.102971,-10510.924376,-1608.800546
936.087997,-1110.308913,-10881.027347,-612.876398
936.088321,-740.205942,-12213.398043,-1915.238745
936.088645,74.020594,-11177.109724,-1838.629195
936.088969,518.144159,-9918.759623,-536.266849
936.089293,296.082377,-11251.130318,-1225.752797
936.089618,444.123565,-12065.356855,-2221.676944
936.089942,0.000000,-10955.047942,-1072.533697
936.090266,-1036.288319,-10288.862594,-1685.410096
936.090590,-1036.288319,-9548.656652,-1149.143247
936.090914,-592.164754,-9622.677246,-229.828649
936.091239,0.000000,-10066.800811,-536.266849
936.091563,0.000000,-9474.636058,-995.924147
936.091887,-1036.288319,-8882.471304,-766.095498
936.092211,-1258.350101,-9622.677246,-919.314598
936.092535,-666.185348,-9622.677246,-995.924147
936.092859,-222.061783,-9326.594869,0.000000
936.093184,-592.164754,-9918.759623,-1302.362347
936.093508,-1184.329507,-9770.718434,-1302.362347
936.093832,-814.226536,-10066.800811,-383.047749
936.094156,222.061783,-10732.986159,-153.219100
936.094480,444.123565,-9400.615463,-306.438199
936.094805,0.000000,-8734.430116,1149.143247
936.095129,-444.123565,-10214.842000,76.609550
936.095453,-222.061783,-10732.986159,0.000000
936.095777,-1406.391290,-9770.718434,1532.190996
936.096101,-1628.453072,-9252.574275,1762.019645
936.096426,-1184.329507,-7920.203579,229.828649
936.096750,-444.123565,-7328.038826,1608.800546
936.097074,0.000000,-7994.224174,76.609550
936.097398,-444.123565,-8216.285956,383.047749
936.097722,-1332.370696,-8290.306550,766.095498
936.098047,-518.144159,-8438.347739,-383.047749
936.098371,592.164754,-7105.977043,-612.876398
936.098695,1110.308913,-7476.080014,1149.143247
936.099019,1850.514855,-9770.718434,689.485948
936.099343,2368.659014,-10066.800811,306.438199
936.099668,1998.556043,-9252.574275,766.095498
936.099992,1480.411884,-10066.800811,919.314598
936.100316,1924.535449,-10066.800811,0.000000
936.100640,2146.597232,-9326.594869,1378.971896
936.100964,2220.617826,-10066.800811,1532.190996
936.101289,1702.473667,-10214.842000,459.657299
936.101613,296.082377,-9622.677246,0.000000
936.101937,-518.144159,-9918.759623,383.047749
936.102261,-370.102971,-9844.739029,-689.485948
936.102585,518.144159,-9178.553681,-153.219100
936.102910,148.041188,-10288.862594,-153.219100
936.103234,-296.082377,-11177.109724,-842.705048
936.103558,-740.205942,-11177.109724,229.828649
936.103882,-296.082377,-11621.233289,459.657299
936.104206,962.267725,-11843.295072,0.000000
936.104530,1406.391290,-10510.924376,1149.143247
936.104855,888.247130,-11325.150913,842.705048
936.105179,2072.576638,-11991.336260,842.705048
936.105503,1998.556043,-10807.006753,2298.286494
936.105827,1406.391290,-10658.965565,1762.019645
936.106151,0.000000,-10066.800811,229.828649
936.106476,-1036.288319,-9030.512492,383.047749
936.106800,-666.185348,-9252.574275,-229.828649
936.107124,-370.102971,-9474.636058,-383.047749
936.107448,-888.247130,-8586.388927,153.219100
936.107772,-2072.576638,-8290.306550,-76.609550
936.108097,-2516.700203,-8882.471304,-1149.143247
936.108421,-2442.679609,-7698.141797,-306.438199
936.108745,-1776.494261,-8512.368333,-153.219100
936.109069,-1258.350101,-9474.636058,-459.657299
936.109393,-148.041188,-9104.533087,536.266849
936.109718,148.041188,-8364.327145,1455.581446
936.110042,592.164754,-8808.450710,383.047749
936.110366,0.000000,-7476.080014,766.095498
936.110690,-1036.288319,-7846.182985,383.047749
936.111014,-1406.391290,-9400.615463,-1302.362347
936.111339,-1850.514855,-8660.409521,-229.828649
936.111663,-1184.329507,-8290.306550,-153.219100
936.111987,-1110.308913,-8882.471304,-1378.971896
936.112311,-1480.411884,-8438.347739,-766.095498
936.112635,-1850.514855,-9400.615463,-1532.190996
936.112960,-1628.453072,-9400.615463,-2145.067394
936.113284,-1184.329507,-8882.471304,-1149.143247
936.113608,-1110.308913,-9844.739029,-383.047749
936.113932,-740.205942,-10288.862594,-1378.971896
936.114256,74.020594,-9178.553681,-766.095498
936.114581,1036.288319,-9178.553681,459.657299
936.114905,1628.453072,-10288.862594,-842.705048
936.115229,1776.494261,-10436.903782,-536.266849
936.115553,814.226536,-10288.862594,0.000000
936.115877,370.102971,-11103.089130,-1225.752797
936.116202,740.205942,-11029.068536,-1149.143247
936.116526,888.247130,-11843.295072,-612.876398
936.116850,1110.308913,-11695.253884,-1532.190996
936.117174,1110.308913,-11695.253884,-2068.457845
936.117498,0.000000,-11177.109724,-689.485948
936.117822,370.102971,-11695.253884,-1685.410096
936.118147,814.226536,-10510.924376,-1991.848295
936.118471,370.102971,-10658.965565,-1455.581446
936.118795,888.247130,-11621.233289,-1149.143247
936.119119,1776.494261,-11325.150913,-1225.752797
936.119443,962.267725,-11399.171507,76.609550
936.119768,444.123565,-10881.027347,0.000000
936.120092,666.185348,-9844.739029,383.047749
936.120416,1184.329507,-10584.944971,1455.581446
936.120740,1998.556043,-11473.192101,1149.143247
936.121064,2072.576638,-10066.800811,1532.190996
936.121389,1406.391290,-8882.471304,1915.238745
936.121713,518.144159,-9030.512492,306.438199
936.122037,666.185348,-8216.285956,689.485948
936.122361,222.061783,-7402.059420,1455.581446
936.122685,148.041188,-8660.409521,76.609550
936.123010,-666.185348,-7698.141797,0.000000
936.123334,-1628.453072,-6661.853478,842.705048
936.123658,-740.205942,-7179.997637,306.438199
936.123982,-592.164754,-6883.915261,383.047749
936.124306,-592.164754,-6957.935855,2145.067394
936.124631,296.082377,-8290.306550,1455.581446
936.124955,518.144159,-8364.327145,1378.971896
936.125279,-148.041188,-8068.244768,2528.115143
936.125603,-962.267725,-8586.388927,1532.190996
936.125927,-962.267725,-8808.450710,1302.362347
936.126252,-740.205942,-8734.430116,1455.581446
936.126576,-592.164754,-9326.594869,306.438199
936.126900,-296.082377,-9474.636058,-612.876398
936.127224,-1036.288319,-9474.636058,-306.438199
936.127548,-1850.514855,-9992.780217,-1532.190996
936.127873,-962.267725,-9696.697840,-1762.019645
936.128197,-666.185348,-9548.656652,-536.266849
936.128521,-444.123565,-11177.109724,-995.924147
936.128845,0.000000,-10732.986159,-1225.752797
936.129169,-740.205942,-9844.739029,-153.219100
936.129494,-962.267725,-10955.047942,-689.485948
936.129818,0.000000,-11399.171507,-919.314598
936.130142,814.226536,-10658.965565,153.219100
936.130466,1036.288319,-10955.047942,229.828649
936.130790,1406.391290,-11029.068536,-459.657299
936.131114,1036.288319,-10732.986159,-306.438199
936.131439,-444.123565,-10807.006753,-1378.971896
936.131763,-888.247130,-10732.986159,-2451.505594
936.132087,-666.185348,-10214.842000,-1532.190996
936.132411,-518.144159,-11251.130318,-1149.143247
936.132735,0.000000,-11399.171507,-1762.019645
936.133060,-370.102971,-10510.924376,-919.314598
936.133384,-296.082377,-11029.068536,-1072.533697
936.133708,-296.082377,-11325.150913,-1072.533697
936.134032,0.000000,-10510.924376,459.657299
936.134356,0.000000,-10881.027347,995.924147
936.134681,74.020594,-10955.047942,383.047749
936.135005,-296.082377,-9770.718434,689.485948
936.135329,-962.267725,-9622.677246,76.609550
936.135653,-740.205942,-9400.615463,0.000000
936.135977,148.041188,-8512.368333,766.095498
936.136302,740.205942,-8808.450710,229.828649
936.136626,1036.288319,-8586.388927,-306.438199
936.136950,296.082377,-7698.141797,536.266849
936.137274,-518.144159,-8586.388927,0.000000
936.137598,0.000000,-8438.347739,-459.657299
936.137923,740.205942,-7698.141797,1225.752797
936.138247,1332.370696,-8364.327145,842.705048
936.138571,1406.391290,-8586.388927,0.000000
936.138895,740.205942,-8068.244768,919.314598
936.139219,0.000000,-8438.347739,1225.752797
936.139544,-74.020594,-8734.430116,0.000000
936.139868,-666.185348,-7698.141797,1149.143247
936.140192,-740.205942,-8734.430116,1072.533697
936.140516,74.020594,-9104.533087,-612.876398
936.140840,-370.102971,-8364.327145,536.266849
936.141165,-592.164754,-8956.491898,153.219100
936.141489,0.000000,-9548.656652,-1149.143247
936.141813,518.144159,-8586.388927,306.438199
936.142137,2072.576638,-9474.636058,76.609550
936.142461,2516.700203,-10214.842000,-1378.971896
936.142785,1480.411884,-10955.047942,-153.219100
936.143110,666.185348,-11695.253884,153.219100
936.143434,370.102971,-11251.130318,-1225.752797
936.143758,-296.082377,-8660.409521,-919.314598
936.144082,-518.144159,-9474.636058,459.657299
936.144406,666.185348,-11103.089130,-766.095498
936.144731,296.082377,-10732.986159,0.000000
936.145055,0.000000,-10584.944971,1302.362347
936.145379,0.000000,-9992.780217,-1302.362347
936.145703,0.000000,-9326.594869,-536.266849
936.146027,592.164754,-10510.924376,-229.828649
936.146352,962.267725,-11843.295072,-919.314598
936.146676,444.123565,-11325.150913,-766.095498
936.147000,-444.123565,-10658.965565,-612.876398
936.147324,-592.164754,-11029.068536,-1455.581446
936.147648,-518.144159,-10658.965565,-383.047749
936.147973,0.000000,-10881.027347,-689.485948
936.148297,-592.164754,-10955.047942,-1838.629195
936.148621,-1258.350101,-10288.862594,-689.485948
936.148945,-1776.494261,-10732.986159,0.000000
936.149269,-2220.617826,-10362.883188,-842.705048
936.149594,-1332.370696,-7772.162391,612.876398
936.149918,-592.164754,-8290.306550,1532.190996
936.150242,370.102971,-10510.924376,0.000000
936.150566,-666.185348,-9474.636058,0.000000
936.150890,-1480.411884,-7994.224174,1302.362347
936.151215,-1554.432478,-7994.224174,-766.095498
936.151539,-1406.391290,-7624.121203,-1302.362347
936.151863,-1998.556043,-8068.244768,229.828649
936.152187,-1332.370696,-8882.471304,-229.828649
936.152511,-518.144159,-8364.327145,229.828649
936.152836,-666.185348,-8364.327145,995.924147
936.153160,-962.267725,-8956.491898,306.438199
936.153484,0.000000,-8438.347739,459.657299
936.153808,-370.102971,-8438.347739,1608.800546
936.154132,0.000000,-9548.656652,919.314598
936.154457,0.000000,-9622.677246,842.705048
936.154781,-666.185348,-9400.615463,1149.143247
936.155105,-740.205942,-9178.553681,306.438199
936.155429,518.144159,-8882.471304,-229.828649
936.155753,222.061783,-8882.471304,0.000000
936.156077,74.020594,-10807.006753,-153.219100
936.156402,222.061783,-10510.924376,-306.438199
936.156726,888.247130,-9770.718434,0.000000
936.157050,1258.350101,-10584.944971,-689.485948
936.157374,1998.556043,-10066.800811,-536.266849
936.157698,1850.514855,-9770.718434,536.266849
936.158023,2368.659014,-10732.986159,-306.438199
936.158347,2590.720797,-10732.986159,-383.047749
936.158671,2442.679609,-11177.109724,766.095498
936.158995,1998.556043,-11399.171507,0.000000
936.159319,1924.535449,-10288.862594,-229.828649
936.159644,1258.350101,-10066.800811,689.485948
936.159968,1480.411884,-11177.109724,-995.924147
936.160292,1332.370696,-11103.089130,-1685.410096
936.160616,518.144159,-9400.615463,536.266849
936.160940,666.185348,-10214.842000,-536.266849
936.161265,740.205942,-9770.718434,-1378.971896
936.161589,0.000000,-8956.491898,-383.047749
936.161913,-222.061783,-9844.739029,-919.314598
936.162237,0.000000,-9992.780217,-1685.410096
936.162561,-444.123565,-9696.697840,-306.438199
936.162886,-518.144159,-10066.800811,383.047749
936.163210,0.000000,-9474.636058,-766.095498
936.163534,0.000000,-8364.327145,76.609550
936.163858,0.000000,-9252.574275,0.000000
936.164182,-148.041188,-9844.739029,153.219100
936.164507,-444.123565,-9622.677246,766.095498
936.164831,-518.144159,-10066.800811,612.876398
936.165155,-296.082377,-8290.306550,153.219100
936.165479,148.041188,-7920.203579,766.095498
936.165803,-444.123565,-9104.533087,306.438199
936.166128,-592.164754,-9326.594869,-1225.752797
936.166452,-1332.370696,-8438.347739,0.000000
936.166776,-2220.617826,-9474.636058,-919.314598
936.167100,-1998.556043,-9178.553681,-2068.457845
936.167424,-2368.659014,-8068.244768,-1072.533697
936.167748,-1628.453072,-9326.594869,-1302.362347
936.168073,-1258.350101,-9770.718434,-1608.800546
936.168397,-1554.432478,-9474.636058,-689.485948
936.168721,-1702.473667,-9548.656652,-153.219100
936.169045,-666.185348,-9474.636058,-1302.362347
936.169369,-296.082377,-8956.491898,0.000000
936.169694,0.000000,-10288.862594,383.047749
936.170018,888.247130,-11473.192101,-766.095498
936.170342,740.205942,-10214.842000,229.828649
936.170666,0.000000,-9844.739029,383.047749
936.170990,0.000000,-10658.965565,-919.314598
936.171315,666.185348,-10288.862594,-842.705048
936.171639,370.102971,-10955.047942,-383.047749
936.171963,222.061783,-10732.986159,-1455.581446
936.172287,-518.144159,-9770.718434,-536.266849
936.172611,-1406.391290,-10732.986159,-766.095498
936.172936,-1036.288319,-10510.924376,-1455.581446
936.173260,-666.185348,-9918.759623,-1225.752797
936.173584,-370.102971,-10807.006753,-766.095498
936.173908,0.000000,-11177.109724,-536.266849
936.174232,148.041188,-10214.842000,383.047749
936.174557,0.000000,-9992.780217,1225.752797
936.174881,0.000000,-10510.924376,459.657299
936.175205,1184.329507,-10140.821405,766.095498
936.175529,1110.308913,-9918.759623,612.876398
936.175853,888.247130,-9622.677246,-766.095498
936.176178,814.226536,-8882.471304,0.000000
936.176502,296.082377,-9252.574275,0.000000
936.176826,888.247130,-9548.656652,-1225.752797
936.177150,1480.411884,-8660.409521,153.219100
936.177474,814.226536,-8364.327145,459.657299
936.177799,74.020594,-9474.636058,0.000000
936.178123,592.164754,-9178.553681,459.657299
936.178447,0.000000,-8512.368333,1072.533697
936.178771,0.000000,-9474.636058,689.485948
936.179095,296.082377,-8290.306550,1149.143247
936.179420,666.185348,-8512.368333,3217.601092
936.179744,1258.350101,-9474.636058,1838.629195
936.180068,1480.411884,-8586.388927,2221.676944
936.180392,0.000000,-7624.121203,1838.629195
936.180716,-888.247130,-8216.285956,-306.438199
936.181040,-666.185348,-7920.203579,0.000000
936.181365,0.000000,-8882.471304,766.095498
936.181689,518.144159,-9326.594869,0.000000
936.182013,148.041188,-8586.388927,-229.828649
936.182337,-888.247130,-9474.636058,-229.828649
936.182661,-814.226536,-10066.800811,-1072.533697
936.182986,74.020594,-9918.759623,306.438199
936.183310,0.000000,-10584.944971,1455.581446
936.183634,74.020594,-11547.212695,459.657299
936.183958,0.000000,-10140.821405,229.828649
936.184282,-1332.370696,-9844.739029,1072.533697
936.184607,-1184.329507,-10584.944971,-689.485948
936.184931,-1258.350101,-9696.697840,-383.047749
936.185255,-296.082377,-9474.636058,689.485948
936.185579,740.205942,-10288.862594,-459.657299
936.185903,1184.329507,-9918.759623,-1302.362347
936.186228,148.041188,-10140.821405,-536.266849
936.186552,-444.123565,-11103.089130,-1378.971896
936.186876,-222.061783,-10436.903782,-1762.019645
936.187200,222.061783,-10436.903782,-919.314598
936.187524,0.000000,-10807.006753,-1378.971896
936.187848,-296.082377,-10362.883188,-1378.971896
936.188172,-962.267725,-10732.986159,-995.924147
936.188497,-1998.556043,-11251.130318,-1455.581446
936.188821,-1998.556043,-10066.800811,-1302.362347
936.189145,-1480.411884,-9474.636058,0.000000
936.189469,-1406.391290,-10436.903782,-766.095498
936.189793,-1258.350101,-10288.862594,-995.924147
936.190117,-1554.432478,-9992.780217,153.219100
936.190441,-1850.514855,-9918.759623,-1762.019645
936.190765,-888.247130,-8660.409521,-1991.848295
936.191089,-148.041188,-8660.409521,-306.438199
936.191413,814.226536,-10436.903782,-459.657299
936.191737,1628.453072,-9992.780217,0.000000
936.192062,370.102971,-9030.512492,76.609550
936.192386,-666.185348,-9770.718434,-383.047749
936.192710,-222.061783,-8734.430116,-1762.019645
936.193034,-740.205942,-8438.347739,536.266849
936.193358,-592.164754,-9326.594869,383.047749
936.193682,-296.082377,-9326.594869,0.000000
936.194006,-740.205942,-8290.306550,766.095498
936.194330,-666.185348,-8290.306550,306.438199
936.194654,1110.308913,-8512.368333,-153.219100
936.194978,1184.329507,-8142.265362,383.047749
936.195302,814.226536,-9400.615463,383.047749
936.195627,1110.308913,-9474.636058,0.000000
936.195951,1258.350101,-9326.594869,0.000000
936.196275,666.185348,-10436.903782,76.609550
936.196599,1554.432478,-10140.821405,-459.657299
936.196923,2220.617826,-9918.759623,459.657299
936.197247,1924.535449,-10436.903782,-383.047749
936.197571,2220.617826,-9844.739029,-306.438199
936.197895,1332.370696,-10214.842000,383.047749
936.198219,666.185348,-11547.212695,76.609550
936.198543,962.267725,-10436.903782,-153.219100
936.198867,962.267725,-9252.574275,459.657299
936.199192,740.205942,-9844.739029,0.000000
936.199516,1036.288319,-9548.656652,-612.876398
936.199840,1332.370696,-9030.512492,-229.828649
936.200164,518.144159,-9844.739029,229.828649
936.200488,370.102971,-9918.759623,-842.705048
936.200812,444.123565,-9474.636058,536.266849
936.201136,592.164754,-9992.780217,612.876398
936.201460,1110.308913,-10140.821405,-536.266849
936.201784,222.061783,-9252.574275,459.657299
936.202108,-1184.329507,-9844.739029,-76.609550
936.202432,-962.267725,-9696.697840,-1149.143247
936.202756,-740.205942,-9030.512492,0.000000
936.203081,-222.061783,-10066.800811,459.657299
936.203405,222.061783,-10584.944971,-612.876398
936.203729,148.041188,-10066.800811,0.000000
936.204053,-1036.288319,-9400.615463,153.219100
936.204377,-370.102971,-9844.739029,-459.657299
936.204701,-444.123565,-9178.553681,306.438199
936.205025,-518.144159,-9844.739029,76.609550
936.205349,-814.226536,-9770.718434,-766.095498
936.205673,-1332.370696,-8956.491898,-1149.143247
936.205997,-2072.576638,-9474.636058,-229.828649
936.206321,-1776.494261,-9770.718434,-1149.143247
936.206646,-444.123565,-8882.471304,0.000000
936.206970,0.000000,-8734.430116,536.266849
936.207294,74.020594,-9474.636058,-1302.362347
936.207618,-296.082377,-8660.409521,-995.924147
936.207942,-1406.391290,-8956.491898,-766.095498
936.208266,-1184.329507,-9696.697840,-1149.143247
936.208590,-222.061783,-9252.574275,-766.095498
936.208914,0.000000,-9252.574275,0.000000
936.209238,-296.082377,-9474.636058,-689.485948
936.209562,0.000000,-9326.594869,-1149.143247
936.209886,-888.247130,-10140.821405,-536.266849
936.210211,-370.102971,-11103.089130,-919.314598
936.210535,0.000000,-10584.944971,-536.266849
936.210859,0.000000,-10584.944971,153.219100
936.211183,222.061783,-10807.006753,-842.705048
936.211507,-148.041188,-10362.883188,0.000000
936.211831,-1110.308913,-11325.150913,229.828649
936.212155,-1036.288319,-11547.212695,-1149.143247
936.212479,-888.247130,-10066.800811,0.000000
936.212803,-518.144159,-9696.697840,612.876398
936.213127,0.000000,-10732.986159,-766.095498
936.213451,0.000000,-10362.883188,-229.828649
936.213776,-1036.288319,-9696.697840,383.047749
936.214100,-740.205942,-9548.656652,-766.095498
936.214424,-518.144159,-8438.347739,0.000000
936.214748,222.061783,-8142.265362,76.609550
936.215072,1628.453072,-9474.636058,383.047749
936.215396,2220.617826,-9030.512492,-306.438199
936.215720,1480.411884,-8882.471304,229.828649
936.216044,444.123565,-9178.553681,-76.609550
936.216368,1628.453072,-9474.636058,-229.828649
936.216692,1554.432478,-9474.636058,1838.629195
936.217016,1554.432478,-10362.883188,612.876398
936.217341,1332.370696,-9474.636058,76.609550
936.217665,0.000000,-9992.780217,919.314598
936.217989,0.000000,-10510.924376,0.000000
936.218313,370.102971,-9030.512492,689.485948
936.218637,740.205942,-8660.409521,1685.410096
936.218961,222.061783,-9622.677246,1072.533697
936.219285,592.164754,-10140.821405,536.266849
936.219609,222.061783,-9474.636058,842.705048
936.219933,-296.082377,-9548.656652,383.047749
936.220257,148.041188,-8956.491898,0.000000
936.220581,222.061783,-8808.450710,612.876398
936.220906,444.123565,-9622.677246,766.095498
936.221230,296.082377,-9178.553681,76.609550
936.221554,296.082377,-9326.594869,919.314598
936.221878,-148.041188,-10214.842000,383.047749
936.222202,-592.164754,-8808.450710,0.000000
936.222526,-222.061783,-8290.306550,689.485948
936.222850,518.144159,-9622.677246,919.314598
936.223174,1406.391290,-9696.697840,919.314598
936.223498,1036.288319,-9622.677246,2145.067394
936.223822,74.020594,-10436.903782,995.924147
936.224146,0.000000,-9326.594869,-383.047749
936.224470,-592.164754,-8438.347739,-689.485948
936.224795,-740.205942,-10214.842000,-536.266849
936.225119,0.000000,-10881.027347,-1455.581446
936.225443,-962.267725,-10214.842000,-612.876398
936.225767,-2368.659014,-9622.677246,-1608.800546
936.226091,-2516.700203,-9400.615463,-3217.601092
936.226415,-2294.638420,-9400.615463,-2298.286494
936.226739,-1406.391290,-10362.883188,-1532.190996
936.227063,-740.205942,-10436.903782,-1762.019645
936.227387,-1258.350101,-9696.697840,-842.705048
936.227711,-1776.494261,-10881.027347,-536.266849
936.228035,-814.226536,-11177.109724,-612.876398
936.228360,296.082377,-9400.615463,-459.657299
936.228684,148.041188,-9844.739029,-536.266849
936.229008,0.000000,-10066.800811,-1302.362347
936.229332,-444.123565,-9474.636058,-612.876398
936.229656,-740.205942,-9696.697840,-995.924147
936.229980,-1036.288319,-8956.491898,-2221.676944
936.230304,-814.226536,-8808.450710,-1532.190996
936.230628,-740.205942,-10658.965565,-1532.190996
936.230952,444.123565,-10807.006753,-1378.971896
936.231276,1332.370696,-10066.800811,0.000000
936.231600,1036.288319,-10955.047942,0.000000
936.231925,222.061783,-10214.842000,-536.266849
936.232249,370.102971,-9400.615463,153.219100
936.232573,592.164754,-10807.006753,536.266849
936.232897,888.247130,-10807.006753,0.000000
936.233221,296.082377,-8956.491898,76.609550
936.233545,-740.205942,-8364.327145,306.438199
936.233869,-814.226536,-8512.368333,-612.876398
936.234193,0.000000,-8290.306550,-612.876398
936.234517,-370.102971,-8808.450710,0.000000
936.234841,74.020594,-9918.759623,76.609550
936.235165,0.000000,-9030.512492,0.000000
936.235490,-222.061783,-8882.471304,383.047749
936.235814,814.226536,-8512.368333,0.000000
936.236138,1776.494261,-8438.347739,153.219100
936.236462,1998.556043,-9918.759623,842.705048
936.236786,1924.535449,-10584.944971,766.095498
936.237110,1702.473667,-9474.636058,612.876398
936.237434,1258.350101,-9474.636058,612.876398
936.237758,1480.411884,-9770.718434,383.047749
936.238082,1480.411884,-9252.574275,306.438199
936.238406,444.123565,-10436.903782,689.485948
936.238730,518.144159,-10807.006753,0.000000
936.239055,222.061783,-9030.512492,-229.828649
936.239379,-518.144159,-9844.739029,153.219100
936.239703,-592.164754,-10214.842000,0.000000
936.240027,0.000000,-8808.450710,229.828649
936.240351,0.000000,-9030.512492,153.219100
936.240675,-296.082377,-9992.780217,-612.876398
936.240999,-666.185348,-9844.739029,229.828649
936.241323,-962.267725,-10066.800811,689.485948
936.241647,0.000000,-9918.759623,-459.657299
936.241971,444.123565,-8364.327145,229.828649
936.242295,222.061783,-9400.615463,383.047749
936.242619,296.082377,-10807.006753,-612.876398
936.242944,518.144159,-10436.903782,76.609550
936.243268,666.185348,-10140.821405,995.924147
936.243592,1406.391290,-9992.780217,306.438199
936.243916,1110.308913,-9252.574275,-76.609550
936.244240,148.041188,-9178.553681,0.000000
936.244564,-740.205942,-9696.697840,-1149.143247
936.244888,-740.205942,-9918.759623,-1378.971896
936.245212,-1554.432478,-10140.821405,-689.485948
936.245536,-2146.597232,-9622.677246,-1532.190996
936.245860,-1850.514855,-8068.244768,-1455.581446
936.246184,-1628.453072,-9326.594869,-1149.143247
936.246509,-962.267725,-10436.903782,-1915.238745
936.246833,-592.164754,-9622.677246,-1532.190996
936.247157,-666.185348,-9992.780217,-306.438199
936.247481,-518.144159,-10510.924376,-459.657299
936.247805,962.267725,-9622.677246,306.438199
936.248129,1184.329507,-9770.718434,995.924147
936.248453,444.123565,-11029.068536,-536.266849
936.248777,148.041188,-10362.883188,-306.438199
936.249101,-1406.391290,-9770.718434,-306.438199
936.249425,-1628.453072,-10140.821405,-306.438199
936.249749,-814.226536,-9770.718434,0.000000
936.250074,-370.102971,-9400.615463,76.609550
936.250398,-814.226536,-9918.759623,-919.314598
936.250722,-1480.411884,-8586.388927,-689.485948
936.251046,-1998.556043,-8512.368333,-306.438199
936.251370,-1332.370696,-9400.615463,76.609550
936.251694,0.000000,-8660.409521,-306.438199
936.252018,740.205942,-8438.347739,919.314598
936.252342,888.247130,-10140.821405,153.219100
936.252666,1036.288319,-9844.739029,383.047749
936.252990,962.267725,-10066.800811,1455.581446
936.253314,666.185348,-10214.842000,459.657299
936.253639,888.247130,-9474.636058,0.000000
936.253963,222.061783,-9104.533087,689.485948
936.254287,740.205942,-10214.842000,383.047749
936.254611,1110.308913,-9918.759623,0.000000
936.254935,222.061783,-9622.677246,536.266849
936.255259,-592.164754,-9696.697840,229.828649
936.255583,0.000000,-8956.491898,-766.095498
936.255907,740.205942,-8808.450710,612.876398
936.256231,740.205942,-10066.800811,842.705048
936.256555,962.267725,-9696.697840,-306.438199
936.256879,370.102971,-9104.533087,229.828649
936.257204,-814.226536,-9622.677246,612.876398
936.257528,-148.041188,-9326.594869,0.000000
936.257852,888.247130,-9252.574275,766.095498
936.258176,962.267725,-10362.883188,536.266849
936.258500,888.247130,-9844.739029,459.657299
936.258824,592.164754,-8734.430116,919.314598
936.259148,222.061783,-9918.759623,1072.533697
936.259472,888.247130,-10436.903782,306.438199
936.259796,1036.288319,-9548.656652,919.314598
936.260120,0.000000,-10288.862594,153.219100
936.260444,-222.061783,-9696.697840,0.000000
936.260769,74.020594,-9474.636058,229.828649
936.261093,-1184.329507,-9918.759623,153.219100
936.261417,-1480.411884,-9400.615463,-229.828649
936.261741,-1480.411884,-9178.553681,229.828649
936.262065,-740.205942,-10140.821405,306.438199
936.262389,296.082377,-9918.759623,0.000000
936.262713,0.000000,-9030.512492,1072.533697
936.263037,-814.226536,-9474.636058,153.219100
936.263361,-296.082377,-9696.697840,-229.828649
936.263685,666.185348,-8586.388927,919.314598
936.264009,814.226536,-9474.636058,995.924147
936.264333,962.267725,-10140.821405,0.000000
936.264658,222.061783,-8808.450710,76.609550
936.264982,-592.164754,-9474.636058,76.609550
936.265306,-370.102971,-9622.677246,-766.095498
936.265630,0.000000,-9104.533087,76.609550
936.265954,-518.144159,-9844.739029,76.609550
936.266278,-592.164754,-9844.739029,-1072.533697
936.266602,-814.226536,-9474.636058,-612.876398
936.266926,-1480.411884,-10362.883188,-536.266849
936.267250,-1702.473667,-10140.821405,-919.314598
936.267574,-1480.411884,-9400.615463,0.000000
936.267898,-888.247130,-9326.594869,383.047749
936.268223,148.041188,-10214.842000,-229.828649
936.268547,0.000000,-9400.615463,76.609550
936.268871,-444.123565,-9844.739029,-306.438199
936.269195,-592.164754,-9622.677246,-1302.362347
936.269519,-444.123565,-9104.533087,-459.657299
936.269843,-518.144159,-10732.986159,0.000000
936.270167,518.144159,-10807.006753,-919.314598
936.270491,740.205942,-9622.677246,-766.095498
936.270815,-814.226536,-9696.697840,-306.438199
936.271139,-814.226536,-9992.780217,-1378.971896
936.271463,-666.185348,-8956.491898,-1225.752797
936.271788,-1036.288319,-9918.759623,612.876398
936.272112,-666.185348,-10214.842000,-153.219100
936.272436,-222.061783,-9030.512492,-229.828649
936.272760,-1110.308913,-9696.697840,229.828649
936.273084,-1036.288319,-9770.718434,-153.219100
936.273408,0.000000,-9178.553681,0.000000
936.273732,518.144159,-9400.615463,536.266849
936.274056,518.144159,-10807.006753,-689.485948
936.274380,962.267725,-9474.636058,-229.828649
936.274704,740.205942,-9844.739029,0.000000
936.275028,666.185348,-10288.862594,-689.485948
936.275353,1702.473667,-9030.512492,0.000000
936.275677,2072.576638,-9474.636058,306.438199
936.276001,1998.556043,-10658.965565,-459.657299
936.276325,1850.514855,-9622.677246,-229.828649
936.276649,740.205942,-9104.533087,459.657299
936.276973,888.247130,-9622.677246,76.609550
936.277297,740.205942,-8660.409521,612.876398
936.277621,148.041188,-8438.347739,919.314598
936.277945,-148.041188,-9474.636058,612.876398
936.278269,444.123565,-9178.553681,612.876398
936.278593,222.061783,-8956.491898,1072.533697
936.278918,-444.123565,-9326.594869,536.266849
936.279242,-296.082377,-8364.327145,766.095498
936.279566,-888.247130,-8216.285956,459.657299
936.279890,-592.164754,-10362.883188,0.000000
936.280214,148.041188,-10066.800811,0.000000
936.280538,148.041188,-10140.821405,536.266849
936.280862,0.000000,-10362.883188,766.095498
936.281186,1036.288319,-9252.574275,229.828649
936.281510,740.205942,-9696.697840,1685.410096
936.281834,0.000000,-10658.965565,153.219100
936.282158,-592.164754,-10140.821405,-153.219100
936.282483,-1480.411884,-9770.718434,229.828649
936.282807,-1480.411884,-10288.862594,-383.047749
936.283131,-666.185348,-9030.512492,0.000000
936.283455,-518.144159,-8734.430116,1072.533697
936.283779,-814.226536,-10140.821405,-229.828649
936.284103,-1332.370696,-9030.512492,-995.924147
936.284427,-1332.370696,-8808.450710,-306.438199
936.284751,-814.226536,-9844.739029,-689.485948
936.285075,592.164754,-9474.636058,-995.924147
936.285399,518.144159,-8808.450710,-306.438199
936.285723,444.123565,-10510.924376,-306.438199
936.286047,592.164754,-10955.047942,-995.924147
936.286372,222.061783,-10510.924376,0.000000
936.286696,0.000000,-10881.027347,306.438199
936.287020,74.020594,-9770.718434,-842.705048
936.287344,-148.041188,-9400.615463,-229.828649
936.287668,-814.226536,-10881.027347,0.000000
936.287992,0.000000,-10436.903782,153.219100
936.288316,0.000000,-10066.800811,536.266849
936.288640,-518.144159,-10510.924376,-536.266849
936.288964,-222.061783,-8734.430116,-383.047749
936.289288,518.144159,-8512.368333,-153.219100
936.289612,0.000000,-10436.903782,-306.438199
936.289936,-370.102971,-10584.944971,-919.314598
936.290260,-962.267725,-9548.656652,0.000000
936.290584,-962.267725,-10066.800811,76.609550
936.290908,-296.082377,-9474.636058,-766.095498
936.291232,148.041188,-8364.327145,229.828649
936.291556,-296.082377,-9474.636058,459.657299
936.291880,74.020594,-10288.862594,0.000000
936.292204,296.082377,-9326.594869,1302.362347
936.292528,0.000000,-9030.512492,1378.971896
936.292852,148.041188,-8216.285956,383.047749
936.293176,222.061783,-7698.141797,153.219100
936.293500,148.041188,-8734.430116,306.438199
936.293824,222.061783,-9400.615463,76.609550
936.294148,0.000000,-8808.450710,229.828649
936.294472,-814.226536,-9696.697840,306.438199
936.294796,-296.082377,-8660.409521,-1149.143247
936.295120,0.000000,-7846.182985,-306.438199
936.295444,444.123565,-10214.842000,76.609550
936.295768,814.226536,-11029.068536,0.000000
936.296092,740.205942,-9252.574275,229.828649
936.296416,0.000000,-9252.574275,689.485948
936.296740,296.082377,-9622.677246,689.485948
936.297064,1924.535449,-9696.697840,1149.143247
936.297388,1924.535449,-10584.944971,1225.752797
936.297712,1110.308913,-10881.027347,459.657299
936.298036,1258.350101,-9992.780217,1149.143247
936.298360,148.041188,-10288.862594,1072.533697
936.298684,-222.061783,-10214.842000,-612.876398
936.299008,-1184.329507,-8438.347739,-612.876398
936.299332,-1332.370696,-9474.636058,-995.924147
936.299656,-888.247130,-11325.150913,-1072.533697
936.299980,-296.082377,-10436.903782,-306.438199
936.300304,-444.123565,-10288.862594,153.219100
936.300628,-370.102971,-9474.636058,-229.828649
936.300952,740.205942,-9548.656652,383.047749
936.301276,1406.391290,-10510.924376,1149.143247
936.301600,1924.535449,-11695.253884,1378.971896
936.301924,1554.432478,-10658.965565,2068.457845
936.302248,814.226536,-10362.883188,1915.238745
936.302572,888.247130,-9770.718434,842.705048
936.302896,962.267725,-8512.368333,229.828649
936.303220,-740.205942,-8660.409521,-306.438199
936.303544,-2146.597232,-9326.594869,-1378.971896
936.303868,-2516.700203,-8512.368333,-1991.848295
936.304192,-2442.679609,-9178.553681,-766.095498
936.304516,-1332.370696,-9252.574275,-1302.362347
936.304840,-370.102971,-7624.121203,-1225.752797
936.305164,0.000000,-8068.244768,-229.828649
936.305488,814.226536,-10436.903782,383.047749
936.305812,1702.473667,-9844.739029,612.876398
936.306136,1406.391290,-9696.697840,2374.896044
936.306460,444.123565,-10066.800811,1378.971896
936.306784,740.205942,-8734.430116,919.314598
936.307108,370.102971,-9474.636058,1149.143247
936.307432,-74.020594,-10362.883188,0.000000
936.307756,-518.144159,-9400.615463,-536.266849
936.308080,-2146.597232,-9474.636058,-459.657299
936.308404,-2590.720797,-9474.636058,-1991.848295
936.308728,-2516.700203,-8438.347739,-1455.581446
936.309052,-2072.576638,-9622.677246,-1455.581446
936.309376,-1702.473667,-10436.903782,-1991.848295
936.309700,-1036.288319,-9770.718434,-1149.143247
936.310024,-1036.288319,-10362.883188,306.438199
936.310348,370.102971,-11547.212695,612.876398
936.310672,1702.473667,-10584.944971,919.314598
936.310996,1924.535449,-10584.944971,1991.848295
936.311320,888.247130,-11177.109724,229.828649
936.311644,296.082377,-11103.089130,842.705048
936.311968,0.000000,-10955.047942,1149.143247
936.312292,-370.102971,-10658.965565,0.000000
936.312616,-222.061783,-8438.347739,153.219100
936.312940,-222.061783,-8068.244768,459.657299
936.313264,-370.102971,-10066.800811,-766.095498
936.313588,444.123565,-9252.574275,-766.095498
936.313912,0.000000,-8882.471304,612.876398
936.314236,-592.164754,-9844.739029,-612.876398
936.314560,0.000000,-8586.388927,-766.095498
936.314884,-148.041188,-8290.306550,0.000000
936.315208,0.000000,-9770.718434,-459.657299
936.315532,666.185348,-9918.759623,-612.876398
936.315856,518.144159,-9474.636058,766.095498
936.316180,1036.288319,-10510.924376,842.705048
936.316504,2368.659014,-9548.656652,229.828649
936.316828,2368.659014,-9104.533087,919.314598
936.317152,1776.494261,-10584.944971,766.095498
936.317476,1924.535449,-9918.759623,459.657299
936.317800,740.205942,-9030.512492,1149.143247
936.318124,-296.082377,-9474.636058,459.657299
936.318448,0.000000,-8882.471304,-229.828649
936.318772,-444.123565,-8438.347739,-842.705048
936.319096,-1628.453072,-9030.512492,-536.266849
936.319420,-1480.411884,-8734.430116,-1455.581446
936.319744,-1258.350101,-9252.574275,-919.314598
936.320068,-1628.453072,-9104.533087,-459.657299
936.320392,-518.144159,-7920.203579,-306.438199
936.320716,814.226536,-8216.285956,383.047749
936.321040,1036.288319,-10288.862594,383.047749
936.321364,1850.514855,-9844.739029,612.876398
936.321688,1702.473667,-8808.450710,2145.067394
936.322012,1406.391290,-9992.780217,1455.581446
936.322336,1776.494261,-10362.883188,76.609550
936.322660,1480.411884,-9770.718434,612.876398
936.322984,740.205942,-10955.047942,-229.828649
936.323308,296.082377,-10658.965565,-1378.971896
936.323632,-1332.370696,-9400.615463,-1532.190996
936.323956,-3108.864956,-10436.903782,-2374.896044
936.324280,-2960.823768,-10288.862594,-2298.286494
936.324604,-1702.473667,-9474.636058,-1838.629195
936.324928,-1480.411884,-10658.965565,-1455.581446
936.325252,0.000000,-10658.965565,-1608.800546
936.325576,370.102971,-10066.800811,383.047749
936.325900,592.164754,-11029.068536,1455.581446
936.326224,1332.370696,-11251.130318,766.095498
936.326548,814.226536,-9030.512492,1225.752797
936.326872,-740.205942,-10214.842000,612.876398
936.327196,-370.102971,-10955.047942,76.609550
936.327521,0.000000,-10362.883188,383.047749
936.327845,-1110.308913,-9992.780217,306.438199
936.328169,-1332.370696,-8808.450710,-1149.143247
936.328493,-1258.350101,-8734.430116,-536.266849
936.328817,-1628.453072,-9400.615463,-995.924147
936.329141,-1332.370696,-9474.636058,-1838.629195
936.329465,-1110.308913,-8586.388927,153.219100
936.329789,-1480.411884,-9844.739029,459.657299
936.330113,-1332.370696,-9992.780217,76.609550
936.330437,-518.144159,-8142.265362,919.314598
936.330761,-296.082377,-9178.553681,1455.581446
936.331085,518.144159,-9992.780217,919.314598
936.331409,370.102971,-9696.697840,1378.971896
936.331733,-666.185348,-9770.718434,1302.362347
936.332057,-592.164754,-9474.636058,1072.533697
936.332381,370.102971,-8438.347739,1302.362347
936.332705,0.000000,-9696.697840,766.095498
936.333029,-296.082377,-9918.759623,0.000000
936.333353,0.000000,-8290.306550,0.000000
936.333677,0.000000,-9252.574275,383.047749
936.334001,444.123565,-9326.594869,536.266849
936.334325,1554.432478,-8734.430116,0.000000
936.334649,888.247130,-9400.615463,459.657299
936.334973,814.226536,-9622.677246,-383.047749
936.335297,888.247130,-8586.388927,0.000000
936.335621,222.061783,-9178.553681,459.657299
936.335945,444.123565,-9178.553681,536.266849
936.336269,0.000000,-7698.141797,766.095498
936.336593,370.102971,-9178.553681,1532.190996
936.336917,814.226536,-10214.842000,536.266849
936.337241,1702.473667,-9474.636058,306.438199
936.337565,1258.350101,-9770.718434,842.705048
936.337889,1036.288319,-10066.800811,383.047749
936.338213,1406.391290,-9326.594869,-306.438199
936.338537,1406.391290,-10732.986159,76.609550
936.338861,962.267725,-11029.068536,0.000000
936.339185,518.144159,-10658.965565,-766.095498
936.339509,-592.164754,-10584.944971,-689.485948
936.339833,-1332.370696,-10881.027347,-1225.752797
936.340157,-592.164754,-9770.718434,-229.828649
936.340481,148.041188,-10584.944971,842.705048
936.340805,0.000000,-10955.047942,0.000000
936.341129,0.000000,-9548.656652,0.000000
936.341453,-222.061783,-9326.594869,689.485948
936.341777,74.020594,-10584.944971,383.047749
936.342101,888.247130,-9770.718434,306.438199
936.342425,370.102971,-9400.615463,919.314598
936.342749,-370.102971,-10362.883188,0.000000
936.343073,-296.082377,-9622.677246,-383.047749
936.343397,-962.267725,-9548.656652,-306.438199
936.343721,-1406.391290,-9548.656652,-612.876398
936.344045,-814.226536,-8364.327145,-1149.143247
936.344369,-592.164754,-8438.347739,-766.095498
936.344693,-222.061783,-9696.697840,-459.657299
936.345017,370.102971,-9400.615463,-612.876398
936.345341,0.000000,-9030.512492,229.828649
936.345665,0.000000,-9844.739029,-153.219100
936.345989,-222.061783,-8734.430116,0.000000
936.346313,74.020594,-9400.615463,1225.752797
936.346637,-296.082377,-10955.047942,612.876398
936.346961,-444.123565,-9622.677246,-306.438199
936.347285,-1998.556043,-8956.491898,0.000000
936.347609,-2812.782580,-10066.800811,-1225.752797
936.347933,-1702.473667,-9400.615463,-1302.362347
936.348257,-1110.308913,-9548.656652,-153.219100
936.348581,-1406.391290,-10140.821405,-536.266849
936.348905,-1258.350101,-9770.718434,-1225.752797
936.349229,-1036.288319,-9696.697840,-766.095498
936.349553,-1036.288319,-10214.842000,-1149.143247
936.349877,74.020594,-9474.636058,-689.485948
936.350201,814.226536,-9696.697840,229.828649
936.350525,740.205942,-11177.109724,1149.143247
936.350849,2368.659014,-10807.006753,1225.752797
936.351173,2516.700203,-10510.924376,2068.457845
936.351497,444.123565,-10807.006753,0.000000
936.351821,-666.185348,-10140.821405,-612.876398
936.352145,-962.267725,-9178.553681,0.000000
936.352469,-740.205942,-10140.821405,-689.485948
936.352793,-222.061783,-9104.533087,-842.705048
936.353117,-1332.370696,-8512.368333,-612.876398
936.353441,-1776.494261,-9474.636058,-1378.971896
936.353765,0.000000,-9252.574275,-995.924147
936.354089,666.185348,-9104.533087,0.000000
936.354413,740.205942,-10510.924376,76.609550
936.354737,1776.494261,-10807.006753,76.609550
936.355061,2220.617826,-9696.697840,536.266849
936.355385,1554.432478,-10066.800811,842.705048
936.355709,1480.411884,-10214.842000,995.924147
936.356033,1776.494261,-9474.636058,995.924147
936.356357,1406.391290,-10066.800811,1302.362347
936.356681,1332.370696,-9474.636058,459.657299
936.357005,740.205942,-8882.471304,536.266849
936.357329,-1036.288319,-9178.553681,76.609550
936.357653,-1480.411884,-8216.285956,-383.047749
936.357977,-1110.308913,-7698.141797,0.000000
936.358301,-592.164754,-8808.450710,-1455.581446
936.358625,0.000000,-8660.409521,-1225.752797
936.358949,370.102971,-8808.450710,0.000000
936.359273,148.041188,-10140.821405,76.609550
936.359597,962.267725,-9548.656652,0.000000
936.359921,1036.288319,-7846.182985,766.095498
936.360245,592.164754,-9474.636058,536.266849
936.360569,1850.514855,-10362.883188,306.438199
936.360893,2590.720797,-9696.697840,995.924147
936.361217,1258.350101,-10732.986159,1378.971896
936.361541,370.102971,-10066.800811,306.438199
936.361865,-148.041188,-8364.327145,536.266849
936.362189,-1258.350101,-9622.677246,153.219100
936.362513,-1406.391290,-9918.759623,-995.924147
936.362837,-1776.494261,-8956.491898,-689.485948
936.363161,-1850.514855,-9622.677246,-689.485948
936.363485,-1702.473667,-9474.636058,-1762.019645
936.363809,-962.267725,-8586.388927,-995.924147
936.364133,-1184.329507,-9770.718434,-306.438199
936.364457,-814.226536,-10436.903782,-842.705048
936.364781,-370.102971,-9918.759623,-536.266849
936.365105,-1110.308913,-10732.986159,229.828649
936.365429,-444.123565,-11325.150913,76.609550
936.365753,370.102971,-9548.656652,306.438199
936.366077,592.164754,-10807.006753,1532.190996
936.366401,518.144159,-11547.212695,842.705048
936.366725,74.020594,-10436.903782,459.657299
936.367049,-962.267725,-10658.965565,229.828649
936.367373,-1406.391290,-10140.821405,-1532.190996
936.367697,-1480.411884,-9252.574275,-383.047749
936.368021,-1628.453072,-9918.759623,76.609550
936.368345,-1628.453072,-10510.924376,-1302.362347
936.368669,-2072.576638,-8882.471304,-919.314598
936.368993,-2738.761985,-9548.656652,-612.876398
936.369317,-2294.638420,-10584.944971,-842.705048
936.369641,-444.123565,-9326.594869,383.047749
936.369965,962.267725,-9992.780217,612.876398
936.370289,666.185348,-10362.883188,536.266849
936.370613,740.205942,-9622.677246,1762.019645
936.370937,0.000000,-10584.944971,1378.971896
936.371261,518.144159,-10436.903782,383.047749
936.371585,1406.391290,-8364.327145,612.876398
936.371909,1036.288319,-8808.450710,153.219100
936.372233,296.082377,-9844.739029,-766.095498
936.372557,74.020594,-8882.471304,459.657299
936.372881,-444.123565,-8808.450710,0.000000
936.373205,-888.247130,-9474.636058,-766.095498
936.373529,-148.041188,-8068.244768,-1225.752797
936.373853,-222.061783,-8290.306550,-153.219100
936.374177,518.144159,-9918.759623,0.000000
936.374501,1850.514855,-8956.491898,0.000000
936.374825,1406.391290,-10066.800811,536.266849
936.375149,444.123565,-9844.739029,0.000000
936.375473,1480.411884,-8216.285956,306.438199
936.375797,2590.720797,-9252.574275,1685.410096
936.376121,2812.782580,-10658.965565,1149.143247
936.376445,2368.659014,-9474.636058,229.828649
936.376769,740.205942,-8956.491898,383.047749
936.377093,-370.102971,-9992.780217,-229.828649
936.377417,814.226536,-8808.450710,-842.705048
936.377741,296.082377,-8586.388927,-766.095498
936.378065,222.061783,-9400.615463,-1225.752797
936.378389,444.123565,-8586.388927,-1455.581446
936.378713,0.000000,-8882.471304,-689.485948
936.379037,-740.205942,-10436.903782,-536.266849
936.379361,222.061783,-10436.903782,-612.876398
936.379685,1184.329507,-9548.656652,-229.828649
936.380009,962.267725,-9474.636058,-306.438199
936.380333,1332.370696,-9474.636058,383.047749
936.380657,814.226536,-10214.842000,536.266849
936.380981,-592.164754,-11621.233289,153.219100
936.381305,-444.123565,-10732.986159,0.000000
936.381629,148.041188,-9326.594869,-229.828649
936.381953,0.000000,-10436.903782,-306.438199
936.382277,-222.061783,-10214.842000,-1915.238745
936.382601,-1258.350101,-8956.491898,-1072.533697
936.382925,-2442.679609,-10955.047942,-1915.238745
936.383249,-2294.638420,-11029.068536,-1838.629195
936.383573,-1036.288319,-10066.800811,-306.438199
936.383897,74.020594,-11103.089130,0.000000
936.384221,0.000000,-10214.842000,-612.876398
936.384545,-1036.288319,-8438.347739,-1225.752797
936.384869,-2368.659014,-9474.636058,-995.924147
936.385193,-2072.576638,-10066.800811,-153.219100
936.385517,-888.247130,-9548.656652,536.266849
936.385841,-814.226536,-10140.821405,1302.362347
936.386165,-666.185348,-8882.471304,689.485948
936.386489,-888.247130,-8438.347739,229.828649
936.386813,-2368.659014,-9622.677246,0.000000
936.387137,-1998.556043,-9326.594869,0.000000
936.387461,-1184.329507,-9030.512492,1378.971896
936.387785,-1110.308913,-9474.636058,383.047749
936.388109,-962.267725,-8734.430116,-766.095498
936.388433,-888.247130,-8364.327145,0.000000
936.388757,-1036.288319,-10214.842000,-383.047749
936.389081,0.000000,-9992.780217,-612.876398
936.389405,-296.082377,-8660.409521,459.657299
936.389729,-592.164754,-8882.471304,536.266849
936.390053,0.000000,-10140.821405,-306.438199
936.390377,296.082377,-10214.842000,689.485948
936.390701,-222.061783,-10658.965565,1378.971896
936.391025,-148.041188,-10436.903782,612.876398
936.391349,444.123565,-9178.553681,1608.800546
936.391673,888.247130,-9770.718434,1302.362347
936.391998,1480.411884,-9474.636058,995.924147
936.392322,962.267725,-8882.471304,383.047749
936.392646,444.123565,-10214.842000,229.828649
936.392970,814.226536,-10066.800811,0.000000
936.393294,1406.391290,-8290.306550,76.609550
936.393618,1332.370696,-9326.594869,153.219100
936.393942,1036.288319,-10066.800811,0.000000
936.394266,814.226536,-9474.636058,-689.485948
936.394590,222.061783,-9992.780217,76.609550
936.394914,518.144159,-9770.718434,229.828649
936.395238,2220.617826,-9252.574275,383.047749
936.395562,1998.556043,-9696.697840,1378.971896
936.395886,1628.453072,-10510.924376,612.876398
936.396210,1480.411884,-10140.821405,1455.581446
936.396534,518.144159,-10510.924376,383.047749
936.396859,518.144159,-10214.842000,0.000000
936.397183,814.226536,-8364.327145,-229.828649
936.397507,1480.411884,-8808.450710,-383.047749
936.397831,148.041188,-9696.697840,-1455.581446
936.398155,-370.102971,-9326.594869,-1149.143247
936.398479,-1110.308913,-9770.718434,-459.657299
936.398803,74.020594,-10288.862594,-459.657299
936.399127,814.226536,-8734.430116,76.609550
936.399451,740.205942,-9400.615463,1608.800546
936.399775,814.226536,-10436.903782,306.438199
936.400099,888.247130,-9474.636058,306.438199
936.400423,-148.041188,-9992.780217,689.485948
936.400747,-1110.308913,-11177.109724,383.047749
936.401071,-296.082377,-9770.718434,0.000000
936.401395,-1036.288319,-8956.491898,-766.095498
936.401720,-1628.453072,-9474.636058,-2145.067394
936.402044,-2442.679609,-9030.512492,-2298.286494
936.402368,-2072.576638,-9992.780217,-1378.971896
936.402692,-1480.411884,-10881.027347,-1302.362347
936.403016,-222.061783,-8734.430116,-1149.143247
936.403340,444.123565,-8438.347739,-995.924147
936.403664,370.102971,-10362.883188,-536.266849
936.403988,1554.432478,-10214.842000,-306.438199
936.404312,1480.411884,-10807.006753,842.705048
936.404636,-148.041188,-10214.842000,612.876398
936.404960,0.000000,-9548.656652,383.047749
936.405284,-370.102971,-9178.553681,153.219100
936.405608,-1036.288319,-9622.677246,-766.095498
936.405932,-2072.576638,-8956.491898,-1072.533697
936.406257,-3478.967927,-9326.594869,-1072.533697
936.406581,-3478.967927,-9696.697840,-1838.629195
936.406905,-1776.494261,-8586.388927,-919.314598
936.407229,-592.164754,-8512.368333,0.000000
936.407553,-444.123565,-9770.718434,-536.266849
936.407877,0.000000,-9548.656652,-766.095498
936.408201,74.020594,-9696.697840,0.000000
936.408525,0.000000,-10955.047942,306.438199
936.408849,-148.041188,-10140.821405,76.609550
936.409173,222.061783,-10362.883188,306.438199
936.409497,148.041188,-10807.006753,229.828649
936.409821,74.020594,-10881.027347,153.219100
936.410145,-518.144159,-10658.965565,-229.828649
936.410469,-1702.473667,-9918.759623,-459.657299
936.410793,-740.205942,-8438.347739,-153.219100
936.411118,296.082377,-9474.636058,383.047749
936.411442,814.226536,-10584.944971,536.266849
936.411766,740.205942,-9400.615463,689.485948
936.412090,148.041188,-8290.306550,0.000000
936.412414,-370.102971,-9104.533087,-1378.971896
936.412738,296.082377,-8808.450710,-919.314598
936.413062,1406.391290,-9178.553681,153.219100
936.413386,1406.391290,-10436.903782,-383.047749
936.413710,1776.494261,-9474.636058,-306.438199
936.414034,592.164754,-9030.512492,-306.438199
936.414358,-518.144159,-10658.965565,0.000000
936.414682,370.102971,-10140.821405,-612.876398
936.415006,1332.370696,-9548.656652,612.876398
936.415330,1628.453072,-10732.986159,1149.143247
936.415654,2220.617826,-10584.944971,612.876398
936.415979,2368.659014,-9918.759623,1302.362347
936.416303,1332.370696,-10436.903782,1378.971896
936.416627,814.226536,-9844.739029,-153.219100
936.416951,296.082377,-8660.409521,-689.485948
936.417275,-814.226536,-9622.677246,-612.876398
936.417599,-444.123565,-10140.821405,-919.314598
936.417923,222.061783,-9918.759623,0.000000
936.418247,-148.041188,-9844.739029,76.609550
936.418571,296.082377,-8808.450710,-306.438199
936.418895,518.144159,-8142.265362,-153.219100
936.419219,814.226536,-9030.512492,1225.752797
936.419543,1628.453072,-9622.677246,919.314598
936.419867,2220.617826,-9400.615463,1455.581446
936.420191,814.226536,-9770.718434,1225.752797
936.420515,296.082377,-9252.574275,689.485948
936.420840,222.061783,-7920.203579,995.924147
936.421164,370.102971,-9400.615463,76.609550
936.421488,-740.205942,-9622.677246,-766.095498
936.421812,-1332.370696,-8438.347739,-1378.971896
936.422136,-2220.617826,-9030.512492,-1225.752797
936.422460,-2220.617826,-9400.615463,-1838.629195
936.422784,-1998.556043,-8808.450710,-1378.971896
936.423108,-2146.597232,-9474.636058,-919.314598
936.423432,-1258.350101,-10066.800811,-766.095498
936.423756,-518.144159,-9178.553681,-919.314598
936.424080,-962.267725,-10214.842000,-689.485948
936.424404,-1332.370696,-10658.965565,-536.266849
936.424728,-962.267725,-9622.677246,-153.219100
936.425052,-814.226536,-10807.006753,76.609550
936.425377,0.000000,-11325.150913,-229.828649
936.425701,0.000000,-10362.883188,-919.314598
936.426025,-1110.308913,-11103.089130,-229.828649
936.426349,-1406.391290,-10066.800811,-1378.971896
936.426673,-518.144159,-9474.636058,-995.924147
936.426997,-592.164754,-10436.903782,-1225.752797
936.427321,-814.226536,-10584.944971,-1302.362347
936.427645,-296.082377,-10288.862594,-842.705048
936.427969,-370.102971,-10584.944971,-229.828649
936.428293,-444.123565,-10807.006753,-919.314598
936.428617,0.000000,-10066.800811,-306.438199
936.428941,148.041188,-10288.862594,536.266849
936.429265,444.123565,-10881.027347,-459.657299
936.429589,666.185348,-9474.636058,-306.438199
936.429913,-888.247130,-9474.636058,0.000000
936.430238,-1776.494261,-10140.821405,-612.876398
936.430562,-1110.308913,-9104.533087,0.000000
936.430886,-814.226536,-9252.574275,306.438199
936.431210,-370.102971,-10140.821405,0.000000
936.431534,0.000000,-8956.491898,-306.438199
936.431858,0.000000,-9548.656652,383.047749
936.432182,814.226536,-10214.842000,306.438199
936.432506,2516.700203,-9474.636058,766.095498
936.432830,2368.659014,-9992.780217,2145.067394
936.433154,1702.473667,-10214.842000,1149.143247
936.433478,1258.350101,-9474.636058,1149.143247
936.433802,1184.329507,-9104.533087,1225.752797
936.434126,444.123565,-9252.574275,919.314598
936.434450,518.144159,-8586.388927,612.876398
936.434774,444.123565,-7994.224174,842.705048
936.435099,222.061783,-8364.327145,1149.143247
936.435423,666.185348,-7698.141797,1225.752797
936.435747,148.041188,-7846.182985,1378.971896
936.436071,148.041188,-9474.636058,612.876398
936.436395,444.123565,-8290.306550,1149.143247
936.436719,1628.453072,-8068.244768,1225.752797
936.437043,1776.494261,-9474.636058,1072.533697
936.437367,1332.370696,-9548.656652,1149.143247
936.437691,296.082377,-9474.636058,919.314598
936.438015,-518.144159,-9400.615463,306.438199
936.438339,148.041188,-8808.450710,1072.533697
936.438663,740.205942,-8882.471304,459.657299
936.438987,370.102971,-9326.594869,-536.266849
936.439311,-370.102971,-8142.265362,-842.705048
936.439635,-888.247130,-8364.327145,-229.828649
936.439960,-666.185348,-10658.965565,-383.047749
936.440284,0.000000,-10140.821405,-459.657299
936.440608,444.123565,-9400.615463,0.000000
936.440932,-222.061783,-9770.718434,-1302.362347
936.441256,-592.164754,-10658.965565,-1762.019645
936.441580,-1184.329507,-11399.171507,-1072.533697
936.441904,-1628.453072,-12287.418637,-1685.410096
936.442228,-1110.308913,-10955.047942,-2145.067394
936.442552,-370.102971,-10732.986159,-1838.629195
936.442876,0.000000,-11547.212695,-1991.848295
936.443200,444.123565,-12139.377449,-1838.629195
936.443524,-518.144159,-12139.377449,-383.047749
936.443848,-1702.473667,-12139.377449,-1608.800546
936.444172,-1480.411884,-11473.192101,-1302.362347
936.444497,-518.144159,-10881.027347,-995.924147
936.444821,0.000000,-11843.295072,-1225.752797
936.445145,888.247130,-11251.130318,-1149.143247
936.445469,74.020594,-10214.842000,-1072.533697
936.445793,-666.185348,-10066.800811,-1149.143247
936.446117,-1258.350101,-9252.574275,-995.924147
936.446441,-1036.288319,-8808.450710,-995.924147
936.446765,-962.267725,-9474.636058,-1149.143247
936.447089,-148.041188,-8956.491898,-1378.971896
936.447413,-222.061783,-8290.306550,-689.485948
936.447737,-592.164754,-8438.347739,-306.438199
936.448061,0.000000,-7994.224174,76.609550
936.448385,296.082377,-7105.977043,842.705048
936.448709,444.123565,-8660.409521,689.485948
936.449033,518.144159,-8956.491898,689.485948
936.449358,0.000000,-8364.327145,1455.581446
936.449682,-592.164754,-8364.327145,612.876398
936.450006,-296.082377,-7328.038826,995.924147
936.450330,296.082377,-7328.038826,842.705048
936.450654,0.000000,-8956.491898,689.485948
936.450978,-370.102971,-8734.430116,-1149.143247
936.451302,-1184.329507,-8068.244768,-459.657299
936.451626,-1258.350101,-9770.718434,0.000000
936.451950,148.041188,-10066.800811,-306.438199
936.452274,1184.329507,-8808.450710,-306.438199
936.452598,1110.308913,-9770.718434,919.314598
936.452922,1776.494261,-10288.862594,383.047749
936.453246,2812.782580,-10732.986159,1149.143247
936.453570,1406.391290,-11621.233289,1149.143247
936.453894,888.247130,-10288.862594,612.876398
936.454219,1480.411884,-8808.450710,229.828649
936.454543,1406.391290,-10510.924376,689.485948
936.454867,1924.535449,-10881.027347,306.438199
936.455191,1776.494261,-9622.677246,0.000000
936.455515,444.123565,-9400.615463,0.000000
936.455839,518.144159,-9992.780217,-459.657299
936.456163,592.164754,-9252.574275,-842.705048
936.456487,0.000000,-10214.842000,-383.047749
936.456811,-740.205942,-10807.006753,-459.657299
936.457135,-370.102971,-10288.862594,-766.095498
936.457459,-1036.288319,-10807.006753,-612.876398
936.457783,-518.144159,-10510.924376,-766.095498
936.458107,666.185348,-9918.759623,0.000000
936.458431,1036.288319,-11325.150913,306.438199
936.458755,740.205942,-11769.274478,459.657299
936.459080,148.041188,-10510.924376,689.485948
936.459404,-740.205942,-10510.924376,383.047749
936.459728,-296.082377,-9992.780217,-306.438199
936.460052,148.041188,-9178.553681,229.828649
936.460376,0.000000,-10066.800811,306.438199
936.460700,-592.164754,-9992.780217,-306.438199
936.461024,-888.247130,-8586.388927,-383.047749
936.461348,-2220.617826,-8290.306550,-1149.143247
936.461672,-3108.864956,-8660.409521,-2068.457845
936.461996,-2960.823768,-8142.265362,-1685.410096
936.462320,-1998.556043,-8882.471304,-229.828649
936.462644,-444.123565,-9400.615463,76.609550
936.462968,666.185348,-8142.265362,383.047749
936.463292,-888.247130,-8068.244768,229.828649
936.463617,-814.226536,-8808.450710,-383.047749
936.463941,518.144159,-8364.327145,306.438199
936.464265,666.185348,-9474.636058,1072.533697
936.464589,592.164754,-9770.718434,229.828649
936.464913,0.000000,-8660.409521,153.219100
936.465237,-666.185348,-9178.553681,306.438199
936.465561,-148.041188,-9770.718434,-536.266849
936.465885,-296.082377,-9474.636058,-689.485948
936.466209,-1110.308913,-9326.594869,-995.924147
936.466533,-1628.453072,-9474.636058,-2451.505594
936.466857,-2072.576638,-8882.471304,-2374.896044
936.467181,-2294.638420,-10288.862594,-1685.410096
936.467505,-1554.432478,-11399.171507,-1455.581446
936.467829,-296.082377,-9992.780217,-842.705048
936.468153,74.020594,-10066.800811,306.438199
936.468478,1110.308913,-11473.192101,689.485948
936.468802,2220.617826,-11547.212695,919.314598
936.469126,1628.453072,-11843.295072,1762.019645
936.469450,1110.308913,-11769.274478,1072.533697
936.469774,1258.350101,-9696.697840,-612.876398
936.470098,1184.329507,-9622.677246,229.828649
936.470422,740.205942,-10658.965565,-459.657299
936.470746,1184.329507,-11103.089130,-229.828649
936.471070,666.185348,-10658.965565,-689.485948
936.471394,-740.205942,-10584.944971,-1455.581446
936.471718,-518.144159,-8956.491898,-1685.410096
936.472042,148.041188,-8882.471304,-1072.533697
936.472366,814.226536,-10807.006753,229.828649
936.472690,1184.329507,-10362.883188,919.314598
936.473014,1628.453072,-9844.739029,1149.143247
936.473339,962.267725,-9400.615463,1762.019645
936.473663,2516.700203,-8808.450710,2451.505594
936.473987,3849.070898,-8956.491898,2451.505594
936.474311,2368.659014,-9844.739029,2068.457845
936.474635,592.164754,-8882.471304,1532.190996
936.474959,-1110.308913,-8290.306550,689.485948
936.475283,-1628.453072,-8734.430116,842.705048
936.475607,-962.267725,-7402.059420,153.219100
936.475931,0.000000,-7254.018232,0.000000
936.476255,-1036.288319,-8586.388927,-842.705048
936.476579,-1554.432478,-7476.080014,-1225.752797
936.476903,-1258.350101,-7179.997637,-689.485948
936.477227,-518.144159,-9030.512492,229.828649
936.477551,222.061783,-8586.388927,612.876398
936.477875,1332.370696,-8438.347739,2068.457845
936.478200,666.185348,-9548.656652,1532.190996
936.478524,666.185348,-10066.800811,919.314598
936.478848,814.226536,-9992.780217,1991.848295
936.479172,740.205942,-10955.047942,1991.848295
936.479496,592.164754,-11029.068536,2068.457845
936.479820,-296.082377,-9770.718434,1378.971896
936.480144,-1924.535449,-8660.409521,-1302.362347
936.480468,-2590.720797,-8364.327145,-2604.724693
936.480792,-2590.720797,-9252.574275,-2911.162892
936.481116,-1924.535449,-10732.986159,-2528.115143
936.481440,-518.144159,-10436.903782,-1302.362347
936.481764,0.000000,-9326.594869,-1072.533697
936.482088,-148.041188,-10510.924376,-1685.410096
936.482412,-444.123565,-10955.047942,-2451.505594
936.482737,-814.226536,-11251.130318,-1838.629195
936.483061,-1332.370696,-12361.439231,-1302.362347
936.483385,-814.226536,-11917.315666,-459.657299
936.483709,74.020594,-10732.986159,459.657299
936.484033,148.041188,-10807.006753,0.000000
936.484357,-148.041188,-10807.006753,-612.876398
936.484681,-740.205942,-10140.821405,-919.314598
936.485005,-1998.556043,-11103.089130,-1762.019645
936.485329,-2294.638420,-10732.986159,-1915.238745
936.485653,-1776.494261,-9326.594869,-1608.800546
936.485977,-1332.370696,-10140.821405,-1608.800546
936.486301,-666.185348,-10658.965565,-1685.410096
936.486625,74.020594,-9844.739029,-2145.067394
936.486949,-296.082377,-10140.821405,-1532.190996
936.487273,74.020594,-9030.512492,-995.924147
936.487598,1258.350101,-8364.327145,612.876398
936.487922,1776.494261,-9474.636058,1685.410096
936.488246,2368.659014,-9252.574275,383.047749
936.488570,1406.391290,-9252.574275,1149.143247
936.488894,74.020594,-9030.512492,229.828649
936.489218,-148.041188,-7698.141797,229.828649
936.489542,518.144159,-7698.141797,2221.676944
936.489866,1554.432478,-8956.491898,1378.971896
936.490190,1184.329507,-8586.388927,229.828649
936.490514,0.000000,-7550.100608,76.609550
936.490839,-1110.308913,-8068.244768,-383.047749
936.491163,-666.185348,-9844.739029,-1072.533697
936.491487,666.185348,-8660.409521,-612.876398
936.491811,1036.288319,-8290.306550,229.828649
936.492135,1406.391290,-9622.677246,612.876398
936.492459,1332.370696,-9474.636058,0.000000
936.492783,-666.185348,-10288.862594,153.219100
936.493107,0.000000,-11103.089130,536.266849
936.493432,1924.535449,-9474.636058,919.314598
936.493756,1924.535449,-9844.739029,1762.019645
936.494080,888.247130,-10140.821405,1532.190996
936.494404,740.205942,-9474.636058,1532.190996
936.494728,148.041188,-10584.944971,1072.533697
936.495052,-222.061783,-10214.842000,0.000000
936.495376,-518.144159,-8216.285956,-995.924147
936.495701,-740.205942,-8438.347739,-612.876398
936.496025,-1184.329507,-9474.636058,-1149.143247
936.496349,-296.082377,-9474.636058,-459.657299
936.496673,74.020594,-10288.862594,76.609550
936.496997,-148.041188,-10955.047942,0.000000
936.497321,592.164754,-9548.656652,-306.438199
936.497645,1036.288319,-9474.636058,0.000000
936.497969,1332.370696,-11325.150913,383.047749
936.498294,1036.288319,-11547.212695,612.876398
936.498618,-518.144159,-11325.150913,919.314598
936.498942,-2072.576638,-10881.027347,76.609550
936.499266,-1332.370696,-9400.615463,0.000000
936.499590,-888.247130,-9548.656652,-229.828649
936.499914,-1850.514855,-10807.006753,-1455.581446
936.500238,-1702.473667,-9622.677246,-1225.752797
936.500562,-1702.473667,-9474.636058,-1072.533697
936.500887,-1924.535449,-10436.903782,-612.876398
936.501211,-962.267725,-8956.491898,-383.047749
936.501535,-444.123565,-9104.533087,-153.219100
936.501859,-148.041188,-10140.821405,-766.095498
936.502183,814.226536,-9918.759623,-1225.752797
936.502507,1480.411884,-9696.697840,229.828649
936.502831,740.205942,-10584.944971,689.485948
936.503155,888.247130,-9252.574275,-153.219100
936.503480,0.000000,-8290.306550,-383.047749
936.503804,-1332.370696,-9104.533087,-1149.143247
936.504128,-1480.411884,-8956.491898,-1838.629195
936.504452,-1480.411884,-8734.430116,-995.924147
936.504776,-592.164754,-9770.718434,0.000000
936.505100,0.000000,-9104.533087,-306.438199
936.505424,814.226536,-9178.553681,766.095498
936.505748,148.041188,-10362.883188,0.000000
936.506073,0.000000,-9770.718434,-612.876398
936.506397,-148.041188,-9844.739029,-153.219100
936.506721,-888.247130,-11769.274478,612.876398
936.507045,0.000000,-11177.109724,383.047749
936.507369,444.123565,-9622.677246,76.609550
936.507693,-74.020594,-9474.636058,-229.828649
936.508017,0.000000,-9622.677246,-1072.533697
936.508341,-296.082377,-9918.759623,-919.314598
936.508666,-592.164754,-10584.944971,-459.657299
936.508990,148.041188,-9474.636058,-383.047749
936.509314,666.185348,-8512.368333,76.609550
936.509638,888.247130,-9474.636058,-229.828649
936.509962,1110.308913,-9696.697840,-306.438199
936.510286,222.061783,-9400.615463,-76.609550
936.510610,-518.144159,-10362.883188,0.000000
936.510934,740.205942,-9400.615463,-153.219100
936.511259,1480.411884,-8734.430116,153.219100
936.511583,592.164754,-9696.697840,153.219100
936.511907,592.164754,-9622.677246,-459.657299
936.512231,222.061783,-8438.347739,-153.219100
936.512555,-518.144159,-9696.697840,-995.924147
936.512879,-148.041188,-9178.553681,-689.485948
936.513203,518.144159,-8142.265362,153.219100
936.513527,444.123565,-9770.718434,459.657299
936.513852,666.185348,-10807.006753,153.219100
936.514176,1258.350101,-9918.759623,536.266849
936.514500,74.020594,-10362.883188,459.657299
936.514824,222.061783,-9622.677246,76.609550
936.515148,2072.576638,-8216.285956,153.219100
936.515472,1110.308913,-9696.697840,536.266849
936.515796,-370.102971,-10140.821405,-306.438199
936.516120,-1480.411884,-8956.491898,-153.219100
936.516445,-1554.432478,-10214.842000,-153.219100
936.516769,-296.082377,-9696.697840,-229.828649
936.517093,888.247130,-8660.409521,842.705048
936.517417,666.185348,-9918.759623,1225.752797
936.517741,962.267725,-10510.924376,1072.533697
936.518065,1258.350101,-10140.821405,1072.533697
936.518389,74.020594,-10140.821405,842.705048
936.518713,-296.082377,-9992.780217,306.438199
936.519038,0.000000,-9622.677246,612.876398
936.519362,222.061783,-10288.862594,0.000000
936.519686,74.020594,-10066.800811,-76.609550
936.520010,-592.164754,-9474.636058,-766.095498
936.520334,-2738.761985,-10362.883188,-995.924147
936.520658,-2590.720797,-9918.759623,-1762.019645
936.520982,-1184.329507,-8438.347739,-1225.752797
936.521306,-962.267725,-9326.594869,-689.485948
936.521631,-592.164754,-9844.739029,-842.705048
936.521955,666.185348,-9252.574275,0.000000
936.522279,222.061783,-9992.780217,612.876398
936.522603,0.000000,-10362.883188,842.705048
936.522927,592.164754,-9474.636058,919.314598
936.523251,148.041188,-9918.759623,919.314598
936.523575,0.000000,-9770.718434,-306.438199
936.523899,-962.267725,-9030.512492,-459.657299
936.524224,-2590.720797,-9178.553681,-766.095498
936.524548,-2442.679609,-9770.718434,-1762.019645
936.524872,-1036.288319,-8956.491898,-1302.362347
936.525196,-222.061783,-9548.656652,-1225.752797
936.525520,370.102971,-10584.944971,-1532.190996
936.525844,666.185348,-10066.800811,-383.047749
936.526168,666.185348,-11251.130318,536.266849
936.526492,666.185348,-11473.192101,306.438199
936.526817,962.267725,-9548.656652,0.000000
936.527141,1110.308913,-9400.615463,1072.533697
936.527465,1036.288319,-11325.150913,689.485948
936.527789,592.164754,-11103.089130,1149.143247
936.528113,-1258.350101,-9918.759623,919.314598
936.528437,-2442.679609,-8660.409521,-229.828649
936.528761,-2368.659014,-7402.059420,-536.266849
936.529085,-1776.494261,-8882.471304,0.000000
936.529410,-222.061783,-9918.759623,0.000000
936.529734,1110.308913,-8438.347739,383.047749
936.530058,592.164754,-7772.162391,-306.438199
936.530382,-296.082377,-8882.471304,0.000000
936.530706,296.082377,-8290.306550,0.000000
936.531030,1406.391290,-9178.553681,229.828649
936.531354,1628.453072,-10807.006753,383.047749
936.531678,2368.659014,-9992.780217,153.219100
936.532003,1776.494261,-9992.780217,689.485948
936.532327,666.185348,-10807.006753,919.314598
936.532651,1332.370696,-9696.697840,1608.800546
936.532975,2590.720797,-10288.862594,1608.800546
936.533299,1258.350101,-11029.068536,1072.533697
936.533623,0.000000,-9252.574275,612.876398
936.533947,-518.144159,-8586.388927,229.828649
936.534271,-740.205942,-10066.800811,919.314598
936.534596,592.164754,-10436.903782,459.657299
936.534920,444.123565,-9326.594869,0.000000
936.535244,-1702.473667,-8290.306550,-536.266849
936.535568,-1850.514855,-8142.265362,-612.876398
936.535892,-1850.514855,-8956.491898,-1302.362347
936.536216,-2072.576638,-9844.739029,-536.266849
936.536540,-1036.288319,-9104.533087,383.047749
936.536864,148.041188,-8882.471304,842.705048
936.537189,1110.308913,-9474.636058,995.924147
936.537513,1184.329507,-9030.512492,1225.752797
936.537837,518.144159,-9400.615463,1302.362347
936.538161,370.102971,-10436.903782,229.828649
936.538485,962.267725,-9548.656652,995.924147
936.538809,1110.308913,-9030.512492,1225.752797
936.539133,296.082377,-10288.862594,-229.828649
936.539457,-666.185348,-9622.677246,-1532.190996
936.539782,-1480.411884,-8956.491898,-1532.190996
936.540106,-1554.432478,-9548.656652,-2145.067394
936.540430,-888.247130,-9252.574275,-2374.896044
936.540754,-814.226536,-9252.574275,-1685.410096
936.541078,-1110.308913,-10214.842000,-1378.971896
936.541402,-296.082377,-10807.006753,-1762.019645
936.541726,0.000000,-10584.944971,-536.266849
936.542050,-370.102971,-10807.006753,-766.095498
936.542375,0.000000,-10288.862594,0.000000
936.542699,370.102971,-9918.759623,153.219100
936.543023,444.123565,-11399.171507,0.000000
936.543347,444.123565,-11251.130318,-383.047749
936.543671,518.144159,-11029.068536,-842.705048
936.543995,-740.205942,-11103.089130,-1225.752797
936.544319,-1036.288319,-9696.697840,-1302.362347
936.544643,-592.164754,-9104.533087,-995.924147
936.544968,-740.205942,-9844.739029,-1225.752797
936.545292,-370.102971,-9992.780217,-1072.533697
936.545616,-592.164754,-9104.533087,-766.095498
936.545940,-592.164754,-10066.800811,0.000000
936.546264,592.164754,-9918.759623,229.828649
936.546588,518.144159,-8660.409521,995.924147
936.546912,1258.350101,-9104.533087,995.924147
936.547236,1406.391290,-9918.759623,1225.752797
936.547561,1110.308913,-9622.677246,1532.190996
936.547885,0.000000,-9696.697840,1455.581446
936.548209,-740.205942,-9030.512492,919.314598
936.548533,-518.144159,-7698.141797,229.828649
936.548857,-1110.308913,-8438.347739,0.000000
936.549181,-888.247130,-8660.409521,-153.219100
936.549505,-1110.308913,-8734.430116,-383.047749
936.549829,-1036.288319,-10066.800811,766.095498
936.550154,0.000000,-9252.574275,536.266849
936.550478,962.267725,-7550.100608,306.438199
936.550802,740.205942,-9030.512492,229.828649
936.551126,0.000000,-10214.842000,0.000000
936.551450,0.000000,-9548.656652,459.657299
936.551774,0.000000,-9844.739029,766.095498
936.552098,74.020594,-9400.615463,1302.362347
936.552422,1406.391290,-8808.450710,919.314598
936.552747,814.226536,-8956.491898,383.047749
936.553071,148.041188,-9548.656652,0.000000
936.553395,0.000000,-9474.636058,-153.219100
936.553719,0.000000,-10066.800811,0.000000
936.554043,222.061783,-9474.636058,76.609550
936.554367,518.144159,-8808.450710,153.219100
936.554691,814.226536,-9622.677246,229.828649
936.555016,370.102971,-10436.903782,-612.876398
936.555340,296.082377,-10732.986159,0.000000
936.555664,-444.123565,-10658.965565,-612.876398
936.555988,-518.144159,-10510.924376,-766.095498
936.556312,0.000000,-10140.821405,-229.828649
936.556636,-296.082377,-11399.171507,0.000000
936.556960,0.000000,-11695.253884,0.000000
936.557284,-148.041188,-9622.677246,306.438199
936.557609,-888.247130,-10436.903782,153.219100
936.557933,-592.164754,-10658.965565,-153.219100
936.558257,1258.350101,-10066.800811,536.266849
936.558581,1628.453072,-10658.965565,1455.581446
936.558905,1480.411884,-11177.109724,306.438199
936.559229,592.164754,-9770.718434,459.657299
936.559553,-962.267725,-9622.677246,306.438199
936.559877,-1110.308913,-9474.636058,-1685.410096
936.560202,-222.061783,-8660.409521,-612.876398
936.560526,-296.082377,-9252.574275,-459.657299
936.560850,-444.123565,-9400.615463,-766.095498
936.561174,0.000000,-7772.162391,0.000000
936.561498,-518.144159,-8216.285956,153.219100
936.561822,-592.164754,-9474.636058,-153.219100
936.562146,-148.041188,-8956.491898,766.095498
936.562470,148.041188,-8734.430116,1378.971896
936.562795,444.123565,-9030.512492,766.095498
936.563119,-148.041188,-8068.244768,0.000000
936.563443,-1776.494261,-9104.533087,459.657299
936.563767,-2294.638420,-9696.697840,0.000000
936.564091,-1554.432478,-9252.574275,-229.828649
936.564415,-1332.370696,-8364.327145,0.000000
936.564739,-1332.370696,-9104.533087,-766.095498
936.565063,-1036.288319,-8956.491898,-536.266849
936.565388,-1628.453072,-9622.677246,0.000000
936.565712,-1776.494261,-9918.759623,-306.438199
936.566036,-518.144159,-9400.615463,76.609550
936.566360,222.061783,-9548.656652,536.266849
936.566684,222.061783,-10066.800811,536.266849
936.567008,222.061783,-9326.594869,536.266849
936.567332,-444.123565,-9326.594869,153.219100
936.567656,-1110.308913,-11473.192101,0.000000
936.567981,-222.061783,-10214.842000,-459.657299
936.568305,370.102971,-9474.636058,0.000000
936.568629,814.226536,-9696.697840,-306.438199
936.568953,1036.288319,-9548.656652,-383.047749
936.569277,1480.411884,-10807.006753,-995.924147
936.569601,296.082377,-10584.944971,-995.924147
936.569925,1776.494261,-10288.862594,76.609550
936.570249,2294.638420,-10288.862594,459.657299
936.570574,1628.453072,-11621.233289,-612.876398
936.570898,1184.329507,-10584.944971,-536.266849
936.571222,296.082377,-10955.047942,-459.657299
936.571546,-592.164754,-12435.459826,-229.828649
936.571870,0.000000,-10955.047942,0.000000
936.572194,444.123565,-9622.677246,536.266849
936.572518,962.267725,-9844.739029,612.876398
936.572842,1480.411884,-10214.842000,0.000000
936.573167,814.226536,-10362.883188,306.438199
936.573491,-592.164754,-10510.924376,842.705048
936.573815,-444.123565,-9252.574275,842.705048
936.574139,0.000000,-8290.306550,1072.533697
936.574463,-444.123565,-8734.430116,1225.752797
936.574787,0.000000,-8364.327145,0.000000
936.575111,-296.082377,-8216.285956,536.266849
936.575435,-592.164754,-9326.594869,536.266849
936.575760,0.000000,-8364.327145,612.876398
936.576084,814.226536,-7328.038826,1378.971896
936.576408,1110.308913,-7994.224174,1378.971896
936.576732,1554.432478,-7920.203579,689.485948
936.577056,888.247130,-7920.203579,536.266849
936.577380,-592.164754,-9030.512492,842.705048
936.577704,-666.185348,-8882.471304,995.924147
936.578028,-148.041188,-7402.059420,536.266849
936.578353,-962.267725,-7550.100608,229.828649
936.578677,-1258.350101,-8734.430116,-383.047749
936.579001,-1628.453072,-9770.718434,76.609550
936.579325,-1702.473667,-10214.842000,0.000000
936.579649,-962.267725,-9252.574275,-306.438199
936.579973,-444.123565,-8364.327145,-153.219100
936.580297,-1036.288319,-9844.739029,-1072.533697
936.580621,-962.267725,-10140.821405,-1608.800546
936.580946,-1332.370696,-9992.780217,-1532.190996
936.581270,-2072.576638,-11325.150913,-2298.286494
936.581594,-814.226536,-10955.047942,-1455.581446
936.581918,1036.288319,-10288.862594,0.000000
936.582242,1184.329507,-11769.274478,76.609550
936.582566,888.247130,-12361.439231,-612.876398
936.582890,296.082377,-11695.253884,-842.705048
936.583214,-740.205942,-11843.295072,-689.485948
936.583539,-518.144159,-11991.336260,-766.095498
936.583863,814.226536,-11177.109724,-536.266849
936.584187,888.247130,-10510.924376,0.000000
936.584511,370.102971,-10584.944971,-612.876398
936.584835,-222.061783,-10214.842000,-689.485948
936.585159,-1702.473667,-10881.027347,-1302.362347
936.585483,-1406.391290,-10362.883188,-1149.143247
936.585807,0.000000,-9030.512492,-536.266849
936.586132,370.102971,-9622.677246,459.657299
936.586456,296.082377,-10362.883188,-459.657299
936.586780,370.102971,-9474.636058,229.828649
936.587104,0.000000,-9326.594869,612.876398
936.587428,740.205942,-9844.739029,1302.362347
936.587752,1480.411884,-9400.615463,1532.190996
936.588076,1184.329507,-9252.574275,1378.971896
936.588400,962.267725,-8882.471304,1225.752797
936.588725,814.226536,-8660.409521,919.314598
936.589049,-444.123565,-8882.471304,153.219100
936.589373,-740.205942,-9548.656652,306.438199
936.589697,0.000000,-7402.059420,153.219100
936.590021,0.000000,-7328.038826,-612.876398
936.590345,0.000000,-7994.224174,76.609550
936.590669,148.041188,-8216.285956,383.047749
936.590993,0.000000,-9548.656652,1225.752797
936.591317,0.000000,-9548.656652,689.485948
936.591641,0.000000,-7179.997637,1149.143247
936.591965,740.205942,-8068.244768,1608.800546
936.592289,1702.473667,-9918.759623,1378.971896
936.592613,1776.494261,-9696.697840,1608.800546
936.592937,666.185348,-9400.615463,1838.629195
936.593261,-370.102971,-9548.656652,383.047749
936.593585,-592.164754,-8882.471304,0.000000
936.593909,-1258.350101,-9030.512492,-459.657299
936.594234,-2220.617826,-9474.636058,-995.924147
936.594558,-1628.453072,-9474.636058,-995.924147
936.594882,-1258.350101,-10362.883188,-536.266849
936.595206,-740.205942,-10881.027347,-229.828649
936.595530,222.061783,-9474.636058,766.095498
936.595854,814.226536,-9918.759623,1149.143247
936.596178,1554.432478,-11325.150913,306.438199
936.596502,2146.597232,-10732.986159,306.438199
936.596826,740.205942,-10955.047942,766.095498
936.597150,518.144159,-11843.295072,76.609550
936.597474,444.123565,-10584.944971,0.000000
936.597798,0.000000,-9622.677246,-459.657299
936.598122,-1184.329507,-10807.006753,-842.705048
936.598446,-1184.329507,-10584.944971,-1838.629195
936.598770,-888.247130,-10955.047942,-1225.752797
936.599094,-1036.288319,-10658.965565,-1378.971896
936.599418,-148.041188,-9770.718434,-995.924147
936.599742,0.000000,-10288.862594,-766.095498
936.600067,592.164754,-11399.171507,-536.266849
936.600391,1702.473667,-10658.965565,0.000000
936.600715,1184.329507,-10510.924376,229.828649
936.601039,-222.061783,-10436.903782,-306.438199
936.601363,0.000000,-8734.430116,0.000000
936.601687,296.082377,-8586.388927,0.000000
936.602011,0.000000,-9474.636058,-766.095498
936.602335,0.000000,-9326.594869,-306.438199
936.602659,-592.164754,-8512.368333,229.828649
936.602983,-1406.391290,-8512.368333,-459.657299
936.603307,-1850.514855,-7402.059420,-612.876398
936.603631,-1850.514855,-7105.977043,-1072.533697
936.603955,-1332.370696,-8808.450710,-689.485948
936.604279,-148.041188,-9104.533087,459.657299
936.604603,592.164754,-9104.533087,842.705048
936.604927,296.082377,-8956.491898,536.266849
936.605251,518.144159,-7550.100608,1225.752797
936.605575,592.164754,-8216.285956,536.266849
936.605899,0.000000,-9844.739029,0.000000
936.606224,-444.123565,-9474.636058,0.000000
936.606548,-962.267725,-8882.471304,536.266849
936.606872,-1332.370696,-9400.615463,76.609550
936.607196,-1184.329507,-9622.677246,383.047749
936.607520,0.000000,-9400.615463,1149.143247
936.607844,148.041188,-9844.739029,-229.828649
936.608168,0.000000,-9104.533087,-689.485948
936.608492,74.020594,-9178.553681,229.828649
936.608816,296.082377,-11177.109724,459.657299
936.609140,962.267725,-11177.109724,76.609550
936.609464,666.185348,-9030.512492,689.485948
936.609788,-444.123565,-9844.739029,0.000000
936.610112,148.041188,-10732.986159,-1149.143247
936.610436,222.061783,-10214.842000,-1149.143247
936.610760,74.020594,-11251.130318,-383.047749
936.611084,592.164754,-11547.212695,76.609550
936.611408,1628.453072,-10955.047942,-229.828649
936.611732,444.123565,-10807.006753,0.000000
936.612056,0.000000,-10510.924376,536.266849
936.612381,888.247130,-9992.780217,306.438199
936.612705,74.020594,-10955.047942,229.828649
936.613029,0.000000,-9992.780217,766.095498
936.613353,888.247130,-9474.636058,1302.362347
936.613677,518.144159,-10214.842000,153.219100
936.614001,-148.041188,-10214.842000,-842.705048
936.614325,-370.102971,-9104.533087,536.266849
936.614649,-962.267725,-10658.965565,153.219100
936.614973,-1628.453072,-9844.739029,-306.438199
936.615297,-1850.514855,-8660.409521,536.266849
936.615621,-1184.329507,-8734.430116,612.876398
936.615945,222.061783,-9326.594869,689.485948
936.616269,1110.308913,-9030.512492,919.314598
936.616593,296.082377,-7550.100608,1455.581446
936.616917,444.123565,-7846.182985,1302.362347
936.617241,518.144159,-6957.935855,306.438199
936.617565,370.102971,-7698.141797,229.828649
936.617889,370.102971,-8512.368333,229.828649
936.618213,148.041188,-8586.388927,76.609550
936.618538,-814.226536,-8660.409521,-383.047749
936.618862,-888.247130,-8438.347739,-153.219100
936.619186,-666.185348,-7994.224174,-229.828649
936.619510,-592.164754,-9474.636058,-842.705048
936.619834,148.041188,-10140.821405,153.219100
936.620158,296.082377,-9918.759623,153.219100
936.620482,222.061783,-10584.944971,0.000000
936.620806,0.000000,-10214.842000,76.609550
936.621130,-222.061783,-9770.718434,0.000000
936.621454,0.000000,-10288.862594,-612.876398
936.621778,-296.082377,-10955.047942,-1225.752797
936.622102,-518.144159,-10658.965565,-919.314598
936.622426,-1184.329507,-11177.109724,-1532.190996
936.622750,-1776.494261,-10955.047942,-1838.629195
936.623074,-1702.473667,-9918.759623,-1532.190996
936.623398,-962.267725,-10214.842000,-1378.971896
936.623722,370.102971,-11325.150913,-1302.362347
936.624046,370.102971,-10658.965565,-1455.581446
936.624371,0.000000,-10066.800811,-1685.410096
936.624695,-740.205942,-10510.924376,-995.924147
936.625019,444.123565,-10584.944971,76.609550
936.625343,1998.556043,-11251.130318,383.047749
936.625667,1998.556043,-10955.047942,0.000000
936.625991,1258.350101,-8882.471304,0.000000
936.626315,0.000000,-9622.677246,-306.438199
936.626639,-296.082377,-10510.924376,-919.314598
936.626963,148.041188,-10362.883188,-306.438199
936.627287,-666.185348,-9844.739029,-229.828649
936.627611,-888.247130,-9622.677246,-995.924147
936.627935,-888.247130,-9252.574275,-612.876398
936.628259,-962.267725,-9474.636058,0.000000
936.628583,148.041188,-9992.780217,-306.438199
936.628907,1554.432478,-9548.656652,306.438199
936.629231,1332.370696,-9178.553681,153.219100
936.629555,1036.288319,-9474.636058,689.485948
936.629879,814.226536,-8734.430116,76.609550
936.630203,-74.020594,-8290.306550,-383.047749
936.630528,-1332.370696,-8734.430116,-919.314598
936.630852,-962.267725,-8142.265362,-536.266849
936.631176,1554.432478,-8364.327145,766.095498
936.631500,2812.782580,-8956.491898,1378.971896
936.631824,4737.318029,-7105.977043,1072.533697
936.632148,3849.070898,-7179.997637,383.047749
936.632472,2072.576638,-9178.553681,0.000000
936.632796,1776.494261,-9400.615463,-383.047749
936.633120,888.247130,-9326.594869,0.000000
936.633444,148.041188,-9918.759623,-842.705048
936.633768,-222.061783,-9104.533087,-536.266849
936.634092,-296.082377,-8882.471304,-1302.362347
936.634416,-444.123565,-9474.636058,-1838.629195
936.634740,518.144159,-9548.656652,-1378.971896
936.635064,740.205942,-9400.615463,-1072.533697
936.635388,1184.329507,-10436.903782,-612.876398
936.635712,2442.679609,-10066.800811,-766.095498
936.636036,2442.679609,-9622.677246,-153.219100
936.636360,1554.432478,-11621.233289,-306.438199
936.636685,740.205942,-11547.212695,-1072.533697
936.637009,740.205942,-10214.842000,-995.924147
936.637333,1036.288319,-10955.047942,-1532.190996
936.637657,1184.329507,-10881.027347,-2604.724693
936.637981,1036.288319,-9696.697840,-2681.334243
936.638305,444.123565,-9770.718434,-3830.477490
936.638629,592.164754,-9696.697840,-4290.134789
936.638953,1036.288319,-8364.327145,-4366.744339
936.639277,2072.576638,-8586.388927,-2528.115143
936.639601,2812.782580,-10362.883188,-2374.896044
936.639925,3997.112087,-10288.862594,-1915.238745
936.640249,3256.906145,-10584.944971,-1072.533697
936.640573,2072.576638,-11473.192101,-1532.190996
936.640897,1924.535449,-10955.047942,-1838.629195
936.641221,2072.576638,-10658.965565,0.000000
936.641545,2886.803174,-11547.212695,-995.924147
936.641869,2146.597232,-10214.842000,-2068.457845
936.642193,1184.329507,-9252.574275,-2911.162892
936.642517,444.123565,-9178.553681,-3064.381992
936.642842,222.061783,-8660.409521,-4443.353888
936.643166,518.144159,-7698.141797,-4596.572988
936.643490,0.000000,-8068.244768,-3447.429741
936.643814,888.247130,-9474.636058,-3217.601092
936.644138,2516.700203,-9474.636058,-3217.601092
936.644462,3701.029710,-9918.759623,-1991.848295
936.644786,3849.070898,-10807.006753,-1762.019645
936.645110,5107.421000,-10436.903782,-1685.410096
936.645434,5403.503377,-10066.800811,-1072.533697
936.645758,5107.421000,-11029.068536,229.828649
936.646082,4589.276840,-9548.656652,-1608.800546
936.646406,3034.844362,-9030.512492,-1685.410096
936.646730,1702.473667,-9474.636058,-1762.019645
936.647054,1924.535449,-9474.636058,-2987.772442
936.647378,1702.473667,-8364.327145,-3600.648841
936.647702,-370.102971,-8068.244768,-3524.039291
936.648026,-1628.453072,-8364.327145,-3064.381992
936.648350,-962.267725,-9770.718434,-2911.162892
936.648674,-444.123565,-9030.512492,-2834.553343
936.648999,0.000000,-8438.347739,-2298.286494
936.649323,1184.329507,-9992.780217,-995.924147
936.649647,3923.091493,-10955.047942,-842.705048
936.649971,5107.421000,-9622.677246,-536.266849
936.650295,4293.194464,-8586.388927,-306.438199
936.650619,2886.803174,-9696.697840,0.000000
936.650943,3775.050304,-9844.739029,-1072.533697
936.651267,3108.864956,-8586.388927,-1608.800546
936.651591,1258.350101,-8586.388927,-2757.943793
936.651915,666.185348,-9252.574275,-3447.429741
936.652239,2220.617826,-9474.636058,-3217.601092
936.652563,3478.967927,-9400.615463,-3064.381992
936.652887,3182.885551,-9326.594869,-2987.772442
936.653211,1776.494261,-9400.615463,-1915.238745
936.653535,1332.370696,-10658.965565,-1762.019645
936.653859,2368.659014,-10362.883188,-1608.800546
936.654183,2886.803174,-9474.636058,-1685.410096
936.654507,2220.617826,-10362.883188,-1608.800546
936.654832,1554.432478,-11547.212695,-1302.362347
936.655156,1998.556043,-10732.986159,-1685.410096
936.655480,2812.782580,-9622.677246,-1225.752797
936.655804,2812.782580,-10362.883188,-2298.286494
936.656128,1110.308913,-11251.130318,-2834.553343
936.656452,-740.205942,-11029.068536,-3217.601092
936.656776,-888.247130,-10658.965565,-3294.210641
936.657100,296.082377,-10436.903782,-3217.601092
936.657424,1480.411884,-10288.862594,-3140.991542
936.657748,2368.659014,-9844.739029,-2451.505594
936.658072,3552.988522,-9474.636058,-2068.457845
936.658396,4367.215058,-9474.636058,-2068.457845
936.658720,4219.173869,-9696.697840,-1608.800546
936.659044,4515.256246,-9844.739029,-1072.533697
936.659368,5255.462188,-9770.718434,-995.924147
936.659692,5921.647536,-9622.677246,-689.485948
936.660016,4959.379811,-9548.656652,-612.876398
936.660340,2294.638420,-10066.800811,-1532.190996
936.660664,0.000000,-10066.800811,-2221.676944
936.660989,-592.164754,-8586.388927,-2451.505594
936.661313,74.020594,-7698.141797,-1915.238745
936.661637,518.144159,-8882.471304,-1532.190996
936.661961,-148.041188,-9844.739029,-2298.286494
936.662285,-1702.473667,-9474.636058,-2451.505594
936.662609,-1702.473667,-8142.265362,-2298.286494
936.662933,0.000000,-7402.059420,-995.924147
936.663257,2442.679609,-8290.306550,-842.705048
936.663581,3701.029710,-8364.327145,-995.924147
936.663905,3404.947333,-8956.491898,-1762.019645
936.664229,2368.659014,-9622.677246,-2451.505594
936.664553,1332.370696,-9992.780217,-2528.115143
936.664877,1258.350101,-10066.800811,-1532.190996
936.665201,1110.308913,-9400.615463,-1685.410096
936.665525,1554.432478,-9030.512492,-1915.238745
936.665849,1258.350101,-8290.306550,-1991.848295
936.666173,2516.700203,-9326.594869,-1532.190996
936.666497,3404.947333,-9918.759623,-1225.752797
936.666821,3552.988522,-9844.739029,-919.314598
936.667146,2220.617826,-8956.491898,-919.314598
936.667470,444.123565,-8068.244768,-1685.410096
936.667794,-74.020594,-8808.450710,-1838.629195
936.668118,-666.185348,-9844.739029,-2757.943793
936.668442,0.000000,-10140.821405,-3447.429741
936.668766,1184.329507,-10214.842000,-3524.039291
936.669090,2738.761985,-10436.903782,-3447.429741
936.669414,3701.029710,-10436.903782,-3830.477490
936.669738,3627.009116,-10658.965565,-3983.696590
936.670062,2590.720797,-10436.903782,-3830.477490
936.670386,2368.659014,-10658.965565,-3447.429741
936.670710,2738.761985,-11029.068536,-3370.820191
936.671034,3478.967927,-11399.171507,-2068.457845
936.671358,4293.194464,-11325.150913,-1608.800546
936.671682,4515.256246,-11177.109724,-1149.143247
936.672006,4515.256246,-11103.089130,-459.657299
936.672330,4071.132681,-10584.944971,-153.219100
936.672654,3478.967927,-10362.883188,-536.266849
936.672978,2294.638420,-9622.677246,-1762.019645
936.673303,1406.391290,-9622.677246,-2987.772442
936.673627,148.041188,-9474.636058,-4290.134789
936.673951,-1110.308913,-9400.615463,-5745.716235
936.674275,-2220.617826,-9104.533087,-6665.030833
936.674599,-1924.535449,-8290.306550,-6511.811733
936.674923,-666.185348,-7624.121203,-5592.497135
936.675247,2146.597232,-8216.285956,-3830.477490
936.675571,4515.256246,-9474.636058,-2374.896044
936.675895,5995.668130,-10510.924376,-842.705048
936.676219,6439.791695,-10658.965565,459.657299
936.676543,6513.812290,-10955.047942,1072.533697
936.676867,5551.544565,-11177.109724,1685.410096
936.677191,4071.132681,-11251.130318,1455.581446
936.677515,2664.741391,-11177.109724,229.828649
936.677839,1110.308913,-9992.780217,-1225.752797
936.678163,-814.226536,-9326.594869,-2681.334243
936.678487,-2664.741391,-8660.409521,-4673.182538
936.678811,-3923.091493,-8068.244768,-6128.763984
936.679136,-4737.318029,-7254.018232,-6741.640382
936.679460,-3923.091493,-6291.750507,-6435.202183
936.679784,-1628.453072,-6291.750507,-5209.449386
936.680108,1850.514855,-7105.977043,-2528.115143
936.680432,4885.359217,-8660.409521,229.828649
936.680756,7772.162391,-9918.759623,1762.019645
936.681080,8882.471304,-10288.862594,2528.115143
936.681404,8290.306550,-10732.986159,2298.286494
936.681728,7105.977043,-11621.233289,1762.019645
936.682052,5403.503377,-12435.459826,842.705048
936.682376,2960.823768,-11991.336260,-689.485948
936.682700,592.164754,-11843.295072,-1302.362347
936.683024,-2886.803174,-10510.924376,-4060.306139
936.683348,-5551.544565,-9252.574275,-5822.325785
936.683672,-6957.935855,-8068.244768,-6052.154434
936.683996,-6143.709319,-7772.162391,-5362.668486
936.684320,-3997.112087,-7476.080014,-3753.867940
936.684644,-1258.350101,-7105.977043,-1225.752797
936.684968,1702.473667,-7550.100608,0.000000
936.685293,4663.297435,-9474.636058,1532.190996
936.685617,5551.544565,-11029.068536,1762.019645
936.685941,5847.626942,-12435.459826,1915.238745
936.686265,5107.421000,-13323.706956,2528.115143
936.686589,4515.256246,-12657.521608,1072.533697
936.686913,2960.823768,-11843.295072,-459.657299
936.687237,740.205942,-12213.398043,-1608.800546
936.687561,74.020594,-11917.315666,-3677.258390
936.687885,-518.144159,-11103.089130,-4290.134789
936.688209,-148.041188,-9326.594869,-3370.820191
936.688533,666.185348,-7254.018232,-2681.334243
936.688857,1850.514855,-6217.729913,-2145.067394
936.689181,2960.823768,-6069.688724,-1762.019645
936.689505,4589.276840,-5847.626942,-842.705048
936.689830,5551.544565,-7105.977043,-612.876398
936.690154,6513.812290,-7402.059420,153.219100
936.690478,6143.709319,-9104.533087,383.047749
936.690802,5625.565159,-9622.677246,383.047749
936.691126,4367.215058,-10362.883188,-1302.362347
936.691450,2368.659014,-10955.047942,-2757.943793
936.691774,1480.411884,-10362.883188,-4136.915689
936.692098,1258.350101,-10362.883188,-3753.867940
936.692422,2072.576638,-9770.718434,-3753.867940
936.692746,1702.473667,-8660.409521,-3753.867940
936.693070,2146.597232,-8512.368333,-3600.648841
936.693394,2664.741391,-8364.327145,-3524.039291
936.693719,2886.803174,-8216.285956,-2451.505594
936.694043,2812.782580,-8512.368333,-2145.067394
936.694367,3552.988522,-8882.471304,-2298.286494
936.694691,4145.153275,-9474.636058,-1532.190996
936.695015,4071.132681,-10436.903782,-1608.800546
936.695339,3256.906145,-11029.068536,-1685.410096
936.695663,2146.597232,-11177.109724,-3140.991542
936.695987,1036.288319,-10732.986159,-3983.696590
936.696311,0.000000,-10510.924376,-4979.620737
936.696635,-518.144159,-10732.986159,-5745.716235
936.696959,-1406.391290,-10140.821405,-6205.373534
936.697283,-2146.597232,-9622.677246,-6588.421283
936.697607,-2072.576638,-9770.718434,-5515.887586
936.697931,-888.247130,-9844.739029,-4826.401637
936.698255,1332.370696,-9548.656652,-3677.258390
936.698579,3775.050304,-10140.821405,-2374.896044
936.698903,5995.668130,-10807.006753,-1762.019645
936.699227,7105.977043,-11843.295072,-995.924147
936.699551,6809.894666,-12583.501014,-612.876398
936.699875,5181.441594,-12435.459826,-919.314598
936.700199,2368.659014,-12139.377449,-2374.896044
936.700523,-740.205942,-11769.274478,-3753.867940
936.700847,-3478.967927,-11029.068536,-5132.839837
936.701171,-4145.153275,-10362.883188,-5669.106685
936.701495,-2960.823768,-9474.636058,-5592.497135
936.701819,-962.267725,-8068.244768,-4903.011187
936.702143,1036.288319,-7476.080014,-4136.915689
936.702467,1776.494261,-7772.162391,-3370.820191
936.702791,2368.659014,-8586.388927,-2451.505594
936.703116,2442.679609,-8808.450710,-1608.800546
936.703440,3182.885551,-9104.533087,-689.485948
936.703764,4737.318029,-9474.636058,383.047749
936.704088,7328.038826,-9918.759623,689.485948
936.704412,7328.038826,-9918.759623,536.266849
936.704736,6069.688724,-10362.883188,459.657299
936.705060,3478.967927,-9844.739029,-842.705048
936.705384,222.061783,-9474.636058,-1915.238745
936.705708,-1480.411884,-8586.388927,-2528.115143
936.706032,-1998.556043,-7550.100608,-2834.553343
936.706356,-1406.391290,-6587.832884,-3217.601092
936.706680,-888.247130,-6957.935855,-3217.601092
936.707004,-296.082377,-7328.038826,-3064.381992
936.707328,-592.164754,-7550.100608,-1915.238745
936.707652,370.102971,-7698.141797,-459.657299
936.707976,2220.617826,-7772.162391,306.438199
936.708300,4663.297435,-8660.409521,919.314598
936.708624,5773.606348,-9844.739029,1149.143247
936.708948,6291.750507,-11103.089130,1302.362347
936.709272,5699.585753,-11473.192101,612.876398
936.709596,4737.318029,-11103.089130,0.000000
936.709920,3775.050304,-9400.615463,-612.876398
936.710244,2960.823768,-9030.512492,-1991.848295
936.710568,1184.329507,-9474.636058,-3370.820191
936.710892,-1184.329507,-10214.842000,-4443.353888
936.711216,-2146.597232,-10214.842000,-4136.915689
936.711540,-888.247130,-9696.697840,-4213.525239
936.711864,1480.411884,-9474.636058,-2834.553343
936.712188,4071.132681,-9474.636058,-1455.581446
936.712513,4663.297435,-9992.780217,-1302.362347
936.712837,4219.173869,-11177.109724,-1149.143247
936.713161,4145.153275,-12065.356855,-919.314598
936.713485,5033.400406,-12583.501014,-229.828649
936.713809,5107.421000,-12435.459826,153.219100
936.714133,3330.926739,-12361.439231,0.000000
936.714457,296.082377,-11695.253884,-1915.238745
936.714781,-740.205942,-11177.109724,-2987.772442
936.715105,-1184.329507,-10436.903782,-3983.696590
936.715429,-1036.288319,-9622.677246,-4290.134789
936.715753,-666.185348,-9104.533087,-3677.258390
936.716077,0.000000,-8438.347739,-3294.210641
936.716401,1110.308913,-9030.512492,-2757.943793
936.716725,1924.535449,-9992.780217,-2757.943793
936.717049,1850.514855,-9326.594869,-2145.067394
936.717373,2294.638420,-9104.533087,-2068.457845
936.717697,3182.885551,-9696.697840,-1225.752797
936.718021,4071.132681,-9992.780217,-1072.533697
936.718345,4589.276840,-9992.780217,-766.095498
936.718669,4145.153275,-10288.862594,-459.657299
936.718993,4145.153275,-10288.862594,-383.047749
936.719317,3478.967927,-9326.594869,-689.485948
936.719641,814.226536,-7846.182985,-1455.581446
936.719965,-2072.576638,-7624.121203,-2528.115143
936.720289,-2516.700203,-7920.203579,-2911.162892
936.720613,-740.205942,-7994.224174,-2451.505594
936.720937,148.041188,-6661.853478,-2681.334243
936.721261,-370.102971,-6291.750507,-2528.115143
936.721585,-518.144159,-7402.059420,-2221.676944
936.721910,1850.514855,-8142.265362,-2451.505594
936.722234,3478.967927,-7698.141797,-2528.115143
936.722558,3034.844362,-8142.265362,-2451.505594
936.722882,2590.720797,-9992.780217,-3140.991542
936.723206,3404.947333,-10732.986159,-3600.648841
936.723530,5329.482782,-10214.842000,-1455.581446
936.723854,6069.688724,-10510.924376,-1378.971896
936.724178,5625.565159,-11621.233289,-2298.286494
936.724502,3775.050304,-11621.233289,-2681.334243
936.724826,2220.617826,-10362.883188,-2757.943793
936.725150,1332.370696,-10288.862594,-3140.991542
936.725474,1332.370696,-11325.150913,-2451.505594
936.725798,1258.350101,-11473.192101,-2221.676944
936.726122,1036.288319,-10732.986159,-2451.505594
936.726446,592.164754,-9474.636058,-2911.162892
936.726770,1332.370696,-10214.842000,-2911.162892
936.727094,1258.350101,-10732.986159,-3064.381992
936.727418,0.000000,-10955.047942,-3217.601092
936.727742,-962.267725,-10362.883188,-4366.744339
936.728066,-1332.370696,-10436.903782,-3907.087040
936.728390,666.185348,-11103.089130,-4060.306139
936.728714,1924.535449,-11843.295072,-3524.039291
936.729038,1776.494261,-11917.315666,-2911.162892
936.729362,1776.494261,-10436.903782,-2757.943793
936.729686,2368.659014,-9400.615463,-2451.505594
936.730010,3478.967927,-9770.718434,-1378.971896
936.730334,4737.318029,-10732.986159,-229.828649
936.730658,5403.503377,-10955.047942,153.219100
936.730982,3108.864956,-10140.821405,-689.485948
936.731307,740.205942,-10288.862594,612.876398
936.731631,-296.082377,-10584.944971,229.828649
936.731955,-518.144159,-9696.697840,-383.047749
936.732279,-1702.473667,-7920.203579,-919.314598
936.732603,-2590.720797,-7624.121203,-1685.410096
936.732927,-2368.659014,-7624.121203,-2374.896044
936.733251,-2664.741391,-7179.997637,-2221.676944
936.733575,-3627.009116,-7402.059420,-2068.457845
936.733899,-3701.029710,-6291.750507,-2834.553343
936.734223,-1924.535449,-6291.750507,-2068.457845
936.734547,-370.102971,-9178.553681,153.219100
936.734871,2146.597232,-10881.027347,306.438199
936.735195,3923.091493,-9770.718434,1608.800546
936.735519,3849.070898,-10140.821405,4060.306139
936.735843,4515.256246,-12287.418637,3983.696590
936.736167,4515.256246,-11843.295072,3217.601092
936.736491,2738.761985,-10732.986159,4596.572988
936.736815,1702.473667,-11177.109724,1762.019645
936.737139,666.185348,-9326.594869,-612.876398
936.737463,-1110.308913,-7698.141797,-229.828649
936.737787,-2590.720797,-9400.615463,-1072.533697
936.738111,-1554.432478,-9104.533087,-2145.067394
936.738435,-2812.782580,-7105.977043,-1225.752797
936.738759,-4219.173869,-9104.533087,0.000000
936.739083,-4811.338623,-9992.780217,-1838.629195
936.739407,-3627.009116,-8956.491898,-153.219100
936.739731,-1628.453072,-9400.615463,2298.286494
936.740055,1776.494261,-10510.924376,2068.457845
936.740379,3478.967927,-10732.986159,3294.210641
936.740704,3108.864956,-11547.212695,4596.572988
936.741028,2886.803174,-10658.965565,2757.943793
936.741352,1036.288319,-9030.512492,2145.067394
936.741676,-1776.494261,-9104.533087,995.924147
936.742000,-2886.803174,-8660.409521,-1991.848295
